"rt","url","trial_type","trial_index","time_elapsed","internal_node_id","participant_id","stimulus","button_pressed","Name","responses","response","key_press","variableName","fixationTime","condition","trial","photo","subjectRating","subjectResponse","agentsNames","agent_1_Response","agent_2_Response","agent_3_Response","agent_4_Response","agent_5_Response","agent_6_Response","kept_1_name","kept_1_response","kept_2_name","kept_2_response","kept_3_name","kept_3_response","errorCounter"
"8206","external_page_harvard.html","external-html","0","8366","0.0-0.0","A2XS2OFYZKF9UW","","","","","","","","","","","","","","","","","","","","","","","","","","",""
"1520","","image-button-response","1","9891","0.0-1.0","A2XS2OFYZKF9UW","","0","","","","","","","","","","","","","","","","","","","","","","","","",""
"2096","","image-button-response","2","12006","0.0-2.0-0.0","A2XS2OFYZKF9UW","","1","phone","","","","","","","","","","","","","","","","","","","","","","","",""
"2704","","survey-text","3","14714","0.0-3.0-0.0","A2XS2OFYZKF9UW","","","","{""Q0"":""A2XS2OFYZKF9UW""}","","","","","","","","","","","","","","","","","","","","","","",""
"2926","","image-button-response_instructions","4","17648","0.0-4.0","A2XS2OFYZKF9UW","","0","instructions","","","","","","","","","","","","","","","","","","","","","","","",""
"7616","","image-button-response_instructions","5","25266","0.0-5.0","A2XS2OFYZKF9UW","img_art/ins/popularity/ins1.png","0","instructions","","","","","","","","","","","","","","","","","","","","","","","",""
"2960","","image-button-response_instructions","6","28230","0.0-6.0","A2XS2OFYZKF9UW","img_art/ins/popularity/ins2.png","0","instructions","","","","","","","","","","","","","","","","","","","","","","","",""
"4565","","image-button-response_instructions","7","32800","0.0-7.0","A2XS2OFYZKF9UW","img_art/ins/popularity/ins2Extreme.png","0","instructions","","","","","","","","","","","","","","","","","","","","","","","",""
"5164","","image-button-response_instructions","8","37969","0.0-8.0","A2XS2OFYZKF9UW","img_art/ins/popularity/ins3KEEPpop.PNG","0","instructions","","","","","","","","","","","","","","","","","","","","","","","",""
"2208","","image-button-response_instructions","9","40180","0.0-9.0","A2XS2OFYZKF9UW","img_art/ins/popularity/ins3ANamepop.PNG","0","instructions","","","","","","","","","","","","","","","","","","","","","","","",""
"2191","","image-button-response_instructions","10","42375","0.0-10.0","A2XS2OFYZKF9UW","img_art/ins/popularity/ins3ARatingpop.png","0","instructions","","","","","","","","","","","","","","","","","","","","","","","",""
"1264","","image-button-response_instructions","11","43642","0.0-11.0","A2XS2OFYZKF9UW","img_art/ins/popularity/ins3ATextpop.png","0","instructions","","","","","","","","","","","","","","","","","","","","","","","",""
"6105","","image-button-response_instructions","12","49750","0.0-12.0","A2XS2OFYZKF9UW","img_art/ins/popularity/ins3ALikespop.png","0","instructions","","","","","","","","","","","","","","","","","","","","","","","",""
"11346","","image-button-response_instructions","13","61099","0.0-13.0","A2XS2OFYZKF9UW","img_art/ins/popularity/ins3KEEPpop.PNG","0","instructions","","","","","","","","","","","","","","","","","","","","","","","",""
"6520","","image-button-response_instructions","14","67621","0.0-14.0","A2XS2OFYZKF9UW","img_art/ins/popularity/ins3_5RED.png","0","instructions","","","","","","","","","","","","","","","","","","","","","","","",""
"3435","","image-button-response_instructions","15","71059","0.0-15.0","A2XS2OFYZKF9UW","img_art/ins/popularity/ins3KEEPpop.PNG","0","instructions","","","","","","","","","","","","","","","","","","","","","","","",""
"6698","","image-button-response_instructions","16","77759","0.0-16.0","A2XS2OFYZKF9UW","img_art/ins/popularity/ins4KEEPpop.PNG","0","instructions","","","","","","","","","","","","","","","","","","","","","","","",""
"4228","","image-button-response_instructions","17","81989","0.0-17.0","A2XS2OFYZKF9UW","img_art/ins/popularity/ins5KEEPpop.PNG","0","instructions","","","","","","","","","","","","","","","","","","","","","","","",""
"1608","","image-button-response_instructions","18","83600","0.0-18.0","A2XS2OFYZKF9UW","","0","instructions","","","","","","","","","","","","","","","","","","","","","","","",""
"4523","","survey-text","19","88175","0.0-19.0-0.0","A2XS2OFYZKF9UW","","","","{""Q0"":""but""}","","","","","","","","","","","","","","","","","","","","","","",""
"20692","","survey-text","20","108870","0.0-20.0-0.0","A2XS2OFYZKF9UW","","","","{""Q0"":""Looks like paint got spilled on canvas""}","","","","","","","","","","","","","","","","","","","","","","",""
"5014.5","","image-slider-response","21","113893","0.0-21.0","A2XS2OFYZKF9UW","","","","","-20","","","","","","","","","","","","","","","","","","","","","",""
"null","","image-button-response","22","118916","0.0-22.0","A2XS2OFYZKF9UW","img_art/ins/1.jpg","null","","","","","","","","","","","","","","","","","","","","","","","","",""
"4945","","image-button-response","23","123866","0.0-23.0","A2XS2OFYZKF9UW","img_art/ins/1.jpg","4","","","","","","","","","","","","","","","","","","","","","","","","",""
"948","","image-button-response","24","124820","0.0-24.0-0.0","A2XS2OFYZKF9UW","img_art/ins/1.jpg","3","","","","","","","","","","","","","","","","","","","","","","","","",""
"2578","","image-button-response","25","127406","0.0-25.0-0.0","A2XS2OFYZKF9UW","img_art/ins/1.jpg","0","","","","","","","","","","","","","","","","","","","","","","","","",""
"null","","html-keyboard-response","26","128912","0.0-26.0","A2XS2OFYZKF9UW","<p style=""font-size: 48px;"">+</p>","","","","","null","allTrialResponses","1500","1","-2","img_art/ins/1.jpg","-20","Looks like paint got spilled on canvas","Adam,Alex,Ben,Carl,Daniel,Jack","Seems like doodles,-20,20,20","very creative work.,36,40,20","This color reminds me of poo,-46,60,20","very calming artwork,42,80,20","It looks like a murder scene.,-48,100,20","I like the sophisticated brushwork,40,120,20","Daniel","It looks like a murder scene.,-48,100,20","Carl","very calming artwork,42,80,20","Adam","Seems like doodles,-20,20,20","0"
"34632","","survey-text","27","163563","0.0-27.0-0.0","A2XS2OFYZKF9UW","","","","{""Q0"":""Reminds me of an aerial view of property""}","","","","","","","","","","","","","","","","","","","","","","",""
"3845.2999999523163","","image-slider-response","28","167413","0.0-28.0","A2XS2OFYZKF9UW","","","","","7","","","","","","","","","","","","","","","","","","","","","",""
"null","","image-button-response","29","172438","0.0-29.0","A2XS2OFYZKF9UW","img_art/ins/2.jpg","null","","","","","","","","","","","","","","","","","","","","","","","","",""
"31498","","image-button-response","30","203941","0.0-30.0","A2XS2OFYZKF9UW","img_art/ins/2.jpg","2","","","","","","","","","","","","","","","","","","","","","","","","",""
"5752","","image-button-response","31","209699","0.0-31.0-0.0","A2XS2OFYZKF9UW","img_art/ins/2.jpg","3","","","","","","","","","","","","","","","","","","","","","","","","",""
"2732","","image-button-response","32","212439","0.0-32.0-0.0","A2XS2OFYZKF9UW","img_art/ins/2.jpg","1","","","","","","","","","","","","","","","","","","","","","","","","",""
"null","","html-keyboard-response","33","213444","0.0-33.0","A2XS2OFYZKF9UW","<p style=""font-size: 48px;"">+</p>","","","","","null","allTrialResponses","1000","1","-1","img_art/ins/2.jpg","7","Reminds me of an aerial view of property","Adam,James,John,Carl,Daniel,Kyle","too much color,-18,20,20","looks too angry,-50,140,20","love the texture of paint,48,160,20","I can feel the artist's passion in it,45,80,20","One of my pet peevs,-48,100,20","Idk, it is just annoying,-32,180,20","John","love the texture of paint,48,160,20","Carl","I can feel the artist's passion in it,45,80,20","James","looks too angry,-50,140,20","0"
"21845","","survey-text","34","235306","0.0-34.0-0.0","A2XS2OFYZKF9UW","","","","{""Q0"":""Love the arctic color scheme""}","","","","","","","","","","","","","","","","","","","","","","",""
"3319.5","","image-slider-response","35","238631","0.0-35.0","A2XS2OFYZKF9UW","","","","","35","","","","","","","","","","","","","","","","","","","","","",""
"null","","image-button-response","36","243652","0.0-36.0","A2XS2OFYZKF9UW","img_art/ins/3.jpg","null","","","","","","","","","","","","","","","","","","","","","","","","",""
"157122","","image-button-response","37","400779","0.0-37.0","A2XS2OFYZKF9UW","img_art/ins/3.jpg","0","","","","","","","","","","","","","","","","","","","","","","","","",""
"1932","","image-button-response","38","402717","0.0-38.0-0.0","A2XS2OFYZKF9UW","img_art/ins/3.jpg","2","","","","","","","","","","","","","","","","","","","","","","","","",""
"3135","","image-button-response","39","405860","0.0-39.0-0.0","A2XS2OFYZKF9UW","img_art/ins/3.jpg","5","","","","","","","","","","","","","","","","","","","","","","","","",""
"null","","html-keyboard-response","40","406367","0.0-40.0","A2XS2OFYZKF9UW","<p style=""font-size: 48px;"">+</p>","","","","","null","allTrialResponses","500","1","0","img_art/ins/3.jpg","35","Love the arctic color scheme","Mike,James,John,Carl,Ron,Sam","enjoy the different shades of blue,22,200,20","My worst nightmare,-42,140,20","I like the overlapping of brushes,41,160,20","It's an alright work,15,80,20","It looks depressing,-26,220,20","I can feel a rainy day from this painting,18,240,20","Mike","enjoy the different shades of blue,22,200,20","John","I like the overlapping of brushes,41,160,20","Sam","I can feel a rainy day from this painting,18,240,20","0"
"4494","","image-button-response_instructions","41","410881","0.0-41.0","A2XS2OFYZKF9UW","","0","instructions","","","","","","","","","","","","","","","","","","","","","","","",""
"6252","","survey-likert","42","417138","0.0-42.0-0.0","A2XS2OFYZKF9UW","","","","{""Q0"":"""",""Q1"":0,""Q2"":1}","","","","","","","","","","","","","","","","","","","","","","",""
"3421","","survey-text","43","420582","0.0-43.0-0.0","A2XS2OFYZKF9UW","","","","{""Q0"":""rock""}","","","","","","","","","","","","","","","","","","","","","","",""
"7874","","survey-text","44","428460","0.0-44.0-0.0","A2XS2OFYZKF9UW","","","","{""Q0"":""Seems incomplete""}","","","","","","","","","","","","","","","","","","","","","","",""
"3200.2999999523163","","image-slider-response","45","431666","0.0-45.0","A2XS2OFYZKF9UW","","","","","-8","","","","","","","","","","","","","","","","","","","","","",""
"null","","image-button-response","46","436763","0.0-46.0","A2XS2OFYZKF9UW","img_art/26.jpg","null","","","","","","","","","","","","","","","","","","","","","","","","",""
"8829","","image-button-response","47","445597","0.0-47.0","A2XS2OFYZKF9UW","img_art/26.jpg","0","","","","","","","","","","","","","","","","","","","","","","","","",""
"4962","","image-button-response","48","450566","0.0-48.0-0.0","A2XS2OFYZKF9UW","img_art/26.jpg","5","","","","","","","","","","","","","","","","","","","","","","","","",""
"2443","","image-button-response","49","453016","0.0-49.0-0.0","A2XS2OFYZKF9UW","img_art/26.jpg","4","","","","","","","","","","","","","","","","","","","","","","","","",""
"null","","html-keyboard-response","50","453527","0.0-50.0","A2XS2OFYZKF9UW","<p style=""font-size: 48px;"">+</p>","","","","","null","allTrialResponses","500","1","1","img_art/26.jpg","-8","Seems incomplete","Samuel,Taylor,Dakota,Brett,Steven,Bradley","reminds me of a hometown,7,400,20","At least it is a bit of scenery.,10,200,20","juvenile, faint and weak,-41,280,20","Picturesque little town,45,360,20","This one is nicer, looks like a walk in a small, dreamy city,20,160,20","I like this. Looks like a city street and I can use my imagination to make it come alive.,15,300,20","Samuel","reminds me of a hometown,7,400,20","Bradley","I like this. Looks like a city street and I can use my imagination to make it come alive.,15,300,20","Steven","This one is nicer, looks like a walk in a small, dreamy city,20,160,20","0"
"23067","","survey-text","51","476610","0.0-51.0-0.0","A2XS2OFYZKF9UW","","","","{""Q0"":""The face in corner is unique""}","","","","","","","","","","","","","","","","","","","","","","",""
"3160.2999999523163","","image-slider-response","52","479776","0.0-52.0","A2XS2OFYZKF9UW","","","","","19","","","","","","","","","","","","","","","","","","","","","",""
"4355","","image-button-response","53","484788","0.0-53.0","A2XS2OFYZKF9UW","img_art/8.jpg","0","","","","","","","","","","","","","","","","","","","","","","","","",""
"1568","","image-button-response","54","486362","0.0-54.0","A2XS2OFYZKF9UW","img_art/8.jpg","0","","","","","","","","","","","","","","","","","","","","","","","","",""
"5278","","image-button-response","55","491645","0.0-55.0-0.0","A2XS2OFYZKF9UW","img_art/8.jpg","3","","","","","","","","","","","","","","","","","","","","","","","","",""
"2851","","image-button-response","56","494505","0.0-56.0-0.0","A2XS2OFYZKF9UW","img_art/8.jpg","5","","","","","","","","","","","","","","","","","","","","","","","","",""
"null","","html-keyboard-response","57","495509","0.0-57.0","A2XS2OFYZKF9UW","<p style=""font-size: 48px;"">+</p>","","","","","null","allTrialResponses","1000","1","2","img_art/8.jpg","19","The face in corner is unique","Samuel,Seth,Derek,Christian,Steven,Bradley","being watched over,17,400,20","I don't care for the piece, but I appreciate the talent that it took to create it.,22,60,20","It's simply gorgeous. This artist is very talented,50,360,20","gives off inception vibes <3,50,140,20","very nice, i love what's going on here,21,160,20","Interesting but it has a bit of a dark feel to it.,6,300,20","Samuel","being watched over,17,400,20","Christian","gives off inception vibes <3,50,140,20","Bradley","Interesting but it has a bit of a dark feel to it.,6,300,20","0"
"31154","","survey-text","58","526680","0.0-58.0-0.0","A2XS2OFYZKF9UW","","","","{""Q0"":""Feels like an unclear idea""}","","","","","","","","","","","","","","","","","","","","","","",""
"3494.399999976158","","image-slider-response","59","530180","0.0-59.0","A2XS2OFYZKF9UW","","","","","8","","","","","","","","","","","","","","","","","","","","","",""
"null","","image-button-response","60","535187","0.0-60.0","A2XS2OFYZKF9UW","img_art/22.jpg","null","","","","","","","","","","","","","","","","","","","","","","","","",""
"4274","","image-button-response","61","539470","0.0-61.0","A2XS2OFYZKF9UW","img_art/22.jpg","2","","","","","","","","","","","","","","","","","","","","","","","","",""
"4915","","image-button-response","62","544391","0.0-62.0-0.0","A2XS2OFYZKF9UW","img_art/22.jpg","5","","","","","","","","","","","","","","","","","","","","","","","","",""
"1228","","image-button-response","63","545627","0.0-63.0-0.0","A2XS2OFYZKF9UW","img_art/22.jpg","3","","","","","","","","","","","","","","","","","","","","","","","","",""
"null","","html-keyboard-response","64","547143","0.0-64.0","A2XS2OFYZKF9UW","<p style=""font-size: 48px;"">+</p>","","","","","null","allTrialResponses","1500","1","3","img_art/22.jpg","8","Feels like an unclear idea","Samuel,Jose,Corey,Christian,Austin,Bradley","ball of light in 90s,8,400,20","Cool squares but what's the circle?,38,200,20","i feel like this is a a basic art piece that a school would have on the wall,-24,260,20","colorful water (in front of castle?),17,140,20","Great color palette,29,240,20","I like this one. There is a lot to see if you keep looking for it.,27,300,20","Corey","i feel like this is a a basic art piece that a school would have on the wall,-24,260,20","Bradley","I like this one. There is a lot to see if you keep looking for it.,27,300,20","Christian","colorful water (in front of castle?),17,140,20","0"
"20945","","survey-text","65","568104","0.0-65.0-0.0","A2XS2OFYZKF9UW","","","","{""Q0"":""I see ships in a mist""}","","","","","","","","","","","","","","","","","","","","","","",""
"2838.1999999284744","","image-slider-response","66","570948","0.0-66.0","A2XS2OFYZKF9UW","","","","","17","","","","","","","","","","","","","","","","","","","","","",""
"null","","image-button-response","67","575955","0.0-67.0","A2XS2OFYZKF9UW","img_art/11.jpg","null","","","","","","","","","","","","","","","","","","","","","","","","",""
"2680","","image-button-response","68","578641","0.0-68.0","A2XS2OFYZKF9UW","img_art/11.jpg","3","","","","","","","","","","","","","","","","","","","","","","","","",""
"2848","","image-button-response","69","581497","0.0-69.0-0.0","A2XS2OFYZKF9UW","img_art/11.jpg","5","","","","","","","","","","","","","","","","","","","","","","","","",""
"2692","","image-button-response","70","584194","0.0-70.0-0.0","A2XS2OFYZKF9UW","img_art/11.jpg","0","","","","","","","","","","","","","","","","","","","","","","","","",""
"null","","html-keyboard-response","71","585706","0.0-71.0","A2XS2OFYZKF9UW","<p style=""font-size: 48px;"">+</p>","","","","","null","allTrialResponses","1500","1","4","img_art/11.jpg","17","I see ships in a mist","Michael,Kenneth,Corey,Christian,Malik,Bradley","It's kind of cool and I see it looks clean.,22,140,20","Its a little psychedelic.,10,300,20","dont like the colors. Its a gloomy day in london and this is the transit system,-26,260,20","to me, perfect reflection of the modern commute,32,140,20","I want to know which skyline the artist is depicting,26,40,20","WOW!  I love how the ships and the seas become one in this piece.,50,300,20","Christian","to me, perfect reflection of the modern commute,32,140,20","Bradley","WOW!  I love how the ships and the seas become one in this piece.,50,300,20","Michael","It's kind of cool and I see it looks clean.,22,140,20","0"
"25176","","survey-text","72","610898","0.0-72.0-0.0","A2XS2OFYZKF9UW","","","","{""Q0"":""Very alive for a dreary color scheme""}","","","","","","","","","","","","","","","","","","","","","","",""
"2830.7999999523163","","image-slider-response","73","613734","0.0-73.0","A2XS2OFYZKF9UW","","","","","17","","","","","","","","","","","","","","","","","","","","","",""
"null","","image-button-response","74","618751","0.0-74.0","A2XS2OFYZKF9UW","img_art/10.jpg","null","","","","","","","","","","","","","","","","","","","","","","","","",""
"747","","image-button-response","75","619503","0.0-75.0","A2XS2OFYZKF9UW","img_art/10.jpg","1","","","","","","","","","","","","","","","","","","","","","","","","",""
"3987","","image-button-response","76","623495","0.0-76.0-0.0","A2XS2OFYZKF9UW","img_art/10.jpg","4","","","","","","","","","","","","","","","","","","","","","","","","",""
"730","","image-button-response","77","624232","0.0-77.0-0.0","A2XS2OFYZKF9UW","img_art/10.jpg","5","","","","","","","","","","","","","","","","","","","","","","","","",""
"null","","html-keyboard-response","78","625237","0.0-78.0","A2XS2OFYZKF9UW","<p style=""font-size: 48px;"">+</p>","","","","","null","allTrialResponses","1000","1","5","img_art/10.jpg","17","Very alive for a dreary color scheme","Michael,Logan,Cody,Christian,Isaac,Bradley","Ugly and low skill. I wouldn't want it.,-50,140,20","The more I look the more I like. Reminds me of a rollercoaster and a war scene. A lot going on which is unnerving, like a rollercoaster but still fun,22,360,20","Feels musical .....,40,180,20","gives a sense of a roller coaster unit splashed in water. it's not but i love it nevertheless,44,140,20","It looks intricate.,15,280,20","This piece is very intriguing to me.,3,300,20","Logan","The more I look the more I like. Reminds me of a rollercoaster and a war scene. A lot going on which is unnerving, like a rollercoaster but still fun,22,360,20","Isaac","It looks intricate.,15,280,20","Bradley","This piece is very intriguing to me.,3,300,20","0"
"3486","","survey-text","79","628758","0.0-79.0-0.0","A2XS2OFYZKF9UW","","","","{""Q0"":""sky""}","","","","","","","","","","","","","","","","","","","","","","",""
"20883","","survey-text","80","649645","0.0-80.0-0.0","A2XS2OFYZKF9UW","","","","{""Q0"":""Gives me a feeling of \""closing in on all sides\""""}","","","","","","","","","","","","","","","","","","","","","","",""
"3087.100000023842","","image-slider-response","81","652737","0.0-81.0","A2XS2OFYZKF9UW","","","","","6","","","","","","","","","","","","","","","","","","","","","",""
"null","","image-button-response","82","657752","0.0-82.0","A2XS2OFYZKF9UW","img_art/9.jpg","null","","","","","","","","","","","","","","","","","","","","","","","","",""
"2844","","image-button-response","83","660604","0.0-83.0","A2XS2OFYZKF9UW","img_art/9.jpg","4","","","","","","","","","","","","","","","","","","","","","","","","",""
"2812","","image-button-response","84","663422","0.0-84.0-0.0","A2XS2OFYZKF9UW","img_art/9.jpg","5","","","","","","","","","","","","","","","","","","","","","","","","",""
"1676","","image-button-response","85","665103","0.0-85.0-0.0","A2XS2OFYZKF9UW","img_art/9.jpg","0","","","","","","","","","","","","","","","","","","","","","","","","",""
"null","","html-keyboard-response","86","666119","0.0-86.0","A2XS2OFYZKF9UW","<p style=""font-size: 48px;"">+</p>","","","","","null","allTrialResponses","1000","1","6","img_art/9.jpg","6","Gives me a feeling of ""closing in on all sides""","Adam,Logan,Tyler,Jesse,Isaac,Bradley","Very eclectic and messy. Not my preference, but may work for some.,-20,40,20","is that sleeping beauty,33,360,20","No cohesive form whatsoever. Hard pass.,-31,320,20","The lack of concrete form kind of turns me off,-2,80,20","I don't like the obvious lines of colored pencil on the border.,-24,280,20","Yikes. I'm not sure what to make of this one.,-14,300,20","Isaac","I don't like the obvious lines of colored pencil on the border.,-24,280,20","Bradley","Yikes. I'm not sure what to make of this one.,-14,300,20","Adam","Very eclectic and messy. Not my preference, but may work for some.,-20,40,20","0"
"18334","","survey-text","87","684467","0.0-87.0-0.0","A2XS2OFYZKF9UW","","","","{""Q0"":""Smudges?""}","","","","","","","","","","","","","","","","","","","","","","",""
"2983.399999976158","","image-slider-response","88","687454","0.0-88.0","A2XS2OFYZKF9UW","","","","","-24","","","","","","","","","","","","","","","","","","","","","",""
"null","","image-button-response","89","692461","0.0-89.0","A2XS2OFYZKF9UW","img_art/1.jpg","null","","","","","","","","","","","","","","","","","","","","","","","","",""
"2336","","image-button-response","90","694802","0.0-90.0","A2XS2OFYZKF9UW","img_art/1.jpg","3","","","","","","","","","","","","","","","","","","","","","","","","",""
"1580","","image-button-response","91","696387","0.0-91.0-0.0","A2XS2OFYZKF9UW","img_art/1.jpg","0","","","","","","","","","","","","","","","","","","","","","","","","",""
"3305","","image-button-response","92","699698","0.0-92.0-0.0","A2XS2OFYZKF9UW","img_art/1.jpg","4","","","","","","","","","","","","","","","","","","","","","","","","",""
"null","","html-keyboard-response","93","700203","0.0-93.0","A2XS2OFYZKF9UW","<p style=""font-size: 48px;"">+</p>","","","","","null","allTrialResponses","500","1","7","img_art/1.jpg","-24","Smudges?","Adam,Trevor,Dalton,Alejandro,Isaac,Bradley","Messy mix of primary colors.,-10,40,20","nice colors but kinds of blah,1,280,20","the colors are vibrant and beautiful,1,300,20","Interesting color scheme but to bled to me,11,80,20","The colors are a little too intense.,1,280,20","This is a great piece that has a lot more going on the longer you look at it. I like it!,30,300,20","Alejandro","Interesting color scheme but to bled to me,11,80,20","Adam","Messy mix of primary colors.,-10,40,20","Isaac","The colors are a little too intense.,1,280,20","0"
"16736","","survey-text","94","716956","0.0-94.0-0.0","A2XS2OFYZKF9UW","","","","{""Q0"":""Sloppy yet delicate""}","","","","","","","","","","","","","","","","","","","","","","",""
"4473.699999928474","","image-slider-response","95","721434","0.0-95.0","A2XS2OFYZKF9UW","","","","","18","","","","","","","","","","","","","","","","","","","","","",""
"2479","","image-button-response","96","726443","0.0-96.0","A2XS2OFYZKF9UW","img_art/15.jpg","0","","","","","","","","","","","","","","","","","","","","","","","","",""
"5253","","image-button-response","97","731702","0.0-97.0","A2XS2OFYZKF9UW","img_art/15.jpg","3","","","","","","","","","","","","","","","","","","","","","","","","",""
"5759","","image-button-response","98","737465","0.0-98.0-0.0","A2XS2OFYZKF9UW","img_art/15.jpg","2","","","","","","","","","","","","","","","","","","","","","","","","",""
"2381","","image-button-response","99","739853","0.0-99.0-0.0","A2XS2OFYZKF9UW","img_art/15.jpg","0","","","","","","","","","","","","","","","","","","","","","","","","",""
"null","","html-keyboard-response","100","740857","0.0-100.0","A2XS2OFYZKF9UW","<p style=""font-size: 48px;"">+</p>","","","","","null","allTrialResponses","1000","1","8","img_art/15.jpg","18","Sloppy yet delicate","Adam,Mitchell,Cameron,Alejandro,Isaac,Dustin","Eyes hunt for the blue in the black.,5,40,20","ants on the ground playing with bubble gum. They may be thinking of how they can use it to build something,-30,180,20","This one reminds me of a postage stamp, but branches and leaves. Kind of fun.,15,60,20","The blotted black spots create a nice contrast between the brush strokes within the center and sides. I like it.,41,80,20","The colors are too busy.,-39,280,20","Too much black. I see weeds or dead/dying flowers.,-40,20,20","Alejandro","The blotted black spots create a nice contrast between the brush strokes within the center and sides. I like it.,41,80,20","Cameron","This one reminds me of a postage stamp, but branches and leaves. Kind of fun.,15,60,20","Adam","Eyes hunt for the blue in the black.,5,40,20","0"
"44055","","survey-text","101","784930","0.0-101.0-0.0","A2XS2OFYZKF9UW","","","","{""Q0"":""Gives me the impression of aftermath of creating and artwork""}","","","","","","","","","","","","","","","","","","","","","","",""
"5355","","image-slider-response","102","790290","0.0-102.0","A2XS2OFYZKF9UW","","","","","11","","","","","","","","","","","","","","","","","","","","","",""
"null","","image-button-response","103","795297","0.0-103.0","A2XS2OFYZKF9UW","img_art/29.jpg","null","","","","","","","","","","","","","","","","","","","","","","","","",""
"1517","","image-button-response","104","796821","0.0-104.0","A2XS2OFYZKF9UW","img_art/29.jpg","1","","","","","","","","","","","","","","","","","","","","","","","","",""
"11072","","image-button-response","105","807899","0.0-105.0-0.0","A2XS2OFYZKF9UW","img_art/29.jpg","3","","","","","","","","","","","","","","","","","","","","","","","","",""
"699","","image-button-response","106","808606","0.0-106.0-0.0","A2XS2OFYZKF9UW","img_art/29.jpg","5","","","","","","","","","","","","","","","","","","","","","","","","",""
"null","","html-keyboard-response","107","809114","0.0-107.0","A2XS2OFYZKF9UW","<p style=""font-size: 48px;"">+</p>","","","","","null","allTrialResponses","500","1","9","img_art/29.jpg","11","Gives me the impression of aftermath of creating and artwork","Adam,Luke,Cameron,Alejandro,Jeffrey,Edward","Flash is too strong. Dislike the colors,-5,40,20","it is difficult to look at but you can't look away,-25,20,20","Lines and light are clean but subject doesn't interest me,0,60,20","Reminiscent of Jackson Pollock with a hint of abstract structure with the bordering.,32,80,20","Looks like an accident more than an art to me,-26,40,20","Like a crime scene. It's neat and different,30,60,20","Luke","it is difficult to look at but you can't look away,-25,20,20","Alejandro","Reminiscent of Jackson Pollock with a hint of abstract structure with the bordering.,32,80,20","Edward","Like a crime scene. It's neat and different,30,60,20","0"
"59037","","survey-text","108","868178","0.0-108.0-0.0","A2XS2OFYZKF9UW","","","","{""Q0"":""Gives me the impression that nothing is permanent""}","","","","","","","","","","","","","","","","","","","","","","",""
"2974.1999999284744","","image-slider-response","109","871158","0.0-109.0","A2XS2OFYZKF9UW","","","","","-5","","","","","","","","","","","","","","","","","","","","","",""
"2398","","image-button-response","110","876164","0.0-110.0","A2XS2OFYZKF9UW","img_art/17.jpg","0","","","","","","","","","","","","","","","","","","","","","","","","",""
"731","","image-button-response","111","876901","0.0-111.0","A2XS2OFYZKF9UW","img_art/17.jpg","0","","","","","","","","","","","","","","","","","","","","","","","","",""
"6682","","image-button-response","112","883587","0.0-112.0-0.0","A2XS2OFYZKF9UW","img_art/17.jpg","3","","","","","","","","","","","","","","","","","","","","","","","","",""
"2686","","image-button-response","113","886279","0.0-113.0-0.0","A2XS2OFYZKF9UW","img_art/17.jpg","2","","","","","","","","","","","","","","","","","","","","","","","","",""
"null","","html-keyboard-response","114","887784","0.0-114.0","A2XS2OFYZKF9UW","<p style=""font-size: 48px;"">+</p>","","","","","null","allTrialResponses","1500","1","10","img_art/17.jpg","-5","Gives me the impression that nothing is permanent","Marcus,Luke,Andrew,Alejandro,Evan,Edward","I like this, but it's a bit bland.,10,60,20","it looks very intricate and colorful,50,20,20","A very inspiring piece,41,160,20","Embodies beauty and complexity and in simplicity as well,50,80,20","This reminds me of spring,24,140,20","I love how soft it is,35,60,20","Marcus","I like this, but it's a bit bland.,10,60,20","Alejandro","Embodies beauty and complexity and in simplicity as well,50,80,20","Andrew","A very inspiring piece,41,160,20","0"
"3290","","survey-text","115","891108","0.0-115.0-0.0","A2XS2OFYZKF9UW","","","","{""Q0"":""our""}","","","","","","","","","","","","","","","","","","","","","","",""
"50339","","survey-text","116","941452","0.0-116.0-0.0","A2XS2OFYZKF9UW","","","","{""Q0"":""Looks like the bear head was cut and pasted from a magazine. I'm sure that's on purpose, but I don't know what that purpose is.""}","","","","","","","","","","","","","","","","","","","","","","",""
"3600.2000000476837","","image-slider-response","117","945058","0.0-117.0","A2XS2OFYZKF9UW","","","","","-24","","","","","","","","","","","","","","","","","","","","","",""
"null","","image-button-response","118","950440","0.0-118.0","A2XS2OFYZKF9UW","img_art/16.jpg","null","","","","","","","","","","","","","","","","","","","","","","","","",""
"26164","","image-button-response","119","976609","0.0-119.0","A2XS2OFYZKF9UW","img_art/16.jpg","2","","","","","","","","","","","","","","","","","","","","","","","","",""
"2246","","image-button-response","120","978861","0.0-120.0-0.0","A2XS2OFYZKF9UW","img_art/16.jpg","3","","","","","","","","","","","","","","","","","","","","","","","","",""
"3078","","image-button-response","121","981945","0.0-121.0-0.0","A2XS2OFYZKF9UW","img_art/16.jpg","5","","","","","","","","","","","","","","","","","","","","","","","","",""
"null","","html-keyboard-response","122","982959","0.0-122.0","A2XS2OFYZKF9UW","<p style=""font-size: 48px;"">+</p>","","","","","null","allTrialResponses","1000","1","11","img_art/16.jpg","-24","Looks like the bear head was cut and pasted from a magazine. I'm sure that's on purpose, but I don't know what that purpose is.","Marcus,Elijah,Andrew,Alejandro,Lucas,Nathaniel","Hate this, especially the jarring contrast of the super realistic teddybear face.,-50,60,20","The bear is terrifying,-50,80,20","It just makes me feel uncomfortable,-25,160,20","Garble and nonsense,-50,80,20","It's frightening.,30,380,20","Creeps me out. Like..really creeps me out.,-48,220,20","Andrew","It just makes me feel uncomfortable,-25,160,20","Alejandro","Garble and nonsense,-50,80,20","Nathaniel","Creeps me out. Like..really creeps me out.,-48,220,20","0"
"62142","","survey-text","123","1045132","0.0-123.0-0.0","A2XS2OFYZKF9UW","","","","{""Q0"":""The contrast of colors is vibrant""}","","","","","","","","","","","","","","","","","","","","","","",""
"3199.5","","image-slider-response","124","1048336","0.0-124.0","A2XS2OFYZKF9UW","","","","","17","","","","","","","","","","","","","","","","","","","","","",""
"4859","","image-button-response","125","1053344","0.0-125.0","A2XS2OFYZKF9UW","img_art/30.jpg","0","","","","","","","","","","","","","","","","","","","","","","","","",""
"614","","image-button-response","126","1053963","0.0-126.0","A2XS2OFYZKF9UW","img_art/30.jpg","0","","","","","","","","","","","","","","","","","","","","","","","","",""
"2101","","image-button-response","127","1056069","0.0-127.0-0.0","A2XS2OFYZKF9UW","img_art/30.jpg","2","","","","","","","","","","","","","","","","","","","","","","","","",""
"4474","","image-button-response","128","1060550","0.0-128.0-0.0","A2XS2OFYZKF9UW","img_art/30.jpg","5","","","","","","","","","","","","","","","","","","","","","","","","",""
"null","","html-keyboard-response","129","1062453","0.0-129.0","A2XS2OFYZKF9UW","<p style=""font-size: 48px;"">+</p>","","","","","null","allTrialResponses","1500","1","12","img_art/30.jpg","17","The contrast of colors is vibrant","Adrian,Victor,Andrew,Alejandro,Bryce,Nathaniel","Interesting. Not sure what I'm seeing but it makes me want to figure it out.,5,60,20","I just don't see the point of this piece,-11,340,20","It's a really interesting piece,20,160,20","An interesting design but don't like the colors. I value the time and effort put into it, but not a huge fan.,10,80,20","Very colorful! Wow!,22,20,20","No my favorite, but I do like the long strokes of color,11,220,20","Adrian","Interesting. Not sure what I'm seeing but it makes me want to figure it out.,5,60,20","Andrew","It's a really interesting piece,20,160,20","Nathaniel","No my favorite, but I do like the long strokes of color,11,220,20","0"
"57413","","survey-text","130","1119898","0.0-130.0-0.0","A2XS2OFYZKF9UW","","","","{""Q0"":""A bird in the desert?""}","","","","","","","","","","","","","","","","","","","","","","",""
"3102.7999999523163","","image-slider-response","131","1123006","0.0-131.0","A2XS2OFYZKF9UW","","","","","-19","","","","","","","","","","","","","","","","","","","","","",""
"null","","image-button-response","132","1128014","0.0-132.0","A2XS2OFYZKF9UW","img_art/6.jpg","null","","","","","","","","","","","","","","","","","","","","","","","","",""
"7050","","image-button-response","133","1135069","0.0-133.0","A2XS2OFYZKF9UW","img_art/6.jpg","1","","","","","","","","","","","","","","","","","","","","","","","","",""
"1499","","image-button-response","134","1136575","0.0-134.0-0.0","A2XS2OFYZKF9UW","img_art/6.jpg","2","","","","","","","","","","","","","","","","","","","","","","","","",""
"7591","","image-button-response","135","1144172","0.0-135.0-0.0","A2XS2OFYZKF9UW","img_art/6.jpg","0","","","","","","","","","","","","","","","","","","","","","","","","",""
"null","","html-keyboard-response","136","1145690","0.0-136.0","A2XS2OFYZKF9UW","<p style=""font-size: 48px;"">+</p>","","","","","null","allTrialResponses","1500","1","13","img_art/6.jpg","-19","A bird in the desert?","Adrian,Ethan,Andrew,Spencer,Vincent,Nathaniel","Simple, warm, hopeful.,12,60,20","This piece has some emotion of isolation. I like it.,6,120,20","Reminds me of my friend's bird,21,160,20","Boring, looks like a sad tree in wind,-37,120,20","Calm and catching,30,360,20","Not my favorite, but I like the empty vibe and the imagination it invokes. A skinny girl with long legs, perhaps, looking over a cliff,9,220,20","Ethan","This piece has some emotion of isolation. I like it.,6,120,20","Andrew","Reminds me of my friend's bird,21,160,20","Adrian","Simple, warm, hopeful.,12,60,20","0"
"39419","","survey-text","137","1185126","0.0-137.0-0.0","A2XS2OFYZKF9UW","","","","{""Q0"":""Bland colors, unclear vision""}","","","","","","","","","","","","","","","","","","","","","","",""
"5723.5","","image-slider-response","138","1190854","0.0-138.0","A2XS2OFYZKF9UW","","","","","-36","","","","","","","","","","","","","","","","","","","","","",""
"null","","image-button-response","139","1195871","0.0-139.0","A2XS2OFYZKF9UW","img_art/27.jpg","null","","","","","","","","","","","","","","","","","","","","","","","","",""
"980","","image-button-response","140","1196857","0.0-140.0","A2XS2OFYZKF9UW","img_art/27.jpg","3","","","","","","","","","","","","","","","","","","","","","","","","",""
"5194","","image-button-response","141","1202057","0.0-141.0-0.0","A2XS2OFYZKF9UW","img_art/27.jpg","4","","","","","","","","","","","","","","","","","","","","","","","","",""
"4803","","image-button-response","142","1206868","0.0-142.0-0.0","A2XS2OFYZKF9UW","img_art/27.jpg","2","","","","","","","","","","","","","","","","","","","","","","","","",""
"null","","html-keyboard-response","143","1207872","0.0-143.0","A2XS2OFYZKF9UW","<p style=""font-size: 48px;"">+</p>","","","","","null","allTrialResponses","1000","1","14","img_art/27.jpg","-36","Bland colors, unclear vision","Adrian,Ethan,Andrew,Caleb,Colton,Ian","Looks like my niece's doodles.,-50,60,20","I like the layer upon layer of different mediums used here.,21,120,20","Reminds me of a town on fire,-15,160,20","An abstract piece with such lifeless colors.,-26,40,20","looks like a little kid did it,-30,220,20","I'm not a fan. It looks like something my nephews (1 and 2) would make,-8,260,20","Caleb","An abstract piece with such lifeless colors.,-26,40,20","Colton","looks like a little kid did it,-30,220,20","Andrew","Reminds me of a town on fire,-15,160,20","0"
"48764","","survey-text","144","1256685","0.0-144.0-0.0","A2XS2OFYZKF9UW","","","","{""Q0"":""Choppy view of a park?""}","","","","","","","","","","","","","","","","","","","","","","",""
"3159.100000023842","","image-slider-response","145","1259849","0.0-145.0","A2XS2OFYZKF9UW","","","","","-21","","","","","","","","","","","","","","","","","","","","","",""
"2061","","image-button-response","146","1264855","0.0-146.0","A2XS2OFYZKF9UW","img_art/2.jpg","0","","","","","","","","","","","","","","","","","","","","","","","","",""
"2768","","image-button-response","147","1267627","0.0-147.0","A2XS2OFYZKF9UW","img_art/2.jpg","1","","","","","","","","","","","","","","","","","","","","","","","","",""
"1445","","image-button-response","148","1269078","0.0-148.0-0.0","A2XS2OFYZKF9UW","img_art/2.jpg","2","","","","","","","","","","","","","","","","","","","","","","","","",""
"3664","","image-button-response","149","1272748","0.0-149.0-0.0","A2XS2OFYZKF9UW","img_art/2.jpg","4","","","","","","","","","","","","","","","","","","","","","","","","",""
"null","","html-keyboard-response","150","1274255","0.0-150.0","A2XS2OFYZKF9UW","<p style=""font-size: 48px;"">+</p>","","","","","null","allTrialResponses","1500","1","15","img_art/2.jpg","-21","Choppy view of a park?","Joshua,Bryan,Andrew,Caleb,Colton,Kevin","Looks like child's art.,-19,240,20","Like the colors but reminds me of a kids show done in cubism.,0,400,20","Doesn't give me a reaction,10,160,20","Very gross colors. What were they thinking?,-47,40,20","too blocky and don't like color combination,-32,220,20","That looks look a cartoon character of some kind.,11,320,20","Bryan","Like the colors but reminds me of a kids show done in cubism.,0,400,20","Andrew","Doesn't give me a reaction,10,160,20","Colton","too blocky and don't like color combination,-32,220,20","0"
"4413","","survey-text","151","1278708","0.0-151.0-0.0","A2XS2OFYZKF9UW","","","","{""Q0"":""course""}","","","","","","","","","","","","","","","","","","","","","","",""
"83487","","survey-text","152","1362199","0.0-152.0-0.0","A2XS2OFYZKF9UW","","","","{""Q0"":""Feelings of sparseness""}","","","","","","","","","","","","","","","","","","","","","","",""
"2943.2999999523163","","image-slider-response","153","1365146","0.0-153.0","A2XS2OFYZKF9UW","","","","","-14","","","","","","","","","","","","","","","","","","","","","",""
"4433","","image-button-response","154","1370158","0.0-154.0","A2XS2OFYZKF9UW","img_art/14.jpg","0","","","","","","","","","","","","","","","","","","","","","","","","",""
"896","","image-button-response","155","1371059","0.0-155.0","A2XS2OFYZKF9UW","img_art/14.jpg","0","","","","","","","","","","","","","","","","","","","","","","","","",""
"16285","","image-button-response","156","1387349","0.0-156.0-0.0","A2XS2OFYZKF9UW","img_art/14.jpg","5","","","","","","","","","","","","","","","","","","","","","","","","",""
"1299","","image-button-response","157","1388656","0.0-157.0-0.0","A2XS2OFYZKF9UW","img_art/14.jpg","3","","","","","","","","","","","","","","","","","","","","","","","","",""
"null","","html-keyboard-response","158","1389660","0.0-158.0","A2XS2OFYZKF9UW","<p style=""font-size: 48px;"">+</p>","","","","","null","allTrialResponses","1000","1","16","img_art/14.jpg","-14","Feelings of sparseness","Jack,Bryan,Andrew,Jake,Colton,Carlos","love the colors. despite their brightness it seems sad somehow.,41,320,20","Like some of the colors but not much else.,1,400,20","Makes me think of my plants growing,11,160,20","This is poorly done and not aesthetically appealing.,-2,360,20","mythical and nature like,37,220,20","The lighting feels like spring.,20,80,20","Jack","love the colors. despite their brightness it seems sad somehow.,41,320,20","Carlos","The lighting feels like spring.,20,80,20","Jake","This is poorly done and not aesthetically appealing.,-2,360,20","0"
"17889","","survey-text","159","1407566","0.0-159.0-0.0","A2XS2OFYZKF9UW","","","","{""Q0"":""Haunting and detailed""}","","","","","","","","","","","","","","","","","","","","","","",""
"1684.7000000476837","","image-slider-response","160","1409256","0.0-160.0","A2XS2OFYZKF9UW","","","","","27","","","","","","","","","","","","","","","","","","","","","",""
"null","","image-button-response","161","1414262","0.0-161.0","A2XS2OFYZKF9UW","img_art/18.jpg","null","","","","","","","","","","","","","","","","","","","","","","","","",""
"1045","","image-button-response","162","1415314","0.0-162.0","A2XS2OFYZKF9UW","img_art/18.jpg","0","","","","","","","","","","","","","","","","","","","","","","","","",""
"1728","","image-button-response","163","1417047","0.0-163.0-0.0","A2XS2OFYZKF9UW","img_art/18.jpg","1","","","","","","","","","","","","","","","","","","","","","","","","",""
"2988","","image-button-response","164","1420042","0.0-164.0-0.0","A2XS2OFYZKF9UW","img_art/18.jpg","4","","","","","","","","","","","","","","","","","","","","","","","","",""
"null","","html-keyboard-response","165","1421050","0.0-165.0","A2XS2OFYZKF9UW","<p style=""font-size: 48px;"">+</p>","","","","","null","allTrialResponses","1000","1","17","img_art/18.jpg","27","Haunting and detailed","Jack,Devon,Tanner,Jake,Zachary,Carlos","hauntingly beautiful. more things revealed the longer you look. love the spirit-like figure in the top left.,47,320,20","I really like this one - there seems to be a story behind it,32,400,20","pegssus going into battle,25,180,20","It looks grotesque and violent.,-50,360,20","This one seems rather ghoulish to me.,-41,400,20","It is too busy, but the colors are pleasant.,15,80,20","Jack","hauntingly beautiful. more things revealed the longer you look. love the spirit-like figure in the top left.,47,320,20","Devon","I really like this one - there seems to be a story behind it,32,400,20","Zachary","This one seems rather ghoulish to me.,-41,400,20","0"
"28372","","survey-text","166","1449452","0.0-166.0-0.0","A2XS2OFYZKF9UW","","","","{""Q0"":""Reminds me of one of those photos that you stare at to reveal the hidden image""}","","","","","","","","","","","","","","","","","","","","","","",""
"3542","","image-slider-response","167","1452998","0.0-167.0","A2XS2OFYZKF9UW","","","","","-13","","","","","","","","","","","","","","","","","","","","","",""
"null","","image-button-response","168","1458005","0.0-168.0","A2XS2OFYZKF9UW","img_art/12.jpg","null","","","","","","","","","","","","","","","","","","","","","","","","",""
"3659","","image-button-response","169","1461669","0.0-169.0","A2XS2OFYZKF9UW","img_art/12.jpg","0","","","","","","","","","","","","","","","","","","","","","","","","",""
"844","","image-button-response","170","1462518","0.0-170.0-0.0","A2XS2OFYZKF9UW","img_art/12.jpg","1","","","","","","","","","","","","","","","","","","","","","","","","",""
"1779","","image-button-response","171","1464303","0.0-171.0-0.0","A2XS2OFYZKF9UW","img_art/12.jpg","2","","","","","","","","","","","","","","","","","","","","","","","","",""
"null","","html-keyboard-response","172","1465309","0.0-172.0","A2XS2OFYZKF9UW","<p style=""font-size: 48px;"">+</p>","","","","","null","allTrialResponses","1000","1","18","img_art/12.jpg","-13","Reminds me of one of those photos that you stare at to reveal the hidden image","Jack,Devon,Jared,Gabriel,Zachary,Robert","interesting, but feels like someone cut up a picture and pasted it together wrong. want to see the original,15,320,20","too much - just overcrowded,-20,400,20","i dont see the point.,-19,400,20","dont like the squares,-16,160,20","I like how it's split into tiny squares, but otherwise, not very intriguing.,-18,400,20","I like the pattern to it.,31,360,20","Jack","interesting, but feels like someone cut up a picture and pasted it together wrong. want to see the original,15,320,20","Devon","too much - just overcrowded,-20,400,20","Jared","i dont see the point.,-19,400,20","0"
"25931","","survey-text","173","1491258","0.0-173.0-0.0","A2XS2OFYZKF9UW","","","","{""Q0"":""I see lots of nature: beach, water, trees, mountains""}","","","","","","","","","","","","","","","","","","","","","","",""
"3119.5","","image-slider-response","174","1494382","0.0-174.0","A2XS2OFYZKF9UW","","","","","6","","","","","","","","","","","","","","","","","","","","","",""
"null","","image-button-response","175","1499394","0.0-175.0","A2XS2OFYZKF9UW","img_art/19.jpg","null","","","","","","","","","","","","","","","","","","","","","","","","",""
"3327","","image-button-response","176","1502728","0.0-176.0","A2XS2OFYZKF9UW","img_art/19.jpg","5","","","","","","","","","","","","","","","","","","","","","","","","",""
"3975","","image-button-response","177","1506707","0.0-177.0-0.0","A2XS2OFYZKF9UW","img_art/19.jpg","2","","","","","","","","","","","","","","","","","","","","","","","","",""
"8653","","image-button-response","178","1515366","0.0-178.0-0.0","A2XS2OFYZKF9UW","img_art/19.jpg","4","","","","","","","","","","","","","","","","","","","","","","","","",""
"null","","html-keyboard-response","179","1516874","0.0-179.0","A2XS2OFYZKF9UW","<p style=""font-size: 48px;"">+</p>","","","","","null","allTrialResponses","1500","1","19","img_art/19.jpg","6","I see lots of nature: beach, water, trees, mountains","Jack,Devon,Jared,Alexis,Miguel,Richard","love the muted colors and added sketchy lines. calming without being boring.,50,320,20","this looks like a busy city lifestyle,24,400,20","green and orange are my favorite colors.  this cityscape feels warm,34,400,20","it looks messy and non-unique.,-9,140,20","Messy and kid like.,-36,160,20","not professional looking but not bad either,13,340,20","Richard","not professional looking but not bad either,13,340,20","Jared","green and orange are my favorite colors.  this cityscape feels warm,34,400,20","Miguel","Messy and kid like.,-36,160,20","0"
"27903","","survey-text","180","1544798","0.0-180.0-0.0","A2XS2OFYZKF9UW","","","","{""Q0"":""Love the green, and the power that the black figure projects""}","","","","","","","","","","","","","","","","","","","","","","",""
"2894.399999976158","","image-slider-response","181","1547697","0.0-181.0","A2XS2OFYZKF9UW","","","","","28","","","","","","","","","","","","","","","","","","","","","",""
"4419","","image-button-response","182","1552704","0.0-182.0","A2XS2OFYZKF9UW","img_art/25.jpg","1","","","","","","","","","","","","","","","","","","","","","","","","",""
"724","","image-button-response","183","1553434","0.0-183.0","A2XS2OFYZKF9UW","img_art/25.jpg","1","","","","","","","","","","","","","","","","","","","","","","","","",""
"5512","","image-button-response","184","1558951","0.0-184.0-0.0","A2XS2OFYZKF9UW","img_art/25.jpg","3","","","","","","","","","","","","","","","","","","","","","","","","",""
"2725","","image-button-response","185","1561683","0.0-185.0-0.0","A2XS2OFYZKF9UW","img_art/25.jpg","2","","","","","","","","","","","","","","","","","","","","","","","","",""
"null","","html-keyboard-response","186","1562198","0.0-186.0","A2XS2OFYZKF9UW","<p style=""font-size: 48px;"">+</p>","","","","","null","allTrialResponses","500","1","20","img_art/25.jpg","28","Love the green, and the power that the black figure projects","Isaiah,Nathan,Jared,Matthew,Miguel,Richard","I feel little to no emotion looking at this painting.,0,300,20","I like it, a bit cryptic and obscene, I enjoy that,30,200,20","the green is serene. the figure is scare crow like,7,400,20","haunting, a lovely impression.,50,120,20","This is too simple,-22,160,20","interesting pattern and color choice, kind of unusual,2,340,20","Nathan","I like it, a bit cryptic and obscene, I enjoy that,30,200,20","Matthew","haunting, a lovely impression.,50,120,20","Jared","the green is serene. the figure is scare crow like,7,400,20","0"
"2945","","survey-text","187","1565176","0.0-187.0-0.0","A2XS2OFYZKF9UW","","","","{""Q0"":""we""}","","","","","","","","","","","","","","","","","","","","","","",""
"20587","","survey-text","188","1585766","0.0-188.0-0.0","A2XS2OFYZKF9UW","","","","{""Q0"":""Boring colors, don't understand what I'm seeing""}","","","","","","","","","","","","","","","","","","","","","","",""
"3079.5","","image-slider-response","189","1588850","0.0-189.0","A2XS2OFYZKF9UW","","","","","-32","","","","","","","","","","","","","","","","","","","","","",""
"null","","image-button-response","190","1593860","0.0-190.0","A2XS2OFYZKF9UW","img_art/28.jpg","null","","","","","","","","","","","","","","","","","","","","","","","","",""
"8576","","image-button-response","191","1602441","0.0-191.0","A2XS2OFYZKF9UW","img_art/28.jpg","5","","","","","","","","","","","","","","","","","","","","","","","","",""
"4014","","image-button-response","192","1606463","0.0-192.0-0.0","A2XS2OFYZKF9UW","img_art/28.jpg","0","","","","","","","","","","","","","","","","","","","","","","","","",""
"6332","","image-button-response","193","1612801","0.0-193.0-0.0","A2XS2OFYZKF9UW","img_art/28.jpg","4","","","","","","","","","","","","","","","","","","","","","","","","",""
"null","","html-keyboard-response","194","1613306","0.0-194.0","A2XS2OFYZKF9UW","<p style=""font-size: 48px;"">+</p>","","","","","null","allTrialResponses","500","1","21","img_art/28.jpg","-32","Boring colors, don't understand what I'm seeing","Anthony,Nathan,Jared,Matthew,Travis,Devin","This picture doesn't really stand out to me,1,200,20","I enjoy the color themes, they seem gloomy and mysterious, and content in their own way, which I love.,20,200,20","i like the colors and the shapes look like people,20,400,20","Normally don't react well to abstract art, but it looks almost like something's there.,28,120,20","Hate it...brown and drab,-37,260,20","It is a bit drab,-10,380,20","Devin","It is a bit drab,-10,380,20","Anthony","This picture doesn't really stand out to me,1,200,20","Travis","Hate it...brown and drab,-37,260,20","0"
"21710","","survey-text","195","1635040","0.0-195.0-0.0","A2XS2OFYZKF9UW","","","","{""Q0"":""Either an arid landscape, or something under a microscope""}","","","","","","","","","","","","","","","","","","","","","","",""
"2495.3000000715256","","image-slider-response","196","1637540","0.0-196.0","A2XS2OFYZKF9UW","","","","","-10","","","","","","","","","","","","","","","","","","","","","",""
"null","","image-button-response","197","1642545","0.0-197.0","A2XS2OFYZKF9UW","img_art/7.jpg","null","","","","","","","","","","","","","","","","","","","","","","","","",""
"3629","","image-button-response","198","1646179","0.0-198.0","A2XS2OFYZKF9UW","img_art/7.jpg","0","","","","","","","","","","","","","","","","","","","","","","","","",""
"2519","","image-button-response","199","1648703","0.0-199.0-0.0","A2XS2OFYZKF9UW","img_art/7.jpg","3","","","","","","","","","","","","","","","","","","","","","","","","",""
"668","","image-button-response","200","1649377","0.0-200.0-0.0","A2XS2OFYZKF9UW","img_art/7.jpg","4","","","","","","","","","","","","","","","","","","","","","","","","",""
"null","","html-keyboard-response","201","1649880","0.0-201.0","A2XS2OFYZKF9UW","<p style=""font-size: 48px;"">+</p>","","","","","null","allTrialResponses","500","1","22","img_art/7.jpg","-10","Either an arid landscape, or something under a microscope","Anthony,Jorge,Connor,Jordan,Travis,Devin","Very, very dull compared to the other paintings,-36,200,20","time and change,1,180,20","Color is bland and looks damaged,-37,240,20","Looks like a skin disease,-31,160,20","Just neutral...looks like sand at the beach.,3,260,20","Not very big on the sameness here,-20,380,20","Anthony","Very, very dull compared to the other paintings,-36,200,20","Jordan","Looks like a skin disease,-31,160,20","Travis","Just neutral...looks like sand at the beach.,3,260,20","0"
"21285","","survey-text","202","1671187","0.0-202.0-0.0","A2XS2OFYZKF9UW","","","","{""Q0"":""Makes me think of humanity within the cosmos""}","","","","","","","","","","","","","","","","","","","","","","",""
"2316.5","","image-slider-response","203","1673507","0.0-203.0","A2XS2OFYZKF9UW","","","","","6","","","","","","","","","","","","","","","","","","","","","",""
"null","","image-button-response","204","1678522","0.0-204.0","A2XS2OFYZKF9UW","img_art/23.jpg","null","","","","","","","","","","","","","","","","","","","","","","","","",""
"1309","","image-button-response","205","1679836","0.0-205.0","A2XS2OFYZKF9UW","img_art/23.jpg","2","","","","","","","","","","","","","","","","","","","","","","","","",""
"4282","","image-button-response","206","1684123","0.0-206.0-0.0","A2XS2OFYZKF9UW","img_art/23.jpg","1","","","","","","","","","","","","","","","","","","","","","","","","",""
"714","","image-button-response","207","1684843","0.0-207.0-0.0","A2XS2OFYZKF9UW","img_art/23.jpg","0","","","","","","","","","","","","","","","","","","","","","","","","",""
"null","","html-keyboard-response","208","1686354","0.0-208.0","A2XS2OFYZKF9UW","<p style=""font-size: 48px;"">+</p>","","","","","null","allTrialResponses","1500","1","23","img_art/23.jpg","6","Makes me think of humanity within the cosmos","Anthony,Sean,Brandon,Jordan,Travis,Jesus","The cluster of white silhouettes against the colorful background makes me feel uneasy for some reason,-36,200,20","so much detail .,31,40,20","Pretty cool. I love the white, reminds me of people lined up.,28,320,20","I like the contrast,29,160,20","I had a very neutral feeling to this,no feelings at all.,1,260,20","The usage of color is great, but not my style.,-15,100,20","Brandon","Pretty cool. I love the white, reminds me of people lined up.,28,320,20","Sean","so much detail .,31,40,20","Anthony","The cluster of white silhouettes against the colorful background makes me feel uneasy for some reason,-36,200,20","0"
"31406","","survey-text","209","1717780","0.0-209.0-0.0","A2XS2OFYZKF9UW","","","","{""Q0"":""Hazy and misty cliffside, feelings of uncertainty""}","","","","","","","","","","","","","","","","","","","","","","",""
"2086.2000000476837","","image-slider-response","210","1719872","0.0-210.0","A2XS2OFYZKF9UW","","","","","-9","","","","","","","","","","","","","","","","","","","","","",""
"null","","image-button-response","211","1724891","0.0-211.0","A2XS2OFYZKF9UW","img_art/21.jpg","null","","","","","","","","","","","","","","","","","","","","","","","","",""
"562","","image-button-response","212","1725460","0.0-212.0","A2XS2OFYZKF9UW","img_art/21.jpg","2","","","","","","","","","","","","","","","","","","","","","","","","",""
"10106","","image-button-response","213","1735571","0.0-213.0-0.0","A2XS2OFYZKF9UW","img_art/21.jpg","5","","","","","","","","","","","","","","","","","","","","","","","","",""
"497","","image-button-response","214","1736075","0.0-214.0-0.0","A2XS2OFYZKF9UW","img_art/21.jpg","4","","","","","","","","","","","","","","","","","","","","","","","","",""
"null","","html-keyboard-response","215","1737581","0.0-215.0","A2XS2OFYZKF9UW","<p style=""font-size: 48px;"">+</p>","","","","","null","allTrialResponses","1500","1","24","img_art/21.jpg","-9","Hazy and misty cliffside, feelings of uncertainty","Anthony,Sean,Brandon,Gregory,Jason,Mason","Bland, this painting is my least favorite,-20,200,20","my response to the picture is what is going on?,-13,40,20","I love this. Reminds me of a coast. The colors flow beautifully,40,320,20","Contrast of fire and water looks cool,20,220,20","The division in the picture is pleasing but the random white dots are distracting,12,20,20","Don't know why I like it, cant describe, maybe many landscapes?,47,100,20","Brandon","I love this. Reminds me of a coast. The colors flow beautifully,40,320,20","Mason","Don't know why I like it, cant describe, maybe many landscapes?,47,100,20","Jason","The division in the picture is pleasing but the random white dots are distracting,12,20,20","0"
"24477","","survey-text","216","1762082","0.0-216.0-0.0","A2XS2OFYZKF9UW","","","","{""Q0"":""I enjoy the colors and their contrast, mixes of obscure and detail""}","","","","","","","","","","","","","","","","","","","","","","",""
"3214.4000000953674","","image-slider-response","217","1765301","0.0-217.0","A2XS2OFYZKF9UW","","","","","16","","","","","","","","","","","","","","","","","","","","","",""
"null","","image-button-response","218","1770323","0.0-218.0","A2XS2OFYZKF9UW","img_art/20.jpg","null","","","","","","","","","","","","","","","","","","","","","","","","",""
"1887","","image-button-response","219","1772216","0.0-219.0","A2XS2OFYZKF9UW","img_art/20.jpg","1","","","","","","","","","","","","","","","","","","","","","","","","",""
"5606","","image-button-response","220","1777826","0.0-220.0-0.0","A2XS2OFYZKF9UW","img_art/20.jpg","0","","","","","","","","","","","","","","","","","","","","","","","","",""
"9972","","image-button-response","221","1787807","0.0-221.0-0.0","A2XS2OFYZKF9UW","img_art/20.jpg","3","","","","","","","","","","","","","","","","","","","","","","","","",""
"null","","html-keyboard-response","222","1789315","0.0-222.0","A2XS2OFYZKF9UW","<p style=""font-size: 48px;"">+</p>","","","","","null","allTrialResponses","1500","1","25","img_art/20.jpg","16","I enjoy the colors and their contrast, mixes of obscure and detail","Alex,Eric,Brandon,Joseph,Jason,Mason","Reminds me of Dali for some reason, whom I don't like,-7,100,20","I love the color choice.,25,100,20","I like the proportion of the car to the desert city, but too abstract for me,15,320,20","Something fell over and is burning, but it's kinda dope, you know?,14,220,20","The picture looks smudged and dirty,-4,20,20","Very cool, and calming (again) Love it.,47,100,20","Eric","I love the color choice.,25,100,20","Alex","Reminds me of Dali for some reason, whom I don't like,-7,100,20","Joseph","Something fell over and is burning, but it's kinda dope, you know?,14,220,20","0"
"5414","","survey-text","223","1794772","0.0-223.0-0.0","A2XS2OFYZKF9UW","","","","{""Q0"":""table""}","","","","","","","","","","","","","","","","","","","","","","",""
"34738","","survey-text","224","1829516","0.0-224.0-0.0","A2XS2OFYZKF9UW","","","","{""Q0"":""Feels like it's trying to be a deeper imagery than it really is""}","","","","","","","","","","","","","","","","","","","","","","",""
"3169.100000023842","","image-slider-response","225","1832690","0.0-225.0","A2XS2OFYZKF9UW","","","","","-26","","","","","","","","","","","","","","","","","","","","","",""
"null","","image-button-response","226","1837712","0.0-226.0","A2XS2OFYZKF9UW","img_art/3.jpg","null","","","","","","","","","","","","","","","","","","","","","","","","",""
"3017","","image-button-response","227","1840735","0.0-227.0","A2XS2OFYZKF9UW","img_art/3.jpg","2","","","","","","","","","","","","","","","","","","","","","","","","",""
"1604","","image-button-response","228","1842346","0.0-228.0-0.0","A2XS2OFYZKF9UW","img_art/3.jpg","3","","","","","","","","","","","","","","","","","","","","","","","","",""
"2549","","image-button-response","229","1844901","0.0-229.0-0.0","A2XS2OFYZKF9UW","img_art/3.jpg","0","","","","","","","","","","","","","","","","","","","","","","","","",""
"null","","html-keyboard-response","230","1845405","0.0-230.0","A2XS2OFYZKF9UW","<p style=""font-size: 48px;"">+</p>","","","","","null","allTrialResponses","500","1","26","img_art/3.jpg","-26","Feels like it's trying to be a deeper imagery than it really is","Alex,Eric,Charles,Joseph,William,Garrett","Ok, just a bunch of red lines and a grey smudge. Would pass this right by in a gallery,-12,100,20","This piece makes me think it has a backstory or a reason which I like.,5,100,20","I like that it feels kind of simple but still chaotic,6,100,20","Really have no idea what I'm looking at.,1,220,20","makes me think of anger,-33,380,20","I can't tell what this image is supposed to be it looks extremely ugly and color variety is boring.,-50,180,20","Charles","I like that it feels kind of simple but still chaotic,6,100,20","Joseph","Really have no idea what I'm looking at.,1,220,20","Alex","Ok, just a bunch of red lines and a grey smudge. Would pass this right by in a gallery,-12,100,20","0"
"26239","","survey-text","231","1871670","0.0-231.0-0.0","A2XS2OFYZKF9UW","","","","{""Q0"":""Seems like a child-like drawing of a volcano""}","","","","","","","","","","","","","","","","","","","","","","",""
"3369.3000000715256","","image-slider-response","232","1875044","0.0-232.0","A2XS2OFYZKF9UW","","","","","-23","","","","","","","","","","","","","","","","","","","","","",""
"4587","","image-button-response","233","1880060","0.0-233.0","A2XS2OFYZKF9UW","img_art/5.jpg","0","","","","","","","","","","","","","","","","","","","","","","","","",""
"4048","","image-button-response","234","1884115","0.0-234.0","A2XS2OFYZKF9UW","img_art/5.jpg","3","","","","","","","","","","","","","","","","","","","","","","","","",""
"916","","image-button-response","235","1885038","0.0-235.0-0.0","A2XS2OFYZKF9UW","img_art/5.jpg","0","","","","","","","","","","","","","","","","","","","","","","","","",""
"4857","","image-button-response","236","1889901","0.0-236.0-0.0","A2XS2OFYZKF9UW","img_art/5.jpg","1","","","","","","","","","","","","","","","","","","","","","","","","",""
"null","","html-keyboard-response","237","1890915","0.0-237.0","A2XS2OFYZKF9UW","<p style=""font-size: 48px;"">+</p>","","","","","null","allTrialResponses","1000","1","27","img_art/5.jpg","-23","Seems like a child-like drawing of a volcano","Alex,Benjamin,Charles,Joseph,Jeremy,Timothy","What is this? It looks like no effort was put into this work,-2,100,20","Missing something,-5,260,20","It feels positive and kind of uplifting,24,100,20","I like that the pyramid is putting off a beacon of light.,11,220,20","I don't hate it but I can't relate to it,1,60,20","This feels joyful,39,240,20","Joseph","I like that the pyramid is putting off a beacon of light.,11,220,20","Alex","What is this? It looks like no effort was put into this work,-2,100,20","Benjamin","Missing something,-5,260,20","0"
"36192","","survey-text","238","1927131","0.0-238.0-0.0","A2XS2OFYZKF9UW","","","","{""Q0"":""Really enjoy the cool/cold colors, so much detail""}","","","","","","","","","","","","","","","","","","","","","","",""
"3149.2999999523163","","image-slider-response","239","1930286","0.0-239.0","A2XS2OFYZKF9UW","","","","","34","","","","","","","","","","","","","","","","","","","","","",""
"4409","","image-button-response","240","1935291","0.0-240.0","A2XS2OFYZKF9UW","img_art/13.jpg","1","","","","","","","","","","","","","","","","","","","","","","","","",""
"1053","","image-button-response","241","1936351","0.0-241.0","A2XS2OFYZKF9UW","img_art/13.jpg","1","","","","","","","","","","","","","","","","","","","","","","","","",""
"2718","","image-button-response","242","1939075","0.0-242.0-0.0","A2XS2OFYZKF9UW","img_art/13.jpg","3","","","","","","","","","","","","","","","","","","","","","","","","",""
"1437","","image-button-response","243","1940518","0.0-243.0-0.0","A2XS2OFYZKF9UW","img_art/13.jpg","2","","","","","","","","","","","","","","","","","","","","","","","","",""
"null","","html-keyboard-response","244","1942036","0.0-244.0","A2XS2OFYZKF9UW","<p style=""font-size: 48px;"">+</p>","","","","","null","allTrialResponses","1500","1","28","img_art/13.jpg","34","Really enjoy the cool/cold colors, so much detail","Alex,Benjamin,Ryan,Joseph,Antonio,Shawn","I like the blue colors and the symmetry and paint splatters but I would not hang it in my house,8,100,20","Reminds me of rain running down a window.,35,260,20","Feels calm and could be placed in anyones house,43,380,20","Pleasing, happy, rainy.,12,220,20","Pretty but didnt cause a reaction,33,220,20","Industrial Jackson Pollock knock-off,-20,100,20","Benjamin","Reminds me of rain running down a window.,35,260,20","Joseph","Pleasing, happy, rainy.,12,220,20","Ryan","Feels calm and could be placed in anyones house,43,380,20","0"
"22601","","survey-text","245","1964676","0.0-245.0-0.0","A2XS2OFYZKF9UW","","","","{""Q0"":""Long twisted fingers. Not sure what it represents, but its intriguing""}","","","","","","","","","","","","","","","","","","","","","","",""
"2903.2999999523163","","image-slider-response","246","1967584","0.0-246.0","A2XS2OFYZKF9UW","","","","","6","","","","","","","","","","","","","","","","","","","","","",""
"null","","image-button-response","247","1972602","0.0-247.0","A2XS2OFYZKF9UW","img_art/4.jpg","null","","","","","","","","","","","","","","","","","","","","","","","","",""
"3680","","image-button-response","248","1976287","0.0-248.0","A2XS2OFYZKF9UW","img_art/4.jpg","2","","","","","","","","","","","","","","","","","","","","","","","","",""
"1453","","image-button-response","249","1977746","0.0-249.0-0.0","A2XS2OFYZKF9UW","img_art/4.jpg","5","","","","","","","","","","","","","","","","","","","","","","","","",""
"3278","","image-button-response","250","1981031","0.0-250.0-0.0","A2XS2OFYZKF9UW","img_art/4.jpg","3","","","","","","","","","","","","","","","","","","","","","","","","",""
"null","","html-keyboard-response","251","1982048","0.0-251.0","A2XS2OFYZKF9UW","<p style=""font-size: 48px;"">+</p>","","","","","null","allTrialResponses","1000","1","29","img_art/4.jpg","6","Long twisted fingers. Not sure what it represents, but its intriguing","Luis,Benjamin,Ryan,Joseph,Aaron,David","Its just not giving the vibe i should be finding,-31,400,20","I like the bold style.,10,260,20","Looks like an abstract version of the Scream painting,-50,380,20","It's okay, I guess. Nothing much either way.,5,220,20","It doesn't make me feel anything it just looks like a kid did it.,-30,20,20","I like the design. It can be interpreted in various ways, such as a hand of horror or still piece.,15,340,20","Ryan","Looks like an abstract version of the Scream painting,-50,380,20","David","I like the design. It can be interpreted in various ways, such as a hand of horror or still piece.,15,340,20","Joseph","It's okay, I guess. Nothing much either way.,5,220,20","0"
"21382","","survey-text","252","2003454","0.0-252.0-0.0","A2XS2OFYZKF9UW","","","","{""Q0"":""Can visualize the movement of the water in a still piece""}","","","","","","","","","","","","","","","","","","","","","","",""
"2598.899999976158","","image-slider-response","253","2006058","0.0-253.0","A2XS2OFYZKF9UW","","","","","10","","","","","","","","","","","","","","","","","","","","","",""
"null","","image-button-response","254","2011064","0.0-254.0","A2XS2OFYZKF9UW","img_art/24.jpg","null","","","","","","","","","","","","","","","","","","","","","","","","",""
"552","","image-button-response","255","2011620","0.0-255.0","A2XS2OFYZKF9UW","img_art/24.jpg","1","","","","","","","","","","","","","","","","","","","","","","","","",""
"7316","","image-button-response","256","2018941","0.0-256.0-0.0","A2XS2OFYZKF9UW","img_art/24.jpg","5","","","","","","","","","","","","","","","","","","","","","","","","",""
"1996","","image-button-response","257","2020942","0.0-257.0-0.0","A2XS2OFYZKF9UW","img_art/24.jpg","0","","","","","","","","","","","","","","","","","","","","","","","","",""
"null","","html-keyboard-response","258","2021455","0.0-258.0","A2XS2OFYZKF9UW","<p style=""font-size: 48px;"">+</p>","","","","","null","allTrialResponses","500","1","30","img_art/24.jpg","10","Can visualize the movement of the water in a still piece","James,Dylan,Ryan,Joseph,Daniel,David","The waterfall looks peaceful,11,380,20","This reminds me of a creek or a river. It puts me a peace,42,40,20","Beautiful,  peaceful,50,380,20","It looks like a poor dead bunny in a field of flowers. I don't want the bunny to be dead.,-37,220,20","Classic palette lacks real world 3d construction,19,320,20","Invokes a strong sense of nature, since the piece can interpreted as a stream or an abstracted bird.,40,340,20","Dylan","This reminds me of a creek or a river. It puts me a peace,42,40,20","David","Invokes a strong sense of nature, since the piece can interpreted as a stream or an abstracted bird.,40,340,20","James","The waterfall looks peaceful,11,380,20","0"
"2728","","image-button-response_instructions","259","2024210","0.0-259.0","A2XS2OFYZKF9UW","","0","instructions","","","","","","","","","","","","","","","","","","","","","","","",""
"1062","","image-button-response","260","2025293","0.0-260.0","A2XS2OFYZKF9UW","","0","","","","","","","","","","","","","","","","","","","","","","","","",""
