"rt","url","trial_type","trial_index","time_elapsed","internal_node_id","participant_id","stimulus","button_pressed","Name","responses","response","key_press","variableName","fixationTime","condition","trial","photo","subjectRating","subjectResponse","agentsNames","agent_1_Response","agent_2_Response","agent_3_Response","agent_4_Response","agent_5_Response","agent_6_Response","kept_1_name","kept_1_response","kept_2_name","kept_2_response","kept_3_name","kept_3_response","errorCounter"
"42884","external_page_harvard.html","external-html","0","42987","0.0-0.0","A2Y0WNHMT4PZ4C","","","","","","","","","","","","","","","","","","","","","","","","","","",""
"4747","","image-button-response","1","47736","0.0-1.0","A2Y0WNHMT4PZ4C","","0","","","","","","","","","","","","","","","","","","","","","","","","",""
"11309","","image-button-response","2","59050","0.0-2.0-0.0","A2Y0WNHMT4PZ4C","","1","phone","","","","","","","","","","","","","","","","","","","","","","","",""
"10874","","survey-text","3","69925","0.0-3.0-0.0","A2Y0WNHMT4PZ4C","","","","{""Q0"":""A2Y0WNHMT4PZ4C""}","","","","","","","","","","","","","","","","","","","","","","",""
"18407","","image-button-response_instructions","4","88333","0.0-4.0","A2Y0WNHMT4PZ4C","","0","instructions","","","","","","","","","","","","","","","","","","","","","","","",""
"23475","","image-button-response_instructions","5","111810","0.0-5.0","A2Y0WNHMT4PZ4C","img_art/ins/popularity/ins1.png","0","instructions","","","","","","","","","","","","","","","","","","","","","","","",""
"11138","","image-button-response_instructions","6","122948","0.0-6.0","A2Y0WNHMT4PZ4C","img_art/ins/popularity/ins2.png","0","instructions","","","","","","","","","","","","","","","","","","","","","","","",""
"20470","","image-button-response_instructions","7","143419","0.0-7.0","A2Y0WNHMT4PZ4C","img_art/ins/popularity/ins2Extreme.png","0","instructions","","","","","","","","","","","","","","","","","","","","","","","",""
"21468","","image-button-response_instructions","8","164889","0.0-8.0","A2Y0WNHMT4PZ4C","img_art/ins/popularity/ins3KEEPpop.PNG","0","instructions","","","","","","","","","","","","","","","","","","","","","","","",""
"10642","","image-button-response_instructions","9","175533","0.0-9.0","A2Y0WNHMT4PZ4C","img_art/ins/popularity/ins3ANamepop.PNG","0","instructions","","","","","","","","","","","","","","","","","","","","","","","",""
"9771","","image-button-response_instructions","10","185304","0.0-10.0","A2Y0WNHMT4PZ4C","img_art/ins/popularity/ins3ARatingpop.png","0","instructions","","","","","","","","","","","","","","","","","","","","","","","",""
"7804","","image-button-response_instructions","11","193109","0.0-11.0","A2Y0WNHMT4PZ4C","img_art/ins/popularity/ins3ATextpop.png","0","instructions","","","","","","","","","","","","","","","","","","","","","","","",""
"9035","","image-button-response_instructions","12","202145","0.0-12.0","A2Y0WNHMT4PZ4C","img_art/ins/popularity/ins3ALikespop.png","0","instructions","","","","","","","","","","","","","","","","","","","","","","","",""
"18478","","image-button-response_instructions","13","220624","0.0-13.0","A2Y0WNHMT4PZ4C","img_art/ins/popularity/ins3KEEPpop.PNG","0","instructions","","","","","","","","","","","","","","","","","","","","","","","",""
"10506","","image-button-response_instructions","14","231132","0.0-14.0","A2Y0WNHMT4PZ4C","img_art/ins/popularity/ins3_5RED.png","0","instructions","","","","","","","","","","","","","","","","","","","","","","","",""
"10346","","image-button-response_instructions","15","241479","0.0-15.0","A2Y0WNHMT4PZ4C","img_art/ins/popularity/ins3KEEPpop.PNG","0","instructions","","","","","","","","","","","","","","","","","","","","","","","",""
"18550","","image-button-response_instructions","16","260030","0.0-16.0","A2Y0WNHMT4PZ4C","img_art/ins/popularity/ins4KEEPpop.PNG","0","instructions","","","","","","","","","","","","","","","","","","","","","","","",""
"9930","","image-button-response_instructions","17","269961","0.0-17.0","A2Y0WNHMT4PZ4C","img_art/ins/popularity/ins5KEEPpop.PNG","0","instructions","","","","","","","","","","","","","","","","","","","","","","","",""
"8747","","image-button-response_instructions","18","278709","0.0-18.0","A2Y0WNHMT4PZ4C","","0","instructions","","","","","","","","","","","","","","","","","","","","","","","",""
"9946","","survey-text","19","288681","0.0-19.0-0.0","A2Y0WNHMT4PZ4C","","","","{""Q0"":""but""}","","","","","","","","","","","","","","","","","","","","","","",""
"21349","","survey-text","20","310031","0.0-20.0-0.0","A2Y0WNHMT4PZ4C","","","","{""Q0"":""Chaotic not sure what this represents.""}","","","","","","","","","","","","","","","","","","","","","","",""
"8465.899999976158","","image-slider-response","21","318499","0.0-21.0","A2Y0WNHMT4PZ4C","","","","","-35","","","","","","","","","","","","","","","","","","","","","",""
"null","","image-button-response","22","323503","0.0-22.0","A2Y0WNHMT4PZ4C","img_art/ins/1.jpg","null","","","","","","","","","","","","","","","","","","","","","","","","",""
"11195","","image-button-response","23","334700","0.0-23.0","A2Y0WNHMT4PZ4C","img_art/ins/1.jpg","0","","","","","","","","","","","","","","","","","","","","","","","","",""
"2277","","image-button-response","24","336980","0.0-24.0-0.0","A2Y0WNHMT4PZ4C","img_art/ins/1.jpg","4","","","","","","","","","","","","","","","","","","","","","","","","",""
"4251","","image-button-response","25","341233","0.0-25.0-0.0","A2Y0WNHMT4PZ4C","img_art/ins/1.jpg","2","","","","","","","","","","","","","","","","","","","","","","","","",""
"null","","html-keyboard-response","26","342236","0.0-26.0","A2Y0WNHMT4PZ4C","<p style=""font-size: 48px;"">+</p>","","","","","null","allTrialResponses","1000","1","-2","img_art/ins/1.jpg","-35","Chaotic not sure what this represents.","Adam,Alex,Ben,Carl,Daniel,Jack","Seems like doodles,-20,20,20","very creative work.,36,40,20","This color reminds me of poo,-46,60,20","very calming artwork,42,80,20","It looks like a murder scene.,-48,100,20","I like the sophisticated brushwork,40,120,20","Adam","Seems like doodles,-20,20,20","Daniel","It looks like a murder scene.,-48,100,20","Ben","This color reminds me of poo,-46,60,20","0"
"11976","","survey-text","27","354219","0.0-27.0-0.0","A2Y0WNHMT4PZ4C","","","","{""Q0"":""Love the texture and the red tones""}","","","","","","","","","","","","","","","","","","","","","","",""
"3101.8000000715256","","image-slider-response","28","357322","0.0-28.0","A2Y0WNHMT4PZ4C","","","","","23","","","","","","","","","","","","","","","","","","","","","",""
"3705","","image-button-response","29","362325","0.0-29.0","A2Y0WNHMT4PZ4C","img_art/ins/2.jpg","1","","","","","","","","","","","","","","","","","","","","","","","","",""
"3949","","image-button-response","30","366276","0.0-30.0","A2Y0WNHMT4PZ4C","img_art/ins/2.jpg","1","","","","","","","","","","","","","","","","","","","","","","","","",""
"13314","","image-button-response","31","379592","0.0-31.0-0.0","A2Y0WNHMT4PZ4C","img_art/ins/2.jpg","5","","","","","","","","","","","","","","","","","","","","","","","","",""
"2500","","image-button-response","32","382094","0.0-32.0-0.0","A2Y0WNHMT4PZ4C","img_art/ins/2.jpg","0","","","","","","","","","","","","","","","","","","","","","","","","",""
"null","","html-keyboard-response","33","383103","0.0-33.0","A2Y0WNHMT4PZ4C","<p style=""font-size: 48px;"">+</p>","","","","","null","allTrialResponses","1000","1","-1","img_art/ins/2.jpg","23","Love the texture and the red tones","Adam,John,Ben,James,Daniel,Kyle","too much color,-18,20,20","love the texture of paint,48,160,20","meaningless painting,-45,60,20","looks too angry,-50,140,20","One of my pet peevs,-48,100,20","Idk, it is just annoying,-32,180,20","John","love the texture of paint,48,160,20","Kyle","Idk, it is just annoying,-32,180,20","Adam","too much color,-18,20,20","0"
"16835","","survey-text","34","399950","0.0-34.0-0.0","A2Y0WNHMT4PZ4C","","","","{""Q0"":""Love the shades of blue it creates a great mood.""}","","","","","","","","","","","","","","","","","","","","","","",""
"4147.699999928474","","image-slider-response","35","404100","0.0-35.0","A2Y0WNHMT4PZ4C","","","","","27","","","","","","","","","","","","","","","","","","","","","",""
"4652","","image-button-response","36","409105","0.0-36.0","A2Y0WNHMT4PZ4C","img_art/ins/3.jpg","1","","","","","","","","","","","","","","","","","","","","","","","","",""
"1159","","image-button-response","37","410265","0.0-37.0","A2Y0WNHMT4PZ4C","img_art/ins/3.jpg","1","","","","","","","","","","","","","","","","","","","","","","","","",""
"2917","","image-button-response","38","413184","0.0-38.0-0.0","A2Y0WNHMT4PZ4C","img_art/ins/3.jpg","3","","","","","","","","","","","","","","","","","","","","","","","","",""
"7377","","image-button-response","39","420564","0.0-39.0-0.0","A2Y0WNHMT4PZ4C","img_art/ins/3.jpg","2","","","","","","","","","","","","","","","","","","","","","","","","",""
"null","","html-keyboard-response","40","421067","0.0-40.0","A2Y0WNHMT4PZ4C","<p style=""font-size: 48px;"">+</p>","","","","","null","allTrialResponses","500","1","0","img_art/ins/3.jpg","27","Love the shades of blue it creates a great mood.","Adam,John,Sam,Mike,Ron,Kyle","My daily routine, it's depressing,-20,20,20","I like the overlapping of brushes,41,160,20","I can feel a rainy day from this painting,18,240,20","enjoy the different shades of blue,22,200,20","It looks depressing,-26,220,20","It looks like a playground for bats,-36,180,20","John","I like the overlapping of brushes,41,160,20","Mike","enjoy the different shades of blue,22,200,20","Sam","I can feel a rainy day from this painting,18,240,20","0"
"9218","","image-button-response_instructions","41","430296","0.0-41.0","A2Y0WNHMT4PZ4C","","0","instructions","","","","","","","","","","","","","","","","","","","","","","","",""
"15200","","survey-likert","42","445498","0.0-42.0-0.0","A2Y0WNHMT4PZ4C","","","","{""Q0"":"""",""Q1"":0,""Q2"":1}","","","","","","","","","","","","","","","","","","","","","","",""
"9486","","survey-text","43","454989","0.0-43.0-0.0","A2Y0WNHMT4PZ4C","","","","{""Q0"":""rock""}","","","","","","","","","","","","","","","","","","","","","","",""
"15680","","survey-text","44","470670","0.0-44.0-0.0","A2Y0WNHMT4PZ4C","","","","{""Q0"":""Very moody and dark picture.""}","","","","","","","","","","","","","","","","","","","","","","",""
"3828","","image-slider-response","45","474500","0.0-45.0","A2Y0WNHMT4PZ4C","","","","","1","","","","","","","","","","","","","","","","","","","","","",""
"null","","image-button-response","46","479539","0.0-46.0","A2Y0WNHMT4PZ4C","img_art/20.jpg","null","","","","","","","","","","","","","","","","","","","","","","","","",""
"1876","","image-button-response","47","481417","0.0-47.0","A2Y0WNHMT4PZ4C","img_art/20.jpg","2","","","","","","","","","","","","","","","","","","","","","","","","",""
"3124","","image-button-response","48","484544","0.0-48.0-0.0","A2Y0WNHMT4PZ4C","img_art/20.jpg","4","","","","","","","","","","","","","","","","","","","","","","","","",""
"6819","","image-button-response","49","491365","0.0-49.0-0.0","A2Y0WNHMT4PZ4C","img_art/20.jpg","0","","","","","","","","","","","","","","","","","","","","","","","","",""
"null","","html-keyboard-response","50","491868","0.0-50.0","A2Y0WNHMT4PZ4C","<p style=""font-size: 48px;"">+</p>","","","","","null","allTrialResponses","500","1","1","img_art/20.jpg","1","Very moody and dark picture.","Sean,Ian,Jesse,Gabriel,Cody,Tyler","I like the detail on it, although I get a sad vibe to it,19,40,20","A painting within a painting, the inner painting looks like a car crash with a semi truck.,21,260,20","I do at least like the dark colors blending,6,80,20","i almost feel like i can recognize what this is,-6,160,20","I like the distortion of the objects, good colors,20,180,20","This is not abstract art, it is representative.,0,320,20","Jesse","I do at least like the dark colors blending,6,80,20","Cody","I like the distortion of the objects, good colors,20,180,20","Sean","I like the detail on it, although I get a sad vibe to it,19,40,20","0"
"21809","","survey-text","51","513682","0.0-51.0-0.0","A2Y0WNHMT4PZ4C","","","","{""Q0"":""Lots of texture using shades of browns and orange""}","","","","","","","","","","","","","","","","","","","","","","",""
"3284.2000000476837","","image-slider-response","52","516968","0.0-52.0","A2Y0WNHMT4PZ4C","","","","","-20","","","","","","","","","","","","","","","","","","","","","",""
"4212","","image-button-response","53","521971","0.0-53.0","A2Y0WNHMT4PZ4C","img_art/7.jpg","0","","","","","","","","","","","","","","","","","","","","","","","","",""
"369","","image-button-response","54","522343","0.0-54.0","A2Y0WNHMT4PZ4C","img_art/7.jpg","0","","","","","","","","","","","","","","","","","","","","","","","","",""
"5203","","image-button-response","55","527547","0.0-55.0-0.0","A2Y0WNHMT4PZ4C","img_art/7.jpg","5","","","","","","","","","","","","","","","","","","","","","","","","",""
"2413","","image-button-response","56","529962","0.0-56.0-0.0","A2Y0WNHMT4PZ4C","img_art/7.jpg","0","","","","","","","","","","","","","","","","","","","","","","","","",""
"3157","","image-button-response","57","537255","0.0-56.1-0.1","A2Y0WNHMT4PZ4C","img_art/7.jpg","1","","","","","","","","","","","","","","","","","","","","","","","","",""
"null","","html-keyboard-response","58","538761","0.0-57.0","A2Y0WNHMT4PZ4C","<p style=""font-size: 48px;"">+</p>","","","","","null","allTrialResponses","1500","1","2","img_art/7.jpg","-20","Lots of texture using shades of browns and orange","Sean,Alex,Jesse,Stephen,Cody,Connor","does not look good,-42,40,20","Hmm interesting, looks like mars or something terrestrial. Too abstract for me and too much brown,4,100,20","Makes me think of the beach which makes me happy,14,80,20","Nice realistic feel but nothing stands out.,4,140,20","Cool, makes me think of archeology,15,180,20","Color is bland and looks damaged,-37,240,20","Sean","does not look good,-42,40,20","Connor","Color is bland and looks damaged,-37,240,20","Alex","Hmm interesting, looks like mars or something terrestrial. Too abstract for me and too much brown,4,100,20","2"
"15463","","survey-text","59","554231","0.0-58.0-0.0","A2Y0WNHMT4PZ4C","","","","{""Q0"":""I can't feel any construction in this image.""}","","","","","","","","","","","","","","","","","","","","","","",""
"2941.399999976158","","image-slider-response","60","557174","0.0-59.0","A2Y0WNHMT4PZ4C","","","","","-28","","","","","","","","","","","","","","","","","","","","","",""
"null","","image-button-response","61","562177","0.0-60.0","A2Y0WNHMT4PZ4C","img_art/13.jpg","null","","","","","","","","","","","","","","","","","","","","","","","","",""
"2648","","image-button-response","62","564828","0.0-61.0","A2Y0WNHMT4PZ4C","img_art/13.jpg","3","","","","","","","","","","","","","","","","","","","","","","","","",""
"2357","","image-button-response","63","567187","0.0-62.0-0.0","A2Y0WNHMT4PZ4C","img_art/13.jpg","4","","","","","","","","","","","","","","","","","","","","","","","","",""
"1452","","image-button-response","64","568642","0.0-63.0-0.0","A2Y0WNHMT4PZ4C","img_art/13.jpg","5","","","","","","","","","","","","","","","","","","","","","","","","",""
"null","","html-keyboard-response","65","569644","0.0-64.0","A2Y0WNHMT4PZ4C","<p style=""font-size: 48px;"">+</p>","","","","","null","allTrialResponses","1000","1","3","img_art/13.jpg","-28","I can't feel any construction in this image.","Sean,Alex,Kenneth,Carlos,Jack,Connor","I like the colors,7,40,20","I like the blue colors and the symmetry and paint splatters but I would not hang it in my house,8,100,20","I would hang this photo in my room.,21,300,20","Rain on a cold window.,22,80,20","exciting & chaotic. love the colors.,50,320,20","Color palette is complementary,40,240,20","Carlos","Rain on a cold window.,22,80,20","Jack","exciting & chaotic. love the colors.,50,320,20","Connor","Color palette is complementary,40,240,20","2"
"19407","","survey-text","66","589056","0.0-65.0-0.0","A2Y0WNHMT4PZ4C","","","","{""Q0"":""Too abstract for my liking no depth to the picture.""}","","","","","","","","","","","","","","","","","","","","","","",""
"2189.2000000476837","","image-slider-response","67","591247","0.0-66.0","A2Y0WNHMT4PZ4C","","","","","-27","","","","","","","","","","","","","","","","","","","","","",""
"null","","image-button-response","68","596258","0.0-67.0","A2Y0WNHMT4PZ4C","img_art/26.jpg","null","","","","","","","","","","","","","","","","","","","","","","","","",""
"2296","","image-button-response","69","598557","0.0-68.0","A2Y0WNHMT4PZ4C","img_art/26.jpg","3","","","","","","","","","","","","","","","","","","","","","","","","",""
"3068","","image-button-response","70","601627","0.0-69.0-0.0","A2Y0WNHMT4PZ4C","img_art/26.jpg","4","","","","","","","","","","","","","","","","","","","","","","","","",""
"3101","","image-button-response","71","604729","0.0-70.0-0.0","A2Y0WNHMT4PZ4C","img_art/26.jpg","1","","","","","","","","","","","","","","","","","","","","","","","","",""
"null","","html-keyboard-response","72","605731","0.0-71.0","A2Y0WNHMT4PZ4C","<p style=""font-size: 48px;"">+</p>","","","","","null","allTrialResponses","1000","1","4","img_art/26.jpg","-27","Too abstract for my liking no depth to the picture.","Brett,Adam,Dakota,Carlos,Jack,Connor","Picturesque little town,45,360,20","pretty colors, but sketch style isn't for me,10,40,20","juvenile, faint and weak,-41,280,20","Pleasant but bland.,10,80,20","soft colors & brush work. very easy to look at. makes me happy.,50,320,20","City scene in a park,23,240,20","Carlos","Pleasant but bland.,10,80,20","Jack","soft colors & brush work. very easy to look at. makes me happy.,50,320,20","Adam","pretty colors, but sketch style isn't for me,10,40,20","2"
"14032","","survey-text","73","619770","0.0-72.0-0.0","A2Y0WNHMT4PZ4C","","","","{""Q0"":""I like the use of this color.""}","","","","","","","","","","","","","","","","","","","","","","",""
"2085.600000023842","","image-slider-response","74","621857","0.0-73.0","A2Y0WNHMT4PZ4C","","","","","8","","","","","","","","","","","","","","","","","","","","","",""
"2597","","image-button-response","75","626859","0.0-74.0","A2Y0WNHMT4PZ4C","img_art/25.jpg","1","","","","","","","","","","","","","","","","","","","","","","","","",""
"650","","image-button-response","76","627511","0.0-75.0","A2Y0WNHMT4PZ4C","img_art/25.jpg","1","","","","","","","","","","","","","","","","","","","","","","","","",""
"2540","","image-button-response","77","630053","0.0-76.0-0.0","A2Y0WNHMT4PZ4C","img_art/25.jpg","4","","","","","","","","","","","","","","","","","","","","","","","","",""
"5435","","image-button-response","78","635491","0.0-77.0-0.0","A2Y0WNHMT4PZ4C","img_art/25.jpg","5","","","","","","","","","","","","","","","","","","","","","","","","",""
"null","","html-keyboard-response","79","636999","0.0-78.0","A2Y0WNHMT4PZ4C","<p style=""font-size: 48px;"">+</p>","","","","","null","allTrialResponses","1500","1","5","img_art/25.jpg","8","I like the use of this color.","Benjamin,Adam,Andrew,Carlos,Jack,Luis","Regal. Reminds me of Egyptian art.,11,260,20","high contrast draws attention to the image, but I'm not sure what I'm seeing,-5,40,20","It makes me feel a little uneasy, but I like the painting,11,160,20","The proportions are unpleasant.,-30,80,20","beautiful in a primitive way,10,320,20","New life, rising from your personal battles,50,400,20","Adam","high contrast draws attention to the image, but I'm not sure what I'm seeing,-5,40,20","Jack","beautiful in a primitive way,10,320,20","Luis","New life, rising from your personal battles,50,400,20","2"
"4333","","survey-text","80","641344","0.0-79.0-0.0","A2Y0WNHMT4PZ4C","","","","{""Q0"":""sky""}","","","","","","","","","","","","","","","","","","","","","","",""
"23220","","survey-text","81","664566","0.0-80.0-0.0","A2Y0WNHMT4PZ4C","","","","{""Q0"":""Too much of a mess although I like the shades of color.""}","","","","","","","","","","","","","","","","","","","","","","",""
"2445.2000000476837","","image-slider-response","82","667012","0.0-81.0","A2Y0WNHMT4PZ4C","","","","","-29","","","","","","","","","","","","","","","","","","","","","",""
"2077","","image-button-response","83","672023","0.0-82.0","A2Y0WNHMT4PZ4C","img_art/1.jpg","1","","","","","","","","","","","","","","","","","","","","","","","","",""
"1208","","image-button-response","84","673234","0.0-83.0","A2Y0WNHMT4PZ4C","img_art/1.jpg","1","","","","","","","","","","","","","","","","","","","","","","","","",""
"2893","","image-button-response","85","676129","0.0-84.0-0.0","A2Y0WNHMT4PZ4C","img_art/1.jpg","3","","","","","","","","","","","","","","","","","","","","","","","","",""
"3404","","image-button-response","86","679535","0.0-85.0-0.0","A2Y0WNHMT4PZ4C","img_art/1.jpg","0","","","","","","","","","","","","","","","","","","","","","","","","",""
"null","","html-keyboard-response","87","681044","0.0-86.0","A2Y0WNHMT4PZ4C","<p style=""font-size: 48px;"">+</p>","","","","","null","allTrialResponses","1500","1","6","img_art/1.jpg","-29","Too much of a mess although I like the shades of color.","Alejandro,Adam,Marcus,Juan,Jack,Luis","Interesting color scheme but to bled to me,11,80,20","Messy mix of primary colors.,-10,40,20","Like the colors very much, and this piece makes me feel peaceful.,29,60,20","I don't like how this one makes me feel.,-32,260,20","beautiful colors and brush strokes,47,320,20","I love the calming comfort and safe feeling of this,50,400,20","Adam","Messy mix of primary colors.,-10,40,20","Juan","I don't like how this one makes me feel.,-32,260,20","Alejandro","Interesting color scheme but to bled to me,11,80,20","2"
"22585","","survey-text","88","703635","0.0-87.0-0.0","A2Y0WNHMT4PZ4C","","","","{""Q0"":""This looks like graffiti on a painting not sure what this is supposed to express.""}","","","","","","","","","","","","","","","","","","","","","","",""
"3085.399999976158","","image-slider-response","89","706722","0.0-88.0","A2Y0WNHMT4PZ4C","","","","","-50","","","","","","","","","","","","","","","","","","","","","",""
"3764","","image-button-response","90","711729","0.0-89.0","A2Y0WNHMT4PZ4C","img_art/27.jpg","0","","","","","","","","","","","","","","","","","","","","","","","","",""
"1572","","image-button-response","91","713304","0.0-90.0","A2Y0WNHMT4PZ4C","img_art/27.jpg","0","","","","","","","","","","","","","","","","","","","","","","","","",""
"7795","","image-button-response","92","721101","0.0-91.0-0.0","A2Y0WNHMT4PZ4C","img_art/27.jpg","2","","","","","","","","","","","","","","","","","","","","","","","","",""
"3724","","image-button-response","93","724826","0.0-92.0-0.0","A2Y0WNHMT4PZ4C","img_art/27.jpg","3","","","","","","","","","","","","","","","","","","","","","","","","",""
"null","","html-keyboard-response","94","725329","0.0-93.0","A2Y0WNHMT4PZ4C","<p style=""font-size: 48px;"">+</p>","","","","","null","allTrialResponses","500","1","7","img_art/27.jpg","-50","This looks like graffiti on a painting not sure what this is supposed to express.","Alejandro,Adam,David,Juan,Steven,James","Muddied and directionless. Like someone dragged a brush across the paper for the sake of doing something.,-50,80,20","Warn colors are pretty, but too blotchy for me.,3,40,20","Not a fan of the green; gives off the impression that someone else drew on it.,-20,340,20","Colors make me think of fall, but I don't like how the picture was done or the weird lines across the background,6,260,20","two warring cities, separated by a small desert,50,160,20","This painting is very unique,21,380,20","Alejandro","Muddied and directionless. Like someone dragged a brush across the paper for the sake of doing something.,-50,80,20","David","Not a fan of the green; gives off the impression that someone else drew on it.,-20,340,20","Juan","Colors make me think of fall, but I don't like how the picture was done or the weird lines across the background,6,260,20","2"
"22935","","survey-text","95","748270","0.0-94.0-0.0","A2Y0WNHMT4PZ4C","","","","{""Q0"":""I like the abstract of this tree and the colors that the artist sees.""}","","","","","","","","","","","","","","","","","","","","","","",""
"2933.2999999523163","","image-slider-response","96","751205","0.0-95.0","A2Y0WNHMT4PZ4C","","","","","30","","","","","","","","","","","","","","","","","","","","","",""
"4092","","image-button-response","97","756211","0.0-96.0","A2Y0WNHMT4PZ4C","img_art/14.jpg","2","","","","","","","","","","","","","","","","","","","","","","","","",""
"1909","","image-button-response","98","758123","0.0-97.0","A2Y0WNHMT4PZ4C","img_art/14.jpg","2","","","","","","","","","","","","","","","","","","","","","","","","",""
"1149","","image-button-response","99","759274","0.0-98.0-0.0","A2Y0WNHMT4PZ4C","img_art/14.jpg","4","","","","","","","","","","","","","","","","","","","","","","","","",""
"7179","","image-button-response","100","766455","0.0-99.0-0.0","A2Y0WNHMT4PZ4C","img_art/14.jpg","5","","","","","","","","","","","","","","","","","","","","","","","","",""
"null","","html-keyboard-response","101","766958","0.0-100.0","A2Y0WNHMT4PZ4C","<p style=""font-size: 48px;"">+</p>","","","","","null","allTrialResponses","500","1","8","img_art/14.jpg","30","I like the abstract of this tree and the colors that the artist sees.","Alejandro,Colton,David,Juan,Seth,Robert","It looks like a tree but the bleeding water colors lack borders and makes it hard to appreciate the message.,-41,80,20","mythical and nature like,37,220,20","I like how balanced the piece is with its symmetrical design.,20,340,20","I don't like the colors, but I espeically don't like all the negative space.,-20,260,20","This piece feels inviting. It's like opening up the pages of your favorite book for the first time.,26,60,20","Late Winter when things are just starting to bloom.,21,360,20","David","I like how balanced the piece is with its symmetrical design.,20,340,20","Seth","This piece feels inviting. It's like opening up the pages of your favorite book for the first time.,26,60,20","Robert","Late Winter when things are just starting to bloom.,21,360,20","2"
"14149","","survey-text","102","781112","0.0-101.0-0.0","A2Y0WNHMT4PZ4C","","","","{""Q0"":""I can imagine this being used as wallpaper""}","","","","","","","","","","","","","","","","","","","","","","",""
"2612.399999976158","","image-slider-response","103","783726","0.0-102.0","A2Y0WNHMT4PZ4C","","","","","-11","","","","","","","","","","","","","","","","","","","","","",""
"null","","image-button-response","104","788733","0.0-103.0","A2Y0WNHMT4PZ4C","img_art/12.jpg","null","","","","","","","","","","","","","","","","","","","","","","","","",""
"1925","","image-button-response","105","790660","0.0-104.0","A2Y0WNHMT4PZ4C","img_art/12.jpg","5","","","","","","","","","","","","","","","","","","","","","","","","",""
"1326","","image-button-response","106","791987","0.0-105.0-0.0","A2Y0WNHMT4PZ4C","img_art/12.jpg","3","","","","","","","","","","","","","","","","","","","","","","","","",""
"2708","","image-button-response","107","794697","0.0-106.0-0.0","A2Y0WNHMT4PZ4C","img_art/12.jpg","1","","","","","","","","","","","","","","","","","","","","","","","","",""
"null","","html-keyboard-response","108","796215","0.0-107.0","A2Y0WNHMT4PZ4C","<p style=""font-size: 48px;"">+</p>","","","","","null","allTrialResponses","1500","1","9","img_art/12.jpg","-11","I can imagine this being used as wallpaper","Gregory,Noah,David,Malik,Seth,Robert","Black and white contrast with color looks nice,15,220,20","evokes the 80s, and not in a necessarily good way,-10,260,20","This doesn't invoke anything. Just a mosaic of random images.,0,340,20","I don't like it, but I appreciate the effort and technique,11,40,20","This is beautiful. It looks like 1,000 different sunrises and sunsets.,44,60,20","I like the pattern to it.,31,360,20","Robert","I like the pattern to it.,31,360,20","Malik","I don't like it, but I appreciate the effort and technique,11,40,20","Noah","evokes the 80s, and not in a necessarily good way,-10,260,20","2"
"281987","","survey-text","109","1078209","0.0-108.0-0.0","A2Y0WNHMT4PZ4C","","","","{""Q0"":""I like the use of colors here but not sure what this is about.""}","","","","","","","","","","","","","","","","","","","","","","",""
"2684.600000023842","","image-slider-response","110","1080895","0.0-109.0","A2Y0WNHMT4PZ4C","","","","","9","","","","","","","","","","","","","","","","","","","","","",""
"null","","image-button-response","111","1085897","0.0-110.0","A2Y0WNHMT4PZ4C","img_art/9.jpg","null","","","","","","","","","","","","","","","","","","","","","","","","",""
"2168","","image-button-response","112","1088068","0.0-111.0","A2Y0WNHMT4PZ4C","img_art/9.jpg","4","","","","","","","","","","","","","","","","","","","","","","","","",""
"1382","","image-button-response","113","1089451","0.0-112.0-0.0","A2Y0WNHMT4PZ4C","img_art/9.jpg","3","","","","","","","","","","","","","","","","","","","","","","","","",""
"1405","","image-button-response","114","1090858","0.0-113.0-0.0","A2Y0WNHMT4PZ4C","img_art/9.jpg","5","","","","","","","","","","","","","","","","","","","","","","","","",""
"null","","html-keyboard-response","115","1091361","0.0-114.0","A2Y0WNHMT4PZ4C","<p style=""font-size: 48px;"">+</p>","","","","","null","allTrialResponses","500","1","10","img_art/9.jpg","9","I like the use of colors here but not sure what this is about.","Logan,Noah,Nathan,Malik,Miguel,Robert","is that sleeping beauty,33,360,20","while I don't dispute the art, it feels childish,-20,260,20","Looks like a child's drawing,-40,200,20","Colorful and expressive,15,40,20","Abstract but not well made,-26,160,20","Someone sleeping in a cave. Dont like the scribble look.,-30,360,20","Miguel","Abstract but not well made,-26,160,20","Malik","Colorful and expressive,15,40,20","Robert","Someone sleeping in a cave. Dont like the scribble look.,-30,360,20","2"
"4080","","survey-text","116","1095456","0.0-115.0-0.0","A2Y0WNHMT4PZ4C","","","","{""Q0"":""our""}","","","","","","","","","","","","","","","","","","","","","","",""
"21133","","survey-text","117","1116591","0.0-116.0-0.0","A2Y0WNHMT4PZ4C","","","","{""Q0"":""I love the dark but bright colors of this, a very dramatic look.""}","","","","","","","","","","","","","","","","","","","","","","",""
"2357.2999999523163","","image-slider-response","118","1118950","0.0-117.0","A2Y0WNHMT4PZ4C","","","","","31","","","","","","","","","","","","","","","","","","","","","",""
"null","","image-button-response","119","1123959","0.0-118.0","A2Y0WNHMT4PZ4C","img_art/23.jpg","null","","","","","","","","","","","","","","","","","","","","","","","","",""
"402","","image-button-response","120","1124363","0.0-119.0","A2Y0WNHMT4PZ4C","img_art/23.jpg","2","","","","","","","","","","","","","","","","","","","","","","","","",""
"1118","","image-button-response","121","1125483","0.0-120.0-0.0","A2Y0WNHMT4PZ4C","img_art/23.jpg","4","","","","","","","","","","","","","","","","","","","","","","","","",""
"1405","","image-button-response","122","1126890","0.0-121.0-0.0","A2Y0WNHMT4PZ4C","img_art/23.jpg","3","","","","","","","","","","","","","","","","","","","","","","","","",""
"null","","html-keyboard-response","123","1127897","0.0-122.0","A2Y0WNHMT4PZ4C","<p style=""font-size: 48px;"">+</p>","","","","","null","allTrialResponses","1000","1","11","img_art/23.jpg","31","I love the dark but bright colors of this, a very dramatic look.","Adrian,Richard,Jesus,Malik,Miguel,Robert","Too much contrasting colors together. I hate it.,-50,60,20","it's OK, but just OK, kind of interesting but I wouldn't spend money on it,4,340,20","The usage of color is great, but not my style.,-15,100,20","Very intense and unique,3,40,20","Awesome abstraction love it.,30,160,20","This makes me think of an orchestra playing a forth of july song,12,360,20","Jesus","The usage of color is great, but not my style.,-15,100,20","Miguel","Awesome abstraction love it.,30,160,20","Malik","Very intense and unique,3,40,20","2"
"16068","","survey-text","124","1143971","0.0-123.0-0.0","A2Y0WNHMT4PZ4C","","","","{""Q0"":""Very simple but effective looking piece.""}","","","","","","","","","","","","","","","","","","","","","","",""
"2213.2000000476837","","image-slider-response","125","1146186","0.0-124.0","A2Y0WNHMT4PZ4C","","","","","22","","","","","","","","","","","","","","","","","","","","","",""
"null","","image-button-response","126","1151188","0.0-125.0","A2Y0WNHMT4PZ4C","img_art/10.jpg","null","","","","","","","","","","","","","","","","","","","","","","","","",""
"104","","image-button-response","127","1151295","0.0-126.0","A2Y0WNHMT4PZ4C","img_art/10.jpg","2","","","","","","","","","","","","","","","","","","","","","","","","",""
"2429","","image-button-response","128","1153726","0.0-127.0-0.0","A2Y0WNHMT4PZ4C","img_art/10.jpg","3","","","","","","","","","","","","","","","","","","","","","","","","",""
"4340","","image-button-response","129","1158068","0.0-128.0-0.0","A2Y0WNHMT4PZ4C","img_art/10.jpg","0","","","","","","","","","","","","","","","","","","","","","","","","",""
"null","","html-keyboard-response","130","1159070","0.0-129.0","A2Y0WNHMT4PZ4C","<p style=""font-size: 48px;"">+</p>","","","","","null","allTrialResponses","1000","1","12","img_art/10.jpg","22","Very simple but effective looking piece.","Jacob,Ryan,Jesus,Malik,Miguel,Jose","I feel like this has a cool concept behind it.,11,340,20","Reminds me of a beautiful ship wreck,36,380,20","The design is very fluid and fun to interpret,35,100,20","Good texture, expressive,18,40,20","It just looks like a dirty stain.,-38,160,20","This is pretty rad. The outline looks like a music staff,15,200,20","Jesus","The design is very fluid and fun to interpret,35,100,20","Malik","Good texture, expressive,18,40,20","Jacob","I feel like this has a cool concept behind it.,11,340,20","2"
"24906","","survey-text","131","1183985","0.0-130.0-0.0","A2Y0WNHMT4PZ4C","","","","{""Q0"":""I love the detail of the tree and the technique that is used, very expressive.""}","","","","","","","","","","","","","","","","","","","","","","",""
"3980.399999976158","","image-slider-response","132","1187967","0.0-131.0","A2Y0WNHMT4PZ4C","","","","","50","","","","","","","","","","","","","","","","","","","","","",""
"3964","","image-button-response","133","1192969","0.0-132.0","A2Y0WNHMT4PZ4C","img_art/17.jpg","1","","","","","","","","","","","","","","","","","","","","","","","","",""
"1312","","image-button-response","134","1194284","0.0-133.0","A2Y0WNHMT4PZ4C","img_art/17.jpg","1","","","","","","","","","","","","","","","","","","","","","","","","",""
"1605","","image-button-response","135","1195891","0.0-134.0-0.0","A2Y0WNHMT4PZ4C","img_art/17.jpg","2","","","","","","","","","","","","","","","","","","","","","","","","",""
"4748","","image-button-response","136","1200641","0.0-135.0-0.0","A2Y0WNHMT4PZ4C","img_art/17.jpg","5","","","","","","","","","","","","","","","","","","","","","","","","",""
"null","","html-keyboard-response","137","1201643","0.0-136.0","A2Y0WNHMT4PZ4C","<p style=""font-size: 48px;"">+</p>","","","","","null","allTrialResponses","1000","1","13","img_art/17.jpg","50","I love the detail of the tree and the technique that is used, very expressive.","Jacob,Bradley,Jesus,Malik,Jared,Blake","The way they painted the trees is so cool.,27,340,20","It kind of pulls you in to float away with it.,9,300,20","Very fun textures,32,100,20","I love vague, dreamlike styles,50,40,20","the colors, the arch and the wall,15,400,20","soft and warm light colors are relaxing,12,280,20","Bradley","It kind of pulls you in to float away with it.,9,300,20","Jesus","Very fun textures,32,100,20","Blake","soft and warm light colors are relaxing,12,280,20","2"
"19454","","survey-text","138","1221103","0.0-137.0-0.0","A2Y0WNHMT4PZ4C","","","","{""Q0"":""What is this, looks like a child's painting.""}","","","","","","","","","","","","","","","","","","","","","","",""
"3125.2000000476837","","image-slider-response","139","1224230","0.0-138.0","A2Y0WNHMT4PZ4C","","","","","-50","","","","","","","","","","","","","","","","","","","","","",""
"null","","image-button-response","140","1229236","0.0-139.0","A2Y0WNHMT4PZ4C","img_art/5.jpg","null","","","","","","","","","","","","","","","","","","","","","","","","",""
"2413","","image-button-response","141","1231651","0.0-140.0","A2Y0WNHMT4PZ4C","img_art/5.jpg","5","","","","","","","","","","","","","","","","","","","","","","","","",""
"6267","","image-button-response","142","1237919","0.0-141.0-0.0","A2Y0WNHMT4PZ4C","img_art/5.jpg","1","","","","","","","","","","","","","","","","","","","","","","","","",""
"5819","","image-button-response","143","1243741","0.0-142.0-0.0","A2Y0WNHMT4PZ4C","img_art/5.jpg","2","","","","","","","","","","","","","","","","","","","","","","","","",""
"null","","html-keyboard-response","144","1244244","0.0-143.0","A2Y0WNHMT4PZ4C","<p style=""font-size: 48px;"">+</p>","","","","","null","allTrialResponses","500","1","14","img_art/5.jpg","-50","What is this, looks like a child's painting.","Joshua,Bradley,Jesus,John,Shane,Blake","Very basic, but at least has some color to it.,-9,240,20","Looks like a tied up trash bag.,-10,300,20","Overpowering colors.,-26,100,20","It has a sense of vague familiarity that i like.Like a stick starting a fire at a campsite.,30,120,20","Seems clean and neat,11,80,20","puke yellow with nothing but sadness,-35,280,20","Blake","puke yellow with nothing but sadness,-35,280,20","Bradley","Looks like a tied up trash bag.,-10,300,20","Jesus","Overpowering colors.,-26,100,20","2"
"26133","","survey-text","145","1270385","0.0-144.0-0.0","A2Y0WNHMT4PZ4C","","","","{""Q0"":""This has a 3D feel to it, love the use of colors without being too over powering.""}","","","","","","","","","","","","","","","","","","","","","","",""
"2485.2999999523163","","image-slider-response","146","1272872","0.0-145.0","A2Y0WNHMT4PZ4C","","","","","39","","","","","","","","","","","","","","","","","","","","","",""
"4628","","image-button-response","147","1277878","0.0-146.0","A2Y0WNHMT4PZ4C","img_art/18.jpg","2","","","","","","","","","","","","","","","","","","","","","","","","",""
"332","","image-button-response","148","1278213","0.0-147.0","A2Y0WNHMT4PZ4C","img_art/18.jpg","2","","","","","","","","","","","","","","","","","","","","","","","","",""
"2149","","image-button-response","149","1280364","0.0-148.0-0.0","A2Y0WNHMT4PZ4C","img_art/18.jpg","4","","","","","","","","","","","","","","","","","","","","","","","","",""
"4196","","image-button-response","150","1284562","0.0-149.0-0.0","A2Y0WNHMT4PZ4C","img_art/18.jpg","5","","","","","","","","","","","","","","","","","","","","","","","","",""
"null","","html-keyboard-response","151","1285065","0.0-150.0","A2Y0WNHMT4PZ4C","<p style=""font-size: 48px;"">+</p>","","","","","null","allTrialResponses","500","1","15","img_art/18.jpg","39","This has a 3D feel to it, love the use of colors without being too over powering.","Caleb,Bradley,Jesus,Anthony,Eric,Blake","Accents make this piece.,21,40,20","This one is very dark and apocalyptic indeed!,-30,300,20","The shapes are very fun to interpret,30,100,20","I have no strong feelings about this image,1,200,20","I like the colors being used, but I don't like the chaos in the middle of it.,20,100,20","i like the colors. outerspace,21,280,20","Jesus","The shapes are very fun to interpret,30,100,20","Eric","I like the colors being used, but I don't like the chaos in the middle of it.,20,100,20","Blake","i like the colors. outerspace,21,280,20","2"
"5441","","survey-text","152","1290520","0.0-151.0-0.0","A2Y0WNHMT4PZ4C","","","","{""Q0"":""course""}","","","","","","","","","","","","","","","","","","","","","","",""
"27235","","survey-text","153","1317756","0.0-152.0-0.0","A2Y0WNHMT4PZ4C","","","","{""Q0"":""Very dull but with a lot of detail in the design.""}","","","","","","","","","","","","","","","","","","","","","","",""
"2420.1999999284744","","image-slider-response","154","1320178","0.0-153.0","A2Y0WNHMT4PZ4C","","","","","19","","","","","","","","","","","","","","","","","","","","","",""
"3982","","image-button-response","155","1325183","0.0-154.0","A2Y0WNHMT4PZ4C","img_art/28.jpg","2","","","","","","","","","","","","","","","","","","","","","","","","",""
"1000","","image-button-response","156","1326184","0.0-155.0","A2Y0WNHMT4PZ4C","img_art/28.jpg","0","","","","","","","","","","","","","","","","","","","","","","","","",""
"1253","","image-button-response","157","1327439","0.0-156.0-0.0","A2Y0WNHMT4PZ4C","img_art/28.jpg","2","","","","","","","","","","","","","","","","","","","","","","","","",""
"5773","","image-button-response","158","1333213","0.0-157.0-0.0","A2Y0WNHMT4PZ4C","img_art/28.jpg","1","","","","","","","","","","","","","","","","","","","","","","","","",""
"null","","html-keyboard-response","159","1333716","0.0-158.0","A2Y0WNHMT4PZ4C","<p style=""font-size: 48px;"">+</p>","","","","","null","allTrialResponses","500","1","16","img_art/28.jpg","19","Very dull but with a lot of detail in the design.","Devin,Jeffrey,Jesus,Bryan,Eric,Blake","It is a bit drab,-10,380,20","Nothing calls my attention,15,40,20","The muted tones aren't my favorite.,-10,100,20","A meeting in Old Jerusalem.,11,400,20","I enjoy the colors.,25,100,20","an old woman in a wheelchair. sad,-35,280,20","Devin","It is a bit drab,-10,380,20","Jesus","The muted tones aren't my favorite.,-10,100,20","Jeffrey","Nothing calls my attention,15,40,20","2"
"28890","","survey-text","160","1362615","0.0-159.0-0.0","A2Y0WNHMT4PZ4C","","","","{""Q0"":""This is how I picture an abstract, use of straight lines and some bold colors mixed in.""}","","","","","","","","","","","","","","","","","","","","","","",""
"2237.4000000953674","","image-slider-response","161","1364854","0.0-160.0","A2Y0WNHMT4PZ4C","","","","","33","","","","","","","","","","","","","","","","","","","","","",""
"3285","","image-button-response","162","1369865","0.0-161.0","A2Y0WNHMT4PZ4C","img_art/8.jpg","0","","","","","","","","","","","","","","","","","","","","","","","","",""
"1495","","image-button-response","163","1371363","0.0-162.0","A2Y0WNHMT4PZ4C","img_art/8.jpg","2","","","","","","","","","","","","","","","","","","","","","","","","",""
"702","","image-button-response","164","1372067","0.0-163.0-0.0","A2Y0WNHMT4PZ4C","img_art/8.jpg","0","","","","","","","","","","","","","","","","","","","","","","","","",""
"4964","","image-button-response","165","1377033","0.0-164.0-0.0","A2Y0WNHMT4PZ4C","img_art/8.jpg","5","","","","","","","","","","","","","","","","","","","","","","","","",""
"null","","html-keyboard-response","166","1377545","0.0-165.0","A2Y0WNHMT4PZ4C","<p style=""font-size: 48px;"">+</p>","","","","","null","allTrialResponses","500","1","17","img_art/8.jpg","33","This is how I picture an abstract, use of straight lines and some bold colors mixed in.","Devin,Jeffrey,Jesus,Samuel,Angel,Brandon","Very nice detail and colors!,10,380,20","Very busy, I want to look at it and investigate,23,40,20","The different shapes are fun to look for.,30,100,20","being watched over,17,400,20","The angle makes it kind of disorienting but I enjoy the fantastical colors and imagery. It's like a dream.,10,180,20","Reminds me of old 80s fantasy book covers. Nostalgic,23,320,20","Jesus","The different shapes are fun to look for.,30,100,20","Devin","Very nice detail and colors!,10,380,20","Brandon","Reminds me of old 80s fantasy book covers. Nostalgic,23,320,20","2"
"78157","","survey-text","167","1455708","0.0-166.0-0.0","A2Y0WNHMT4PZ4C","","","","{""Q0"":""Hate the color and the construction""}","","","","","","","","","","","","","","","","","","","","","","",""
"2444.0999999046326","","image-slider-response","168","1458154","0.0-167.0","A2Y0WNHMT4PZ4C","","","","","-50","","","","","","","","","","","","","","","","","","","","","",""
"4756","","image-button-response","169","1463165","0.0-168.0","A2Y0WNHMT4PZ4C","img_art/4.jpg","3","","","","","","","","","","","","","","","","","","","","","","","","",""
"2329","","image-button-response","170","1465495","0.0-169.0","A2Y0WNHMT4PZ4C","img_art/4.jpg","0","","","","","","","","","","","","","","","","","","","","","","","","",""
"871","","image-button-response","171","1466367","0.0-170.0-0.0","A2Y0WNHMT4PZ4C","img_art/4.jpg","3","","","","","","","","","","","","","","","","","","","","","","","","",""
"2342","","image-button-response","172","1468711","0.0-171.0-0.0","A2Y0WNHMT4PZ4C","img_art/4.jpg","5","","","","","","","","","","","","","","","","","","","","","","","","",""
"null","","html-keyboard-response","173","1469712","0.0-172.0","A2Y0WNHMT4PZ4C","<p style=""font-size: 48px;"">+</p>","","","","","null","allTrialResponses","1000","1","18","img_art/4.jpg","-50","Hate the color and the construction","Devin,Elijah,Jesus,Brian,Vincent,Brandon","Not impressed really,-20,380,20","Looks like a hand, not very impressed,-22,80,20","I don't enjoy the colors, or texture, it seems like mustard,-23,100,20","it reminds me of McDonalds, and not in a good way.,-34,380,20","I like it not sure much of how I feel about it,7,360,20","Really don't like this. Kindergarten art, sorry.,-50,320,20","Devin","Not impressed really,-20,380,20","Brian","it reminds me of McDonalds, and not in a good way.,-34,380,20","Brandon","Really don't like this. Kindergarten art, sorry.,-50,320,20","2"
"17765","","survey-text","174","1487485","0.0-173.0-0.0","A2Y0WNHMT4PZ4C","","","","{""Q0"":""Have no idea what the artist is trying to do here, hate it.""}","","","","","","","","","","","","","","","","","","","","","","",""
"2365.5","","image-slider-response","175","1489852","0.0-174.0","A2Y0WNHMT4PZ4C","","","","","-50","","","","","","","","","","","","","","","","","","","","","",""
"3685","","image-button-response","176","1494868","0.0-175.0","A2Y0WNHMT4PZ4C","img_art/6.jpg","0","","","","","","","","","","","","","","","","","","","","","","","","",""
"1460","","image-button-response","177","1496329","0.0-176.0","A2Y0WNHMT4PZ4C","img_art/6.jpg","3","","","","","","","","","","","","","","","","","","","","","","","","",""
"3718","","image-button-response","178","1500049","0.0-177.0-0.0","A2Y0WNHMT4PZ4C","img_art/6.jpg","4","","","","","","","","","","","","","","","","","","","","","","","","",""
"1245","","image-button-response","179","1501295","0.0-178.0-0.0","A2Y0WNHMT4PZ4C","img_art/6.jpg","0","","","","","","","","","","","","","","","","","","","","","","","","",""
"null","","html-keyboard-response","180","1502301","0.0-179.0","A2Y0WNHMT4PZ4C","<p style=""font-size: 48px;"">+</p>","","","","","null","allTrialResponses","1000","1","19","img_art/6.jpg","-50","Have no idea what the artist is trying to do here, hate it.","Devin,Jason,Isaiah,Brian,Grant,Brandon","Looks a bit like a pickle or something?,-16,380,20","I like the simplicity of the picture,30,20,20","The painting makes me happy. Like I'm looking at a little bird.,6,300,20","this is too simple for me,-34,380,20","The limited colors make me feel lonely.,36,200,20","The feeling of isolation with so little objects. Great,20,320,20","Brian","this is too simple for me,-34,380,20","Grant","The limited colors make me feel lonely.,36,200,20","Devin","Looks a bit like a pickle or something?,-16,380,20","2"
"30637","","survey-text","181","1532945","0.0-180.0-0.0","A2Y0WNHMT4PZ4C","","","","{""Q0"":""Looks very dark and chaotic, maybe a picture of a busy city?""}","","","","","","","","","","","","","","","","","","","","","","",""
"2061.1999999284744","","image-slider-response","182","1535008","0.0-181.0","A2Y0WNHMT4PZ4C","","","","","-14","","","","","","","","","","","","","","","","","","","","","",""
"2309","","image-button-response","183","1540010","0.0-182.0","A2Y0WNHMT4PZ4C","img_art/19.jpg","0","","","","","","","","","","","","","","","","","","","","","","","","",""
"1816","","image-button-response","184","1541829","0.0-183.0","A2Y0WNHMT4PZ4C","img_art/19.jpg","2","","","","","","","","","","","","","","","","","","","","","","","","",""
"1413","","image-button-response","185","1543244","0.0-184.0-0.0","A2Y0WNHMT4PZ4C","img_art/19.jpg","0","","","","","","","","","","","","","","","","","","","","","","","","",""
"2125","","image-button-response","186","1545371","0.0-185.0-0.0","A2Y0WNHMT4PZ4C","img_art/19.jpg","1","","","","","","","","","","","","","","","","","","","","","","","","",""
"null","","html-keyboard-response","187","1546379","0.0-186.0","A2Y0WNHMT4PZ4C","<p style=""font-size: 48px;"">+</p>","","","","","null","allTrialResponses","1000","1","20","img_art/19.jpg","-14","Looks very dark and chaotic, maybe a picture of a busy city?","Devin,Aaron,Devon,Brian,Grant,Cameron","Looks a bit too loose,-2,380,20","I like the shapes.,22,20,20","this looks like a busy city lifestyle,24,400,20","I like this style but don't really like the specific setting of the landscape,-7,380,20","It's a cute city scene, but nothing special.,10,200,20","Snowy winter scene,25,60,20","Devon","this looks like a busy city lifestyle,24,400,20","Devin","Looks a bit too loose,-2,380,20","Aaron","I like the shapes.,22,20,20","2"
"2832","","survey-text","188","1549226","0.0-187.0-0.0","A2Y0WNHMT4PZ4C","","","","{""Q0"":""we""}","","","","","","","","","","","","","","","","","","","","","","",""
"20517","","survey-text","189","1569743","0.0-188.0-0.0","A2Y0WNHMT4PZ4C","","","","{""Q0"":""This to me is very child like.""}","","","","","","","","","","","","","","","","","","","","","","",""
"3149.399999976158","","image-slider-response","190","1572894","0.0-189.0","A2Y0WNHMT4PZ4C","","","","","-50","","","","","","","","","","","","","","","","","","","","","",""
"4396","","image-button-response","191","1577897","0.0-190.0","A2Y0WNHMT4PZ4C","img_art/16.jpg","4","","","","","","","","","","","","","","","","","","","","","","","","",""
"697","","image-button-response","192","1578596","0.0-191.0","A2Y0WNHMT4PZ4C","img_art/16.jpg","4","","","","","","","","","","","","","","","","","","","","","","","","",""
"710","","image-button-response","193","1579308","0.0-192.0-0.0","A2Y0WNHMT4PZ4C","img_art/16.jpg","5","","","","","","","","","","","","","","","","","","","","","","","","",""
"1006","","image-button-response","194","1580315","0.0-193.0-0.0","A2Y0WNHMT4PZ4C","img_art/16.jpg","0","","","","","","","","","","","","","","","","","","","","","","","","",""
"null","","html-keyboard-response","195","1581317","0.0-194.0","A2Y0WNHMT4PZ4C","<p style=""font-size: 48px;"">+</p>","","","","","null","allTrialResponses","1000","1","21","img_art/16.jpg","-50","This to me is very child like.","Devin,Aaron,Devon,Peter,Derek,Jake","That bear looks unfitting!,-8,380,20","It's edgy but cool,10,20,20","The teddy bear looks really scared,-30,400,20","It's a little unsettling,2,320,20","I can't figure out the meaning of this painting but it is pleasant to look at,40,360,20","This is creepy and puerile.,-45,360,20","Derek","I can't figure out the meaning of this painting but it is pleasant to look at,40,360,20","Jake","This is creepy and puerile.,-45,360,20","Devin","That bear looks unfitting!,-8,380,20","2"
"14031","","survey-text","196","1595356","0.0-195.0-0.0","A2Y0WNHMT4PZ4C","","","","{""Q0"":""I love the use of the colors merging into each other.""}","","","","","","","","","","","","","","","","","","","","","","",""
"2533.1999999284744","","image-slider-response","197","1597891","0.0-196.0","A2Y0WNHMT4PZ4C","","","","","23","","","","","","","","","","","","","","","","","","","","","",""
"2901","","image-button-response","198","1602894","0.0-197.0","A2Y0WNHMT4PZ4C","img_art/22.jpg","0","","","","","","","","","","","","","","","","","","","","","","","","",""
"793","","image-button-response","199","1603688","0.0-198.0","A2Y0WNHMT4PZ4C","img_art/22.jpg","4","","","","","","","","","","","","","","","","","","","","","","","","",""
"911","","image-button-response","200","1604600","0.0-199.0-0.0","A2Y0WNHMT4PZ4C","img_art/22.jpg","1","","","","","","","","","","","","","","","","","","","","","","","","",""
"366","","image-button-response","201","1604968","0.0-200.0-0.0","A2Y0WNHMT4PZ4C","img_art/22.jpg","0","","","","","","","","","","","","","","","","","","","","","","","","",""
"null","","html-keyboard-response","202","1605981","0.0-201.0","A2Y0WNHMT4PZ4C","<p style=""font-size: 48px;"">+</p>","","","","","null","allTrialResponses","1000","1","22","img_art/22.jpg","23","I love the use of the colors merging into each other.","Devin,Bryce,Kyle,Trevor,Derek,Jake","I really like the colors here,3,380,20","So colorful i love it!,22,20,20","I appreciate the artistic effort but it's not for me,0,340,20","i like the colors but it looks too 80s for me,7,280,20","Really pretty. Love the colors.,30,360,20","It's bland and ugly.,-21,360,20","Derek","Really pretty. Love the colors.,30,360,20","Bryce","So colorful i love it!,22,20,20","Devin","I really like the colors here,3,380,20","2"
"24615","","survey-text","203","1630605","0.0-202.0-0.0","A2Y0WNHMT4PZ4C","","","","{""Q0"":""I like the texture and colors although it looks like a bit of an after thought to me.""}","","","","","","","","","","","","","","","","","","","","","","",""
"4388.100000023842","","image-slider-response","204","1634994","0.0-203.0","A2Y0WNHMT4PZ4C","","","","","8","","","","","","","","","","","","","","","","","","","","","",""
"2717","","image-button-response","205","1640000","0.0-204.0","A2Y0WNHMT4PZ4C","img_art/29.jpg","0","","","","","","","","","","","","","","","","","","","","","","","","",""
"1174","","image-button-response","206","1641176","0.0-205.0","A2Y0WNHMT4PZ4C","img_art/29.jpg","5","","","","","","","","","","","","","","","","","","","","","","","","",""
"1014","","image-button-response","207","1642192","0.0-206.0-0.0","A2Y0WNHMT4PZ4C","img_art/29.jpg","0","","","","","","","","","","","","","","","","","","","","","","","","",""
"1253","","image-button-response","208","1643447","0.0-207.0-0.0","A2Y0WNHMT4PZ4C","img_art/29.jpg","0","","","","","","","","","","","","","","","","","","","","","","","","",""
"1151","","image-button-response","209","1647462","0.0-207.1-0.1","A2Y0WNHMT4PZ4C","img_art/29.jpg","1","","","","","","","","","","","","","","","","","","","","","","","","",""
"null","","html-keyboard-response","210","1648963","0.0-208.0","A2Y0WNHMT4PZ4C","<p style=""font-size: 48px;"">+</p>","","","","","null","allTrialResponses","1500","1","23","img_art/29.jpg","8","I like the texture and colors although it looks like a bit of an after thought to me.","Devin,Bryce,Zachary,Austin,Derek,Taylor","Looks a bit messy,-13,380,20","Its kinda scary,-35,20,20","It looks like someone did not like their art and drew an x over it.,-32,400,20","Has a haunting feel to it,22,240,20","Very wild and I like it,20,360,20","I would give up and give it a red X too.,-5,200,20","Taylor","I would give up and give it a red X too.,-5,200,20","Devin","Looks a bit messy,-13,380,20","Bryce","Its kinda scary,-35,20,20","4"
"19680","","survey-text","211","1668651","0.0-209.0-0.0","A2Y0WNHMT4PZ4C","","","","{""Q0"":""Love this it has a neat look about it, love the colors used.""}","","","","","","","","","","","","","","","","","","","","","","",""
"2333.5","","image-slider-response","212","1670987","0.0-210.0","A2Y0WNHMT4PZ4C","","","","","24","","","","","","","","","","","","","","","","","","","","","",""
"3045","","image-button-response","213","1675989","0.0-211.0","A2Y0WNHMT4PZ4C","img_art/11.jpg","0","","","","","","","","","","","","","","","","","","","","","","","","",""
"2056","","image-button-response","214","1678048","0.0-212.0","A2Y0WNHMT4PZ4C","img_art/11.jpg","3","","","","","","","","","","","","","","","","","","","","","","","","",""
"1365","","image-button-response","215","1679415","0.0-213.0-0.0","A2Y0WNHMT4PZ4C","img_art/11.jpg","5","","","","","","","","","","","","","","","","","","","","","","","","",""
"1014","","image-button-response","216","1680430","0.0-214.0-0.0","A2Y0WNHMT4PZ4C","img_art/11.jpg","0","","","","","","","","","","","","","","","","","","","","","","","","",""
"null","","html-keyboard-response","217","1680932","0.0-215.0","A2Y0WNHMT4PZ4C","<p style=""font-size: 48px;"">+</p>","","","","","null","allTrialResponses","500","1","24","img_art/11.jpg","24","Love this it has a neat look about it, love the colors used.","Devin,Bryce,Antonio,Tanner,Spencer,Taylor","I like the vibe of the painting,-3,380,20","Scary again. Not a fan.,-23,20,20","Makes me think of far away places and traveling. Makes me feel like wandering,20,220,20","small town, friendly. calm,35,180,20","Even with the colors, it is dreary to me,-32,120,20","Busy, busy oceanside city.,-10,200,20","Tanner","small town, friendly. calm,35,180,20","Taylor","Busy, busy oceanside city.,-10,200,20","Devin","I like the vibe of the painting,-3,380,20","4"
"20382","","survey-text","218","1701324","0.0-216.0-0.0","A2Y0WNHMT4PZ4C","","","","{""Q0"":""A mixture of various colors but cannot see what the message is in this one.""}","","","","","","","","","","","","","","","","","","","","","","",""
"2037.2000000476837","","image-slider-response","219","1703362","0.0-217.0","A2Y0WNHMT4PZ4C","","","","","-22","","","","","","","","","","","","","","","","","","","","","",""
"4836","","image-button-response","220","1708365","0.0-218.0","A2Y0WNHMT4PZ4C","img_art/2.jpg","1","","","","","","","","","","","","","","","","","","","","","","","","",""
"2801","","image-button-response","221","1711168","0.0-219.0","A2Y0WNHMT4PZ4C","img_art/2.jpg","4","","","","","","","","","","","","","","","","","","","","","","","","",""
"973","","image-button-response","222","1712143","0.0-220.0-0.0","A2Y0WNHMT4PZ4C","img_art/2.jpg","1","","","","","","","","","","","","","","","","","","","","","","","","",""
"814","","image-button-response","223","1712959","0.0-221.0-0.0","A2Y0WNHMT4PZ4C","img_art/2.jpg","2","","","","","","","","","","","","","","","","","","","","","","","","",""
"null","","html-keyboard-response","224","1713961","0.0-222.0","A2Y0WNHMT4PZ4C","<p style=""font-size: 48px;"">+</p>","","","","","null","allTrialResponses","1000","1","25","img_art/2.jpg","-22","A mixture of various colors but cannot see what the message is in this one.","Devin,Chase,Kevin,Tanner,Shawn,Taylor","I don't really like this style,-5,380,20","A bit ugly with the greens.,-20,120,20","That looks look a cartoon character of some kind.,11,320,20","smilely face, soulful,11,180,20","The color choices and lines seem a bit sloppy?,-10,100,20","Have now advanced from kindergarten to the first grade.,-5,200,20","Shawn","The color choices and lines seem a bit sloppy?,-10,100,20","Chase","A bit ugly with the greens.,-20,120,20","Kevin","That looks look a cartoon character of some kind.,11,320,20","4"
"5299","","survey-text","225","1719275","0.0-223.0-0.0","A2Y0WNHMT4PZ4C","","","","{""Q0"":""table""}","","","","","","","","","","","","","","","","","","","","","","",""
"13625","","survey-text","226","1732902","0.0-224.0-0.0","A2Y0WNHMT4PZ4C","","","","{""Q0"":""Not for me looks very sloppy.""}","","","","","","","","","","","","","","","","","","","","","","",""
"2685.100000023842","","image-slider-response","227","1735588","0.0-225.0","A2Y0WNHMT4PZ4C","","","","","-50","","","","","","","","","","","","","","","","","","","","","",""
"4756","","image-button-response","228","1740598","0.0-226.0","A2Y0WNHMT4PZ4C","img_art/30.jpg","4","","","","","","","","","","","","","","","","","","","","","","","","",""
"1106","","image-button-response","229","1741706","0.0-227.0","A2Y0WNHMT4PZ4C","img_art/30.jpg","4","","","","","","","","","","","","","","","","","","","","","","","","",""
"1478","","image-button-response","230","1743185","0.0-228.0-0.0","A2Y0WNHMT4PZ4C","img_art/30.jpg","0","","","","","","","","","","","","","","","","","","","","","","","","",""
"510","","image-button-response","231","1743696","0.0-229.0-0.0","A2Y0WNHMT4PZ4C","img_art/30.jpg","1","","","","","","","","","","","","","","","","","","","","","","","","",""
"null","","html-keyboard-response","232","1744198","0.0-230.0","A2Y0WNHMT4PZ4C","<p style=""font-size: 48px;"">+</p>","","","","","null","allTrialResponses","500","1","26","img_art/30.jpg","-50","Not for me looks very sloppy.","Hunter,Chase,Kevin,Dustin,Shawn,William","muddy, feels unintentional,-50,240,20","Too dark and ugly with all the black smears,-20,120,20","Some people dancing.,-7,320,20","Soothing color palette, but doesn't look like anything. All I see are random brush strokes.,1,20,20","Muddy, sloppy, unprofessional,-44,100,20","to dark and dreary,-28,380,20","Shawn","Muddy, sloppy, unprofessional,-44,100,20","Hunter","muddy, feels unintentional,-50,240,20","Chase","Too dark and ugly with all the black smears,-20,120,20","4"
"24880","","survey-text","233","1769085","0.0-231.0-0.0","A2Y0WNHMT4PZ4C","","","","{""Q0"":""I like the way the colors smudge into each other creating a dramatic kind of scene""}","","","","","","","","","","","","","","","","","","","","","","",""
"3045.399999976158","","image-slider-response","234","1772132","0.0-232.0","A2Y0WNHMT4PZ4C","","","","","23","","","","","","","","","","","","","","","","","","","","","",""
"4525","","image-button-response","235","1777135","0.0-233.0","A2Y0WNHMT4PZ4C","img_art/21.jpg","0","","","","","","","","","","","","","","","","","","","","","","","","",""
"521","","image-button-response","236","1777657","0.0-234.0","A2Y0WNHMT4PZ4C","img_art/21.jpg","1","","","","","","","","","","","","","","","","","","","","","","","","",""
"695","","image-button-response","237","1778353","0.0-235.0-0.0","A2Y0WNHMT4PZ4C","img_art/21.jpg","0","","","","","","","","","","","","","","","","","","","","","","","","",""
"2653","","image-button-response","238","1781008","0.0-236.0-0.0","A2Y0WNHMT4PZ4C","img_art/21.jpg","3","","","","","","","","","","","","","","","","","","","","","","","","",""
"null","","html-keyboard-response","239","1781510","0.0-237.0","A2Y0WNHMT4PZ4C","<p style=""font-size: 48px;"">+</p>","","","","","null","allTrialResponses","500","1","27","img_art/21.jpg","23","I like the way the colors smudge into each other creating a dramatic kind of scene","Hunter,Chase,Brendan,Edward,Shawn,Isaac","feels like a harbor scene,11,240,20","Kind of looks like a sky with a storm or tornado.,10,120,20","looks like a sea during some war,27,340,20","I love how vague it is but how you can imagine a story anyway, like clouds,45,60,20","Lovely colors and emotive effects. Turner-esque in a not-so derivative way.,44,100,20","I like the colors. It looks dramatic.,5,280,20","Chase","Kind of looks like a sky with a storm or tornado.,10,120,20","Hunter","feels like a harbor scene,11,240,20","Edward","I love how vague it is but how you can imagine a story anyway, like clouds,45,60,20","4"
"20207","","survey-text","240","1801726","0.0-238.0-0.0","A2Y0WNHMT4PZ4C","","","","{""Q0"":""Very detailed with the texture and colors almost a 3D look about it.""}","","","","","","","","","","","","","","","","","","","","","","",""
"2429.1999999284744","","image-slider-response","241","1804157","0.0-239.0","A2Y0WNHMT4PZ4C","","","","","44","","","","","","","","","","","","","","","","","","","","","",""
"null","","image-button-response","242","1809160","0.0-240.0","A2Y0WNHMT4PZ4C","img_art/24.jpg","null","","","","","","","","","","","","","","","","","","","","","","","","",""
"434","","image-button-response","243","1809595","0.0-241.0","A2Y0WNHMT4PZ4C","img_art/24.jpg","2","","","","","","","","","","","","","","","","","","","","","","","","",""
"3373","","image-button-response","244","1812969","0.0-242.0-0.0","A2Y0WNHMT4PZ4C","img_art/24.jpg","3","","","","","","","","","","","","","","","","","","","","","","","","",""
"998","","image-button-response","245","1813970","0.0-243.0-0.0","A2Y0WNHMT4PZ4C","img_art/24.jpg","5","","","","","","","","","","","","","","","","","","","","","","","","",""
"null","","html-keyboard-response","246","1815471","0.0-244.0","A2Y0WNHMT4PZ4C","<p style=""font-size: 48px;"">+</p>","","","","","null","allTrialResponses","1500","1","28","img_art/24.jpg","44","Very detailed with the texture and colors almost a 3D look about it.","Hunter,Chase,Luke,Edward,Alexander,Jonathan","feels overdone, but still executed well,0,240,20","This one isn't that abstract. It clearly looks like a waterfall.,31,120,20","very colorful and intricate and makes me feel at peace,50,20,20","Very pretty and soft,37,60,20","Water through the fruit.,15,120,20","The colors and brush strokes make it feel adventurous,20,140,20","Luke","very colorful and intricate and makes me feel at peace,50,20,20","Edward","Very pretty and soft,37,60,20","Jonathan","The colors and brush strokes make it feel adventurous,20,140,20","4"
"14282","","survey-text","247","1829762","0.0-245.0-0.0","A2Y0WNHMT4PZ4C","","","","{""Q0"":""This looks like a dark and deadly desease.""}","","","","","","","","","","","","","","","","","","","","","","",""
"1941.4000000953674","","image-slider-response","248","1831705","0.0-246.0","A2Y0WNHMT4PZ4C","","","","","-31","","","","","","","","","","","","","","","","","","","","","",""
"3125","","image-button-response","249","1836707","0.0-247.0","A2Y0WNHMT4PZ4C","img_art/15.jpg","0","","","","","","","","","","","","","","","","","","","","","","","","",""
"1281","","image-button-response","250","1837990","0.0-248.0","A2Y0WNHMT4PZ4C","img_art/15.jpg","4","","","","","","","","","","","","","","","","","","","","","","","","",""
"2141","","image-button-response","251","1840133","0.0-249.0-0.0","A2Y0WNHMT4PZ4C","img_art/15.jpg","0","","","","","","","","","","","","","","","","","","","","","","","","",""
"1477","","image-button-response","252","1841612","0.0-250.0-0.0","A2Y0WNHMT4PZ4C","img_art/15.jpg","1","","","","","","","","","","","","","","","","","","","","","","","","",""
"null","","html-keyboard-response","253","1843115","0.0-251.0","A2Y0WNHMT4PZ4C","<p style=""font-size: 48px;"">+</p>","","","","","null","allTrialResponses","1500","1","29","img_art/15.jpg","-31","This looks like a dark and deadly desease.","Jeremy,Paul,Luke,Edward,Christian,Jonathan","I feel nothing when looking at this,1,60,20","I don't feel much of anything when looking at this, it's just a random pattern,1,300,20","it looks like trees but they are up to interpretation,16,20,20","Reminds me of lilacs,26,60,20","very unsettling! like reverse porcelain esp because of the colors,28,140,20","Very cool, i want it in my living room,50,140,20","Christian","very unsettling! like reverse porcelain esp because of the colors,28,140,20","Jeremy","I feel nothing when looking at this,1,60,20","Paul","I don't feel much of anything when looking at this, it's just a random pattern,1,300,20","4"
"22182","","survey-text","254","1865306","0.0-252.0-0.0","A2Y0WNHMT4PZ4C","","","","{""Q0"":""Love red but this construction is very scribbly not liking this at all.""}","","","","","","","","","","","","","","","","","","","","","","",""
"3508.5","","image-slider-response","255","1868816","0.0-253.0","A2Y0WNHMT4PZ4C","","","","","-50","","","","","","","","","","","","","","","","","","","","","",""
"2309","","image-button-response","256","1873818","0.0-254.0","A2Y0WNHMT4PZ4C","img_art/3.jpg","0","","","","","","","","","","","","","","","","","","","","","","","","",""
"153","","image-button-response","257","1873974","0.0-255.0","A2Y0WNHMT4PZ4C","img_art/3.jpg","4","","","","","","","","","","","","","","","","","","","","","","","","",""
"1533","","image-button-response","258","1875509","0.0-256.0-0.0","A2Y0WNHMT4PZ4C","img_art/3.jpg","5","","","","","","","","","","","","","","","","","","","","","","","","",""
"2341","","image-button-response","259","1877852","0.0-257.0-0.0","A2Y0WNHMT4PZ4C","img_art/3.jpg","0","","","","","","","","","","","","","","","","","","","","","","","","",""
"null","","html-keyboard-response","260","1878356","0.0-258.0","A2Y0WNHMT4PZ4C","<p style=""font-size: 48px;"">+</p>","","","","","null","allTrialResponses","500","1","30","img_art/3.jpg","-50","Love red but this construction is very scribbly not liking this at all.","Jeremy,Paul,Corey,Scott,Christian,Thomas","seems too angry,-50,60,20","It looks like random scribbles by a child and not appealing,-38,300,20","seems distressing. a blood scene,-3,260,20","I like that it's messy,14,20,20","sorry do not understand,-26,140,20","Too messy and structure-less,-10,220,20","Christian","sorry do not understand,-26,140,20","Thomas","Too messy and structure-less,-10,220,20","Jeremy","seems too angry,-50,60,20","4"
"8177","","image-button-response_instructions","261","1886543","0.0-259.0","A2Y0WNHMT4PZ4C","","0","instructions","","","","","","","","","","","","","","","","","","","","","","","",""
"7583","","image-button-response","262","1894132","0.0-260.0","A2Y0WNHMT4PZ4C","","0","","","","","","","","","","","","","","","","","","","","","","","","",""
