"rt","url","trial_type","trial_index","time_elapsed","internal_node_id","participant_id","stimulus","button_pressed","Name","responses","response","key_press","variableName","fixationTime","condition","trial","photo","subjectRating","subjectResponse","agentsNames","agent_1_Response","agent_2_Response","agent_3_Response","agent_4_Response","agent_5_Response","agent_6_Response","kept_1_name","kept_1_response","kept_2_name","kept_2_response","kept_3_name","kept_3_response","errorCounter"
"27708","external_page_harvard.html","external-html","0","27766","0.0-0.0","A2Y08M7NDYFO56","","","","","","","","","","","","","","","","","","","","","","","","","","",""
"1883","","image-button-response","1","29654","0.0-1.0","A2Y08M7NDYFO56","","1","","","","","","","","","","","","","","","","","","","","","","","","",""
"1652","","image-button-response","2","31312","0.0-2.0-0.0","A2Y08M7NDYFO56","","1","phone","","","","","","","","","","","","","","","","","","","","","","","",""
"9844","","survey-text","3","41158","0.0-3.0-0.0","A2Y08M7NDYFO56","","","","{""Q0"":""A2Y08M7NDYFO56""}","","","","","","","","","","","","","","","","","","","","","","",""
"3876","","image-button-response_instructions","4","45036","0.0-4.0","A2Y08M7NDYFO56","","0","instructions","","","","","","","","","","","","","","","","","","","","","","","",""
"19565","","image-button-response_instructions","5","64603","0.0-5.0","A2Y08M7NDYFO56","img_art/ins/popularity/ins1.png","0","instructions","","","","","","","","","","","","","","","","","","","","","","","",""
"12026","","image-button-response_instructions","6","76631","0.0-6.0","A2Y08M7NDYFO56","img_art/ins/popularity/ins2.png","0","instructions","","","","","","","","","","","","","","","","","","","","","","","",""
"8575","","image-button-response_instructions","7","85207","0.0-7.0","A2Y08M7NDYFO56","img_art/ins/popularity/ins2Extreme.png","0","instructions","","","","","","","","","","","","","","","","","","","","","","","",""
"6788","","image-button-response_instructions","8","91996","0.0-8.0","A2Y08M7NDYFO56","img_art/ins/popularity/ins3KEEPpop.PNG","0","instructions","","","","","","","","","","","","","","","","","","","","","","","",""
"3369","","image-button-response_instructions","9","95367","0.0-9.0","A2Y08M7NDYFO56","img_art/ins/popularity/ins3ANamepop.PNG","0","instructions","","","","","","","","","","","","","","","","","","","","","","","",""
"6210","","image-button-response_instructions","10","101577","0.0-10.0","A2Y08M7NDYFO56","img_art/ins/popularity/ins3ARatingpop.png","0","instructions","","","","","","","","","","","","","","","","","","","","","","","",""
"4066","","image-button-response_instructions","11","105644","0.0-11.0","A2Y08M7NDYFO56","img_art/ins/popularity/ins3ATextpop.png","0","instructions","","","","","","","","","","","","","","","","","","","","","","","",""
"6395","","image-button-response_instructions","12","112040","0.0-12.0","A2Y08M7NDYFO56","img_art/ins/popularity/ins3ALikespop.png","0","instructions","","","","","","","","","","","","","","","","","","","","","","","",""
"48903","","image-button-response_instructions","13","160944","0.0-13.0","A2Y08M7NDYFO56","img_art/ins/popularity/ins3KEEPpop.PNG","0","instructions","","","","","","","","","","","","","","","","","","","","","","","",""
"36688","","image-button-response_instructions","14","197634","0.0-14.0","A2Y08M7NDYFO56","img_art/ins/popularity/ins3_5RED.png","0","instructions","","","","","","","","","","","","","","","","","","","","","","","",""
"6316","","image-button-response_instructions","15","203951","0.0-15.0","A2Y08M7NDYFO56","img_art/ins/popularity/ins3KEEPpop.PNG","0","instructions","","","","","","","","","","","","","","","","","","","","","","","",""
"8994","","image-button-response_instructions","16","212947","0.0-16.0","A2Y08M7NDYFO56","img_art/ins/popularity/ins4KEEPpop.PNG","0","instructions","","","","","","","","","","","","","","","","","","","","","","","",""
"3484","","image-button-response_instructions","17","216433","0.0-17.0","A2Y08M7NDYFO56","img_art/ins/popularity/ins5KEEPpop.PNG","0","instructions","","","","","","","","","","","","","","","","","","","","","","","",""
"3933","","image-button-response_instructions","18","220366","0.0-18.0","A2Y08M7NDYFO56","","0","instructions","","","","","","","","","","","","","","","","","","","","","","","",""
"4668","","survey-text","19","225060","0.0-19.0-0.0","A2Y08M7NDYFO56","","","","{""Q0"":""but""}","","","","","","","","","","","","","","","","","","","","","","",""
"32417","","survey-text","20","257478","0.0-20.0-0.0","A2Y08M7NDYFO56","","","","{""Q0"":""I like the colors, not the style""}","","","","","","","","","","","","","","","","","","","","","","",""
"7983","","image-slider-response","21","265465","0.0-21.0","A2Y08M7NDYFO56","","","","","3","","","","","","","","","","","","","","","","","","","","","",""
"null","","image-button-response","22","270469","0.0-22.0","A2Y08M7NDYFO56","img_art/ins/1.jpg","null","","","","","","","","","","","","","","","","","","","","","","","","",""
"2556","","image-button-response","23","273026","0.0-23.0","A2Y08M7NDYFO56","img_art/ins/1.jpg","3","","","","","","","","","","","","","","","","","","","","","","","","",""
"4744","","image-button-response","24","277772","0.0-24.0-0.0","A2Y08M7NDYFO56","img_art/ins/1.jpg","5","","","","","","","","","","","","","","","","","","","","","","","","",""
"1678","","image-button-response","25","279452","0.0-25.0-0.0","A2Y08M7NDYFO56","img_art/ins/1.jpg","1","","","","","","","","","","","","","","","","","","","","","","","","",""
"null","","html-keyboard-response","26","280456","0.0-26.0","A2Y08M7NDYFO56","<p style=""font-size: 48px;"">+</p>","","","","","null","allTrialResponses","1000","1","-2","img_art/ins/1.jpg","3","I like the colors, not the style","Allison,Ashley,Beth,Dora,Erika,Jen","looks like a lot of things going on in the mist,20,20,20","I just don't get why these type of art would be popular,-32,40,20","This color reminds me of poo,-46,60,20","looks like what my niece in 3rd grade did this afternoon,-50,80,20","I like the sophisticated brushwork,40,100,20","It reminds me of a candy land dream I had,36,120,20","Dora","looks like what my niece in 3rd grade did this afternoon,-50,80,20","Jen","It reminds me of a candy land dream I had,36,120,20","Ashley","I just don't get why these type of art would be popular,-32,40,20","0"
"34183","","survey-text","27","314646","0.0-27.0-0.0","A2Y08M7NDYFO56","","","","{""Q0"":""I would hang this in my home. I really like it. ""}","","","","","","","","","","","","","","","","","","","","","","",""
"12899","","image-slider-response","28","327546","0.0-28.0","A2Y08M7NDYFO56","","","","","36","","","","","","","","","","","","","","","","","","","","","",""
"null","","image-button-response","29","332550","0.0-29.0","A2Y08M7NDYFO56","img_art/ins/2.jpg","null","","","","","","","","","","","","","","","","","","","","","","","","",""
"1468","","image-button-response","30","334019","0.0-30.0","A2Y08M7NDYFO56","img_art/ins/2.jpg","4","","","","","","","","","","","","","","","","","","","","","","","","",""
"1591","","image-button-response","31","335611","0.0-31.0-0.0","A2Y08M7NDYFO56","img_art/ins/2.jpg","5","","","","","","","","","","","","","","","","","","","","","","","","",""
"5599","","image-button-response","32","341212","0.0-32.0-0.0","A2Y08M7NDYFO56","img_art/ins/2.jpg","0","","","","","","","","","","","","","","","","","","","","","","","","",""
"null","","html-keyboard-response","33","341713","0.0-33.0","A2Y08M7NDYFO56","<p style=""font-size: 48px;"">+</p>","","","","","null","allTrialResponses","500","1","-1","img_art/ins/2.jpg","36","I would hang this in my home. I really like it. ","Jenna,Ashley,Katie,Dora,Kara,Jen","One of my pet peevs,-48,140,20","Idk, it is just annoying,-32,40,20","too much color!,-28,180,20","looks too angry,-50,80,20","I like the blocks of color arrangements,30,160,20","It reminds me of a fireplace,36,120,20","Kara","I like the blocks of color arrangements,30,160,20","Jen","It reminds me of a fireplace,36,120,20","Jenna","One of my pet peevs,-48,140,20","0"
"34957","","survey-text","34","376675","0.0-34.0-0.0","A2Y08M7NDYFO56","","","","{""Q0"":""Its like an icy snowscape.""}","","","","","","","","","","","","","","","","","","","","","","",""
"5949","","image-slider-response","35","382626","0.0-35.0","A2Y08M7NDYFO56","","","","","18","","","","","","","","","","","","","","","","","","","","","",""
"3610","","image-button-response","36","387629","0.0-36.0","A2Y08M7NDYFO56","img_art/ins/3.jpg","4","","","","","","","","","","","","","","","","","","","","","","","","",""
"2295","","image-button-response","37","389925","0.0-37.0","A2Y08M7NDYFO56","img_art/ins/3.jpg","5","","","","","","","","","","","","","","","","","","","","","","","","",""
"1470","","image-button-response","38","391397","0.0-38.0-0.0","A2Y08M7NDYFO56","img_art/ins/3.jpg","2","","","","","","","","","","","","","","","","","","","","","","","","",""
"61457","","image-button-response","39","452855","0.0-39.0-0.0","A2Y08M7NDYFO56","img_art/ins/3.jpg","3","","","","","","","","","","","","","","","","","","","","","","","","",""
"null","","html-keyboard-response","40","453858","0.0-40.0","A2Y08M7NDYFO56","<p style=""font-size: 48px;"">+</p>","","","","","null","allTrialResponses","1000","1","0","img_art/ins/3.jpg","18","Its like an icy snowscape.","Jenna,Rose,Mary,Leslie,Kara,Jen","looks like a murder room,-35,140,20","My daily routine, it's depressing,-20,240,20","I like the overlapping of brushes,41,220,20","It's an alright work,15,200,20","calming blue is very nice,36,160,20","I can feel a rainy day from this painting,18,120,20","Jen","I can feel a rainy day from this painting,18,120,20","Mary","I like the overlapping of brushes,41,220,20","Leslie","It's an alright work,15,200,20","0"
"4183","","image-button-response_instructions","41","458046","0.0-41.0","A2Y08M7NDYFO56","","0","instructions","","","","","","","","","","","","","","","","","","","","","","","",""
"9166","","survey-likert","42","467214","0.0-42.0-0.0","A2Y08M7NDYFO56","","","","{""Q0"":"""",""Q1"":0,""Q2"":1}","","","","","","","","","","","","","","","","","","","","","","",""
"4629","","survey-text","43","471849","0.0-43.0-0.0","A2Y08M7NDYFO56","","","","{""Q0"":""rock""}","","","","","","","","","","","","","","","","","","","","","","",""
"27446","","survey-text","44","499296","0.0-44.0-0.0","A2Y08M7NDYFO56","","","","{""Q0"":""interesting, chaotic scene""}","","","","","","","","","","","","","","","","","","","","","","",""
"6698","","image-slider-response","45","505996","0.0-45.0","A2Y08M7NDYFO56","","","","","19","","","","","","","","","","","","","","","","","","","","","",""
"null","","image-button-response","46","511025","0.0-46.0","A2Y08M7NDYFO56","img_art/14.jpg","null","","","","","","","","","","","","","","","","","","","","","","","","",""
"9084","","image-button-response","47","520110","0.0-47.0","A2Y08M7NDYFO56","img_art/14.jpg","1","","","","","","","","","","","","","","","","","","","","","","","","",""
"1341","","image-button-response","48","521455","0.0-48.0-0.0","A2Y08M7NDYFO56","img_art/14.jpg","4","","","","","","","","","","","","","","","","","","","","","","","","",""
"3485","","image-button-response","49","524942","0.0-49.0-0.0","A2Y08M7NDYFO56","img_art/14.jpg","5","","","","","","","","","","","","","","","","","","","","","","","","",""
"null","","html-keyboard-response","50","525443","0.0-50.0","A2Y08M7NDYFO56","<p style=""font-size: 48px;"">+</p>","","","","","null","allTrialResponses","500","1","1","img_art/14.jpg","19","interesting, chaotic scene","Hannah,Isabella,Destiny,Erika,Cheyenne,Alexa","This doesn't speak to me on an emotional level,-6,240,20","Feels like a camp fire among friends,22,280,20","I dont really vibe with the grayish color palette,-7,360,20","It's alright, something I'd see in a guest bedroom,10,100,20","I'm a fan of the background.,13,200,20","Very abstract and colorful,40,40,20","Isabella","Feels like a camp fire among friends,22,280,20","Cheyenne","I'm a fan of the background.,13,200,20","Alexa","Very abstract and colorful,40,40,20","0"
"12099","","survey-text","51","537548","0.0-51.0-0.0","A2Y08M7NDYFO56","","","","{""Q0"":""this seems like my kids artwork""}","","","","","","","","","","","","","","","","","","","","","","",""
"6007","","image-slider-response","52","543557","0.0-52.0","A2Y08M7NDYFO56","","","","","-30","","","","","","","","","","","","","","","","","","","","","",""
"4994","","image-button-response","53","548560","0.0-53.0","A2Y08M7NDYFO56","img_art/30.jpg","3","","","","","","","","","","","","","","","","","","","","","","","","",""
"1540","","image-button-response","54","550102","0.0-54.0","A2Y08M7NDYFO56","img_art/30.jpg","3","","","","","","","","","","","","","","","","","","","","","","","","",""
"3842","","image-button-response","55","553945","0.0-55.0-0.0","A2Y08M7NDYFO56","img_art/30.jpg","2","","","","","","","","","","","","","","","","","","","","","","","","",""
"3824","","image-button-response","56","557771","0.0-56.0-0.0","A2Y08M7NDYFO56","img_art/30.jpg","1","","","","","","","","","","","","","","","","","","","","","","","","",""
"null","","html-keyboard-response","57","558273","0.0-57.0","A2Y08M7NDYFO56","<p style=""font-size: 48px;"">+</p>","","","","","null","allTrialResponses","500","1","2","img_art/30.jpg","-30","this seems like my kids artwork","Taylor,Isabella,Cassandra,Angelica,Cheyenne,Alexa","It's a really interesting piece,20,340,20","I like the back but the red lines in the front distress me,-7,280,20","I didn't like this...it looks like someone just finger painted it.,-10,120,20","This is just simple and ugly.,-2,280,20","A bit too dark for my liking,-10,200,20","Looks quite basic but the colors are nice and there is a wildness about it that I love,0,40,20","Angelica","This is just simple and ugly.,-2,280,20","Cassandra","I didn't like this...it looks like someone just finger painted it.,-10,120,20","Isabella","I like the back but the red lines in the front distress me,-7,280,20","0"
"24607","","survey-text","58","582885","0.0-58.0-0.0","A2Y08M7NDYFO56","","","","{""Q0"":""too many different brushes, the green lines ruin it for me""}","","","","","","","","","","","","","","","","","","","","","","",""
"8138","","image-slider-response","59","591026","0.0-59.0","A2Y08M7NDYFO56","","","","","-25","","","","","","","","","","","","","","","","","","","","","",""
"2878","","image-button-response","60","596031","0.0-60.0","A2Y08M7NDYFO56","img_art/27.jpg","0","","","","","","","","","","","","","","","","","","","","","","","","",""
"1483","","image-button-response","61","597516","0.0-61.0","A2Y08M7NDYFO56","img_art/27.jpg","0","","","","","","","","","","","","","","","","","","","","","","","","",""
"1919","","image-button-response","62","599436","0.0-62.0-0.0","A2Y08M7NDYFO56","img_art/27.jpg","4","","","","","","","","","","","","","","","","","","","","","","","","",""
"3427","","image-button-response","63","602866","0.0-63.0-0.0","A2Y08M7NDYFO56","img_art/27.jpg","5","","","","","","","","","","","","","","","","","","","","","","","","",""
"null","","html-keyboard-response","64","603368","0.0-64.0","A2Y08M7NDYFO56","<p style=""font-size: 48px;"">+</p>","","","","","null","allTrialResponses","500","1","3","img_art/27.jpg","-25","too many different brushes, the green lines ruin it for me","Kelly,Isabella,Cassandra,Angelica,Alyssa,Megan","The green stick drawings or whatever they are ruin it for me.,-23,220,20","Makes me feel warm inside,21,280,20","I don't like any of it...just scibbles.,-37,120,20","This looks like a poor copy of Cy Twombly's style.,-3,280,20","Looks as if a toddler painted it,-20,160,20","Nice back ground with childish scribble on top,-30,200,20","Kelly","The green stick drawings or whatever they are ruin it for me.,-23,220,20","Alyssa","Looks as if a toddler painted it,-20,160,20","Megan","Nice back ground with childish scribble on top,-30,200,20","0"
"28733","","survey-text","65","632107","0.0-65.0-0.0","A2Y08M7NDYFO56","","","","{""Q0"":""the faces in the background are a bit disturbing ""}","","","","","","","","","","","","","","","","","","","","","","",""
"6538","","image-slider-response","66","638647","0.0-66.0","A2Y08M7NDYFO56","","","","","-19","","","","","","","","","","","","","","","","","","","","","",""
"null","","image-button-response","67","643650","0.0-67.0","A2Y08M7NDYFO56","img_art/8.jpg","null","","","","","","","","","","","","","","","","","","","","","","","","",""
"5194","","image-button-response","68","648845","0.0-68.0","A2Y08M7NDYFO56","img_art/8.jpg","5","","","","","","","","","","","","","","","","","","","","","","","","",""
"2345","","image-button-response","69","651191","0.0-69.0-0.0","A2Y08M7NDYFO56","img_art/8.jpg","3","","","","","","","","","","","","","","","","","","","","","","","","",""
"1939","","image-button-response","70","653133","0.0-70.0-0.0","A2Y08M7NDYFO56","img_art/8.jpg","0","","","","","","","","","","","","","","","","","","","","","","","","",""
"null","","html-keyboard-response","71","654135","0.0-71.0","A2Y08M7NDYFO56","<p style=""font-size: 48px;"">+</p>","","","","","null","allTrialResponses","1000","1","4","img_art/8.jpg","-19","the faces in the background are a bit disturbing ","Kelly,Chelsea,Kaitlin,Brittany,Alyssa,Megan","Interesting, i really like the face and the moon. Realy detailed and you see something new with each look.,11,220,20","It looks like it took a lot of time to complete.,34,180,20","wow - the colors were very well mixed,12,60,20","Interesting to look at, there are many things happening in the painting.,32,40,20","I like how the more you like at it there are more things to discover.Very creative.,33,160,20","Cortez's influence with fair color choices,10,200,20","Megan","Cortez's influence with fair color choices,10,200,20","Brittany","Interesting to look at, there are many things happening in the painting.,32,40,20","Kelly","Interesting, i really like the face and the moon. Realy detailed and you see something new with each look.,11,220,20","0"
"22078","","survey-text","72","676218","0.0-72.0-0.0","A2Y08M7NDYFO56","","","","{""Q0"":""roller coaster mock up?""}","","","","","","","","","","","","","","","","","","","","","","",""
"4613.000000000116","","image-slider-response","73","680832","0.0-73.0","A2Y08M7NDYFO56","","","","","1","","","","","","","","","","","","","","","","","","","","","",""
"null","","image-button-response","74","685835","0.0-74.0","A2Y08M7NDYFO56","img_art/10.jpg","null","","","","","","","","","","","","","","","","","","","","","","","","",""
"10093","","image-button-response","75","695929","0.0-75.0","A2Y08M7NDYFO56","img_art/10.jpg","0","","","","","","","","","","","","","","","","","","","","","","","","",""
"1681","","image-button-response","76","697611","0.0-76.0-0.0","A2Y08M7NDYFO56","img_art/10.jpg","1","","","","","","","","","","","","","","","","","","","","","","","","",""
"4569","","image-button-response","77","702182","0.0-77.0-0.0","A2Y08M7NDYFO56","img_art/10.jpg","5","","","","","","","","","","","","","","","","","","","","","","","","",""
"null","","html-keyboard-response","78","702684","0.0-78.0","A2Y08M7NDYFO56","<p style=""font-size: 48px;"">+</p>","","","","","null","allTrialResponses","500","1","5","img_art/10.jpg","1","roller coaster mock up?","Kelly,Julia,Shannon,Brittany,Kristen,Megan","I cant tell what this is supposed to be, but I enjoy the simplicity of it.,28,220,20","this is a good painting, but feels musical in a way that I don't connect with.,-14,40,20","I can't tell what this picture is supposed to mean and I think the colors are lacking variety.,-42,220,20","The design is dynamic and interesting.,14,40,20","music, serenity, love,33,280,20","Music visualized with subtle color,17,200,20","Kelly","I cant tell what this is supposed to be, but I enjoy the simplicity of it.,28,220,20","Julia","this is a good painting, but feels musical in a way that I don't connect with.,-14,40,20","Megan","Music visualized with subtle color,17,200,20","0"
"3048","","survey-text","79","705740","0.0-79.0-0.0","A2Y08M7NDYFO56","","","","{""Q0"":""sky""}","","","","","","","","","","","","","","","","","","","","","","",""
"35348","","survey-text","80","741089","0.0-80.0-0.0","A2Y08M7NDYFO56","","","","{""Q0"":""David and Goliath I could see this having a market""}","","","","","","","","","","","","","","","","","","","","","","",""
"6140","","image-slider-response","81","747230","0.0-81.0","A2Y08M7NDYFO56","","","","","10","","","","","","","","","","","","","","","","","","","","","",""
"3908","","image-button-response","82","752234","0.0-82.0","A2Y08M7NDYFO56","img_art/25.jpg","3","","","","","","","","","","","","","","","","","","","","","","","","",""
"3119","","image-button-response","83","755355","0.0-83.0","A2Y08M7NDYFO56","img_art/25.jpg","5","","","","","","","","","","","","","","","","","","","","","","","","",""
"1806","","image-button-response","84","757163","0.0-84.0-0.0","A2Y08M7NDYFO56","img_art/25.jpg","1","","","","","","","","","","","","","","","","","","","","","","","","",""
"1875","","image-button-response","85","759039","0.0-85.0-0.0","A2Y08M7NDYFO56","img_art/25.jpg","3","","","","","","","","","","","","","","","","","","","","","","","","",""
"null","","html-keyboard-response","86","759541","0.0-86.0","A2Y08M7NDYFO56","<p style=""font-size: 48px;"">+</p>","","","","","null","allTrialResponses","500","1","6","img_art/25.jpg","10","David and Goliath I could see this having a market","Kelly,Julia,Vanessa,Sabrina,Christina,Megan","I love the color. I don't know what exactly is going on but I like it.,24,220,20","the color is pleasing and draws out the contrast of the lines,10,40,20","I don't like the color. I don't like the abstract-ness of it.,-22,380,20","New life, rising from your personal battles,50,120,20","nice colors and it looks like a native work,32,240,20","Beautiful color with an interesting otherworldly figure,29,200,20","Megan","Beautiful color with an interesting otherworldly figure,29,200,20","Julia","the color is pleasing and draws out the contrast of the lines,10,40,20","Sabrina","New life, rising from your personal battles,50,120,20","0"
"39196","","survey-text","87","798742","0.0-87.0-0.0","A2Y08M7NDYFO56","","","","{""Q0"":""this is calming, but very doctors office-esque""}","","","","","","","","","","","","","","","","","","","","","","",""
"8842.000000000116","","image-slider-response","88","807586","0.0-88.0","A2Y08M7NDYFO56","","","","","11","","","","","","","","","","","","","","","","","","","","","",""
"null","","image-button-response","89","812590","0.0-89.0","A2Y08M7NDYFO56","img_art/26.jpg","null","","","","","","","","","","","","","","","","","","","","","","","","",""
"881","","image-button-response","90","813472","0.0-90.0","A2Y08M7NDYFO56","img_art/26.jpg","4","","","","","","","","","","","","","","","","","","","","","","","","",""
"4965","","image-button-response","91","818439","0.0-91.0-0.0","A2Y08M7NDYFO56","img_art/26.jpg","2","","","","","","","","","","","","","","","","","","","","","","","","",""
"1989","","image-button-response","92","820428","0.0-92.0-0.0","A2Y08M7NDYFO56","img_art/26.jpg","0","","","","","","","","","","","","","","","","","","","","","","","","",""
"null","","html-keyboard-response","93","820930","0.0-93.0","A2Y08M7NDYFO56","<p style=""font-size: 48px;"">+</p>","","","","","null","allTrialResponses","500","1","7","img_art/26.jpg","11","this is calming, but very doctors office-esque","Briana,Julia,Amber,Sabrina,Gabriela,Megan","Another blob on a landscape. A city street?,9,400,20","I'm not really into landscapes unless I have a personal connection to them,-21,40,20","The colors are muted.,1,200,20","I dont see any expression,-29,120,20","it makes me feel normal and calm, I like the busy city street,10,140,20","Washed out suburban scene with childish tones.,-24,200,20","Gabriela","it makes me feel normal and calm, I like the busy city street,10,140,20","Amber","The colors are muted.,1,200,20","Briana","Another blob on a landscape. A city street?,9,400,20","0"
"30832","","survey-text","94","851767","0.0-94.0-0.0","A2Y08M7NDYFO56","","","","{""Q0"":""New Orleans! party time""}","","","","","","","","","","","","","","","","","","","","","","",""
"6544","","image-slider-response","95","858313","0.0-95.0","A2Y08M7NDYFO56","","","","","17","","","","","","","","","","","","","","","","","","","","","",""
"null","","image-button-response","96","863315","0.0-96.0","A2Y08M7NDYFO56","img_art/23.jpg","null","","","","","","","","","","","","","","","","","","","","","","","","",""
"2390","","image-button-response","97","865706","0.0-97.0","A2Y08M7NDYFO56","img_art/23.jpg","4","","","","","","","","","","","","","","","","","","","","","","","","",""
"2038","","image-button-response","98","867745","0.0-98.0-0.0","A2Y08M7NDYFO56","img_art/23.jpg","1","","","","","","","","","","","","","","","","","","","","","","","","",""
"6217","","image-button-response","99","873964","0.0-99.0-0.0","A2Y08M7NDYFO56","img_art/23.jpg","5","","","","","","","","","","","","","","","","","","","","","","","","",""
"null","","html-keyboard-response","100","874467","0.0-100.0","A2Y08M7NDYFO56","<p style=""font-size: 48px;"">+</p>","","","","","null","allTrialResponses","500","1","8","img_art/23.jpg","17","New Orleans! party time","Briana,Samantha,Amber,Sydney,Gabriela,Emily","White in the middle look like people dancing naked,19,400,20","The more i look at it the more i like it  the dots of color and very interesting,50,140,20","The background colors seem too dark and the middle images take away from it.,4,200,20","The piece seems chaotic, and I dislike the random pop of white within so many colors.,-10,320,20","It looks like a parade of musicians full of excitement. Makes me feel upbeat,33,140,20","I don't get it.,-40,40,20","Gabriela","It looks like a parade of musicians full of excitement. Makes me feel upbeat,33,140,20","Samantha","The more i look at it the more i like it  the dots of color and very interesting,50,140,20","Emily","I don't get it.,-40,40,20","0"
"30106","","survey-text","101","904579","0.0-101.0-0.0","A2Y08M7NDYFO56","","","","{""Q0"":""ransom note. do not like the vibes at all""}","","","","","","","","","","","","","","","","","","","","","","",""
"6989","","image-slider-response","102","911569","0.0-102.0","A2Y08M7NDYFO56","","","","","-35","","","","","","","","","","","","","","","","","","","","","",""
"2702","","image-button-response","103","916571","0.0-103.0","A2Y08M7NDYFO56","img_art/16.jpg","3","","","","","","","","","","","","","","","","","","","","","","","","",""
"1093","","image-button-response","104","917666","0.0-104.0","A2Y08M7NDYFO56","img_art/16.jpg","3","","","","","","","","","","","","","","","","","","","","","","","","",""
"1004","","image-button-response","105","918671","0.0-105.0-0.0","A2Y08M7NDYFO56","img_art/16.jpg","1","","","","","","","","","","","","","","","","","","","","","","","","",""
"3959","","image-button-response","106","922632","0.0-106.0-0.0","A2Y08M7NDYFO56","img_art/16.jpg","5","","","","","","","","","","","","","","","","","","","","","","","","",""
"null","","html-keyboard-response","107","923635","0.0-107.0","A2Y08M7NDYFO56","<p style=""font-size: 48px;"">+</p>","","","","","null","allTrialResponses","1000","1","9","img_art/16.jpg","-35","ransom note. do not like the vibes at all","Claire,Samantha,Courtney,Maria,Gabriela,Emily","the materials used are interesting,30,260,20","Creepy teddybear,-50,140,20","Hmm i don't know what going on here.,1,280,20","feel a little creeped out,-20,120,20","It looks very generic, like items were pasted onto the background,-38,140,20","Looks like a kid did itt and ti looks disturbing.,-45,40,20","Maria","feel a little creeped out,-20,120,20","Samantha","Creepy teddybear,-50,140,20","Emily","Looks like a kid did itt and ti looks disturbing.,-45,40,20","0"
"50842","","survey-text","108","974489","0.0-108.0-0.0","A2Y08M7NDYFO56","","","","{""Q0"":""these colors are just not appealing. has a trophy feel to it""}","","","","","","","","","","","","","","","","","","","","","","",""
"5638.999999999884","","image-slider-response","109","980129","0.0-109.0","A2Y08M7NDYFO56","","","","","-15","","","","","","","","","","","","","","","","","","","","","",""
"null","","image-button-response","110","985131","0.0-110.0","A2Y08M7NDYFO56","img_art/4.jpg","null","","","","","","","","","","","","","","","","","","","","","","","","",""
"1007","","image-button-response","111","986140","0.0-111.0","A2Y08M7NDYFO56","img_art/4.jpg","1","","","","","","","","","","","","","","","","","","","","","","","","",""
"3098","","image-button-response","112","989240","0.0-112.0-0.0","A2Y08M7NDYFO56","img_art/4.jpg","5","","","","","","","","","","","","","","","","","","","","","","","","",""
"1587","","image-button-response","113","990828","0.0-113.0-0.0","A2Y08M7NDYFO56","img_art/4.jpg","3","","","","","","","","","","","","","","","","","","","","","","","","",""
"null","","html-keyboard-response","114","991831","0.0-114.0","A2Y08M7NDYFO56","<p style=""font-size: 48px;"">+</p>","","","","","null","allTrialResponses","1000","1","10","img_art/4.jpg","-15","these colors are just not appealing. has a trophy feel to it","Paige,Samantha,Amanda,Maria,Breanna,Emily","the colors are calming,31,60,20","I domt like the yellow black blended smear,-50,140,20","Looks like an abstract version of the Scream painting,-50,180,20","no strong feelings about this one,2,120,20","Looks like a hand, not very impressed,-22,380,20","Looks like a child did it.,-42,40,20","Samantha","I domt like the yellow black blended smear,-50,140,20","Emily","Looks like a child did it.,-42,40,20","Maria","no strong feelings about this one,2,120,20","0"
"3062","","survey-text","115","994903","0.0-115.0-0.0","A2Y08M7NDYFO56","","","","{""Q0"":""our""}","","","","","","","","","","","","","","","","","","","","","","",""
"75025","","survey-text","116","1069930","0.0-116.0-0.0","A2Y08M7NDYFO56","","","","{""Q0"":""old west. the white blob in the front takes away from it""}","","","","","","","","","","","","","","","","","","","","","","",""
"9837","","image-slider-response","117","1079769","0.0-117.0","A2Y08M7NDYFO56","","","","","10","","","","","","","","","","","","","","","","","","","","","",""
"3577","","image-button-response","118","1084774","0.0-118.0","A2Y08M7NDYFO56","img_art/20.jpg","1","","","","","","","","","","","","","","","","","","","","","","","","",""
"406","","image-button-response","119","1085182","0.0-119.0","A2Y08M7NDYFO56","img_art/20.jpg","1","","","","","","","","","","","","","","","","","","","","","","","","",""
"5757","","image-button-response","120","1090941","0.0-120.0-0.0","A2Y08M7NDYFO56","img_art/20.jpg","4","","","","","","","","","","","","","","","","","","","","","","","","",""
"1249","","image-button-response","121","1092191","0.0-121.0-0.0","A2Y08M7NDYFO56","img_art/20.jpg","5","","","","","","","","","","","","","","","","","","","","","","","","",""
"null","","html-keyboard-response","122","1093694","0.0-122.0","A2Y08M7NDYFO56","<p style=""font-size: 48px;"">+</p>","","","","","null","allTrialResponses","1500","1","11","img_art/20.jpg","10","old west. the white blob in the front takes away from it","Shelby,Samantha,Bailey,Maria,Cassidy,Emily","Makes me think if a car crash or some sort of disaster,-20,240,20","Use of white on foreground is too big and steals eyes away from rest of painting,2,140,20","A bit hectic, but it does have a bit of coolness to it,6,360,20","just feels generic,-18,120,20","sort of pleasant to look at, but can't tell if it's supposed to be something,13,140,20","Brings about an emotion response of dspair. Loose lines but yet has a cohesion.,8,40,20","Samantha","Use of white on foreground is too big and steals eyes away from rest of painting,2,140,20","Cassidy","sort of pleasant to look at, but can't tell if it's supposed to be something,13,140,20","Emily","Brings about an emotion response of dspair. Loose lines but yet has a cohesion.,8,40,20","0"
"26925","","survey-text","123","1120626","0.0-123.0-0.0","A2Y08M7NDYFO56","","","","{""Q0"":""hauntingly beautiful. there is order in the chaos""}","","","","","","","","","","","","","","","","","","","","","","",""
"4567","","image-slider-response","124","1125195","0.0-124.0","A2Y08M7NDYFO56","","","","","36","","","","","","","","","","","","","","","","","","","","","",""
"null","","image-button-response","125","1130197","0.0-125.0","A2Y08M7NDYFO56","img_art/18.jpg","null","","","","","","","","","","","","","","","","","","","","","","","","",""
"174","","image-button-response","126","1130372","0.0-126.0","A2Y08M7NDYFO56","img_art/18.jpg","1","","","","","","","","","","","","","","","","","","","","","","","","",""
"5363","","image-button-response","127","1135737","0.0-127.0-0.0","A2Y08M7NDYFO56","img_art/18.jpg","2","","","","","","","","","","","","","","","","","","","","","","","","",""
"1223","","image-button-response","128","1136962","0.0-128.0-0.0","A2Y08M7NDYFO56","img_art/18.jpg","5","","","","","","","","","","","","","","","","","","","","","","","","",""
"null","","html-keyboard-response","129","1137964","0.0-129.0","A2Y08M7NDYFO56","<p style=""font-size: 48px;"">+</p>","","","","","null","allTrialResponses","1000","1","12","img_art/18.jpg","36","hauntingly beautiful. there is order in the chaos","Erin,Samantha,Sophia,Monica,Cassidy,Emily","See a weird horse,-22,120,20","Id love to see this piece closer. So much extra details hidden it it.,50,140,20","This one is very dark and apocalyptic indeed!,-30,280,20","It doesn't look like much, the colors are dark and it doesn't really make me feel anything.,-2,360,20","nice balance of color. The different sizes and types of strokes give a lot to look at,18,140,20","Not my style but I can see some serious skill went int it.,21,40,20","Samantha","Id love to see this piece closer. So much extra details hidden it it.,50,140,20","Sophia","This one is very dark and apocalyptic indeed!,-30,280,20","Emily","Not my style but I can see some serious skill went int it.,21,40,20","0"
"34203","","survey-text","130","1172175","0.0-130.0-0.0","A2Y08M7NDYFO56","","","","{""Q0"":""good for a hotel, not very unique""}","","","","","","","","","","","","","","","","","","","","","","",""
"6462","","image-slider-response","131","1178640","0.0-131.0","A2Y08M7NDYFO56","","","","","13","","","","","","","","","","","","","","","","","","","","","",""
"3448","","image-button-response","132","1183643","0.0-132.0","A2Y08M7NDYFO56","img_art/22.jpg","0","","","","","","","","","","","","","","","","","","","","","","","","",""
"1172","","image-button-response","133","1184816","0.0-133.0","A2Y08M7NDYFO56","img_art/22.jpg","0","","","","","","","","","","","","","","","","","","","","","","","","",""
"5540","","image-button-response","134","1190358","0.0-134.0-0.0","A2Y08M7NDYFO56","img_art/22.jpg","2","","","","","","","","","","","","","","","","","","","","","","","","",""
"2131","","image-button-response","135","1192491","0.0-135.0-0.0","A2Y08M7NDYFO56","img_art/22.jpg","4","","","","","","","","","","","","","","","","","","","","","","","","",""
"null","","html-keyboard-response","136","1192993","0.0-136.0","A2Y08M7NDYFO56","<p style=""font-size: 48px;"">+</p>","","","","","null","allTrialResponses","500","1","13","img_art/22.jpg","13","good for a hotel, not very unique","Jasmine,Samantha,Sophia,Victoria,Katie,Emily","I appreciate the artistic effort but it's not for me,0,340,20","Pretty colors but something seems sinister about it,25,140,20","I like this one. There is a lot to see if you keep looking for it.,27,280,20","love how the colors blend,42,400,20","Too much red. The red/yellow/orange make me think of heat/fire, which makes me anxious.,-10,160,20","There is some flow and organization.,10,40,20","Jasmine","I appreciate the artistic effort but it's not for me,0,340,20","Sophia","I like this one. There is a lot to see if you keep looking for it.,27,280,20","Katie","Too much red. The red/yellow/orange make me think of heat/fire, which makes me anxious.,-10,160,20","0"
"37635","","survey-text","137","1230635","0.0-137.0-0.0","A2Y08M7NDYFO56","","","","{""Q0"":""usually don't like paint splatters, but the colors on this are lovely""}","","","","","","","","","","","","","","","","","","","","","","",""
"8524","","image-slider-response","138","1239160","0.0-138.0","A2Y08M7NDYFO56","","","","","30","","","","","","","","","","","","","","","","","","","","","",""
"null","","image-button-response","139","1244164","0.0-139.0","A2Y08M7NDYFO56","img_art/13.jpg","null","","","","","","","","","","","","","","","","","","","","","","","","",""
"3286","","image-button-response","140","1247452","0.0-140.0","A2Y08M7NDYFO56","img_art/13.jpg","3","","","","","","","","","","","","","","","","","","","","","","","","",""
"1509","","image-button-response","141","1248963","0.0-141.0-0.0","A2Y08M7NDYFO56","img_art/13.jpg","5","","","","","","","","","","","","","","","","","","","","","","","","",""
"2798","","image-button-response","142","1251762","0.0-142.0-0.0","A2Y08M7NDYFO56","img_art/13.jpg","4","","","","","","","","","","","","","","","","","","","","","","","","",""
"null","","html-keyboard-response","143","1253265","0.0-143.0","A2Y08M7NDYFO56","<p style=""font-size: 48px;"">+</p>","","","","","null","allTrialResponses","1500","1","14","img_art/13.jpg","30","usually don't like paint splatters, but the colors on this are lovely","Jasmine,Melissa,Sophia,Laura,Katie,Leah","I like the colors together,17,340,20","feels sterile/manufactured,1,240,20","I like the colors used in this piece.,2,280,20","water on my shower curtain - I feel refreshed, renewed,9,320,20","Cool and calming colors. I like splatter art.,10,160,20","Like it a lot, reminds me of rainy day on glass,43,360,20","Laura","water on my shower curtain - I feel refreshed, renewed,9,320,20","Leah","Like it a lot, reminds me of rainy day on glass,43,360,20","Katie","Cool and calming colors. I like splatter art.,10,160,20","0"
"24898","","survey-text","144","1278169","0.0-144.0-0.0","A2Y08M7NDYFO56","","","","{""Q0"":""abstract shapes, not in love with the color scheme""}","","","","","","","","","","","","","","","","","","","","","","",""
"8309","","image-slider-response","145","1286480","0.0-145.0","A2Y08M7NDYFO56","","","","","-16","","","","","","","","","","","","","","","","","","","","","",""
"3019","","image-button-response","146","1291483","0.0-146.0","A2Y08M7NDYFO56","img_art/2.jpg","0","","","","","","","","","","","","","","","","","","","","","","","","",""
"6267","","image-button-response","147","1297751","0.0-147.0","A2Y08M7NDYFO56","img_art/2.jpg","0","","","","","","","","","","","","","","","","","","","","","","","","",""
"3009","","image-button-response","148","1300762","0.0-148.0-0.0","A2Y08M7NDYFO56","img_art/2.jpg","4","","","","","","","","","","","","","","","","","","","","","","","","",""
"3623","","image-button-response","149","1304387","0.0-149.0-0.0","A2Y08M7NDYFO56","img_art/2.jpg","5","","","","","","","","","","","","","","","","","","","","","","","","",""
"null","","html-keyboard-response","150","1305889","0.0-150.0","A2Y08M7NDYFO56","<p style=""font-size: 48px;"">+</p>","","","","","null","allTrialResponses","1500","1","15","img_art/2.jpg","-16","abstract shapes, not in love with the color scheme","Gabrielle,Olivia,Molly,Laura,Katie,Leah","doctor's office art work, nice colors and not offensive,23,160,20","i liked the bright colors,13,40,20","Colorful, curious.,20,340,20","active and kinetic- simplified,14,320,20","Doesn't look like anything. Just a blob of colors.,1,160,20","Kind of looks upside down, I need a focal point,-29,360,20","Gabrielle","doctor's office art work, nice colors and not offensive,23,160,20","Katie","Doesn't look like anything. Just a blob of colors.,1,160,20","Leah","Kind of looks upside down, I need a focal point,-29,360,20","0"
"3156","","survey-text","151","1309055","0.0-151.0-0.0","A2Y08M7NDYFO56","","","","{""Q0"":""course""}","","","","","","","","","","","","","","","","","","","","","","",""
"32651","","survey-text","152","1341709","0.0-152.0-0.0","A2Y08M7NDYFO56","","","","{""Q0"":""oversimplified village. could use some happiness""}","","","","","","","","","","","","","","","","","","","","","","",""
"8275","","image-slider-response","153","1349985","0.0-153.0","A2Y08M7NDYFO56","","","","","-9","","","","","","","","","","","","","","","","","","","","","",""
"4334","","image-button-response","154","1354990","0.0-154.0","A2Y08M7NDYFO56","img_art/19.jpg","3","","","","","","","","","","","","","","","","","","","","","","","","",""
"1674","","image-button-response","155","1356666","0.0-155.0","A2Y08M7NDYFO56","img_art/19.jpg","3","","","","","","","","","","","","","","","","","","","","","","","","",""
"5778","","image-button-response","156","1362446","0.0-156.0-0.0","A2Y08M7NDYFO56","img_art/19.jpg","1","","","","","","","","","","","","","","","","","","","","","","","","",""
"1215","","image-button-response","157","1363663","0.0-157.0-0.0","A2Y08M7NDYFO56","img_art/19.jpg","4","","","","","","","","","","","","","","","","","","","","","","","","",""
"null","","html-keyboard-response","158","1364166","0.0-158.0","A2Y08M7NDYFO56","<p style=""font-size: 48px;"">+</p>","","","","","null","allTrialResponses","500","1","16","img_art/19.jpg","-9","oversimplified village. could use some happiness","Gabrielle,Madeline,Kimberly,Lauren,Katie,Leah","not professional looking but not bad either,13,160,20","Looks a bit too loose,-2,40,20","The blue makes it look like it has depth,11,260,20","The image doesn't really invoke any emotions strongly.,0,340,20","Too busy, makes me anxious and frustrated. Lots of movement in the brush strokes.,-9,160,20","Very abstract but I like it, it's busy, lots of colors,43,360,20","Lauren","The image doesn't really invoke any emotions strongly.,0,340,20","Madeline","Looks a bit too loose,-2,40,20","Katie","Too busy, makes me anxious and frustrated. Lots of movement in the brush strokes.,-9,160,20","0"
"55372","","survey-text","159","1419545","0.0-159.0-0.0","A2Y08M7NDYFO56","","","","{""Q0"":""realism of a desert. looks like a topographical picture""}","","","","","","","","","","","","","","","","","","","","","","",""
"7135","","image-slider-response","160","1426683","0.0-160.0","A2Y08M7NDYFO56","","","","","8","","","","","","","","","","","","","","","","","","","","","",""
"null","","image-button-response","161","1431688","0.0-161.0","A2Y08M7NDYFO56","img_art/7.jpg","null","","","","","","","","","","","","","","","","","","","","","","","","",""
"1636","","image-button-response","162","1433326","0.0-162.0","A2Y08M7NDYFO56","img_art/7.jpg","3","","","","","","","","","","","","","","","","","","","","","","","","",""
"5175","","image-button-response","163","1438503","0.0-163.0-0.0","A2Y08M7NDYFO56","img_art/7.jpg","5","","","","","","","","","","","","","","","","","","","","","","","","",""
"1329","","image-button-response","164","1439833","0.0-164.0-0.0","A2Y08M7NDYFO56","img_art/7.jpg","0","","","","","","","","","","","","","","","","","","","","","","","","",""
"null","","html-keyboard-response","165","1441336","0.0-165.0","A2Y08M7NDYFO56","<p style=""font-size: 48px;"">+</p>","","","","","null","allTrialResponses","1500","1","17","img_art/7.jpg","8","realism of a desert. looks like a topographical picture","Mariah,Madeline,Kaylee,Lauren,Katie,Hailey","The dried bottom of a puddle in July.,-41,140,20","Not very big on the sameness here,-20,40,20","some rocks on a mars?,7,200,20","I like how the image has a sense of history, since the style looks like it came from stone.,20,340,20","I see dryness, which is sad. Dirt, sand, the dessert. Barren dry lifeless,-30,160,20","hot desert with big rocks.,-19,200,20","Lauren","I like how the image has a sense of history, since the style looks like it came from stone.,20,340,20","Hailey","hot desert with big rocks.,-19,200,20","Mariah","The dried bottom of a puddle in July.,-41,140,20","0"
"15470","","survey-text","166","1456814","0.0-166.0-0.0","A2Y08M7NDYFO56","","","","{""Q0"":""evokes loneliness""}","","","","","","","","","","","","","","","","","","","","","","",""
"11929","","image-slider-response","167","1468745","0.0-167.0","A2Y08M7NDYFO56","","","","","6","","","","","","","","","","","","","","","","","","","","","",""
"3667","","image-button-response","168","1473748","0.0-168.0","A2Y08M7NDYFO56","img_art/6.jpg","1","","","","","","","","","","","","","","","","","","","","","","","","",""
"1097","","image-button-response","169","1474847","0.0-169.0","A2Y08M7NDYFO56","img_art/6.jpg","5","","","","","","","","","","","","","","","","","","","","","","","","",""
"2248","","image-button-response","170","1477097","0.0-170.0-0.0","A2Y08M7NDYFO56","img_art/6.jpg","3","","","","","","","","","","","","","","","","","","","","","","","","",""
"6390","","image-button-response","171","1483489","0.0-171.0-0.0","A2Y08M7NDYFO56","img_art/6.jpg","1","","","","","","","","","","","","","","","","","","","","","","","","",""
"null","","html-keyboard-response","172","1484490","0.0-172.0","A2Y08M7NDYFO56","<p style=""font-size: 48px;"">+</p>","","","","","null","allTrialResponses","1000","1","18","img_art/6.jpg","6","evokes loneliness","Mariah,Crystal,Lindsey,Lauren,Kelsey,Hailey","Clean and simple, a pleasant resting place for the eyes.,21,140,20","Gives me a feeling of solitude and nothingness,11,300,20","Simple, warm, hopeful.,12,400,20","I like the simplicity of the piece.,10,340,20","its like a jalapeno,-28,240,20","one lonely thing trying to grow,-24,200,20","Hailey","one lonely thing trying to grow,-24,200,20","Lauren","I like the simplicity of the piece.,10,340,20","Crystal","Gives me a feeling of solitude and nothingness,11,300,20","0"
"46275","","survey-text","173","1530772","0.0-173.0-0.0","A2Y08M7NDYFO56","","","","{""Q0"":""fall colors kind of over mixed could use more definition""}","","","","","","","","","","","","","","","","","","","","","","",""
"7295","","image-slider-response","174","1538070","0.0-174.0","A2Y08M7NDYFO56","","","","","6","","","","","","","","","","","","","","","","","","","","","",""
"3902","","image-button-response","175","1543074","0.0-175.0","A2Y08M7NDYFO56","img_art/1.jpg","1","","","","","","","","","","","","","","","","","","","","","","","","",""
"217","","image-button-response","176","1543292","0.0-176.0","A2Y08M7NDYFO56","img_art/1.jpg","1","","","","","","","","","","","","","","","","","","","","","","","","",""
"868","","image-button-response","177","1544162","0.0-177.0-0.0","A2Y08M7NDYFO56","img_art/1.jpg","3","","","","","","","","","","","","","","","","","","","","","","","","",""
"4595","","image-button-response","178","1548759","0.0-178.0-0.0","A2Y08M7NDYFO56","img_art/1.jpg","2","","","","","","","","","","","","","","","","","","","","","","","","",""
"null","","html-keyboard-response","179","1549261","0.0-179.0","A2Y08M7NDYFO56","<p style=""font-size: 48px;"">+</p>","","","","","null","allTrialResponses","500","1","19","img_art/1.jpg","6","fall colors kind of over mixed could use more definition","Chloe,Crystal,Alexis,Lauren,Morgan,Hailey","Powerful colors.,31,220,20","Interesting color scheme but to bled to me,11,300,20","Taco Bell wallpaper. Doesn't really make me feel anything,3,100,20","This image doesn't invoke much in me.,0,340,20","Flat colors with no flavor.,5,380,20","colors that are fairly warm. its ok,8,200,20","Crystal","Interesting color scheme but to bled to me,11,300,20","Lauren","This image doesn't invoke much in me.,0,340,20","Alexis","Taco Bell wallpaper. Doesn't really make me feel anything,3,100,20","0"
"12905","","survey-text","180","1562174","0.0-180.0-0.0","A2Y08M7NDYFO56","","","","{""Q0"":""blue birds in a tree. ""}","","","","","","","","","","","","","","","","","","","","","","",""
"4835","","image-slider-response","181","1567011","0.0-181.0","A2Y08M7NDYFO56","","","","","22","","","","","","","","","","","","","","","","","","","","","",""
"null","","image-button-response","182","1572015","0.0-182.0","A2Y08M7NDYFO56","img_art/15.jpg","null","","","","","","","","","","","","","","","","","","","","","","","","",""
"4430","","image-button-response","183","1576446","0.0-183.0","A2Y08M7NDYFO56","img_art/15.jpg","2","","","","","","","","","","","","","","","","","","","","","","","","",""
"2932","","image-button-response","184","1579380","0.0-184.0-0.0","A2Y08M7NDYFO56","img_art/15.jpg","3","","","","","","","","","","","","","","","","","","","","","","","","",""
"3384","","image-button-response","185","1582766","0.0-185.0-0.0","A2Y08M7NDYFO56","img_art/15.jpg","4","","","","","","","","","","","","","","","","","","","","","","","","",""
"null","","html-keyboard-response","186","1583268","0.0-186.0","A2Y08M7NDYFO56","<p style=""font-size: 48px;"">+</p>","","","","","null","allTrialResponses","500","1","20","img_art/15.jpg","22","blue birds in a tree. ","Miranda,Crystal,Alexis,Lauren,Brooke,Sierra","This gives a skin crawling feeling. Like something that you could see under a mircoscope,10,320,20","The blotted black spots create a nice contrast between the brush strokes within the center and sides. I like it.,41,300,20","Not a fan of abstract, but the black is very striking,10,100,20","Hard to tell what I'm looking at, but it does a gives a slight impression of a of garden.,5,340,20","This one reminds me of a postage stamp, but branches and leaves. Kind of fun.,15,60,20","i cant find somthing ilike about it,-31,260,20","Alexis","Not a fan of abstract, but the black is very striking,10,100,20","Lauren","Hard to tell what I'm looking at, but it does a gives a slight impression of a of garden.,5,340,20","Brooke","This one reminds me of a postage stamp, but branches and leaves. Kind of fun.,15,60,20","0"
"3003","","survey-text","187","1586282","0.0-187.0-0.0","A2Y08M7NDYFO56","","","","{""Q0"":""we""}","","","","","","","","","","","","","","","","","","","","","","",""
"22044","","survey-text","188","1608328","0.0-188.0-0.0","A2Y08M7NDYFO56","","","","{""Q0"":""waterfall. should be more relaxing than it is""}","","","","","","","","","","","","","","","","","","","","","","",""
"4323","","image-slider-response","189","1612653","0.0-189.0","A2Y08M7NDYFO56","","","","","-8","","","","","","","","","","","","","","","","","","","","","",""
"null","","image-button-response","190","1617657","0.0-190.0","A2Y08M7NDYFO56","img_art/24.jpg","null","","","","","","","","","","","","","","","","","","","","","","","","",""
"1182","","image-button-response","191","1618840","0.0-191.0","A2Y08M7NDYFO56","img_art/24.jpg","4","","","","","","","","","","","","","","","","","","","","","","","","",""
"1255","","image-button-response","192","1620097","0.0-192.0-0.0","A2Y08M7NDYFO56","img_art/24.jpg","1","","","","","","","","","","","","","","","","","","","","","","","","",""
"2396","","image-button-response","193","1622495","0.0-193.0-0.0","A2Y08M7NDYFO56","img_art/24.jpg","2","","","","","","","","","","","","","","","","","","","","","","","","",""
"null","","html-keyboard-response","194","1623498","0.0-194.0","A2Y08M7NDYFO56","<p style=""font-size: 48px;"">+</p>","","","","","null","allTrialResponses","1000","1","21","img_art/24.jpg","-8","waterfall. should be more relaxing than it is","Jordan,Rebecca,Alexis,Lauren,Brooke,Sara","It's beautiful! I love it! I see a waterfall, and they are my favorite things in the world,50,20,20","organized mess at first glance, would love to inspect this in closer proximity,39,100,20","Simple. Not too abstract. Love the different flower colors.,20,100,20","Invokes a strong sense of nature, since the piece can interpreted as a stream or an abstracted bird.,40,340,20","Mountain stream pineapple texture?,30,60,20","Beautiful scenic drawing with perfect color coordination,43,160,20","Brooke","Mountain stream pineapple texture?,30,60,20","Rebecca","organized mess at first glance, would love to inspect this in closer proximity,39,100,20","Alexis","Simple. Not too abstract. Love the different flower colors.,20,100,20","0"
"13469","","survey-text","195","1636974","0.0-195.0-0.0","A2Y08M7NDYFO56","","","","{""Q0"":""trying too hard""}","","","","","","","","","","","","","","","","","","","","","","",""
"5213","","image-slider-response","196","1642190","0.0-196.0","A2Y08M7NDYFO56","","","","","-48","","","","","","","","","","","","","","","","","","","","","",""
"null","","image-button-response","197","1647194","0.0-197.0","A2Y08M7NDYFO56","img_art/29.jpg","null","","","","","","","","","","","","","","","","","","","","","","","","",""
"2014","","image-button-response","198","1649210","0.0-198.0","A2Y08M7NDYFO56","img_art/29.jpg","4","","","","","","","","","","","","","","","","","","","","","","","","",""
"4946","","image-button-response","199","1654158","0.0-199.0-0.0","A2Y08M7NDYFO56","img_art/29.jpg","2","","","","","","","","","","","","","","","","","","","","","","","","",""
"1838","","image-button-response","200","1655997","0.0-200.0-0.0","A2Y08M7NDYFO56","img_art/29.jpg","5","","","","","","","","","","","","","","","","","","","","","","","","",""
"null","","html-keyboard-response","201","1657001","0.0-201.0","A2Y08M7NDYFO56","<p style=""font-size: 48px;"">+</p>","","","","","null","allTrialResponses","1000","1","22","img_art/29.jpg","-48","trying too hard","Andrea,Rebecca,Alexis,Alexandria,Brooke,Jacqueline","Bottomless pit and prison. Feels like its saying time is precious.,11,240,20","love the texture, i don't know, i just really like it (and the paintbrush adds a nice touch),44,100,20","The black color is great, but I'm really not a fan of this hectic style,-40,100,20","it is difficult to look at but you can't look away,-25,80,20","Lines and light are clean but subject doesn't interest me,0,60,20","This is ugly as fuck,-50,300,20","Brooke","Lines and light are clean but subject doesn't interest me,0,60,20","Alexis","The black color is great, but I'm really not a fan of this hectic style,-40,100,20","Jacqueline","This is ugly as fuck,-50,300,20","0"
"33543","","survey-text","202","1690551","0.0-202.0-0.0","A2Y08M7NDYFO56","","","","{""Q0"":""pencil or crayon, the middle feels like it wants to capture me""}","","","","","","","","","","","","","","","","","","","","","","",""
"5550","","image-slider-response","203","1696103","0.0-203.0","A2Y08M7NDYFO56","","","","","6","","","","","","","","","","","","","","","","","","","","","",""
"null","","image-button-response","204","1701106","0.0-204.0","A2Y08M7NDYFO56","img_art/9.jpg","null","","","","","","","","","","","","","","","","","","","","","","","","",""
"1555","","image-button-response","205","1702663","0.0-205.0","A2Y08M7NDYFO56","img_art/9.jpg","1","","","","","","","","","","","","","","","","","","","","","","","","",""
"2703","","image-button-response","206","1705367","0.0-206.0-0.0","A2Y08M7NDYFO56","img_art/9.jpg","4","","","","","","","","","","","","","","","","","","","","","","","","",""
"1385","","image-button-response","207","1706754","0.0-207.0-0.0","A2Y08M7NDYFO56","img_art/9.jpg","2","","","","","","","","","","","","","","","","","","","","","","","","",""
"null","","html-keyboard-response","208","1708257","0.0-208.0","A2Y08M7NDYFO56","<p style=""font-size: 48px;"">+</p>","","","","","null","allTrialResponses","1500","1","23","img_art/9.jpg","6","pencil or crayon, the middle feels like it wants to capture me","Brianna,Mary,Alexis,Margaret,Brooke,Jacqueline","This has some of my favorite colors, and I like it,21,20,20","How neat is this piece?  I love the angry expressive lines. Emotion is captured in it.,26,180,20","I like the sense of forboding, the green creates a claustrophobic feeling,10,100,20","keeps me interested. like the colors,17,100,20","Dark fantasy seaside cave carnival? Fun.,15,60,20","Looks like a sloppy iguana.,-11,300,20","Mary","How neat is this piece?  I love the angry expressive lines. Emotion is captured in it.,26,180,20","Brooke","Dark fantasy seaside cave carnival? Fun.,15,60,20","Alexis","I like the sense of forboding, the green creates a claustrophobic feeling,10,100,20","0"
"26617","","survey-text","209","1734881","0.0-209.0-0.0","A2Y08M7NDYFO56","","","","{""Q0"":""interesting use of color and blending. ""}","","","","","","","","","","","","","","","","","","","","","","",""
"6460.000000000233","","image-slider-response","210","1741343","0.0-210.0","A2Y08M7NDYFO56","","","","","30","","","","","","","","","","","","","","","","","","","","","",""
"null","","image-button-response","211","1746347","0.0-211.0","A2Y08M7NDYFO56","img_art/21.jpg","null","","","","","","","","","","","","","","","","","","","","","","","","",""
"1953","","image-button-response","212","1748302","0.0-212.0","A2Y08M7NDYFO56","img_art/21.jpg","3","","","","","","","","","","","","","","","","","","","","","","","","",""
"4085","","image-button-response","213","1752388","0.0-213.0-0.0","A2Y08M7NDYFO56","img_art/21.jpg","2","","","","","","","","","","","","","","","","","","","","","","","","",""
"898","","image-button-response","214","1753288","0.0-214.0-0.0","A2Y08M7NDYFO56","img_art/21.jpg","1","","","","","","","","","","","","","","","","","","","","","","","","",""
"null","","html-keyboard-response","215","1753791","0.0-215.0","A2Y08M7NDYFO56","<p style=""font-size: 48px;"">+</p>","","","","","null","allTrialResponses","500","1","24","img_art/21.jpg","30","interesting use of color and blending. ","Katelyn,Mary,Alexis,Rachel,Brooke,Kylie","I dont like how nothing is defined and the colors dont work for me,-5,100,20","This is lovely. I like the mix of colors, the warn and cool slowly combining.,39,180,20","I love this. Reminds me of a coast. The colors flow beautifully,40,100,20","Looks like a body of water during a sunset. I like this piece.,21,80,20","Like the colors. Don't like the white dots on the right side of the painting though.,15,60,20","Makes me think of a battleship targeting a beautiful mountainside,0,300,20","Rachel","Looks like a body of water during a sunset. I like this piece.,21,80,20","Alexis","I love this. Reminds me of a coast. The colors flow beautifully,40,100,20","Mary","This is lovely. I like the mix of colors, the warn and cool slowly combining.,39,180,20","0"
"28757","","survey-text","216","1782555","0.0-216.0-0.0","A2Y08M7NDYFO56","","","","{""Q0"":""navajo pattern is nice and warm seems like a good kitchen picture. ""}","","","","","","","","","","","","","","","","","","","","","","",""
"5150.000000000233","","image-slider-response","217","1787709","0.0-217.0","A2Y08M7NDYFO56","","","","","17","","","","","","","","","","","","","","","","","","","","","",""
"null","","image-button-response","218","1792712","0.0-218.0","A2Y08M7NDYFO56","img_art/12.jpg","null","","","","","","","","","","","","","","","","","","","","","","","","",""
"1799","","image-button-response","219","1794512","0.0-219.0","A2Y08M7NDYFO56","img_art/12.jpg","4","","","","","","","","","","","","","","","","","","","","","","","","",""
"3041","","image-button-response","220","1797555","0.0-220.0-0.0","A2Y08M7NDYFO56","img_art/12.jpg","5","","","","","","","","","","","","","","","","","","","","","","","","",""
"1272","","image-button-response","221","1798829","0.0-221.0-0.0","A2Y08M7NDYFO56","img_art/12.jpg","2","","","","","","","","","","","","","","","","","","","","","","","","",""
"null","","html-keyboard-response","222","1800331","0.0-222.0","A2Y08M7NDYFO56","<p style=""font-size: 48px;"">+</p>","","","","","null","allTrialResponses","1500","1","25","img_art/12.jpg","17","navajo pattern is nice and warm seems like a good kitchen picture. ","Michelle,Mary,Alexis,Rachel,Kayla,Mackenzie","eww hate everything about this, looks like it belongs in a dentist's office,-14,280,20","The colors are ok. The piece reminds me of the 90s era, so I kinda like it!,-4,180,20","I like the cubic feel.,11,100,20","I like how it's split into tiny squares, but otherwise, not very intriguing.,-18,80,20","Yay! Lots of people, lots of lives.,25,180,20","I like the color scheme.,10,20,20","Kayla","Yay! Lots of people, lots of lives.,25,180,20","Mackenzie","I like the color scheme.,10,20,20","Alexis","I like the cubic feel.,11,100,20","0"
"2906","","survey-text","223","1803248","0.0-223.0-0.0","A2Y08M7NDYFO56","","","","{""Q0"":""table""}","","","","","","","","","","","","","","","","","","","","","","",""
"17252","","survey-text","224","1820504","0.0-224.0-0.0","A2Y08M7NDYFO56","","","","{""Q0"":""I like the colors, I wish there was more""}","","","","","","","","","","","","","","","","","","","","","","",""
"6253","","image-slider-response","225","1826760","0.0-225.0","A2Y08M7NDYFO56","","","","","17","","","","","","","","","","","","","","","","","","","","","",""
"2464","","image-button-response","226","1831762","0.0-226.0","A2Y08M7NDYFO56","img_art/5.jpg","0","","","","","","","","","","","","","","","","","","","","","","","","",""
"3300","","image-button-response","227","1835063","0.0-227.0","A2Y08M7NDYFO56","img_art/5.jpg","0","","","","","","","","","","","","","","","","","","","","","","","","",""
"4996","","image-button-response","228","1840060","0.0-228.0-0.0","A2Y08M7NDYFO56","img_art/5.jpg","2","","","","","","","","","","","","","","","","","","","","","","","","",""
"1943","","image-button-response","229","1842006","0.0-229.0-0.0","A2Y08M7NDYFO56","img_art/5.jpg","3","","","","","","","","","","","","","","","","","","","","","","","","",""
"null","","html-keyboard-response","230","1842508","0.0-230.0","A2Y08M7NDYFO56","<p style=""font-size: 48px;"">+</p>","","","","","null","allTrialResponses","500","1","26","img_art/5.jpg","17","I like the colors, I wish there was more","Meghan,Sarah,Alexis,Jessica,Kayla,Mackenzie","I like it but I don't know why,15,220,20","looks very childish,-35,180,20","Kindergarten art. I really don't like this style.,-50,100,20","Don't really know the point of this one.,-11,400,20","I like that the pyramid is putting off a beacon of light.,11,180,20","Overpowering colors.,-26,20,20","Meghan","I like it but I don't know why,15,220,20","Alexis","Kindergarten art. I really don't like this style.,-50,100,20","Jessica","Don't really know the point of this one.,-11,400,20","0"
"16005","","survey-text","231","1858521","0.0-231.0-0.0","A2Y08M7NDYFO56","","","","{""Q0"":""im not sure what the point of this one is. ""}","","","","","","","","","","","","","","","","","","","","","","",""
"6646","","image-slider-response","232","1865169","0.0-232.0","A2Y08M7NDYFO56","","","","","-16","","","","","","","","","","","","","","","","","","","","","",""
"3500","","image-button-response","233","1870172","0.0-233.0","A2Y08M7NDYFO56","img_art/3.jpg","1","","","","","","","","","","","","","","","","","","","","","","","","",""
"741","","image-button-response","234","1870914","0.0-234.0","A2Y08M7NDYFO56","img_art/3.jpg","1","","","","","","","","","","","","","","","","","","","","","","","","",""
"899","","image-button-response","235","1871814","0.0-235.0-0.0","A2Y08M7NDYFO56","img_art/3.jpg","3","","","","","","","","","","","","","","","","","","","","","","","","",""
"5888","","image-button-response","236","1877704","0.0-236.0-0.0","A2Y08M7NDYFO56","img_art/3.jpg","2","","","","","","","","","","","","","","","","","","","","","","","","",""
"null","","html-keyboard-response","237","1878706","0.0-237.0","A2Y08M7NDYFO56","<p style=""font-size: 48px;"">+</p>","","","","","null","allTrialResponses","1000","1","27","img_art/3.jpg","-16","im not sure what the point of this one is. ","Meghan,Tiffany,Alexis,Jessica,Caroline,Diana","I like that it's messy,14,220,20","I feel uncomfortable, like I am looking at a crime scene.,-17,360,20","Just scribbles. Not a fan.,-40,100,20","Don't get the scribbles.,-13,400,20","The red makes me think of blood which makes me think of pain,-50,100,20","I didn't feel the color choice when I first looked. I did however like the placement of the gray.,-28,380,20","Tiffany","I feel uncomfortable, like I am looking at a crime scene.,-17,360,20","Jessica","Don't get the scribbles.,-13,400,20","Alexis","Just scribbles. Not a fan.,-40,100,20","0"
"21095","","survey-text","238","1899809","0.0-238.0-0.0","A2Y08M7NDYFO56","","","","{""Q0"":""this draws me in, while I do like brighter colors, this still has appeal. ""}","","","","","","","","","","","","","","","","","","","","","","",""
"5797","","image-slider-response","239","1905608","0.0-239.0","A2Y08M7NDYFO56","","","","","35","","","","","","","","","","","","","","","","","","","","","",""
"2665","","image-button-response","240","1910611","0.0-240.0","A2Y08M7NDYFO56","img_art/17.jpg","0","","","","","","","","","","","","","","","","","","","","","","","","",""
"1273","","image-button-response","241","1911885","0.0-241.0","A2Y08M7NDYFO56","img_art/17.jpg","0","","","","","","","","","","","","","","","","","","","","","","","","",""
"3773","","image-button-response","242","1915660","0.0-242.0-0.0","A2Y08M7NDYFO56","img_art/17.jpg","2","","","","","","","","","","","","","","","","","","","","","","","","",""
"1515","","image-button-response","243","1917176","0.0-243.0-0.0","A2Y08M7NDYFO56","img_art/17.jpg","0","","","","","","","","","","","","","","","","","","","","","","","","",""
"2044","","image-button-response","244","1923232","0.0-243.1-0.1","A2Y08M7NDYFO56","img_art/17.jpg","1","","","","","","","","","","","","","","","","","","","","","","","","",""
"null","","html-keyboard-response","245","1924734","0.0-244.0","A2Y08M7NDYFO56","<p style=""font-size: 48px;"">+</p>","","","","","null","allTrialResponses","1500","1","28","img_art/17.jpg","35","this draws me in, while I do like brighter colors, this still has appeal. ","Jenna,Tiffany,Alexis,Jessica,Makayla,Kaitlyn","stunning. makes me feel happy, hopeful, serene, and a little wistful.,50,360,20","The painting makes me feel relaxed, and a bit lonely, like I'm sitting at a park waiting for someone.,30,360,20","Love the color and nature motif,36,100,20","The way they painted the trees is so cool.,27,400,20","I feel okay , it's like a tree,28,80,20","Very beautiful,19,80,20","Jenna","stunning. makes me feel happy, hopeful, serene, and a little wistful.,50,360,20","Alexis","Love the color and nature motif,36,100,20","Tiffany","The painting makes me feel relaxed, and a bit lonely, like I'm sitting at a park waiting for someone.,30,360,20","2"
"25603","","survey-text","246","1950346","0.0-245.0-0.0","A2Y08M7NDYFO56","","","","{""Q0"":""I feel like im watching a merchant transaction in an old city center. ""}","","","","","","","","","","","","","","","","","","","","","","",""
"5045","","image-slider-response","247","1955393","0.0-246.0","A2Y08M7NDYFO56","","","","","21","","","","","","","","","","","","","","","","","","","","","",""
"3399","","image-button-response","248","1960396","0.0-247.0","A2Y08M7NDYFO56","img_art/28.jpg","3","","","","","","","","","","","","","","","","","","","","","","","","",""
"798","","image-button-response","249","1961196","0.0-248.0","A2Y08M7NDYFO56","img_art/28.jpg","3","","","","","","","","","","","","","","","","","","","","","","","","",""
"2541","","image-button-response","250","1963738","0.0-249.0-0.0","A2Y08M7NDYFO56","img_art/28.jpg","4","","","","","","","","","","","","","","","","","","","","","","","","",""
"2725","","image-button-response","251","1966466","0.0-250.0-0.0","A2Y08M7NDYFO56","img_art/28.jpg","2","","","","","","","","","","","","","","","","","","","","","","","","",""
"null","","html-keyboard-response","252","1967468","0.0-251.0","A2Y08M7NDYFO56","<p style=""font-size: 48px;"">+</p>","","","","","null","allTrialResponses","1000","1","29","img_art/28.jpg","21","I feel like im watching a merchant transaction in an old city center. ","Jenna,Tiffany,Alexis,Dominique,Haley,Alexandra","looks like humanoid figures in distress. I like it, but makes me slightly uncomfortable,35,360,20","It makes me feel happy, and a little anxious.,50,360,20","Interesting. I like the ""old woman"" on the left. Lots of different entities to look at,21,100,20","This is one of my favorites. It says to me to take time for people,37,400,20","I can't explain why, but I really love this one,50,220,20","Boring, looks like it belongs in a coffee shop,-20,60,20","Dominique","This is one of my favorites. It says to me to take time for people,37,400,20","Haley","I can't explain why, but I really love this one,50,220,20","Alexis","Interesting. I like the ""old woman"" on the left. Lots of different entities to look at,21,100,20","2"
"28610","","survey-text","253","1996085","0.0-252.0-0.0","A2Y08M7NDYFO56","","","","{""Q0"":""busy city life all the wires of connection and peeps of brightness in our mundane lives. ""}","","","","","","","","","","","","","","","","","","","","","","",""
"5338","","image-slider-response","254","2001425","0.0-253.0","A2Y08M7NDYFO56","","","","","22","","","","","","","","","","","","","","","","","","","","","",""
"null","","image-button-response","255","2006429","0.0-254.0","A2Y08M7NDYFO56","img_art/11.jpg","null","","","","","","","","","","","","","","","","","","","","","","","","",""
"1408","","image-button-response","256","2007838","0.0-255.0","A2Y08M7NDYFO56","img_art/11.jpg","4","","","","","","","","","","","","","","","","","","","","","","","","",""
"686","","image-button-response","257","2008526","0.0-256.0-0.0","A2Y08M7NDYFO56","img_art/11.jpg","3","","","","","","","","","","","","","","","","","","","","","","","","",""
"1118","","image-button-response","258","2009645","0.0-257.0-0.0","A2Y08M7NDYFO56","img_art/11.jpg","0","","","","","","","","","","","","","","","","","","","","","","","","",""
"null","","html-keyboard-response","259","2011148","0.0-258.0","A2Y08M7NDYFO56","<p style=""font-size: 48px;"">+</p>","","","","","null","allTrialResponses","1500","1","30","img_art/11.jpg","22","busy city life all the wires of connection and peeps of brightness in our mundane lives. ","Ashley,Catherine,Alexis,Dominique,Haley,Kathryn","Dark but bright, city but ocean, musical scales.,50,320,20","Busy city life. transportation, anxiety.,10,160,20","Don't like cityscapes, which this picture reminds me of,-29,100,20","Looks like a familiar area,31,400,20","Lovely. I could look at this for a really long time. I love the details and the composition.,40,220,20","This is disorienting, like motion sickness.,-20,140,20","Haley","Lovely. I could look at this for a really long time. I love the details and the composition.,40,220,20","Dominique","Looks like a familiar area,31,400,20","Ashley","Dark but bright, city but ocean, musical scales.,50,320,20","2"
"2651","","image-button-response_instructions","260","2013808","0.0-259.0","A2Y08M7NDYFO56","","0","instructions","","","","","","","","","","","","","","","","","","","","","","","",""
"2065","","image-button-response","261","2015878","0.0-260.0","A2Y08M7NDYFO56","","0","","","","","","","","","","","","","","","","","","","","","","","","",""
