"rt","url","trial_type","trial_index","time_elapsed","internal_node_id","participant_id","stimulus","button_pressed","Name","responses","response","key_press","variableName","fixationTime","condition","trial","photo","subjectRating","subjectResponse","agentsNames","agent_1_Response","agent_2_Response","agent_3_Response","agent_4_Response","agent_5_Response","agent_6_Response","kept_1_name","kept_1_response","kept_2_name","kept_2_response","kept_3_name","kept_3_response","errorCounter"
"6411","external_page_harvard.html","external-html","0","6468","0.0-0.0","A2YC6PEMIRSOAA","","","","","","","","","","","","","","","","","","","","","","","","","","",""
"4072","","image-button-response","1","10544","0.0-1.0","A2YC6PEMIRSOAA","","1","","","","","","","","","","","","","","","","","","","","","","","","",""
"6714","","image-button-response","2","17266","0.0-2.0-0.0","A2YC6PEMIRSOAA","","1","phone","","","","","","","","","","","","","","","","","","","","","","","",""
"10323","","survey-text","3","27592","0.0-3.0-0.0","A2YC6PEMIRSOAA","","","","{""Q0"":""A2YC6PEMIRSOAA""}","","","","","","","","","","","","","","","","","","","","","","",""
"3697","","image-button-response_instructions","4","31292","0.0-4.0","A2YC6PEMIRSOAA","","0","instructions","","","","","","","","","","","","","","","","","","","","","","","",""
"19438","","image-button-response_instructions","5","50732","0.0-5.0","A2YC6PEMIRSOAA","img_art/ins/popularity/ins1.png","0","instructions","","","","","","","","","","","","","","","","","","","","","","","",""
"7315","","image-button-response_instructions","6","58049","0.0-6.0","A2YC6PEMIRSOAA","img_art/ins/popularity/ins2.png","0","instructions","","","","","","","","","","","","","","","","","","","","","","","",""
"11478","","image-button-response_instructions","7","69528","0.0-7.0","A2YC6PEMIRSOAA","img_art/ins/popularity/ins2Extreme.png","0","instructions","","","","","","","","","","","","","","","","","","","","","","","",""
"10267","","image-button-response_instructions","8","79798","0.0-8.0","A2YC6PEMIRSOAA","img_art/ins/popularity/ins3KEEPpop.PNG","0","instructions","","","","","","","","","","","","","","","","","","","","","","","",""
"4653","","image-button-response_instructions","9","84452","0.0-9.0","A2YC6PEMIRSOAA","img_art/ins/popularity/ins3ANamepop.PNG","0","instructions","","","","","","","","","","","","","","","","","","","","","","","",""
"3370","","image-button-response_instructions","10","87824","0.0-10.0","A2YC6PEMIRSOAA","img_art/ins/popularity/ins3ARatingpop.png","0","instructions","","","","","","","","","","","","","","","","","","","","","","","",""
"2186","","image-button-response_instructions","11","90012","0.0-11.0","A2YC6PEMIRSOAA","img_art/ins/popularity/ins3ATextpop.png","0","instructions","","","","","","","","","","","","","","","","","","","","","","","",""
"4324","","image-button-response_instructions","12","94338","0.0-12.0","A2YC6PEMIRSOAA","img_art/ins/popularity/ins3ALikespop.png","0","instructions","","","","","","","","","","","","","","","","","","","","","","","",""
"8660","","image-button-response_instructions","13","103000","0.0-13.0","A2YC6PEMIRSOAA","img_art/ins/popularity/ins3KEEPpop.PNG","0","instructions","","","","","","","","","","","","","","","","","","","","","","","",""
"6498","","image-button-response_instructions","14","109500","0.0-14.0","A2YC6PEMIRSOAA","img_art/ins/popularity/ins3_5RED.png","0","instructions","","","","","","","","","","","","","","","","","","","","","","","",""
"3101","","image-button-response_instructions","15","112603","0.0-15.0","A2YC6PEMIRSOAA","img_art/ins/popularity/ins3KEEPpop.PNG","0","instructions","","","","","","","","","","","","","","","","","","","","","","","",""
"4878","","image-button-response_instructions","16","117483","0.0-16.0","A2YC6PEMIRSOAA","img_art/ins/popularity/ins4KEEPpop.PNG","0","instructions","","","","","","","","","","","","","","","","","","","","","","","",""
"4074","","image-button-response_instructions","17","121559","0.0-17.0","A2YC6PEMIRSOAA","img_art/ins/popularity/ins5KEEPpop.PNG","0","instructions","","","","","","","","","","","","","","","","","","","","","","","",""
"1986","","image-button-response_instructions","18","123547","0.0-18.0","A2YC6PEMIRSOAA","","0","instructions","","","","","","","","","","","","","","","","","","","","","","","",""
"7259","","survey-text","19","130847","0.0-19.0-0.0","A2YC6PEMIRSOAA","","","","{""Q0"":""but""}","","","","","","","","","","","","","","","","","","","","","","",""
"9008","","survey-text","20","139856","0.0-20.0-0.0","A2YC6PEMIRSOAA","","","","{""Q0"":""This is not for me""}","","","","","","","","","","","","","","","","","","","","","","",""
"4218","","image-slider-response","21","144078","0.0-21.0","A2YC6PEMIRSOAA","","","","","-42","","","","","","","","","","","","","","","","","","","","","",""
"null","","image-button-response","22","149084","0.0-22.0","A2YC6PEMIRSOAA","img_art/ins/1.jpg","null","","","","","","","","","","","","","","","","","","","","","","","","",""
"12121","","image-button-response","23","161208","0.0-23.0","A2YC6PEMIRSOAA","img_art/ins/1.jpg","3","","","","","","","","","","","","","","","","","","","","","","","","",""
"1238","","image-button-response","24","162450","0.0-24.0-0.0","A2YC6PEMIRSOAA","img_art/ins/1.jpg","2","","","","","","","","","","","","","","","","","","","","","","","","",""
"3160","","image-button-response","25","165614","0.0-25.0-0.0","A2YC6PEMIRSOAA","img_art/ins/1.jpg","1","","","","","","","","","","","","","","","","","","","","","","","","",""
"null","","html-keyboard-response","26","166117","0.0-26.0","A2YC6PEMIRSOAA","<p style=""font-size: 48px;"">+</p>","","","","","null","allTrialResponses","500","1","-2","img_art/ins/1.jpg","-42","This is not for me","Allison,Ashley,Beth,Dora,Erika,Jen","looks like a lot of things going on in the mist,20,20,20","I just don't get why these type of art would be popular,-32,40,20","This color reminds me of poo,-46,60,20","looks like what my niece in 3rd grade did this afternoon,-50,80,20","I like the sophisticated brushwork,40,100,20","It reminds me of a candy land dream I had,36,120,20","Dora","looks like what my niece in 3rd grade did this afternoon,-50,80,20","Beth","This color reminds me of poo,-46,60,20","Ashley","I just don't get why these type of art would be popular,-32,40,20","0"
"11214","","survey-text","27","177337","0.0-27.0-0.0","A2YC6PEMIRSOAA","","","","{""Q0"":""Its okay but not for me""}","","","","","","","","","","","","","","","","","","","","","","",""
"2371","","image-slider-response","28","179711","0.0-28.0","A2YC6PEMIRSOAA","","","","","-30","","","","","","","","","","","","","","","","","","","","","",""
"4740","","image-button-response","29","184714","0.0-29.0","A2YC6PEMIRSOAA","img_art/ins/2.jpg","3","","","","","","","","","","","","","","","","","","","","","","","","",""
"962","","image-button-response","30","185679","0.0-30.0","A2YC6PEMIRSOAA","img_art/ins/2.jpg","0","","","","","","","","","","","","","","","","","","","","","","","","",""
"2561","","image-button-response","31","188244","0.0-31.0-0.0","A2YC6PEMIRSOAA","img_art/ins/2.jpg","2","","","","","","","","","","","","","","","","","","","","","","","","",""
"5890","","image-button-response","32","194137","0.0-32.0-0.0","A2YC6PEMIRSOAA","img_art/ins/2.jpg","3","","","","","","","","","","","","","","","","","","","","","","","","",""
"null","","html-keyboard-response","33","195640","0.0-33.0","A2YC6PEMIRSOAA","<p style=""font-size: 48px;"">+</p>","","","","","null","allTrialResponses","1500","1","-1","img_art/ins/2.jpg","-30","Its okay but not for me","Jenna,Ashley,Beth,Dora,Kara,Katie","One of my pet peevs,-48,140,20","Idk, it is just annoying,-32,40,20","meaningless painting,-45,60,20","looks too angry,-50,80,20","I like the blocks of color arrangements,30,160,20","too much color!,-28,180,20","Jenna","One of my pet peevs,-48,140,20","Beth","meaningless painting,-45,60,20","Dora","looks too angry,-50,80,20","0"
"5026","","survey-text","34","200673","0.0-34.0-0.0","A2YC6PEMIRSOAA","","","","{""Q0"":""Yuk""}","","","","","","","","","","","","","","","","","","","","","","",""
"11392","","survey-text","35","214812","0.0-34.1-0.1","A2YC6PEMIRSOAA","","","","{""Q0"":""meaningless piece of work""}","","","","","","","","","","","","","","","","","","","","","","",""
"2323.5","","image-slider-response","36","217138","0.0-35.0","A2YC6PEMIRSOAA","","","","","-38","","","","","","","","","","","","","","","","","","","","","",""
"4857","","image-button-response","37","222141","0.0-36.0","A2YC6PEMIRSOAA","img_art/ins/3.jpg","3","","","","","","","","","","","","","","","","","","","","","","","","",""
"1680","","image-button-response","38","223824","0.0-37.0","A2YC6PEMIRSOAA","img_art/ins/3.jpg","0","","","","","","","","","","","","","","","","","","","","","","","","",""
"957","","image-button-response","39","224784","0.0-38.0-0.0","A2YC6PEMIRSOAA","img_art/ins/3.jpg","2","","","","","","","","","","","","","","","","","","","","","","","","",""
"5461","","image-button-response","40","230248","0.0-39.0-0.0","A2YC6PEMIRSOAA","img_art/ins/3.jpg","0","","","","","","","","","","","","","","","","","","","","","","","","",""
"769","","image-button-response","41","235540","0.0-39.1-0.1","A2YC6PEMIRSOAA","img_art/ins/3.jpg","3","","","","","","","","","","","","","","","","","","","","","","","","",""
"null","","html-keyboard-response","42","236542","0.0-40.0","A2YC6PEMIRSOAA","<p style=""font-size: 48px;"">+</p>","","","","","null","allTrialResponses","1000","1","0","img_art/ins/3.jpg","-38","meaningless piece of work","Jenna,Leslie,Beth,Dora,Mary,Rose","looks like a murder room,-35,140,20","It's an alright work,15,200,20","This thing gives me anxiety,-41,60,20","My worst nightmare,-42,80,20","I like the overlapping of brushes,41,220,20","My daily routine, it's depressing,-20,240,20","Jenna","looks like a murder room,-35,140,20","Beth","This thing gives me anxiety,-41,60,20","Dora","My worst nightmare,-42,80,20","2"
"4380","","image-button-response_instructions","43","240929","0.0-41.0","A2YC6PEMIRSOAA","","0","instructions","","","","","","","","","","","","","","","","","","","","","","","",""
"14465","","survey-likert","44","255397","0.0-42.0-0.0","A2YC6PEMIRSOAA","","","","{""Q0"":"""",""Q1"":0,""Q2"":1}","","","","","","","","","","","","","","","","","","","","","","",""
"4211","","survey-text","45","259612","0.0-43.0-0.0","A2YC6PEMIRSOAA","","","","{""Q0"":""rock""}","","","","","","","","","","","","","","","","","","","","","","",""
"9408","","survey-text","46","269022","0.0-44.0-0.0","A2YC6PEMIRSOAA","","","","{""Q0"":""omg this is bad""}","","","","","","","","","","","","","","","","","","","","","","",""
"2842.0999999046326","","image-slider-response","47","271866","0.0-45.0","A2YC6PEMIRSOAA","","","","","-47","","","","","","","","","","","","","","","","","","","","","",""
"null","","image-button-response","48","276888","0.0-46.0","A2YC6PEMIRSOAA","img_art/23.jpg","null","","","","","","","","","","","","","","","","","","","","","","","","",""
"1248","","image-button-response","49","278138","0.0-47.0","A2YC6PEMIRSOAA","img_art/23.jpg","5","","","","","","","","","","","","","","","","","","","","","","","","",""
"2352","","image-button-response","50","280492","0.0-48.0-0.0","A2YC6PEMIRSOAA","img_art/23.jpg","0","","","","","","","","","","","","","","","","","","","","","","","","",""
"3248","","image-button-response","51","283742","0.0-49.0-0.0","A2YC6PEMIRSOAA","img_art/23.jpg","1","","","","","","","","","","","","","","","","","","","","","","","","",""
"null","","html-keyboard-response","52","284744","0.0-50.0","A2YC6PEMIRSOAA","<p style=""font-size: 48px;"">+</p>","","","","","null","allTrialResponses","1000","1","1","img_art/23.jpg","-47","omg this is bad","Sophia,Grace,Victoria,Jessica,Morgan,Erika","I like the contrast and the bright colors in this one.,6,280,20","Looks like fireworks.,21,180,20","enjoy the colors,23,400,20","This is very cool!,24,400,20","Unicorns flying through a colorful space.,25,380,20","Very intense and unique,3,100,20","Erika","Very intense and unique,3,100,20","Sophia","I like the contrast and the bright colors in this one.,6,280,20","Grace","Looks like fireworks.,21,180,20","2"
"7358","","survey-text","53","292105","0.0-51.0-0.0","A2YC6PEMIRSOAA","","","","{""Q0"":""this would be okay""}","","","","","","","","","","","","","","","","","","","","","","",""
"2754.5","","image-slider-response","54","294865","0.0-52.0","A2YC6PEMIRSOAA","","","","","-20","","","","","","","","","","","","","","","","","","","","","",""
"4148","","image-button-response","55","299868","0.0-53.0","A2YC6PEMIRSOAA","img_art/10.jpg","4","","","","","","","","","","","","","","","","","","","","","","","","",""
"2566","","image-button-response","56","302435","0.0-54.0","A2YC6PEMIRSOAA","img_art/10.jpg","4","","","","","","","","","","","","","","","","","","","","","","","","",""
"1745","","image-button-response","57","304181","0.0-55.0-0.0","A2YC6PEMIRSOAA","img_art/10.jpg","2","","","","","","","","","","","","","","","","","","","","","","","","",""
"1220","","image-button-response","58","305403","0.0-56.0-0.0","A2YC6PEMIRSOAA","img_art/10.jpg","0","","","","","","","","","","","","","","","","","","","","","","","","",""
"null","","html-keyboard-response","59","306405","0.0-57.0","A2YC6PEMIRSOAA","<p style=""font-size: 48px;"">+</p>","","","","","null","allTrialResponses","1000","1","2","img_art/10.jpg","-20","this would be okay","Sophia,Grace,Sydney,Briana,Stephanie,Erika","This piece is very intriguing to me.,3,280,20","First impression was musical instrument then, because of the gray colors, death.,5,180,20","This piece is unusual in a way that makes me uncomfortable.,-5,320,20","It confuses me. I dont know whats going on,14,400,20","The black color is depressing.,-50,300,20","Good texture, expressive,18,100,20","Stephanie","The black color is depressing.,-50,300,20","Sydney","This piece is unusual in a way that makes me uncomfortable.,-5,320,20","Sophia","This piece is very intriguing to me.,3,280,20","2"
"8792","","survey-text","60","315201","0.0-58.0-0.0","A2YC6PEMIRSOAA","","","","{""Q0"":""this look like vomit""}","","","","","","","","","","","","","","","","","","","","","","",""
"2378.199999809265","","image-slider-response","61","317581","0.0-59.0","A2YC6PEMIRSOAA","","","","","-50","","","","","","","","","","","","","","","","","","","","","",""
"4492","","image-button-response","62","322582","0.0-60.0","A2YC6PEMIRSOAA","img_art/9.jpg","4","","","","","","","","","","","","","","","","","","","","","","","","",""
"1149","","image-button-response","63","323733","0.0-61.0","A2YC6PEMIRSOAA","img_art/9.jpg","0","","","","","","","","","","","","","","","","","","","","","","","","",""
"1368","","image-button-response","64","325103","0.0-62.0-0.0","A2YC6PEMIRSOAA","img_art/9.jpg","4","","","","","","","","","","","","","","","","","","","","","","","","",""
"3418","","image-button-response","65","328523","0.0-63.0-0.0","A2YC6PEMIRSOAA","img_art/9.jpg","1","","","","","","","","","","","","","","","","","","","","","","","","",""
"null","","html-keyboard-response","66","330026","0.0-64.0","A2YC6PEMIRSOAA","<p style=""font-size: 48px;"">+</p>","","","","","null","allTrialResponses","1500","1","3","img_art/9.jpg","-50","this look like vomit","Sophia,Shannon,Sydney,Mikayla,Stephanie,Katie","Yikes. I'm not sure what to make of this one.,-14,280,20","This looks like someone sleeping in a bed, and I think the colors make it look interesting.,20,220,20","I see some of my favorite colors which I like, but I don't like what's portrayed.,35,320,20","Looks like a crayon drawing.,21,300,20","Someone sleeping in a cave. Dont like the scribble look.,-30,300,20","I like the blues and pinks. The woman lying down communicates relaxation. It is a serene, calming scene,30,160,20","Sophia","Yikes. I'm not sure what to make of this one.,-14,280,20","Stephanie","Someone sleeping in a cave. Dont like the scribble look.,-30,300,20","Shannon","This looks like someone sleeping in a bed, and I think the colors make it look interesting.,20,220,20","2"
"7974","","survey-text","67","338006","0.0-65.0-0.0","A2YC6PEMIRSOAA","","","","{""Q0"":""Not my style""}","","","","","","","","","","","","","","","","","","","","","","",""
"3791.2999997138977","","image-slider-response","68","341800","0.0-66.0","A2YC6PEMIRSOAA","","","","","-39","","","","","","","","","","","","","","","","","","","","","",""
"4403","","image-button-response","69","346804","0.0-67.0","A2YC6PEMIRSOAA","img_art/27.jpg","1","","","","","","","","","","","","","","","","","","","","","","","","",""
"281","","image-button-response","70","347087","0.0-68.0","A2YC6PEMIRSOAA","img_art/27.jpg","0","","","","","","","","","","","","","","","","","","","","","","","","",""
"1392","","image-button-response","71","348481","0.0-69.0-0.0","A2YC6PEMIRSOAA","img_art/27.jpg","1","","","","","","","","","","","","","","","","","","","","","","","","",""
"3930","","image-button-response","72","352414","0.0-70.0-0.0","A2YC6PEMIRSOAA","img_art/27.jpg","2","","","","","","","","","","","","","","","","","","","","","","","","",""
"null","","html-keyboard-response","73","353916","0.0-71.0","A2YC6PEMIRSOAA","<p style=""font-size: 48px;"">+</p>","","","","","null","allTrialResponses","1500","1","4","img_art/27.jpg","-39","Not my style","Sophia,Shannon,Emily,Natalie,Stephanie,Alexandria","Yikes. I think I made this in kindergarten.,-20,280,20","This image could do a better job of showing what is going on and it could use more colors.,-42,220,20","Anyone could do that.,-31,40,20","also gives me anxiety,-21,400,20","The black sketchy over the colors doesn't fit.,-4,300,20","it looks very simple and childlike,-31,80,20","Sophia","Yikes. I think I made this in kindergarten.,-20,280,20","Shannon","This image could do a better job of showing what is going on and it could use more colors.,-42,220,20","Emily","Anyone could do that.,-31,40,20","2"
"61220","","survey-text","74","415139","0.0-72.0-0.0","A2YC6PEMIRSOAA","","","","{""Q0"":""I like the pic""}","","","","","","","","","","","","","","","","","","","","","","",""
"2321","","image-slider-response","75","417463","0.0-73.0","A2YC6PEMIRSOAA","","","","","38","","","","","","","","","","","","","","","","","","","","","",""
"2706","","image-button-response","76","422466","0.0-74.0","A2YC6PEMIRSOAA","img_art/13.jpg","1","","","","","","","","","","","","","","","","","","","","","","","","",""
"802","","image-button-response","77","423271","0.0-75.0","A2YC6PEMIRSOAA","img_art/13.jpg","3","","","","","","","","","","","","","","","","","","","","","","","","",""
"2287","","image-button-response","78","425561","0.0-76.0-0.0","A2YC6PEMIRSOAA","img_art/13.jpg","1","","","","","","","","","","","","","","","","","","","","","","","","",""
"2065","","image-button-response","79","427629","0.0-77.0-0.0","A2YC6PEMIRSOAA","img_art/13.jpg","0","","","","","","","","","","","","","","","","","","","","","","","","",""
"null","","html-keyboard-response","80","429131","0.0-78.0","A2YC6PEMIRSOAA","<p style=""font-size: 48px;"">+</p>","","","","","null","allTrialResponses","1500","1","5","img_art/13.jpg","38","I like the pic","Sophia,Shannon,Emily,Julia,Catherine,Alexa","I like the colors used in this piece.,2,280,20","It looks like someone splattered a bunch of different colors to make a picture; I think its ugly.,-40,220,20","I don't car for it but it does seem organized and like it took considereably more skill that others.,9,40,20","I don't really care for splatter paintings; the spectral colors underneath are nice.,-18,40,20","Magnified rain around trees. Beautiful happy colors. The little person on the right feels nature is huge.,45,160,20","This looks like a staple bedroom or bathroom piece,41,40,20","Julia","I don't really care for splatter paintings; the spectral colors underneath are nice.,-18,40,20","Shannon","It looks like someone splattered a bunch of different colors to make a picture; I think its ugly.,-40,220,20","Sophia","I like the colors used in this piece.,2,280,20","2"
"3423","","survey-text","81","432565","0.0-79.0-0.0","A2YC6PEMIRSOAA","","","","{""Q0"":""sky""}","","","","","","","","","","","","","","","","","","","","","","",""
"10828","","survey-text","82","443394","0.0-80.0-0.0","A2YC6PEMIRSOAA","","","","{""Q0"":""looks like a marching band""}","","","","","","","","","","","","","","","","","","","","","","",""
"7943.400000095367","","image-slider-response","83","451340","0.0-81.0","A2YC6PEMIRSOAA","","","","","-28","","","","","","","","","","","","","","","","","","","","","",""
"1630","","image-button-response","84","456344","0.0-82.0","A2YC6PEMIRSOAA","img_art/2.jpg","0","","","","","","","","","","","","","","","","","","","","","","","","",""
"2476","","image-button-response","85","458822","0.0-83.0","A2YC6PEMIRSOAA","img_art/2.jpg","0","","","","","","","","","","","","","","","","","","","","","","","","",""
"1343","","image-button-response","86","460169","0.0-84.0-0.0","A2YC6PEMIRSOAA","img_art/2.jpg","5","","","","","","","","","","","","","","","","","","","","","","","","",""
"1502","","image-button-response","87","461675","0.0-85.0-0.0","A2YC6PEMIRSOAA","img_art/2.jpg","4","","","","","","","","","","","","","","","","","","","","","","","","",""
"null","","html-keyboard-response","88","462176","0.0-86.0","A2YC6PEMIRSOAA","<p style=""font-size: 48px;"">+</p>","","","","","null","allTrialResponses","500","1","6","img_art/2.jpg","-28","looks like a marching band","Sophia,Shannon,Taylor,Julia,Miranda,Maria","I'm not fond of the colors in this one.,-33,280,20","I like this picture a little because the colors make it look a little vibrant.,10,220,20","Doesn't give me a reaction,10,340,20","I like how it looks like a cute smiling face,43,40,20","I don't really like this but at the same time it's cute. It looks like a little monster kid.,-9,320,20","again, I struggle to see the art and I dislike the green in particular.,-31,120,20","Sophia","I'm not fond of the colors in this one.,-33,280,20","Maria","again, I struggle to see the art and I dislike the green in particular.,-31,120,20","Miranda","I don't really like this but at the same time it's cute. It looks like a little monster kid.,-9,320,20","2"
"9127","","survey-text","89","471310","0.0-87.0-0.0","A2YC6PEMIRSOAA","","","","{""Q0"":""looks like animal droppings""}","","","","","","","","","","","","","","","","","","","","","","",""
"2833.5","","image-slider-response","90","474145","0.0-88.0","A2YC6PEMIRSOAA","","","","","-42","","","","","","","","","","","","","","","","","","","","","",""
"2854","","image-button-response","91","479153","0.0-89.0","A2YC6PEMIRSOAA","img_art/15.jpg","2","","","","","","","","","","","","","","","","","","","","","","","","",""
"1043","","image-button-response","92","480198","0.0-90.0","A2YC6PEMIRSOAA","img_art/15.jpg","3","","","","","","","","","","","","","","","","","","","","","","","","",""
"1359","","image-button-response","93","481560","0.0-91.0-0.0","A2YC6PEMIRSOAA","img_art/15.jpg","2","","","","","","","","","","","","","","","","","","","","","","","","",""
"4898","","image-button-response","94","486462","0.0-92.0-0.0","A2YC6PEMIRSOAA","img_art/15.jpg","0","","","","","","","","","","","","","","","","","","","","","","","","",""
"null","","html-keyboard-response","95","487464","0.0-93.0","A2YC6PEMIRSOAA","<p style=""font-size: 48px;"">+</p>","","","","","null","allTrialResponses","1000","1","7","img_art/15.jpg","-42","looks like animal droppings","Sophia,Leah,Sabrina,Breanna,Miranda,Maria","I feel like there's ski jumping going on here.,2,280,20","Pretty, like in a field of poppies,19,360,20","Extreme darkness and sadness,-30,120,20","Makes me feel weird,-16,380,20","This gives a skin crawling feeling. Like something that you could see under a mircoscope,10,320,20","i enjoy its apaprent simplicity (of colour and shape),32,120,20","Breanna","Makes me feel weird,-16,380,20","Sabrina","Extreme darkness and sadness,-30,120,20","Sophia","I feel like there's ski jumping going on here.,2,280,20","2"
"9203","","survey-text","96","496673","0.0-94.0-0.0","A2YC6PEMIRSOAA","","","","{""Q0"":""looks like trash""}","","","","","","","","","","","","","","","","","","","","","","",""
"2625.5","","image-slider-response","97","499301","0.0-95.0","A2YC6PEMIRSOAA","","","","","-49","","","","","","","","","","","","","","","","","","","","","",""
"null","","image-button-response","98","504305","0.0-96.0","A2YC6PEMIRSOAA","img_art/5.jpg","null","","","","","","","","","","","","","","","","","","","","","","","","",""
"4772","","image-button-response","99","509079","0.0-97.0","A2YC6PEMIRSOAA","img_art/5.jpg","2","","","","","","","","","","","","","","","","","","","","","","","","",""
"1157","","image-button-response","100","510239","0.0-98.0-0.0","A2YC6PEMIRSOAA","img_art/5.jpg","1","","","","","","","","","","","","","","","","","","","","","","","","",""
"1126","","image-button-response","101","511369","0.0-99.0-0.0","A2YC6PEMIRSOAA","img_art/5.jpg","3","","","","","","","","","","","","","","","","","","","","","","","","",""
"null","","html-keyboard-response","102","512372","0.0-100.0","A2YC6PEMIRSOAA","<p style=""font-size: 48px;"">+</p>","","","","","null","allTrialResponses","1000","1","8","img_art/5.jpg","-49","looks like trash","Sophia,Marissa,Sabrina,Breanna,Brittany,Destiny","Looks like a tied up trash bag.,-10,280,20","I am confused as to what I am seeing is it a handbag, duck foot, bell?,-18,160,20","Very messy and not a lot of thought,-29,120,20","Makes me feel weird,-16,380,20","Although it's very simple, there's something about the colors that really draws the eye.,11,40,20","Just doesn't do a whole lot for me. I see Cinderellas broom,-11,360,20","Sabrina","Very messy and not a lot of thought,-29,120,20","Marissa","I am confused as to what I am seeing is it a handbag, duck foot, bell?,-18,160,20","Breanna","Makes me feel weird,-16,380,20","2"
"6340","","survey-text","103","518718","0.0-101.0-0.0","A2YC6PEMIRSOAA","","","","{""Q0"":""not my style""}","","","","","","","","","","","","","","","","","","","","","","",""
"2319.5999999046326","","image-slider-response","104","521040","0.0-102.0","A2YC6PEMIRSOAA","","","","","-47","","","","","","","","","","","","","","","","","","","","","",""
"2113","","image-button-response","105","526044","0.0-103.0","A2YC6PEMIRSOAA","img_art/30.jpg","0","","","","","","","","","","","","","","","","","","","","","","","","",""
"610","","image-button-response","106","526657","0.0-104.0","A2YC6PEMIRSOAA","img_art/30.jpg","3","","","","","","","","","","","","","","","","","","","","","","","","",""
"1143","","image-button-response","107","527803","0.0-105.0-0.0","A2YC6PEMIRSOAA","img_art/30.jpg","0","","","","","","","","","","","","","","","","","","","","","","","","",""
"1584","","image-button-response","108","529389","0.0-106.0-0.0","A2YC6PEMIRSOAA","img_art/30.jpg","5","","","","","","","","","","","","","","","","","","","","","","","","",""
"null","","html-keyboard-response","109","530391","0.0-107.0","A2YC6PEMIRSOAA","<p style=""font-size: 48px;"">+</p>","","","","","null","allTrialResponses","1000","1","9","img_art/30.jpg","-47","not my style","Mariah,Marissa,Sabrina,Breanna,Haley,Isabella","It just feels hasty and not well composed. Has an angsty teen feel,-31,140,20","I really like the broad and colorful strokes,21,160,20","Flowing freely of the rest of the world,42,120,20","Paint scribbled on canvas,-25,380,20","I like the colors,18,220,20","I like the back but the red lines in the front distress me,-7,280,20","Breanna","Paint scribbled on canvas,-25,380,20","Mariah","It just feels hasty and not well composed. Has an angsty teen feel,-31,140,20","Isabella","I like the back but the red lines in the front distress me,-7,280,20","2"
"6916","","survey-text","110","537310","0.0-108.0-0.0","A2YC6PEMIRSOAA","","","","{""Q0"":""I do not like""}","","","","","","","","","","","","","","","","","","","","","","",""
"2577.2999997138977","","image-slider-response","111","539890","0.0-109.0","A2YC6PEMIRSOAA","","","","","-50","","","","","","","","","","","","","","","","","","","","","",""
"2232","","image-button-response","112","544893","0.0-110.0","A2YC6PEMIRSOAA","img_art/6.jpg","1","","","","","","","","","","","","","","","","","","","","","","","","",""
"1011","","image-button-response","113","545907","0.0-111.0","A2YC6PEMIRSOAA","img_art/6.jpg","3","","","","","","","","","","","","","","","","","","","","","","","","",""
"1182","","image-button-response","114","547090","0.0-112.0-0.0","A2YC6PEMIRSOAA","img_art/6.jpg","1","","","","","","","","","","","","","","","","","","","","","","","","",""
"1054","","image-button-response","115","548148","0.0-113.0-0.0","A2YC6PEMIRSOAA","img_art/6.jpg","2","","","","","","","","","","","","","","","","","","","","","","","","",""
"null","","html-keyboard-response","116","549150","0.0-114.0","A2YC6PEMIRSOAA","<p style=""font-size: 48px;"">+</p>","","","","","null","allTrialResponses","1000","1","10","img_art/6.jpg","-50","I do not like","Mariah,Monica,Hailey,Breanna,Shelby,Isabella","Clean and simple, a pleasant resting place for the eyes.,21,140,20","Maybe it's supposed to be a bird but it looks like a scary cloaked figure. it's just too simple and jarring,-23,360,20","one lonely thing trying to grow,-24,200,20","Not impressed, just very plain,-10,380,20","I dont feel much of a responce or connection to this one,0,240,20","A bird standing in the sun,37,280,20","Breanna","Not impressed, just very plain,-10,380,20","Monica","Maybe it's supposed to be a bird but it looks like a scary cloaked figure. it's just too simple and jarring,-23,360,20","Hailey","one lonely thing trying to grow,-24,200,20","2"
"3730","","survey-text","117","552892","0.0-115.0-0.0","A2YC6PEMIRSOAA","","","","{""Q0"":""our""}","","","","","","","","","","","","","","","","","","","","","","",""
"9761","","survey-text","118","562655","0.0-116.0-0.0","A2YC6PEMIRSOAA","","","","{""Q0"":""who would like this""}","","","","","","","","","","","","","","","","","","","","","","",""
"2231.4000000953674","","image-slider-response","119","564889","0.0-117.0","A2YC6PEMIRSOAA","","","","","-50","","","","","","","","","","","","","","","","","","","","","",""
"2370","","image-button-response","120","569892","0.0-118.0","A2YC6PEMIRSOAA","img_art/21.jpg","3","","","","","","","","","","","","","","","","","","","","","","","","",""
"1507","","image-button-response","121","571402","0.0-119.0","A2YC6PEMIRSOAA","img_art/21.jpg","4","","","","","","","","","","","","","","","","","","","","","","","","",""
"1231","","image-button-response","122","572636","0.0-120.0-0.0","A2YC6PEMIRSOAA","img_art/21.jpg","5","","","","","","","","","","","","","","","","","","","","","","","","",""
"990","","image-button-response","123","573629","0.0-121.0-0.0","A2YC6PEMIRSOAA","img_art/21.jpg","3","","","","","","","","","","","","","","","","","","","","","","","","",""
"null","","html-keyboard-response","124","575131","0.0-122.0","A2YC6PEMIRSOAA","<p style=""font-size: 48px;"">+</p>","","","","","null","allTrialResponses","1500","1","11","img_art/21.jpg","-50","who would like this","Alexandra,Monica,Hailey,Breanna,Lindsey,Paige","This one is nice, it reminds me of the sky,42,60,20","I like the dark blue in the lower right which reminds me of a storm but the orange is ugly,12,360,20","ocean and rocks at the beach,11,200,20","Can't understand what it is,-27,380,20","I like this piece more the more I look at. Still wouldn't want it in my home, though.,8,400,20","the picture is boring,1,60,20","Lindsey","I like this piece more the more I look at. Still wouldn't want it in my home, though.,8,400,20","Paige","the picture is boring,1,60,20","Breanna","Can't understand what it is,-27,380,20","2"
"8055","","survey-text","125","583191","0.0-123.0-0.0","A2YC6PEMIRSOAA","","","","{""Q0"":""not likeable""}","","","","","","","","","","","","","","","","","","","","","","",""
"2119.300000190735","","image-slider-response","126","585313","0.0-124.0","A2YC6PEMIRSOAA","","","","","-46","","","","","","","","","","","","","","","","","","","","","",""
"1839","","image-button-response","127","590316","0.0-125.0","A2YC6PEMIRSOAA","img_art/28.jpg","2","","","","","","","","","","","","","","","","","","","","","","","","",""
"235","","image-button-response","128","590553","0.0-126.0","A2YC6PEMIRSOAA","img_art/28.jpg","0","","","","","","","","","","","","","","","","","","","","","","","","",""
"1149","","image-button-response","129","591705","0.0-127.0-0.0","A2YC6PEMIRSOAA","img_art/28.jpg","1","","","","","","","","","","","","","","","","","","","","","","","","",""
"831","","image-button-response","130","592539","0.0-128.0-0.0","A2YC6PEMIRSOAA","img_art/28.jpg","2","","","","","","","","","","","","","","","","","","","","","","","","",""
"null","","html-keyboard-response","131","593541","0.0-129.0","A2YC6PEMIRSOAA","<p style=""font-size: 48px;"">+</p>","","","","","null","allTrialResponses","1000","1","12","img_art/28.jpg","-46","not likeable","Kaylee,Jasmine,Mary,Breanna,Lindsey,Paige","i dont understand it,-34,200,20","Colors too dull for me,-10,340,20","The colors are really ugly. They do not compliment each other well.,-45,180,20","The colors are depressing,-5,380,20","Not a fan of the drab colors but it looks a little bit interesting.,-7,400,20","I just don't like it. It makes no sense to me,1,60,20","Kaylee","i dont understand it,-34,200,20","Jasmine","Colors too dull for me,-10,340,20","Mary","The colors are really ugly. They do not compliment each other well.,-45,180,20","2"
"15009","","survey-text","132","608556","0.0-130.0-0.0","A2YC6PEMIRSOAA","","","","{""Q0"":""scribble art""}","","","","","","","","","","","","","","","","","","","","","","",""
"8783.199999809265","","image-slider-response","133","617342","0.0-131.0","A2YC6PEMIRSOAA","","","","","-38","","","","","","","","","","","","","","","","","","","","","",""
"1985","","image-button-response","134","622345","0.0-132.0","A2YC6PEMIRSOAA","img_art/4.jpg","0","","","","","","","","","","","","","","","","","","","","","","","","",""
"554","","image-button-response","135","622902","0.0-133.0","A2YC6PEMIRSOAA","img_art/4.jpg","2","","","","","","","","","","","","","","","","","","","","","","","","",""
"1191","","image-button-response","136","624096","0.0-134.0-0.0","A2YC6PEMIRSOAA","img_art/4.jpg","0","","","","","","","","","","","","","","","","","","","","","","","","",""
"2015","","image-button-response","137","626114","0.0-135.0-0.0","A2YC6PEMIRSOAA","img_art/4.jpg","3","","","","","","","","","","","","","","","","","","","","","","","","",""
"null","","html-keyboard-response","138","627117","0.0-136.0","A2YC6PEMIRSOAA","<p style=""font-size: 48px;"">+</p>","","","","","null","allTrialResponses","1000","1","13","img_art/4.jpg","-38","scribble art","Kaylee,Jasmine,Mary,Abigail,Lauren,Diana","just a scuffed hand,-15,200,20","It's quite meh to me,0,340,20","This looks like a child got into his diaper.,-46,180,20","A hand reaching for something it cannot obtain,-9,20,20","I like the design. It can be interpreted in various ways, such as a hand of horror or still piece.,15,340,20","Odd but intriguing. I feel emotion from this. Like a woman bent over carrying these emotions on her back.,33,380,20","Mary","This looks like a child got into his diaper.,-46,180,20","Kaylee","just a scuffed hand,-15,200,20","Abigail","A hand reaching for something it cannot obtain,-9,20,20","2"
"4721","","survey-text","139","631844","0.0-137.0-0.0","A2YC6PEMIRSOAA","","","","{""Q0"":""just okay""}","","","","","","","","","","","","","","","","","","","","","","",""
"3065.4000000953674","","image-slider-response","140","634911","0.0-138.0","A2YC6PEMIRSOAA","","","","","-5","","","","","","","","","","","","","","","","","","","","","",""
"4564","","image-button-response","141","639914","0.0-139.0","A2YC6PEMIRSOAA","img_art/14.jpg","1","","","","","","","","","","","","","","","","","","","","","","","","",""
"1035","","image-button-response","142","640952","0.0-140.0","A2YC6PEMIRSOAA","img_art/14.jpg","5","","","","","","","","","","","","","","","","","","","","","","","","",""
"1464","","image-button-response","143","642417","0.0-141.0-0.0","A2YC6PEMIRSOAA","img_art/14.jpg","1","","","","","","","","","","","","","","","","","","","","","","","","",""
"4120","","image-button-response","144","646542","0.0-142.0-0.0","A2YC6PEMIRSOAA","img_art/14.jpg","3","","","","","","","","","","","","","","","","","","","","","","","","",""
"null","","html-keyboard-response","145","647543","0.0-143.0","A2YC6PEMIRSOAA","<p style=""font-size: 48px;"">+</p>","","","","","null","allTrialResponses","1000","1","14","img_art/14.jpg","-5","just okay","Kaylee,Madison,Mary,Abigail,Chelsea,Alexis","it looks like a tree on desert,23,200,20","No strong feelings either direction.,-4,60,20","I like the layers of color in this piece. The circles and lines are interesting.,29,180,20","Reminds me of art class,22,20,20","The colors are pleasing.,29,180,20","Don't like the colors on this. Too simple,-20,100,20","Alexis","Don't like the colors on this. Too simple,-20,100,20","Madison","No strong feelings either direction.,-4,60,20","Abigail","Reminds me of art class,22,20,20","2"
"12935","","survey-text","146","660486","0.0-144.0-0.0","A2YC6PEMIRSOAA","","","","{""Q0"":""someone cut themselves""}","","","","","","","","","","","","","","","","","","","","","","",""
"2720.7999997138977","","image-slider-response","147","663210","0.0-145.0","A2YC6PEMIRSOAA","","","","","-42","","","","","","","","","","","","","","","","","","","","","",""
"2993","","image-button-response","148","668213","0.0-146.0","A2YC6PEMIRSOAA","img_art/3.jpg","5","","","","","","","","","","","","","","","","","","","","","","","","",""
"1274","","image-button-response","149","669491","0.0-147.0","A2YC6PEMIRSOAA","img_art/3.jpg","5","","","","","","","","","","","","","","","","","","","","","","","","",""
"735","","image-button-response","150","670229","0.0-148.0-0.0","A2YC6PEMIRSOAA","img_art/3.jpg","4","","","","","","","","","","","","","","","","","","","","","","","","",""
"1614","","image-button-response","151","671846","0.0-149.0-0.0","A2YC6PEMIRSOAA","img_art/3.jpg","3","","","","","","","","","","","","","","","","","","","","","","","","",""
"null","","html-keyboard-response","152","672848","0.0-150.0","A2YC6PEMIRSOAA","<p style=""font-size: 48px;"">+</p>","","","","","null","allTrialResponses","1000","1","15","img_art/3.jpg","-42","someone cut themselves","Dominique,Madison,Sarah,Abigail,Olivia,Alexis","Iike this one it's a piece that I need to spend more time with to understand how i feel about it,20,400,20","This doesn't grab me. Perhaps the red is meant to be provocative; I find it gimmicky.,-9,60,20","the red is impactful but the work overall doesn't say anything to me,-8,180,20","Reminded me of blood or something bad,-21,20,20","confusing taking over,-15,40,20","Just scribbles. Not a fan.,-40,100,20","Alexis","Just scribbles. Not a fan.,-40,100,20","Olivia","confusing taking over,-15,40,20","Abigail","Reminded me of blood or something bad,-21,20,20","2"
"4370","","survey-text","153","677230","0.0-151.0-0.0","A2YC6PEMIRSOAA","","","","{""Q0"":""course""}","","","","","","","","","","","","","","","","","","","","","","",""
"6588","","survey-text","154","683819","0.0-152.0-0.0","A2YC6PEMIRSOAA","","","","{""Q0"":""horrible""}","","","","","","","","","","","","","","","","","","","","","","",""
"2593.4000000953674","","image-slider-response","155","686415","0.0-153.0","A2YC6PEMIRSOAA","","","","","-49","","","","","","","","","","","","","","","","","","","","","",""
"4612","","image-button-response","156","691419","0.0-154.0","A2YC6PEMIRSOAA","img_art/1.jpg","5","","","","","","","","","","","","","","","","","","","","","","","","",""
"707","","image-button-response","157","692128","0.0-155.0","A2YC6PEMIRSOAA","img_art/1.jpg","5","","","","","","","","","","","","","","","","","","","","","","","","",""
"1960","","image-button-response","158","694090","0.0-156.0-0.0","A2YC6PEMIRSOAA","img_art/1.jpg","1","","","","","","","","","","","","","","","","","","","","","","","","",""
"3072","","image-button-response","159","697166","0.0-157.0-0.0","A2YC6PEMIRSOAA","img_art/1.jpg","4","","","","","","","","","","","","","","","","","","","","","","","","",""
"null","","html-keyboard-response","160","698168","0.0-158.0","A2YC6PEMIRSOAA","<p style=""font-size: 48px;"">+</p>","","","","","null","allTrialResponses","1000","1","16","img_art/1.jpg","-49","horrible","Amber,Kaitlyn,Kelly,Abigail,Olivia,Alexis","Really like all of the colors and how they mesh well.,27,200,20","Interesting blend of colors,9,80,20","I love colorful photos and I like this one a lot.,25,220,20","I like the warmth of the picture,21,20,20","feels like there is meaning,9,40,20","Taco Bell wallpaper. Doesn't really make me feel anything,3,100,20","Alexis","Taco Bell wallpaper. Doesn't really make me feel anything,3,100,20","Kaitlyn","Interesting blend of colors,9,80,20","Olivia","feels like there is meaning,9,40,20","2"
"8521","","survey-text","161","706697","0.0-159.0-0.0","A2YC6PEMIRSOAA","","","","{""Q0"":""looks very cold""}","","","","","","","","","","","","","","","","","","","","","","",""
"3521.5","","image-slider-response","162","710221","0.0-160.0","A2YC6PEMIRSOAA","","","","","-50","","","","","","","","","","","","","","","","","","","","","",""
"4533","","image-button-response","163","715225","0.0-161.0","A2YC6PEMIRSOAA","img_art/20.jpg","4","","","","","","","","","","","","","","","","","","","","","","","","",""
"1312","","image-button-response","164","716539","0.0-162.0","A2YC6PEMIRSOAA","img_art/20.jpg","4","","","","","","","","","","","","","","","","","","","","","","","","",""
"1399","","image-button-response","165","717941","0.0-163.0-0.0","A2YC6PEMIRSOAA","img_art/20.jpg","1","","","","","","","","","","","","","","","","","","","","","","","","",""
"2759","","image-button-response","166","720703","0.0-164.0-0.0","A2YC6PEMIRSOAA","img_art/20.jpg","5","","","","","","","","","","","","","","","","","","","","","","","","",""
"null","","html-keyboard-response","167","721705","0.0-165.0","A2YC6PEMIRSOAA","<p style=""font-size: 48px;"">+</p>","","","","","null","allTrialResponses","1000","1","17","img_art/20.jpg","-50","looks very cold","Alicia,Kaitlyn,Emma,Angela,Olivia,Alexis","Very cool, and calming (again) Love it.,47,120,20","The picture looks smudged and dirty,-4,80,20","I like the distortion of the objects, good colors,20,60,20","I like the blues, and the sense of foreboding it makes me feel.,20,260,20","crash after traffic causing grief,-11,40,20","I like the proportion of the car to the desert city, but too abstract for me,15,100,20","Olivia","crash after traffic causing grief,-11,40,20","Kaitlyn","The picture looks smudged and dirty,-4,80,20","Alexis","I like the proportion of the car to the desert city, but too abstract for me,15,100,20","2"
"7565","","survey-text","168","729278","0.0-166.0-0.0","A2YC6PEMIRSOAA","","","","{""Q0"":""I do not like""}","","","","","","","","","","","","","","","","","","","","","","",""
"4771.200000286102","","image-slider-response","169","734052","0.0-167.0","A2YC6PEMIRSOAA","","","","","-40","","","","","","","","","","","","","","","","","","","","","",""
"null","","image-button-response","170","739054","0.0-168.0","A2YC6PEMIRSOAA","img_art/24.jpg","null","","","","","","","","","","","","","","","","","","","","","","","","",""
"3401","","image-button-response","171","742458","0.0-169.0","A2YC6PEMIRSOAA","img_art/24.jpg","1","","","","","","","","","","","","","","","","","","","","","","","","",""
"2751","","image-button-response","172","745212","0.0-170.0-0.0","A2YC6PEMIRSOAA","img_art/24.jpg","5","","","","","","","","","","","","","","","","","","","","","","","","",""
"2873","","image-button-response","173","748088","0.0-171.0-0.0","A2YC6PEMIRSOAA","img_art/24.jpg","0","","","","","","","","","","","","","","","","","","","","","","","","",""
"null","","html-keyboard-response","174","749590","0.0-172.0","A2YC6PEMIRSOAA","<p style=""font-size: 48px;"">+</p>","","","","","null","allTrialResponses","1500","1","18","img_art/24.jpg","-40","I do not like","Jennifer,Kaitlyn,Jenna,Heather,Olivia,Alexis","This piece resembles a waterfall surrounded by trees.,21,380,20","I like the bright colors,16,80,20","colors are a bit cramped together. really unique take on a waterfall though.,32,360,20","i feel peace and wanting. i love waterfalls,50,260,20","tranquility in the stream,34,40,20","Simple. Not too abstract. Love the different flower colors.,20,100,20","Kaitlyn","I like the bright colors,16,80,20","Alexis","Simple. Not too abstract. Love the different flower colors.,20,100,20","Jennifer","This piece resembles a waterfall surrounded by trees.,21,380,20","2"
"6105","","survey-text","175","755701","0.0-173.0-0.0","A2YC6PEMIRSOAA","","","","{""Q0"":""looks busy""}","","","","","","","","","","","","","","","","","","","","","","",""
"2929.6000003814697","","image-slider-response","176","758633","0.0-174.0","A2YC6PEMIRSOAA","","","","","-50","","","","","","","","","","","","","","","","","","","","","",""
"null","","image-button-response","177","763636","0.0-175.0","A2YC6PEMIRSOAA","img_art/11.jpg","null","","","","","","","","","","","","","","","","","","","","","","","","",""
"1218","","image-button-response","178","764857","0.0-176.0","A2YC6PEMIRSOAA","img_art/11.jpg","4","","","","","","","","","","","","","","","","","","","","","","","","",""
"1063","","image-button-response","179","765923","0.0-177.0-0.0","A2YC6PEMIRSOAA","img_art/11.jpg","5","","","","","","","","","","","","","","","","","","","","","","","","",""
"2270","","image-button-response","180","768197","0.0-178.0-0.0","A2YC6PEMIRSOAA","img_art/11.jpg","0","","","","","","","","","","","","","","","","","","","","","","","","",""
"null","","html-keyboard-response","181","768699","0.0-179.0","A2YC6PEMIRSOAA","<p style=""font-size: 48px;"">+</p>","","","","","null","allTrialResponses","500","1","19","img_art/11.jpg","-50","looks busy","Jennifer,Kaitlyn,Erica,Elizabeth,Angelica,Alexis","The narrow groups of lines in the center make me feel uneasy for some reason,-31,380,20","Interesting use of color,9,80,20","a lot of dark colours,-8,80,20","Very unique piece of art,50,20,20","This is very unappealing.,-11,280,20","Don't like cityscapes, which this picture reminds me of,-29,100,20","Angelica","This is very unappealing.,-11,280,20","Alexis","Don't like cityscapes, which this picture reminds me of,-29,100,20","Jennifer","The narrow groups of lines in the center make me feel uneasy for some reason,-31,380,20","2"
"7855","","survey-text","182","776563","0.0-180.0-0.0","A2YC6PEMIRSOAA","","","","{""Q0"":""wires messed up""}","","","","","","","","","","","","","","","","","","","","","","",""
"2271.5","","image-slider-response","183","778837","0.0-181.0","A2YC6PEMIRSOAA","","","","","-40","","","","","","","","","","","","","","","","","","","","","",""
"null","","image-button-response","184","783840","0.0-182.0","A2YC6PEMIRSOAA","img_art/18.jpg","null","","","","","","","","","","","","","","","","","","","","","","","","",""
"1011","","image-button-response","185","784853","0.0-183.0","A2YC6PEMIRSOAA","img_art/18.jpg","4","","","","","","","","","","","","","","","","","","","","","","","","",""
"1455","","image-button-response","186","786311","0.0-184.0-0.0","A2YC6PEMIRSOAA","img_art/18.jpg","2","","","","","","","","","","","","","","","","","","","","","","","","",""
"3651","","image-button-response","187","789965","0.0-185.0-0.0","A2YC6PEMIRSOAA","img_art/18.jpg","0","","","","","","","","","","","","","","","","","","","","","","","","",""
"null","","html-keyboard-response","188","790467","0.0-186.0","A2YC6PEMIRSOAA","<p style=""font-size: 48px;"">+</p>","","","","","null","allTrialResponses","500","1","20","img_art/18.jpg","-40","wires messed up","Jennifer,Cynthia,Brooke,Jacqueline,Angelica,Alexis","I have no strong feelings about this image,1,380,20","Imaginative, makes me feel creative.,42,320,20","Don't like the color scheme. Or the theme.,-5,60,20","Kinda neat, looks like cavalry, or a knight.,15,300,20","It looks grotesque and violent.,-50,280,20","Crusade-feel, but a little too abstract for my taste,23,100,20","Angelica","It looks grotesque and violent.,-50,280,20","Brooke","Don't like the color scheme. Or the theme.,-5,60,20","Jennifer","I have no strong feelings about this image,1,380,20","2"
"2134","","survey-text","189","792614","0.0-187.0-0.0","A2YC6PEMIRSOAA","","","","{""Q0"":""we""}","","","","","","","","","","","","","","","","","","","","","","",""
"20369","","survey-text","190","812986","0.0-188.0-0.0","A2YC6PEMIRSOAA","","","","{""Q0"":""scary city block""}","","","","","","","","","","","","","","","","","","","","","","",""
"6247.299999713898","","image-slider-response","191","819236","0.0-189.0","A2YC6PEMIRSOAA","","","","","-24","","","","","","","","","","","","","","","","","","","","","",""
"3979","","image-button-response","192","824238","0.0-190.0","A2YC6PEMIRSOAA","img_art/8.jpg","3","","","","","","","","","","","","","","","","","","","","","","","","",""
"971","","image-button-response","193","825212","0.0-191.0","A2YC6PEMIRSOAA","img_art/8.jpg","3","","","","","","","","","","","","","","","","","","","","","","","","",""
"1488","","image-button-response","194","826702","0.0-192.0-0.0","A2YC6PEMIRSOAA","img_art/8.jpg","2","","","","","","","","","","","","","","","","","","","","","","","","",""
"1295","","image-button-response","195","828000","0.0-193.0-0.0","A2YC6PEMIRSOAA","img_art/8.jpg","4","","","","","","","","","","","","","","","","","","","","","","","","",""
"null","","html-keyboard-response","196","829502","0.0-194.0","A2YC6PEMIRSOAA","<p style=""font-size: 48px;"">+</p>","","","","","null","allTrialResponses","1500","1","21","img_art/8.jpg","-24","scary city block","Jennifer,Michelle,Brooke,Meghan,Angelica,Caroline","Not my favorite but has an interesting concept,32,380,20","I appreciate the complexity of this piece but it's too cubist for me,3,280,20","what's going on here. looks like scary town.,-25,60,20","the face is creepy,-49,220,20","It's a poor rendition of an MC Escher inspired piece.,-25,280,20","I love the colors in it and also the faces and door ways. Made me feel hopeful,35,100,20","Meghan","the face is creepy,-49,220,20","Brooke","what's going on here. looks like scary town.,-25,60,20","Angelica","It's a poor rendition of an MC Escher inspired piece.,-25,280,20","2"
"11527","","survey-text","197","841037","0.0-195.0-0.0","A2YC6PEMIRSOAA","","","","{""Q0"":""looks bad""}","","","","","","","","","","","","","","","","","","","","","","",""
"2961.5999999046326","","image-slider-response","198","844001","0.0-196.0","A2YC6PEMIRSOAA","","","","","-33","","","","","","","","","","","","","","","","","","","","","",""
"null","","image-button-response","199","849004","0.0-197.0","A2YC6PEMIRSOAA","img_art/7.jpg","null","","","","","","","","","","","","","","","","","","","","","","","","",""
"802","","image-button-response","200","849809","0.0-198.0","A2YC6PEMIRSOAA","img_art/7.jpg","3","","","","","","","","","","","","","","","","","","","","","","","","",""
"1969","","image-button-response","201","851781","0.0-199.0-0.0","A2YC6PEMIRSOAA","img_art/7.jpg","5","","","","","","","","","","","","","","","","","","","","","","","","",""
"1373","","image-button-response","202","853157","0.0-200.0-0.0","A2YC6PEMIRSOAA","img_art/7.jpg","0","","","","","","","","","","","","","","","","","","","","","","","","",""
"null","","html-keyboard-response","203","854659","0.0-201.0","A2YC6PEMIRSOAA","<p style=""font-size: 48px;"">+</p>","","","","","null","allTrialResponses","1500","1","22","img_art/7.jpg","-33","looks bad","Claire,Bailey,Brooke,Meghan,Angelica,Sierra","reminds me of a cave wall,-21,260,20","It gives off an alien-like vastness of space vibe which I like,9,360,20","tracks in dirt?,-15,60,20","I don't like the texture,-49,220,20","This is vague and ugly.,-3,280,20","it looks like a dog ran through some wet cement,-22,260,20","Meghan","I don't like the texture,-49,220,20","Sierra","it looks like a dog ran through some wet cement,-22,260,20","Claire","reminds me of a cave wall,-21,260,20","2"
"12551","","survey-text","204","867218","0.0-202.0-0.0","A2YC6PEMIRSOAA","","","","{""Q0"":""look outdated""}","","","","","","","","","","","","","","","","","","","","","","",""
"2279.4000000953674","","image-slider-response","205","869500","0.0-203.0","A2YC6PEMIRSOAA","","","","","-44","","","","","","","","","","","","","","","","","","","","","",""
"4244","","image-button-response","206","874503","0.0-204.0","A2YC6PEMIRSOAA","img_art/17.jpg","3","","","","","","","","","","","","","","","","","","","","","","","","",""
"906","","image-button-response","207","875412","0.0-205.0","A2YC6PEMIRSOAA","img_art/17.jpg","3","","","","","","","","","","","","","","","","","","","","","","","","",""
"1479","","image-button-response","208","876894","0.0-206.0-0.0","A2YC6PEMIRSOAA","img_art/17.jpg","1","","","","","","","","","","","","","","","","","","","","","","","","",""
"3225","","image-button-response","209","880122","0.0-207.0-0.0","A2YC6PEMIRSOAA","img_art/17.jpg","4","","","","","","","","","","","","","","","","","","","","","","","","",""
"null","","html-keyboard-response","210","881624","0.0-208.0","A2YC6PEMIRSOAA","<p style=""font-size: 48px;"">+</p>","","","","","null","allTrialResponses","1500","1","23","img_art/17.jpg","-44","look outdated","Claire,Allison,Alyssa,Meghan,Margaret,Sierra","its whimsical and light,50,260,20","Very washed out.,-10,140,20","It gorgeous and i love how the tree is almost 3 dimensional.So many elements to it.,50,160,20","pretty bland in coloring,1,220,20","gentle watercolor vibes,12,100,20","the colors, the arch and the wall,15,260,20","Meghan","pretty bland in coloring,1,220,20","Allison","Very washed out.,-10,140,20","Margaret","gentle watercolor vibes,12,100,20","2"
"12653","","survey-text","211","894285","0.0-209.0-0.0","A2YC6PEMIRSOAA","","","","{""Q0"":""nothing to look at""}","","","","","","","","","","","","","","","","","","","","","","",""
"38312.39999961853","","image-slider-response","212","932606","0.0-210.0","A2YC6PEMIRSOAA","","","","","-30","","","","","","","","","","","","","","","","","","","","","",""
"3161","","image-button-response","213","937609","0.0-211.0","A2YC6PEMIRSOAA","img_art/12.jpg","3","","","","","","","","","","","","","","","","","","","","","","","","",""
"810","","image-button-response","214","938423","0.0-212.0","A2YC6PEMIRSOAA","img_art/12.jpg","3","","","","","","","","","","","","","","","","","","","","","","","","",""
"2352","","image-button-response","215","940778","0.0-213.0-0.0","A2YC6PEMIRSOAA","img_art/12.jpg","5","","","","","","","","","","","","","","","","","","","","","","","","",""
"1414","","image-button-response","216","942196","0.0-214.0-0.0","A2YC6PEMIRSOAA","img_art/12.jpg","1","","","","","","","","","","","","","","","","","","","","","","","","",""
"null","","html-keyboard-response","217","942698","0.0-215.0","A2YC6PEMIRSOAA","<p style=""font-size: 48px;"">+</p>","","","","","null","allTrialResponses","500","1","24","img_art/12.jpg","-30","nothing to look at","Michaela,Allison,Amy,Meghan,Margaret,Sara","It looks like old lady upholstery,12,260,20","Minimalist colors and shapes.,-5,140,20","Quite lovely with depth and possibility.,21,220,20","I don't like the pattern or color choice,-41,220,20","I like the bottom half and hate the top half,7,100,20","I don't like the blocking,-20,160,20","Meghan","I don't like the pattern or color choice,-41,220,20","Sara","I don't like the blocking,-20,160,20","Allison","Minimalist colors and shapes.,-5,140,20","2"
"7190","","survey-text","218","949897","0.0-216.0-0.0","A2YC6PEMIRSOAA","","","","{""Q0"":""bunch of nothing""}","","","","","","","","","","","","","","","","","","","","","","",""
"2737.5999999046326","","image-slider-response","219","952637","0.0-217.0","A2YC6PEMIRSOAA","","","","","-40","","","","","","","","","","","","","","","","","","","","","",""
"3193","","image-button-response","220","957641","0.0-218.0","A2YC6PEMIRSOAA","img_art/19.jpg","0","","","","","","","","","","","","","","","","","","","","","","","","",""
"610","","image-button-response","221","958254","0.0-219.0","A2YC6PEMIRSOAA","img_art/19.jpg","0","","","","","","","","","","","","","","","","","","","","","","","","",""
"1287","","image-button-response","222","959544","0.0-220.0-0.0","A2YC6PEMIRSOAA","img_art/19.jpg","1","","","","","","","","","","","","","","","","","","","","","","","","",""
"6140","","image-button-response","223","965688","0.0-221.0-0.0","A2YC6PEMIRSOAA","img_art/19.jpg","5","","","","","","","","","","","","","","","","","","","","","","","","",""
"null","","html-keyboard-response","224","966190","0.0-222.0","A2YC6PEMIRSOAA","<p style=""font-size: 48px;"">+</p>","","","","","null","allTrialResponses","500","1","25","img_art/19.jpg","-40","bunch of nothing","Mackenzie,Allison,Nicole,Meghan,Tiffany,Sara","Shapes give it a feeling of being crowded,-18,20,20","Messy mix of colors.,-5,140,20","Feels like something I would hang in my dining room,42,20,20","looks like a shopping center,20,220,20","I feel a little anxious and happy. I'm about to walk into a market and any number of treasures could be found,14,360,20","I like the vibrant color blocks,13,160,20","Mackenzie","Shapes give it a feeling of being crowded,-18,20,20","Allison","Messy mix of colors.,-5,140,20","Sara","I like the vibrant color blocks,13,160,20","2"
"4079","","survey-text","225","970285","0.0-223.0-0.0","A2YC6PEMIRSOAA","","","","{""Q0"":""table""}","","","","","","","","","","","","","","","","","","","","","","",""
"8858","","survey-text","226","979145","0.0-224.0-0.0","A2YC6PEMIRSOAA","","","","{""Q0"":""looks old and outdated""}","","","","","","","","","","","","","","","","","","","","","","",""
"2167.4000000953674","","image-slider-response","227","981314","0.0-225.0","A2YC6PEMIRSOAA","","","","","-23","","","","","","","","","","","","","","","","","","","","","",""
"4277","","image-button-response","228","986317","0.0-226.0","A2YC6PEMIRSOAA","img_art/26.jpg","2","","","","","","","","","","","","","","","","","","","","","","","","",""
"1095","","image-button-response","229","987415","0.0-227.0","A2YC6PEMIRSOAA","img_art/26.jpg","2","","","","","","","","","","","","","","","","","","","","","","","","",""
"1431","","image-button-response","230","988849","0.0-228.0-0.0","A2YC6PEMIRSOAA","img_art/26.jpg","5","","","","","","","","","","","","","","","","","","","","","","","","",""
"815","","image-button-response","231","989667","0.0-229.0-0.0","A2YC6PEMIRSOAA","img_art/26.jpg","4","","","","","","","","","","","","","","","","","","","","","","","","",""
"null","","html-keyboard-response","232","990169","0.0-230.0","A2YC6PEMIRSOAA","<p style=""font-size: 48px;"">+</p>","","","","","null","allTrialResponses","500","1","26","img_art/26.jpg","-23","looks old and outdated","Mackenzie,Allison,Christina,Kathryn,Cassidy,Sara","Very interesting to look at, I like the shapes, textures and colors.,30,20,20","pretty colors, but sketch style isn't for me,10,140,20","looks like a little kids painting,-17,240,20","This piece feels pretty chill like it's just a normal day in the city.,10,140,20","the trees are cool,1,140,20","I can somewhat city a city in this drawing,11,160,20","Christina","looks like a little kids painting,-17,240,20","Sara","I can somewhat city a city in this drawing,11,160,20","Cassidy","the trees are cool,1,140,20","2"
"7094","","survey-text","233","997272","0.0-231.0-0.0","A2YC6PEMIRSOAA","","","","{""Q0"":""scary pic""}","","","","","","","","","","","","","","","","","","","","","","",""
"1903.6000003814697","","image-slider-response","234","999178","0.0-232.0","A2YC6PEMIRSOAA","","","","","-48","","","","","","","","","","","","","","","","","","","","","",""
"4435","","image-button-response","235","1004181","0.0-233.0","A2YC6PEMIRSOAA","img_art/16.jpg","5","","","","","","","","","","","","","","","","","","","","","","","","",""
"788","","image-button-response","236","1004972","0.0-234.0","A2YC6PEMIRSOAA","img_art/16.jpg","5","","","","","","","","","","","","","","","","","","","","","","","","",""
"1053","","image-button-response","237","1006028","0.0-235.0-0.0","A2YC6PEMIRSOAA","img_art/16.jpg","2","","","","","","","","","","","","","","","","","","","","","","","","",""
"1182","","image-button-response","238","1007214","0.0-236.0-0.0","A2YC6PEMIRSOAA","img_art/16.jpg","4","","","","","","","","","","","","","","","","","","","","","","","","",""
"null","","html-keyboard-response","239","1008716","0.0-237.0","A2YC6PEMIRSOAA","<p style=""font-size: 48px;"">+</p>","","","","","null","allTrialResponses","1500","1","27","img_art/16.jpg","-48","scary pic","Molly,Andrea,Christina,Makayla,Cassidy,Sara","It's frightening.,30,340,20","I think it's about child abuse. The teddy bear represents innocence and the dark shape is approaching it.,40,240,20","very creepy with a bear and a gun,-50,240,20","It's a little unsettling,2,80,20","I don't know why, I just don't like it,-28,140,20","This painting is too random,-30,160,20","Sara","This painting is too random,-30,160,20","Christina","very creepy with a bear and a gun,-50,240,20","Cassidy","I don't know why, I just don't like it,-28,140,20","2"
"13464","","survey-text","240","1022190","0.0-238.0-0.0","A2YC6PEMIRSOAA","","","","{""Q0"":""weird looking""}","","","","","","","","","","","","","","","","","","","","","","",""
"2353","","image-slider-response","241","1024545","0.0-239.0","A2YC6PEMIRSOAA","","","","","-42","","","","","","","","","","","","","","","","","","","","","",""
"4643","","image-button-response","242","1029548","0.0-240.0","A2YC6PEMIRSOAA","img_art/25.jpg","5","","","","","","","","","","","","","","","","","","","","","","","","",""
"1530","","image-button-response","243","1031082","0.0-241.0","A2YC6PEMIRSOAA","img_art/25.jpg","5","","","","","","","","","","","","","","","","","","","","","","","","",""
"3008","","image-button-response","244","1034093","0.0-242.0-0.0","A2YC6PEMIRSOAA","img_art/25.jpg","3","","","","","","","","","","","","","","","","","","","","","","","","",""
"1408","","image-button-response","245","1035504","0.0-243.0-0.0","A2YC6PEMIRSOAA","img_art/25.jpg","4","","","","","","","","","","","","","","","","","","","","","","","","",""
"null","","html-keyboard-response","246","1037005","0.0-244.0","A2YC6PEMIRSOAA","<p style=""font-size: 48px;"">+</p>","","","","","null","allTrialResponses","1500","1","28","img_art/25.jpg","-42","weird looking","Katherine,Savannah,Christina,Gabriela,Cassidy,Sara","That's pretty awesome. I love the green and black combo, reminds me of one of those cartoon creepy movies,47,120,20","Very cool color, very clear message!,50,200,20","nice colors and it looks like a native work,32,240,20","It looks like a person at a graveyard,18,140,20","Love the colors, and how it's simple yet complex,25,140,20","Green color is not my thing,-29,160,20","Sara","Green color is not my thing,-29,160,20","Gabriela","It looks like a person at a graveyard,18,140,20","Cassidy","Love the colors, and how it's simple yet complex,25,140,20","2"
"5902","","survey-text","247","1042917","0.0-245.0-0.0","A2YC6PEMIRSOAA","","","","{""Q0"":""not for me""}","","","","","","","","","","","","","","","","","","","","","","",""
"2447.199999809265","","image-slider-response","248","1045366","0.0-246.0","A2YC6PEMIRSOAA","","","","","-44","","","","","","","","","","","","","","","","","","","","","",""
"2134","","image-button-response","249","1050373","0.0-247.0","A2YC6PEMIRSOAA","img_art/22.jpg","1","","","","","","","","","","","","","","","","","","","","","","","","",""
"1013","","image-button-response","250","1051388","0.0-248.0","A2YC6PEMIRSOAA","img_art/22.jpg","1","","","","","","","","","","","","","","","","","","","","","","","","",""
"1328","","image-button-response","251","1052719","0.0-249.0-0.0","A2YC6PEMIRSOAA","img_art/22.jpg","2","","","","","","","","","","","","","","","","","","","","","","","","",""
"1710","","image-button-response","252","1054432","0.0-250.0-0.0","A2YC6PEMIRSOAA","img_art/22.jpg","3","","","","","","","","","","","","","","","","","","","","","","","","",""
"null","","html-keyboard-response","253","1055435","0.0-251.0","A2YC6PEMIRSOAA","<p style=""font-size: 48px;"">+</p>","","","","","null","allTrialResponses","1000","1","29","img_art/22.jpg","-44","not for me","Danielle,Anna,Vanessa,Gabriela,Cassidy,Sara","A bit colorful, but slightly enjoyable, almost gives off castle/sunset vibes,10,340,20","Boring, typical abstract art,-30,300,20","I don't like the colors or the way they've been arranged.,-20,380,20","Neither like nor dislike it. The red, yellow and blue colors are bright but I don't know what it's meant to be.,1,140,20","I don't really know why, I just like looking at it,10,140,20","Looks like a warm sunset to me i like it,42,160,20","Anna","Boring, typical abstract art,-30,300,20","Vanessa","I don't like the colors or the way they've been arranged.,-20,380,20","Gabriela","Neither like nor dislike it. The red, yellow and blue colors are bright but I don't know what it's meant to be.,1,140,20","2"
"6930","","survey-text","254","1062374","0.0-252.0-0.0","A2YC6PEMIRSOAA","","","","{""Q0"":""strange looking""}","","","","","","","","","","","","","","","","","","","","","","",""
"5669.5","","image-slider-response","255","1068046","0.0-253.0","A2YC6PEMIRSOAA","","","","","-47","","","","","","","","","","","","","","","","","","","","","",""
"4507","","image-button-response","256","1073050","0.0-254.0","A2YC6PEMIRSOAA","img_art/29.jpg","4","","","","","","","","","","","","","","","","","","","","","","","","",""
"993","","image-button-response","257","1074046","0.0-255.0","A2YC6PEMIRSOAA","img_art/29.jpg","4","","","","","","","","","","","","","","","","","","","","","","","","",""
"2649","","image-button-response","258","1076698","0.0-256.0-0.0","A2YC6PEMIRSOAA","img_art/29.jpg","0","","","","","","","","","","","","","","","","","","","","","","","","",""
"1199","","image-button-response","259","1077899","0.0-257.0-0.0","A2YC6PEMIRSOAA","img_art/29.jpg","0","","","","","","","","","","","","","","","","","","","","","","","","",""
"1471","","image-button-response","260","1083218","0.0-257.1-0.1","A2YC6PEMIRSOAA","img_art/29.jpg","2","","","","","","","","","","","","","","","","","","","","","","","","",""
"null","","html-keyboard-response","261","1084220","0.0-258.0","A2YC6PEMIRSOAA","<p style=""font-size: 48px;"">+</p>","","","","","null","allTrialResponses","1000","1","30","img_art/29.jpg","-47","strange looking","Kayla,Anna,Vanessa,Gabriela,Hannah,Samantha","It looks like graffiti in a subway tunnel- destruction.,-20,180,20","I like the texture and colors and how it makes me feel. I like how it's different from other abstract art.,45,300,20","I hate the red x over everything, hate the black hate how hopeless this is.,-50,380,20","I like that it looks like a scene from perhaps a failed painted project,10,140,20","I don't like the red X through it.,-20,240,20","I love this things almost hidden in it like paint brush and other details,50,140,20","Hannah","I don't like the red X through it.,-20,240,20","Kayla","It looks like graffiti in a subway tunnel- destruction.,-20,180,20","Vanessa","I hate the red x over everything, hate the black hate how hopeless this is.,-50,380,20","4"
"10563","","image-button-response_instructions","262","1094793","0.0-259.0","A2YC6PEMIRSOAA","","0","instructions","","","","","","","","","","","","","","","","","","","","","","","",""
"1369","","image-button-response","263","1096171","0.0-260.0","A2YC6PEMIRSOAA","","0","","","","","","","","","","","","","","","","","","","","","","","","",""
