"rt","url","trial_type","trial_index","time_elapsed","internal_node_id","participant_id","stimulus","button_pressed","Name","responses","response","key_press","variableName","fixationTime","condition","trial","photo","subjectRating","subjectResponse","agentsNames","agent_1_Response","agent_2_Response","agent_3_Response","agent_4_Response","agent_5_Response","agent_6_Response","kept_1_name","kept_1_response","kept_2_name","kept_2_response","kept_3_name","kept_3_response","errorCounter"
"6746","external_page_harvard.html","external-html","0","6815","0.0-0.0","A2YG71R13G0CYR","","","","","","","","","","","","","","","","","","","","","","","","","","",""
"8516","","image-button-response","1","15333","0.0-1.0","A2YG71R13G0CYR","","1","","","","","","","","","","","","","","","","","","","","","","","","",""
"2066","","image-button-response","2","17405","0.0-2.0-0.0","A2YG71R13G0CYR","","1","phone","","","","","","","","","","","","","","","","","","","","","","","",""
"4510","","survey-text","3","21917","0.0-3.0-0.0","A2YG71R13G0CYR","","","","{""Q0"":""A2YG71R13G0CYR""}","","","","","","","","","","","","","","","","","","","","","","",""
"6590","","image-button-response_instructions","4","28509","0.0-4.0","A2YG71R13G0CYR","","0","instructions","","","","","","","","","","","","","","","","","","","","","","","",""
"13695","","image-button-response_instructions","5","42205","0.0-5.0","A2YG71R13G0CYR","img_art/ins/popularity/ins1.png","0","instructions","","","","","","","","","","","","","","","","","","","","","","","",""
"5126","","image-button-response_instructions","6","47333","0.0-6.0","A2YG71R13G0CYR","img_art/ins/popularity/ins2.png","0","instructions","","","","","","","","","","","","","","","","","","","","","","","",""
"8150","","image-button-response_instructions","7","55484","0.0-7.0","A2YG71R13G0CYR","img_art/ins/popularity/ins2Extreme.png","0","instructions","","","","","","","","","","","","","","","","","","","","","","","",""
"4247","","image-button-response_instructions","8","59732","0.0-8.0","A2YG71R13G0CYR","img_art/ins/popularity/ins3KEEPpop.PNG","0","instructions","","","","","","","","","","","","","","","","","","","","","","","",""
"2503","","image-button-response_instructions","9","62237","0.0-9.0","A2YG71R13G0CYR","img_art/ins/popularity/ins3ANamepop.PNG","0","instructions","","","","","","","","","","","","","","","","","","","","","","","",""
"2343","","image-button-response_instructions","10","64580","0.0-10.0","A2YG71R13G0CYR","img_art/ins/popularity/ins3ARatingpop.png","0","instructions","","","","","","","","","","","","","","","","","","","","","","","",""
"2031","","image-button-response_instructions","11","66613","0.0-11.0","A2YG71R13G0CYR","img_art/ins/popularity/ins3ATextpop.png","0","instructions","","","","","","","","","","","","","","","","","","","","","","","",""
"1671","","image-button-response_instructions","12","68284","0.0-12.0","A2YG71R13G0CYR","img_art/ins/popularity/ins3ALikespop.png","0","instructions","","","","","","","","","","","","","","","","","","","","","","","",""
"1887","","image-button-response_instructions","13","70173","0.0-13.0","A2YG71R13G0CYR","img_art/ins/popularity/ins3KEEPpop.PNG","0","instructions","","","","","","","","","","","","","","","","","","","","","","","",""
"3743","","image-button-response_instructions","14","73916","0.0-14.0","A2YG71R13G0CYR","img_art/ins/popularity/ins3_5RED.png","0","instructions","","","","","","","","","","","","","","","","","","","","","","","",""
"1999","","image-button-response_instructions","15","75917","0.0-15.0","A2YG71R13G0CYR","img_art/ins/popularity/ins3KEEPpop.PNG","0","instructions","","","","","","","","","","","","","","","","","","","","","","","",""
"1567","","image-button-response_instructions","16","77484","0.0-16.0","A2YG71R13G0CYR","img_art/ins/popularity/ins4KEEPpop.PNG","0","instructions","","","","","","","","","","","","","","","","","","","","","","","",""
"2015","","image-button-response_instructions","17","79501","0.0-17.0","A2YG71R13G0CYR","img_art/ins/popularity/ins5KEEPpop.PNG","0","instructions","","","","","","","","","","","","","","","","","","","","","","","",""
"1534","","image-button-response_instructions","18","81036","0.0-18.0","A2YG71R13G0CYR","","0","instructions","","","","","","","","","","","","","","","","","","","","","","","",""
"6817","","survey-text","19","87876","0.0-19.0-0.0","A2YG71R13G0CYR","","","","{""Q0"":""but""}","","","","","","","","","","","","","","","","","","","","","","",""
"72784","","survey-text","20","160661","0.0-20.0-0.0","A2YG71R13G0CYR","","","","{""Q0"":""The color choices are very peacful ""}","","","","","","","","","","","","","","","","","","","","","","",""
"2540.800000000745","","image-slider-response","21","163205","0.0-21.0","A2YG71R13G0CYR","","","","","23","","","","","","","","","","","","","","","","","","","","","",""
"null","","image-button-response","22","168207","0.0-22.0","A2YG71R13G0CYR","img_art/ins/1.jpg","null","","","","","","","","","","","","","","","","","","","","","","","","",""
"2820","","image-button-response","23","171029","0.0-23.0","A2YG71R13G0CYR","img_art/ins/1.jpg","0","","","","","","","","","","","","","","","","","","","","","","","","",""
"6327","","image-button-response","24","177358","0.0-24.0-0.0","A2YG71R13G0CYR","img_art/ins/1.jpg","5","","","","","","","","","","","","","","","","","","","","","","","","",""
"11181","","image-button-response","25","188542","0.0-25.0-0.0","A2YG71R13G0CYR","img_art/ins/1.jpg","4","","","","","","","","","","","","","","","","","","","","","","","","",""
"null","","html-keyboard-response","26","190044","0.0-26.0","A2YG71R13G0CYR","<p style=""font-size: 48px;"">+</p>","","","","","null","allTrialResponses","1500","1","-2","img_art/ins/1.jpg","23","The color choices are very peacful ","Allison,Ashley,Beth,Dora,Erika,Jen","looks like a lot of things going on in the mist,20,20,20","I just don't get why these type of art would be popular,-32,40,20","This color reminds me of poo,-46,60,20","looks like what my niece in 3rd grade did this afternoon,-50,80,20","I like the sophisticated brushwork,40,100,20","It reminds me of a candy land dream I had,36,120,20","Allison","looks like a lot of things going on in the mist,20,20,20","Jen","It reminds me of a candy land dream I had,36,120,20","Erika","I like the sophisticated brushwork,40,100,20","0"
"8481","","survey-text","27","198533","0.0-27.0-0.0","A2YG71R13G0CYR","","","","{""Q0"":""Colors are too dark. Its ugly!""}","","","","","","","","","","","","","","","","","","","","","","",""
"2583","","image-slider-response","28","201117","0.0-28.0","A2YG71R13G0CYR","","","","","-37","","","","","","","","","","","","","","","","","","","","","",""
"null","","image-button-response","29","206120","0.0-29.0","A2YG71R13G0CYR","img_art/ins/2.jpg","null","","","","","","","","","","","","","","","","","","","","","","","","",""
"2099","","image-button-response","30","208221","0.0-30.0","A2YG71R13G0CYR","img_art/ins/2.jpg","3","","","","","","","","","","","","","","","","","","","","","","","","",""
"3943","","image-button-response","31","212166","0.0-31.0-0.0","A2YG71R13G0CYR","img_art/ins/2.jpg","5","","","","","","","","","","","","","","","","","","","","","","","","",""
"3087","","image-button-response","32","215254","0.0-32.0-0.0","A2YG71R13G0CYR","img_art/ins/2.jpg","1","","","","","","","","","","","","","","","","","","","","","","","","",""
"null","","html-keyboard-response","33","216256","0.0-33.0","A2YG71R13G0CYR","<p style=""font-size: 48px;"">+</p>","","","","","null","allTrialResponses","1000","1","-1","img_art/ins/2.jpg","-37","Colors are too dark. Its ugly!","Allison,Kara,Katie,Jenna,Erika,Jen","I don't have strong feelings about this,10,20,20","I like the blocks of color arrangements,30,160,20","too much color!,-28,180,20","One of my pet peevs,-48,140,20","I would never be able to compose a sophisticated pallete like this,48,100,20","It reminds me of a fireplace,36,120,20","Jenna","One of my pet peevs,-48,140,20","Jen","It reminds me of a fireplace,36,120,20","Kara","I like the blocks of color arrangements,30,160,20","0"
"7169","","survey-text","34","223429","0.0-34.0-0.0","A2YG71R13G0CYR","","","","{""Q0"":""Reminds me of the arctic ""}","","","","","","","","","","","","","","","","","","","","","","",""
"2310.7999999988824","","image-slider-response","35","225741","0.0-35.0","A2YG71R13G0CYR","","","","","-15","","","","","","","","","","","","","","","","","","","","","",""
"4615","","image-button-response","36","230744","0.0-36.0","A2YG71R13G0CYR","img_art/ins/3.jpg","0","","","","","","","","","","","","","","","","","","","","","","","","",""
"644","","image-button-response","37","231389","0.0-37.0","A2YG71R13G0CYR","img_art/ins/3.jpg","2","","","","","","","","","","","","","","","","","","","","","","","","",""
"1743","","image-button-response","38","233134","0.0-38.0-0.0","A2YG71R13G0CYR","img_art/ins/3.jpg","5","","","","","","","","","","","","","","","","","","","","","","","","",""
"1885","","image-button-response","39","235021","0.0-39.0-0.0","A2YG71R13G0CYR","img_art/ins/3.jpg","4","","","","","","","","","","","","","","","","","","","","","","","","",""
"null","","html-keyboard-response","40","236523","0.0-40.0","A2YG71R13G0CYR","<p style=""font-size: 48px;"">+</p>","","","","","null","allTrialResponses","1500","1","0","img_art/ins/3.jpg","-15","Reminds me of the arctic ","Rose,Kara,Leslie,Jenna,Mary,Jen","My daily routine, it's depressing,-20,240,20","calming blue is very nice,36,160,20","It's an alright work,15,200,20","looks like a murder room,-35,140,20","I like the overlapping of brushes,41,220,20","I can feel a rainy day from this painting,18,120,20","Leslie","It's an alright work,15,200,20","Jen","I can feel a rainy day from this painting,18,120,20","Mary","I like the overlapping of brushes,41,220,20","0"
"4601","","image-button-response_instructions","41","241133","0.0-41.0","A2YG71R13G0CYR","","0","instructions","","","","","","","","","","","","","","","","","","","","","","","",""
"20151","","survey-likert","42","261285","0.0-42.0-0.0","A2YG71R13G0CYR","","","","{""Q0"":"""",""Q1"":0,""Q2"":1}","","","","","","","","","","","","","","","","","","","","","","",""
"4003","","survey-text","43","265293","0.0-43.0-0.0","A2YG71R13G0CYR","","","","{""Q0"":""rock""}","","","","","","","","","","","","","","","","","","","","","","",""
"15126","","survey-text","44","280421","0.0-44.0-0.0","A2YG71R13G0CYR","","","","{""Q0"":""Looks like musical staff on top of an ocean""}","","","","","","","","","","","","","","","","","","","","","","",""
"2750.10000000149","","image-slider-response","45","283172","0.0-45.0","A2YG71R13G0CYR","","","","","-10","","","","","","","","","","","","","","","","","","","","","",""
"4635","","image-button-response","46","288193","0.0-46.0","A2YG71R13G0CYR","img_art/10.jpg","2","","","","","","","","","","","","","","","","","","","","","","","","",""
"1114","","image-button-response","47","289309","0.0-47.0","A2YG71R13G0CYR","img_art/10.jpg","2","","","","","","","","","","","","","","","","","","","","","","","","",""
"2598","","image-button-response","48","291909","0.0-48.0-0.0","A2YG71R13G0CYR","img_art/10.jpg","5","","","","","","","","","","","","","","","","","","","","","","","","",""
"3046","","image-button-response","49","294957","0.0-49.0-0.0","A2YG71R13G0CYR","img_art/10.jpg","3","","","","","","","","","","","","","","","","","","","","","","","","",""
"null","","html-keyboard-response","50","295960","0.0-50.0","A2YG71R13G0CYR","<p style=""font-size: 48px;"">+</p>","","","","","null","allTrialResponses","1000","1","1","img_art/10.jpg","-10","Looks like musical staff on top of an ocean","Kylie,Jennifer,Savannah,Claire,Mary,Makayla","Musical guitar whimsy,45,300,20","I am neutral towards the artwork,1,380,20","This is a scribble of a mad man. Appears low effort.,-33,200,20","it looks very musical,24,260,20","The flow of lines is off. There are curvy and straight angry lines. It's not flattering at all.,-27,180,20","I don't hate but don't like it because it looks like a oil slick,2,80,20","Savannah","This is a scribble of a mad man. Appears low effort.,-33,200,20","Makayla","I don't hate but don't like it because it looks like a oil slick,2,80,20","Claire","it looks very musical,24,260,20","0"
"16995","","survey-text","51","312957","0.0-51.0-0.0","A2YG71R13G0CYR","","","","{""Q0"":""It looks like a little man next to a mouse. Very subjective. ""}","","","","","","","","","","","","","","","","","","","","","","",""
"3023.199999999255","","image-slider-response","52","315982","0.0-52.0","A2YG71R13G0CYR","","","","","-7","","","","","","","","","","","","","","","","","","","","","",""
"1838","","image-button-response","53","320984","0.0-53.0","A2YG71R13G0CYR","img_art/28.jpg","4","","","","","","","","","","","","","","","","","","","","","","","","",""
"532","","image-button-response","54","321517","0.0-54.0","A2YG71R13G0CYR","img_art/28.jpg","2","","","","","","","","","","","","","","","","","","","","","","","","",""
"1527","","image-button-response","55","323046","0.0-55.0-0.0","A2YG71R13G0CYR","img_art/28.jpg","1","","","","","","","","","","","","","","","","","","","","","","","","",""
"3630","","image-button-response","56","326678","0.0-56.0-0.0","A2YG71R13G0CYR","img_art/28.jpg","0","","","","","","","","","","","","","","","","","","","","","","","","",""
"null","","html-keyboard-response","57","328189","0.0-57.0","A2YG71R13G0CYR","<p style=""font-size: 48px;"">+</p>","","","","","null","allTrialResponses","1500","1","2","img_art/28.jpg","-7","It looks like a little man next to a mouse. Very subjective. ","Ashley,Michaela,Savannah,Claire,Bailey,Makayla","Normally don't react well to abstract art, but it looks almost like something's there.,28,320,20","Salvador Dali called and he thinks this looks pretty good,27,260,20","White and dark balance is way off- Seems dull.,-33,200,20","not a fan of the colors or strokes used,-27,260,20","Has an air of darkness to it, but no real substance besides the mouse-like thing.,-38,360,20","The earthy colors smeared around looks like prison food tray,-17,80,20","Savannah","White and dark balance is way off- Seems dull.,-33,200,20","Michaela","Salvador Dali called and he thinks this looks pretty good,27,260,20","Ashley","Normally don't react well to abstract art, but it looks almost like something's there.,28,320,20","0"
"7077","","survey-text","58","335269","0.0-58.0-0.0","A2YG71R13G0CYR","","","","{""Q0"":""Peaceful like a waterfall ""}","","","","","","","","","","","","","","","","","","","","","","",""
"2085.800000000745","","image-slider-response","59","337357","0.0-59.0","A2YG71R13G0CYR","","","","","28","","","","","","","","","","","","","","","","","","","","","",""
"1807","","image-button-response","60","342360","0.0-60.0","A2YG71R13G0CYR","img_art/24.jpg","4","","","","","","","","","","","","","","","","","","","","","","","","",""
"5892","","image-button-response","61","348253","0.0-61.0","A2YG71R13G0CYR","img_art/24.jpg","2","","","","","","","","","","","","","","","","","","","","","","","","",""
"2222","","image-button-response","62","350478","0.0-62.0-0.0","A2YG71R13G0CYR","img_art/24.jpg","3","","","","","","","","","","","","","","","","","","","","","","","","",""
"1006","","image-button-response","63","351486","0.0-63.0-0.0","A2YG71R13G0CYR","img_art/24.jpg","5","","","","","","","","","","","","","","","","","","","","","","","","",""
"null","","html-keyboard-response","64","351988","0.0-64.0","A2YG71R13G0CYR","<p style=""font-size: 48px;"">+</p>","","","","","null","allTrialResponses","500","1","3","img_art/24.jpg","28","Peaceful like a waterfall ","Ashley,Michaela,Savannah,Jacqueline,Monica,Lauren","NOt quite Bob Ross, but still good.,30,320,20","Very pretty and soft,37,260,20","This is gorgeous. Strong, saturated colors and clear meaning.,50,200,20","This one isn't that abstract. It clearly looks like a waterfall.,31,300,20","It looks alive, like I can hear the water flowing,41,360,20","Invokes a strong sense of nature, since the piece can interpreted as a stream or an abstracted bird.,40,340,20","Savannah","This is gorgeous. Strong, saturated colors and clear meaning.,50,200,20","Jacqueline","This one isn't that abstract. It clearly looks like a waterfall.,31,300,20","Lauren","Invokes a strong sense of nature, since the piece can interpreted as a stream or an abstracted bird.,40,340,20","0"
"9566","","survey-text","65","361558","0.0-65.0-0.0","A2YG71R13G0CYR","","","","{""Q0"":""Very colorful and soothing ""}","","","","","","","","","","","","","","","","","","","","","","",""
"2861.7999999988824","","image-slider-response","66","364421","0.0-66.0","A2YG71R13G0CYR","","","","","32","","","","","","","","","","","","","","","","","","","","","",""
"3383","","image-button-response","67","369423","0.0-67.0","A2YG71R13G0CYR","img_art/17.jpg","5","","","","","","","","","","","","","","","","","","","","","","","","",""
"4197","","image-button-response","68","373621","0.0-68.0","A2YG71R13G0CYR","img_art/17.jpg","0","","","","","","","","","","","","","","","","","","","","","","","","",""
"1406","","image-button-response","69","375029","0.0-69.0-0.0","A2YG71R13G0CYR","img_art/17.jpg","0","","","","","","","","","","","","","","","","","","","","","","","","",""
"647","","image-button-response","70","378110","0.0-69.1-0.1","A2YG71R13G0CYR","img_art/17.jpg","5","","","","","","","","","","","","","","","","","","","","","","","","",""
"1079","","image-button-response","71","379190","0.0-70.0-0.0","A2YG71R13G0CYR","img_art/17.jpg","4","","","","","","","","","","","","","","","","","","","","","","","","",""
"null","","html-keyboard-response","72","379692","0.0-71.0","A2YG71R13G0CYR","<p style=""font-size: 48px;"">+</p>","","","","","null","allTrialResponses","500","1","4","img_art/17.jpg","32","Very colorful and soothing ","Taylor,Gabrielle,Savannah,Jacqueline,Mackenzie,Lauren","A very inspiring piece,41,340,20","nice composition and colors, fairy land,28,160,20","Not even abstract to me, very clear meaning.,44,200,20","It's okay, I just don't see much too it.,7,300,20","Very fun textures,32,20,20","I like how the image gives an impression of gaseous tree.,15,340,20","Taylor","A very inspiring piece,41,340,20","Lauren","I like how the image gives an impression of gaseous tree.,15,340,20","Mackenzie","Very fun textures,32,20,20","2"
"13982","","survey-text","73","393677","0.0-72.0-0.0","A2YG71R13G0CYR","","","","{""Q0"":""abstract piece. I feel like this could go anywhere. ""}","","","","","","","","","","","","","","","","","","","","","","",""
"4382.299999998882","","image-slider-response","74","398061","0.0-73.0","A2YG71R13G0CYR","","","","","50","","","","","","","","","","","","","","","","","","","","","",""
"1919","","image-button-response","75","403078","0.0-74.0","A2YG71R13G0CYR","img_art/12.jpg","4","","","","","","","","","","","","","","","","","","","","","","","","",""
"2326","","image-button-response","76","405406","0.0-75.0","A2YG71R13G0CYR","img_art/12.jpg","4","","","","","","","","","","","","","","","","","","","","","","","","",""
"998","","image-button-response","77","406406","0.0-76.0-0.0","A2YG71R13G0CYR","img_art/12.jpg","1","","","","","","","","","","","","","","","","","","","","","","","","",""
"3030","","image-button-response","78","409438","0.0-77.0-0.0","A2YG71R13G0CYR","img_art/12.jpg","3","","","","","","","","","","","","","","","","","","","","","","","","",""
"null","","html-keyboard-response","79","410440","0.0-78.0","A2YG71R13G0CYR","<p style=""font-size: 48px;"">+</p>","","","","","null","allTrialResponses","1000","1","5","img_art/12.jpg","50","abstract piece. I feel like this could go anywhere. ","Taylor,Katherine,Catherine,Alyssa,Mackenzie,Lauren","It's kind of ominous,-15,340,20","Not sure why but this is my favorite. I'd put it on my wall,50,120,20","confused. stages of a persons life from beginning positive to ending negative.,-10,160,20","Its cool,reminiscent of Andy Warhol type of style,10,160,20","I like the color scheme.,10,20,20","This doesn't invoke anything. Just a mosaic of random images.,0,340,20","Mackenzie","I like the color scheme.,10,20,20","Katherine","Not sure why but this is my favorite. I'd put it on my wall,50,120,20","Alyssa","Its cool,reminiscent of Andy Warhol type of style,10,160,20","2"
"6102","","survey-text","80","416549","0.0-79.0-0.0","A2YG71R13G0CYR","","","","{""Q0"":""sky""}","","","","","","","","","","","","","","","","","","","","","","",""
"11358","","survey-text","81","427909","0.0-80.0-0.0","A2YG71R13G0CYR","","","","{""Q0"":""dark color choices. Not my favorite ""}","","","","","","","","","","","","","","","","","","","","","","",""
"3062.2000000011176","","image-slider-response","82","430973","0.0-81.0","A2YG71R13G0CYR","","","","","-24","","","","","","","","","","","","","","","","","","","","","",""
"1526","","image-button-response","83","436527","0.0-82.0","A2YG71R13G0CYR","img_art/1.jpg","4","","","","","","","","","","","","","","","","","","","","","","","","",""
"1643","","image-button-response","84","438173","0.0-83.0","A2YG71R13G0CYR","img_art/1.jpg","5","","","","","","","","","","","","","","","","","","","","","","","","",""
"2862","","image-button-response","85","441037","0.0-84.0-0.0","A2YG71R13G0CYR","img_art/1.jpg","0","","","","","","","","","","","","","","","","","","","","","","","","",""
"935","","image-button-response","86","441973","0.0-85.0-0.0","A2YG71R13G0CYR","img_art/1.jpg","2","","","","","","","","","","","","","","","","","","","","","","","","",""
"null","","html-keyboard-response","87","443476","0.0-86.0","A2YG71R13G0CYR","<p style=""font-size: 48px;"">+</p>","","","","","null","allTrialResponses","1500","1","6","img_art/1.jpg","-24","dark color choices. Not my favorite ","Crystal,Katherine,Sabrina,Alyssa,Mackenzie,Amber","Interesting color scheme but to bled to me,11,300,20","Blurry but that's how emotions are a lot of the time.,27,120,20","I love the calming comfort and safe feeling of this,50,120,20","Its okay,not great.,1,160,20","I like the simple aspect to the design,21,20,20","Really like all of the colors and how they mesh well.,27,200,20","Amber","Really like all of the colors and how they mesh well.,27,200,20","Crystal","Interesting color scheme but to bled to me,11,300,20","Sabrina","I love the calming comfort and safe feeling of this,50,120,20","2"
"14125","","survey-text","88","457605","0.0-87.0-0.0","A2YG71R13G0CYR","","","","{""Q0"":""Looks like an underwater creature, like a jelly fish.""}","","","","","","","","","","","","","","","","","","","","","","",""
"2231.0999999996275","","image-slider-response","89","459837","0.0-88.0","A2YG71R13G0CYR","","","","","20","","","","","","","","","","","","","","","","","","","","","",""
"4565","","image-button-response","90","464841","0.0-89.0","A2YG71R13G0CYR","img_art/9.jpg","2","","","","","","","","","","","","","","","","","","","","","","","","",""
"795","","image-button-response","91","465638","0.0-90.0","A2YG71R13G0CYR","img_art/9.jpg","4","","","","","","","","","","","","","","","","","","","","","","","","",""
"918","","image-button-response","92","466557","0.0-91.0-0.0","A2YG71R13G0CYR","img_art/9.jpg","5","","","","","","","","","","","","","","","","","","","","","","","","",""
"1190","","image-button-response","93","467749","0.0-92.0-0.0","A2YG71R13G0CYR","img_art/9.jpg","2","","","","","","","","","","","","","","","","","","","","","","","","",""
"null","","html-keyboard-response","94","468262","0.0-93.0","A2YG71R13G0CYR","<p style=""font-size: 48px;"">+</p>","","","","","null","allTrialResponses","500","1","7","img_art/9.jpg","20","Looks like an underwater creature, like a jelly fish.","Crystal,Maria,Sabrina,Jessica,Tiffany,Amber","Evokes triumph of a mountain over powering a drowning sea,24,300,20","while I don't dispute the art, it feels childish,-20,120,20","Calming and relaxing,42,120,20","So I don't really like this style but it looks somewhat okay,3,400,20","The piece of art makes me happy, it reminds me of a lively carnival.,15,360,20","looks like sleeping beauty in a garden,10,200,20","Tiffany","The piece of art makes me happy, it reminds me of a lively carnival.,15,360,20","Amber","looks like sleeping beauty in a garden,10,200,20","Sabrina","Calming and relaxing,42,120,20","2"
"15848","","survey-text","95","484118","0.0-94.0-0.0","A2YG71R13G0CYR","","","","{""Q0"":""Love the colors and the dialogue. ""}","","","","","","","","","","","","","","","","","","","","","","",""
"3414.2000000011176","","image-slider-response","96","487533","0.0-95.0","A2YG71R13G0CYR","","","","","50","","","","","","","","","","","","","","","","","","","","","",""
"4798","","image-button-response","97","492536","0.0-96.0","A2YG71R13G0CYR","img_art/8.jpg","2","","","","","","","","","","","","","","","","","","","","","","","","",""
"1165","","image-button-response","98","493702","0.0-97.0","A2YG71R13G0CYR","img_art/8.jpg","2","","","","","","","","","","","","","","","","","","","","","","","","",""
"2623","","image-button-response","99","496325","0.0-98.0-0.0","A2YG71R13G0CYR","img_art/8.jpg","3","","","","","","","","","","","","","","","","","","","","","","","","",""
"1046","","image-button-response","100","497373","0.0-99.0-0.0","A2YG71R13G0CYR","img_art/8.jpg","0","","","","","","","","","","","","","","","","","","","","","","","","",""
"null","","html-keyboard-response","101","498897","0.0-100.0","A2YG71R13G0CYR","<p style=""font-size: 48px;"">+</p>","","","","","null","allTrialResponses","1500","1","8","img_art/8.jpg","50","Love the colors and the dialogue. ","Margaret,Victoria,Sabrina,Danielle,Tiffany,Amber","its pretty exciting to look at, there is alot going on,15,100,20","makes me think of a busy city,-18,400,20","I love the expressiveness of this,50,120,20","Enjoy this, it looks like a rushing water pool, surrounded by mountains and buildings, hiding details such as faces.,30,340,20","It makes me feel nervous. I can't tell ifI'm looking at an apartment, or a hellscape.,-18,360,20","Very colorful. Looks like the hustle and bustle of a city.,11,200,20","Sabrina","I love the expressiveness of this,50,120,20","Danielle","Enjoy this, it looks like a rushing water pool, surrounded by mountains and buildings, hiding details such as faces.,30,340,20","Margaret","its pretty exciting to look at, there is alot going on,15,100,20","2"
"9208","","survey-text","102","508110","0.0-101.0-0.0","A2YG71R13G0CYR","","","","{""Q0"":""Too dark. Looks lazy ""}","","","","","","","","","","","","","","","","","","","","","","",""
"1878.2999999988824","","image-slider-response","103","509990","0.0-102.0","A2YG71R13G0CYR","","","","","-41","","","","","","","","","","","","","","","","","","","","","",""
"2862","","image-button-response","104","514993","0.0-103.0","A2YG71R13G0CYR","img_art/15.jpg","2","","","","","","","","","","","","","","","","","","","","","","","","",""
"178","","image-button-response","105","515174","0.0-104.0","A2YG71R13G0CYR","img_art/15.jpg","3","","","","","","","","","","","","","","","","","","","","","","","","",""
"1846","","image-button-response","106","517022","0.0-105.0-0.0","A2YG71R13G0CYR","img_art/15.jpg","5","","","","","","","","","","","","","","","","","","","","","","","","",""
"2078","","image-button-response","107","519103","0.0-106.0-0.0","A2YG71R13G0CYR","img_art/15.jpg","4","","","","","","","","","","","","","","","","","","","","","","","","",""
"null","","html-keyboard-response","108","520105","0.0-107.0","A2YG71R13G0CYR","<p style=""font-size: 48px;"">+</p>","","","","","null","allTrialResponses","1000","1","9","img_art/15.jpg","-41","Too dark. Looks lazy ","Margaret,Madison,Sabrina,Danielle,Emily,Sarah","i like the pop of blue within all the black,8,100,20","I am starting to feel description fatigue. This would be pleasant enough in a doctor's office waiting room.,15,60,20","Extreme darkness and sadness,-30,120,20","This is pretty nice, reminds me of dark peacock feathers, or perhaps a bush with berries in it?,15,340,20","Looks incomplete.,-19,40,20","this is really pretty! i like the pops of blue in all the black,26,180,20","Danielle","This is pretty nice, reminds me of dark peacock feathers, or perhaps a bush with berries in it?,15,340,20","Sarah","this is really pretty! i like the pops of blue in all the black,26,180,20","Emily","Looks incomplete.,-19,40,20","2"
"12713","","survey-text","109","532821","0.0-108.0-0.0","A2YG71R13G0CYR","","","","{""Q0"":""Looks like there is a lot of meaning behind the painting. ""}","","","","","","","","","","","","","","","","","","","","","","",""
"2710.0999999996275","","image-slider-response","110","535533","0.0-109.0","A2YG71R13G0CYR","","","","","21","","","","","","","","","","","","","","","","","","","","","",""
"4535","","image-button-response","111","540536","0.0-110.0","A2YG71R13G0CYR","img_art/29.jpg","5","","","","","","","","","","","","","","","","","","","","","","","","",""
"621","","image-button-response","112","541158","0.0-111.0","A2YG71R13G0CYR","img_art/29.jpg","5","","","","","","","","","","","","","","","","","","","","","","","","",""
"782","","image-button-response","113","541942","0.0-112.0-0.0","A2YG71R13G0CYR","img_art/29.jpg","3","","","","","","","","","","","","","","","","","","","","","","","","",""
"2086","","image-button-response","114","544030","0.0-113.0-0.0","A2YG71R13G0CYR","img_art/29.jpg","1","","","","","","","","","","","","","","","","","","","","","","","","",""
"null","","html-keyboard-response","115","545032","0.0-114.0","A2YG71R13G0CYR","<p style=""font-size: 48px;"">+</p>","","","","","null","allTrialResponses","1000","1","10","img_art/29.jpg","21","Looks like there is a lot of meaning behind the painting. ","Erin,Elizabeth,Chelsea,Danielle,Emily,Sarah","Red X is scary, like the bricks,7,120,20","Has a haunting feel to it,22,20,20","It is intriguing but I don't like the red X.,6,180,20","Quite ugly in my opinion,-30,340,20","Looks literally like garbage.,-45,40,20","it's interesting but not my style,9,180,20","Sarah","it's interesting but not my style,9,180,20","Danielle","Quite ugly in my opinion,-30,340,20","Elizabeth","Has a haunting feel to it,22,20,20","2"
"3181","","survey-text","116","548222","0.0-115.0-0.0","A2YG71R13G0CYR","","","","{""Q0"":""our""}","","","","","","","","","","","","","","","","","","","","","","",""
"17055","","survey-text","117","565278","0.0-116.0-0.0","A2YG71R13G0CYR","","","","{""Q0"":""This looks like there was effort, and no effort all at the same time. ""}","","","","","","","","","","","","","","","","","","","","","","",""
"2710","","image-slider-response","118","567989","0.0-117.0","A2YG71R13G0CYR","","","","","-26","","","","","","","","","","","","","","","","","","","","","",""
"2831","","image-button-response","119","573006","0.0-118.0","A2YG71R13G0CYR","img_art/13.jpg","4","","","","","","","","","","","","","","","","","","","","","","","","",""
"7805","","image-button-response","120","580814","0.0-119.0","A2YG71R13G0CYR","img_art/13.jpg","3","","","","","","","","","","","","","","","","","","","","","","","","",""
"1990","","image-button-response","121","582806","0.0-120.0-0.0","A2YG71R13G0CYR","img_art/13.jpg","2","","","","","","","","","","","","","","","","","","","","","","","","",""
"1495","","image-button-response","122","584302","0.0-121.0-0.0","A2YG71R13G0CYR","img_art/13.jpg","5","","","","","","","","","","","","","","","","","","","","","","","","",""
"null","","html-keyboard-response","123","586520","0.0-122.0","A2YG71R13G0CYR","<p style=""font-size: 48px;"">+</p>","","","","","null","allTrialResponses","1500","1","11","img_art/13.jpg","-26","This looks like there was effort, and no effort all at the same time. ","Sierra,Elizabeth,Diana,Danielle,Brittany,Sarah","the blues are soothing but the splatters are too much,-3,260,20","Love the splash of colors,50,20,20","I really loved the color contrast. Having the white stripe in the center makes the it appear 3D.,11,380,20","While it is a bit basic and doesn't speak to me much, I like the feeling it gives,40,340,20","Not really a fan of ""splash"" art.,-20,40,20","this is an appealing mix of textures to me and the color scheme is harmonious,36,180,20","Danielle","While it is a bit basic and doesn't speak to me much, I like the feeling it gives,40,340,20","Diana","I really loved the color contrast. Having the white stripe in the center makes the it appear 3D.,11,380,20","Sarah","this is an appealing mix of textures to me and the color scheme is harmonious,36,180,20","2"
"11313","","survey-text","124","597838","0.0-123.0-0.0","A2YG71R13G0CYR","","","","{""Q0"":""Lots of colors, interesting to look at. ""}","","","","","","","","","","","","","","","","","","","","","","",""
"2437.9000000003725","","image-slider-response","125","600277","0.0-124.0","A2YG71R13G0CYR","","","","","7","","","","","","","","","","","","","","","","","","","","","",""
"4919","","image-button-response","126","605280","0.0-125.0","A2YG71R13G0CYR","img_art/22.jpg","3","","","","","","","","","","","","","","","","","","","","","","","","",""
"1292","","image-button-response","127","606574","0.0-126.0","A2YG71R13G0CYR","img_art/22.jpg","3","","","","","","","","","","","","","","","","","","","","","","","","",""
"1950","","image-button-response","128","608526","0.0-127.0-0.0","A2YG71R13G0CYR","img_art/22.jpg","5","","","","","","","","","","","","","","","","","","","","","","","","",""
"1598","","image-button-response","129","610126","0.0-128.0-0.0","A2YG71R13G0CYR","img_art/22.jpg","1","","","","","","","","","","","","","","","","","","","","","","","","",""
"null","","html-keyboard-response","130","610641","0.0-129.0","A2YG71R13G0CYR","<p style=""font-size: 48px;"">+</p>","","","","","null","allTrialResponses","500","1","12","img_art/22.jpg","7","Lots of colors, interesting to look at. ","Alexis,Meghan,Diana,Danielle,Allison,Sarah","Don't like this type of abstract work,-39,100,20","really beautiful colors and contrast,30,220,20","I think the colors are beautiful they remind me of a sunset.,13,380,20","A bit colorful, but slightly enjoyable, almost gives off castle/sunset vibes,10,340,20","Very generic mix of primary colors and shapes. Not a huge fan.,-10,140,20","boring, too many red and yellow tones for my taste,-15,180,20","Danielle","A bit colorful, but slightly enjoyable, almost gives off castle/sunset vibes,10,340,20","Sarah","boring, too many red and yellow tones for my taste,-15,180,20","Meghan","really beautiful colors and contrast,30,220,20","2"
"27288","","survey-text","131","637933","0.0-130.0-0.0","A2YG71R13G0CYR","","","","{""Q0"":""Looks like a sea met with an object. The dots on the right side make it look wrong.""}","","","","","","","","","","","","","","","","","","","","","","",""
"2519.2000000011176","","image-slider-response","132","640454","0.0-131.0","A2YG71R13G0CYR","","","","","-34","","","","","","","","","","","","","","","","","","","","","",""
"null","","image-button-response","133","645520","0.0-132.0","A2YG71R13G0CYR","img_art/21.jpg","null","","","","","","","","","","","","","","","","","","","","","","","","",""
"157947","","image-button-response","134","803469","0.0-133.0","A2YG71R13G0CYR","img_art/21.jpg","5","","","","","","","","","","","","","","","","","","","","","","","","",""
"1062","","image-button-response","135","804533","0.0-134.0-0.0","A2YG71R13G0CYR","img_art/21.jpg","3","","","","","","","","","","","","","","","","","","","","","","","","",""
"1054","","image-button-response","136","805589","0.0-135.0-0.0","A2YG71R13G0CYR","img_art/21.jpg","0","","","","","","","","","","","","","","","","","","","","","","","","",""
"null","","html-keyboard-response","137","806091","0.0-136.0","A2YG71R13G0CYR","<p style=""font-size: 48px;"">+</p>","","","","","null","allTrialResponses","500","1","13","img_art/21.jpg","-34","Looks like a sea met with an object. The dots on the right side make it look wrong.","Angela,Meghan,Lindsey,Danielle,Andrea,Sarah","I feel like I'm looking at two different paintings mashed together in the middle.,20,260,20","looks like a sunrise, great colors,40,220,20","I like this piece more the more I look at. Still wouldn't want it in my home, though.,8,400,20","I like it. It's some of war-scene, bloodshed and battle on the left, field of dispair on the right, dark and rich,40,340,20","It feels like a day at sea but the pink is slightly jarring and holding my eye.,26,240,20","I love the section of blues, the colors overall are really lovely,31,180,20","Sarah","I love the section of blues, the colors overall are really lovely,31,180,20","Danielle","I like it. It's some of war-scene, bloodshed and battle on the left, field of dispair on the right, dark and rich,40,340,20","Angela","I feel like I'm looking at two different paintings mashed together in the middle.,20,260,20","2"
"135275","","survey-text","138","941373","0.0-137.0-0.0","A2YG71R13G0CYR","","","","{""Q0"":""Looks like a mix of Africa and vegitation ""}","","","","","","","","","","","","","","","","","","","","","","",""
"1974.5","","image-slider-response","139","943350","0.0-138.0","A2YG71R13G0CYR","","","","","-10","","","","","","","","","","","","","","","","","","","","","",""
"3214","","image-button-response","140","948353","0.0-139.0","A2YG71R13G0CYR","img_art/25.jpg","2","","","","","","","","","","","","","","","","","","","","","","","","",""
"923","","image-button-response","141","949278","0.0-140.0","A2YG71R13G0CYR","img_art/25.jpg","5","","","","","","","","","","","","","","","","","","","","","","","","",""
"758","","image-button-response","142","950038","0.0-141.0-0.0","A2YG71R13G0CYR","img_art/25.jpg","2","","","","","","","","","","","","","","","","","","","","","","","","",""
"982","","image-button-response","143","951022","0.0-142.0-0.0","A2YG71R13G0CYR","img_art/25.jpg","3","","","","","","","","","","","","","","","","","","","","","","","","",""
"null","","html-keyboard-response","144","951524","0.0-143.0","A2YG71R13G0CYR","<p style=""font-size: 48px;"">+</p>","","","","","null","allTrialResponses","500","1","14","img_art/25.jpg","-10","Looks like a mix of Africa and vegitation ","Angela,Vanessa,Erika,Danielle,Shelby,Sarah","Ugly green color and don't like it at all,-30,260,20","I don't like the color. I don't like the abstract-ness of it.,-22,380,20","Very cryptic and ancient,36,100,20","I like it, a bit cryptic and obscene, I enjoy that,30,340,20","This makes me feel uneasy,-20,240,20","green is really cool, and the pieces in black fit together and are interesting,20,180,20","Sarah","green is really cool, and the pieces in black fit together and are interesting,20,180,20","Erika","Very cryptic and ancient,36,100,20","Danielle","I like it, a bit cryptic and obscene, I enjoy that,30,340,20","2"
"8265","","survey-text","145","959797","0.0-144.0-0.0","A2YG71R13G0CYR","","","","{""Q0"":""disorganized ""}","","","","","","","","","","","","","","","","","","","","","","",""
"1542.4000000003725","","image-slider-response","146","961341","0.0-145.0","A2YG71R13G0CYR","","","","","-26","","","","","","","","","","","","","","","","","","","","","",""
"4038","","image-button-response","147","966344","0.0-146.0","A2YG71R13G0CYR","img_art/2.jpg","1","","","","","","","","","","","","","","","","","","","","","","","","",""
"1204","","image-button-response","148","967550","0.0-147.0","A2YG71R13G0CYR","img_art/2.jpg","1","","","","","","","","","","","","","","","","","","","","","","","","",""
"1128","","image-button-response","149","968680","0.0-148.0-0.0","A2YG71R13G0CYR","img_art/2.jpg","4","","","","","","","","","","","","","","","","","","","","","","","","",""
"2220","","image-button-response","150","970902","0.0-149.0-0.0","A2YG71R13G0CYR","img_art/2.jpg","0","","","","","","","","","","","","","","","","","","","","","","","","",""
"null","","html-keyboard-response","151","972404","0.0-150.0","A2YG71R13G0CYR","<p style=""font-size: 48px;"">+</p>","","","","","null","allTrialResponses","1500","1","15","img_art/2.jpg","-26","disorganized ","Laura,Madeline,Erika,Danielle,Cheyenne,Sarah","active and kinetic- simplified,14,320,20","I don't really like this style,-5,40,20","Indistinct and too bright,-21,100,20","Not a fan of this style,-30,340,20","Colors mix nicely.,5,200,20","nope. just looks like a mess,-28,180,20","Madeline","I don't really like this style,-5,40,20","Cheyenne","Colors mix nicely.,5,200,20","Laura","active and kinetic- simplified,14,320,20","2"
"3475","","survey-text","152","975885","0.0-151.0-0.0","A2YG71R13G0CYR","","","","{""Q0"":""course""}","","","","","","","","","","","","","","","","","","","","","","",""
"13224","","survey-text","153","989110","0.0-152.0-0.0","A2YG71R13G0CYR","","","","{""Q0"":""this painting looks gross ""}","","","","","","","","","","","","","","","","","","","","","","",""
"15733.89999999851","","image-slider-response","154","1004846","0.0-153.0","A2YG71R13G0CYR","","","","","-37","","","","","","","","","","","","","","","","","","","","","",""
"null","","image-button-response","155","1009849","0.0-154.0","A2YG71R13G0CYR","img_art/4.jpg","null","","","","","","","","","","","","","","","","","","","","","","","","",""
"30267","","image-button-response","156","1040119","0.0-155.0","A2YG71R13G0CYR","img_art/4.jpg","1","","","","","","","","","","","","","","","","","","","","","","","","",""
"1069","","image-button-response","157","1041190","0.0-156.0-0.0","A2YG71R13G0CYR","img_art/4.jpg","4","","","","","","","","","","","","","","","","","","","","","","","","",""
"934","","image-button-response","158","1042126","0.0-157.0-0.0","A2YG71R13G0CYR","img_art/4.jpg","5","","","","","","","","","","","","","","","","","","","","","","","","",""
"null","","html-keyboard-response","159","1043646","0.0-158.0","A2YG71R13G0CYR","<p style=""font-size: 48px;"">+</p>","","","","","null","allTrialResponses","1500","1","16","img_art/4.jpg","-37","this painting looks gross ","Laura,Madeline,Kayla,Julia,Cheyenne,Courtney","spontaneous, without hesitation,22,320,20","Not impressed really,-20,40,20","It's okay, I guess. Nothing much either way.,5,180,20","it reminds me of McDonalds, and not in a good way.,-34,40,20","Just doesn't look nice.,-40,200,20","A leaning trophy,-9,280,20","Madeline","Not impressed really,-20,40,20","Cheyenne","Just doesn't look nice.,-40,200,20","Courtney","A leaning trophy,-9,280,20","2"
"31309","","survey-text","160","1074966","0.0-159.0-0.0","A2YG71R13G0CYR","","","","{""Q0"":""Looks like a bird on top of an orange....thing? ""}","","","","","","","","","","","","","","","","","","","","","","",""
"2191.60000000149","","image-slider-response","161","1077159","0.0-160.0","A2YG71R13G0CYR","","","","","-22","","","","","","","","","","","","","","","","","","","","","",""
"3637","","image-button-response","162","1082162","0.0-161.0","A2YG71R13G0CYR","img_art/6.jpg","4","","","","","","","","","","","","","","","","","","","","","","","","",""
"1395","","image-button-response","163","1083558","0.0-162.0","A2YG71R13G0CYR","img_art/6.jpg","5","","","","","","","","","","","","","","","","","","","","","","","","",""
"782","","image-button-response","164","1084342","0.0-163.0-0.0","A2YG71R13G0CYR","img_art/6.jpg","4","","","","","","","","","","","","","","","","","","","","","","","","",""
"1181","","image-button-response","165","1085526","0.0-164.0-0.0","A2YG71R13G0CYR","img_art/6.jpg","1","","","","","","","","","","","","","","","","","","","","","","","","",""
"null","","html-keyboard-response","166","1086528","0.0-165.0","A2YG71R13G0CYR","<p style=""font-size: 48px;"">+</p>","","","","","null","allTrialResponses","1000","1","17","img_art/6.jpg","-22","Looks like a bird on top of an orange....thing? ","Michelle,Madeline,Hailey,Heather,Cheyenne,Courtney","Definitely belongs at a doctor's office, I think it's a crow or a tree?,-3,280,20","Looks a bit like a pickle or something?,-16,40,20","one lonely thing trying to grow,-24,200,20","it looks like a stick holding a wig on a cliff,21,260,20","Good painting but too simple to care about it for very long.,-15,200,20","Its the headless bird. But why?,21,280,20","Courtney","Its the headless bird. But why?,21,280,20","Cheyenne","Good painting but too simple to care about it for very long.,-15,200,20","Madeline","Looks a bit like a pickle or something?,-16,40,20","2"
"21181","","survey-text","167","1107718","0.0-166.0-0.0","A2YG71R13G0CYR","","","","{""Q0"":""Looks like a city but upon looking closer it gets deeper. Love this dark piece ""}","","","","","","","","","","","","","","","","","","","","","","",""
"1951.5999999996275","","image-slider-response","168","1109671","0.0-167.0","A2YG71R13G0CYR","","","","","27","","","","","","","","","","","","","","","","","","","","","",""
"1934","","image-button-response","169","1114674","0.0-168.0","A2YG71R13G0CYR","img_art/11.jpg","4","","","","","","","","","","","","","","","","","","","","","","","","",""
"665","","image-button-response","170","1115342","0.0-169.0","A2YG71R13G0CYR","img_art/11.jpg","4","","","","","","","","","","","","","","","","","","","","","","","","",""
"2038","","image-button-response","171","1117382","0.0-170.0-0.0","A2YG71R13G0CYR","img_art/11.jpg","1","","","","","","","","","","","","","","","","","","","","","","","","",""
"4150","","image-button-response","172","1121534","0.0-171.0-0.0","A2YG71R13G0CYR","img_art/11.jpg","0","","","","","","","","","","","","","","","","","","","","","","","","",""
"null","","html-keyboard-response","173","1122535","0.0-172.0","A2YG71R13G0CYR","<p style=""font-size: 48px;"">+</p>","","","","","null","allTrialResponses","1000","1","18","img_art/11.jpg","27","Looks like a city but upon looking closer it gets deeper. Love this dark piece ","Cynthia,Madeline,Abigail,Sophia,Cheyenne,Courtney","Sad but hopeful,43,320,20","I like the vibe of the painting,-3,40,20","Rainy highways in RI,20,20,20","WOW!  I love how the ships and the seas become one in this piece.,50,280,20","Very good use of colors,44,200,20","Thats a creepy old rollercoasters abandoned,-2,280,20","Cheyenne","Very good use of colors,44,200,20","Madeline","I like the vibe of the painting,-3,40,20","Cynthia","Sad but hopeful,43,320,20","2"
"8914","","survey-text","174","1131455","0.0-173.0-0.0","A2YG71R13G0CYR","","","","{""Q0"":""Too colorful. Belongs in a club? ""}","","","","","","","","","","","","","","","","","","","","","","",""
"2461.699999999255","","image-slider-response","175","1133918","0.0-174.0","A2YG71R13G0CYR","","","","","-48","","","","","","","","","","","","","","","","","","","","","",""
"null","","image-button-response","176","1138920","0.0-175.0","A2YG71R13G0CYR","img_art/23.jpg","null","","","","","","","","","","","","","","","","","","","","","","","","",""
"1116","","image-button-response","177","1140038","0.0-176.0","A2YG71R13G0CYR","img_art/23.jpg","5","","","","","","","","","","","","","","","","","","","","","","","","",""
"1239","","image-button-response","178","1141279","0.0-177.0-0.0","A2YG71R13G0CYR","img_art/23.jpg","4","","","","","","","","","","","","","","","","","","","","","","","","",""
"462","","image-button-response","179","1141743","0.0-178.0-0.0","A2YG71R13G0CYR","img_art/23.jpg","3","","","","","","","","","","","","","","","","","","","","","","","","",""
"null","","html-keyboard-response","180","1143246","0.0-179.0","A2YG71R13G0CYR","<p style=""font-size: 48px;"">+</p>","","","","","null","allTrialResponses","1500","1","19","img_art/23.jpg","-48","Too colorful. Belongs in a club? ","Cynthia,Madeline,Hannah,Amy,Cheyenne,Isabella","puzzled with curiosity,31,320,20","background is great but the white is a bit weird,3,40,20","This one is interesting. Looks like people with maybe musical instruments?,11,240,20","So exciting and full of the night.,20,220,20","Solid colors but the white throws it off for me.,4,200,20","Love the line in the middle separating the two dark sides,50,280,20","Isabella","Love the line in the middle separating the two dark sides,50,280,20","Cheyenne","Solid colors but the white throws it off for me.,4,200,20","Amy","So exciting and full of the night.,20,220,20","2"
"13705","","survey-text","181","1156957","0.0-180.0-0.0","A2YG71R13G0CYR","","","","{""Q0"":""Not sure what this is supposed to represent? ""}","","","","","","","","","","","","","","","","","","","","","","",""
"1847.2999999988824","","image-slider-response","182","1158806","0.0-181.0","A2YG71R13G0CYR","","","","","-37","","","","","","","","","","","","","","","","","","","","","",""
"3677","","image-button-response","183","1163809","0.0-182.0","A2YG71R13G0CYR","img_art/14.jpg","1","","","","","","","","","","","","","","","","","","","","","","","","",""
"299","","image-button-response","184","1164110","0.0-183.0","A2YG71R13G0CYR","img_art/14.jpg","1","","","","","","","","","","","","","","","","","","","","","","","","",""
"3622","","image-button-response","185","1167734","0.0-184.0-0.0","A2YG71R13G0CYR","img_art/14.jpg","4","","","","","","","","","","","","","","","","","","","","","","","","",""
"1175","","image-button-response","186","1168910","0.0-185.0-0.0","A2YG71R13G0CYR","img_art/14.jpg","3","","","","","","","","","","","","","","","","","","","","","","","","",""
"null","","html-keyboard-response","187","1169412","0.0-186.0","A2YG71R13G0CYR","<p style=""font-size: 48px;"">+</p>","","","","","null","allTrialResponses","500","1","20","img_art/14.jpg","-37","Not sure what this is supposed to represent? ","Miranda,Morgan,Caitlin,Amy,Cheyenne,Isabella","This just looks like a kids watercolor painting.,-30,320,20","Angled, colored, boxy.,10,380,20","Are they blowing up a tree?,-5,80,20","In others I might say the colors are garish. Here it works perfectly. The balance is wondrous and unlimiting.,25,220,20","I'm a fan of the background.,13,200,20","Feels like a camp fire among friends,22,280,20","Morgan","Angled, colored, boxy.,10,380,20","Cheyenne","I'm a fan of the background.,13,200,20","Amy","In others I might say the colors are garish. Here it works perfectly. The balance is wondrous and unlimiting.,25,220,20","2"
"2642","","survey-text","188","1172062","0.0-187.0-0.0","A2YG71R13G0CYR","","","","{""Q0"":""we""}","","","","","","","","","","","","","","","","","","","","","","",""
"12679","","survey-text","189","1184743","0.0-188.0-0.0","A2YG71R13G0CYR","","","","{""Q0"":""Looks like a downed vehicle next to a river...""}","","","","","","","","","","","","","","","","","","","","","","",""
"2536.699999999255","","image-slider-response","190","1187281","0.0-189.0","A2YG71R13G0CYR","","","","","-12","","","","","","","","","","","","","","","","","","","","","",""
"null","","image-button-response","191","1192283","0.0-190.0","A2YG71R13G0CYR","img_art/20.jpg","null","","","","","","","","","","","","","","","","","","","","","","","","",""
"735","","image-button-response","192","1193022","0.0-191.0","A2YG71R13G0CYR","img_art/20.jpg","3","","","","","","","","","","","","","","","","","","","","","","","","",""
"3534","","image-button-response","193","1196558","0.0-192.0-0.0","A2YG71R13G0CYR","img_art/20.jpg","0","","","","","","","","","","","","","","","","","","","","","","","","",""
"1175","","image-button-response","194","1197734","0.0-193.0-0.0","A2YG71R13G0CYR","img_art/20.jpg","0","","","","","","","","","","","","","","","","","","","","","","","","",""
"609","","image-button-response","195","1200392","0.0-193.1-0.1","A2YG71R13G0CYR","img_art/20.jpg","2","","","","","","","","","","","","","","","","","","","","","","","","",""
"null","","html-keyboard-response","196","1200906","0.0-194.0","A2YG71R13G0CYR","<p style=""font-size: 48px;"">+</p>","","","","","null","allTrialResponses","500","1","21","img_art/20.jpg","-12","Looks like a downed vehicle next to a river...","Erica,Morgan,Autumn,Amy,Cheyenne,Chloe","looks like an auto accident,-30,80,20","The beach and industry.,12,380,20","It's ok. Very abstract.,18,340,20","Elements that are more defined are incongruous to the soft and melting nature of this painting,5,220,20","Liked the background,15,200,20","Mood setting if a little dreary,20,220,20","Amy","Elements that are more defined are incongruous to the soft and melting nature of this painting,5,220,20","Erica","looks like an auto accident,-30,80,20","Autumn","It's ok. Very abstract.,18,340,20","4"
"5031","","survey-text","197","1205942","0.0-195.0-0.0","A2YG71R13G0CYR","","","","{""Q0"":""lazy""}","","","","","","","","","","","","","","","","","","","","","","",""
"4422","","survey-text","198","1211622","0.0-195.1-0.1","A2YG71R13G0CYR","","","","{""Q0"":""Looks lazy""}","","","","","","","","","","","","","","","","","","","","","","",""
"8974.60000000149","","image-slider-response","199","1220598","0.0-196.0","A2YG71R13G0CYR","","","","","-13","","","","","","","","","","","","","","","","","","","","","",""
"1951","","image-button-response","200","1225600","0.0-197.0","A2YG71R13G0CYR","img_art/30.jpg","0","","","","","","","","","","","","","","","","","","","","","","","","",""
"723","","image-button-response","201","1226326","0.0-198.0","A2YG71R13G0CYR","img_art/30.jpg","0","","","","","","","","","","","","","","","","","","","","","","","","",""
"2358","","image-button-response","202","1228686","0.0-199.0-0.0","A2YG71R13G0CYR","img_art/30.jpg","3","","","","","","","","","","","","","","","","","","","","","","","","",""
"1094","","image-button-response","203","1229782","0.0-200.0-0.0","A2YG71R13G0CYR","img_art/30.jpg","5","","","","","","","","","","","","","","","","","","","","","","","","",""
"null","","html-keyboard-response","204","1230283","0.0-201.0","A2YG71R13G0CYR","<p style=""font-size: 48px;"">+</p>","","","","","null","allTrialResponses","500","1","22","img_art/30.jpg","-13","Looks lazy","Erica,Briana,Autumn,Amy,Destiny,Mariah","calming and relaxing,14,80,20","Its ugly. Too simple,-23,400,20","Absolutely messy,-31,340,20","Too much abstraction for me, leaving my focus mainly on color. I like the texture.,-20,220,20","literally stupid I made this with as seen on tv products when I was 7,-42,360,20","It just feels hasty and not well composed. Has an angsty teen feel,-31,140,20","Erica","calming and relaxing,14,80,20","Amy","Too much abstraction for me, leaving my focus mainly on color. I like the texture.,-20,220,20","Mariah","It just feels hasty and not well composed. Has an angsty teen feel,-31,140,20","4"
"15752","","survey-text","205","1246046","0.0-202.0-0.0","A2YG71R13G0CYR","","","","{""Q0"":""Looks like something out of late night cartoon network""}","","","","","","","","","","","","","","","","","","","","","","",""
"2389.60000000149","","image-slider-response","206","1248438","0.0-203.0","A2YG71R13G0CYR","","","","","-34","","","","","","","","","","","","","","","","","","","","","",""
"2902","","image-button-response","207","1253441","0.0-204.0","A2YG71R13G0CYR","img_art/16.jpg","5","","","","","","","","","","","","","","","","","","","","","","","","",""
"451","","image-button-response","208","1253894","0.0-205.0","A2YG71R13G0CYR","img_art/16.jpg","5","","","","","","","","","","","","","","","","","","","","","","","","",""
"1262","","image-button-response","209","1255158","0.0-206.0-0.0","A2YG71R13G0CYR","img_art/16.jpg","3","","","","","","","","","","","","","","","","","","","","","","","","",""
"1262","","image-button-response","210","1256422","0.0-207.0-0.0","A2YG71R13G0CYR","img_art/16.jpg","2","","","","","","","","","","","","","","","","","","","","","","","","",""
"null","","html-keyboard-response","211","1256925","0.0-208.0","A2YG71R13G0CYR","<p style=""font-size: 48px;"">+</p>","","","","","null","allTrialResponses","500","1","23","img_art/16.jpg","-34","Looks like something out of late night cartoon network","Erica,Sara,Angelica,Amy,Amanda,Mariah","Teddy bear calls positive emotional response but then I get worried about what is about to happen,18,80,20","This painting is too random,-30,160,20","This is creepy and puerile.,-45,280,20","visceral and a little disturbing.,10,220,20","Very modern, reminds me of bansky,43,180,20","Why is that bear there? It looks like it would be gross to touch. The texture bothers me.,-20,140,20","Mariah","Why is that bear there? It looks like it would be gross to touch. The texture bothers me.,-20,140,20","Amy","visceral and a little disturbing.,10,220,20","Angelica","This is creepy and puerile.,-45,280,20","4"
"8467","","survey-text","212","1265405","0.0-209.0-0.0","A2YG71R13G0CYR","","","","{""Q0"":""Creepy. Looks bloody""}","","","","","","","","","","","","","","","","","","","","","","",""
"2982.89999999851","","image-slider-response","213","1268390","0.0-210.0","A2YG71R13G0CYR","","","","","-12","","","","","","","","","","","","","","","","","","","","","",""
"1598","","image-button-response","214","1273402","0.0-211.0","A2YG71R13G0CYR","img_art/3.jpg","4","","","","","","","","","","","","","","","","","","","","","","","","",""
"1368","","image-button-response","215","1274774","0.0-212.0","A2YG71R13G0CYR","img_art/3.jpg","4","","","","","","","","","","","","","","","","","","","","","","","","",""
"1144","","image-button-response","216","1275919","0.0-213.0-0.0","A2YG71R13G0CYR","img_art/3.jpg","1","","","","","","","","","","","","","","","","","","","","","","","","",""
"781","","image-button-response","217","1276702","0.0-214.0-0.0","A2YG71R13G0CYR","img_art/3.jpg","2","","","","","","","","","","","","","","","","","","","","","","","","",""
"null","","html-keyboard-response","218","1277211","0.0-215.0","A2YG71R13G0CYR","<p style=""font-size: 48px;"">+</p>","","","","","null","allTrialResponses","500","1","24","img_art/3.jpg","-12","Creepy. Looks bloody","Katie,Paige,Angelica,Amy,Caroline,Mariah","Messy. Looks like a children's drawing being passed off as expensive art. Too much red.,-50,160,20","seems too angry,-50,60,20","This is angry and childish looking.,-49,280,20","i like the colors particulairly the contrast of foreground to background. Exciting and thoughtful.,10,220,20","The red makes me think of blood which makes me think of pain,-50,100,20","The composition keeps the eye moving, the colors are satisfying.,31,140,20","Caroline","The red makes me think of blood which makes me think of pain,-50,100,20","Paige","seems too angry,-50,60,20","Angelica","This is angry and childish looking.,-49,280,20","4"
"14654","","survey-text","219","1291869","0.0-216.0-0.0","A2YG71R13G0CYR","","","","{""Q0"":""Looks like children scribbled on Micheal Angelo""}","","","","","","","","","","","","","","","","","","","","","","",""
"5574.599999997765","","image-slider-response","220","1297446","0.0-217.0","A2YG71R13G0CYR","","","","","-28","","","","","","","","","","","","","","","","","","","","","",""
"4854","","image-button-response","221","1302448","0.0-218.0","A2YG71R13G0CYR","img_art/27.jpg","3","","","","","","","","","","","","","","","","","","","","","","","","",""
"676","","image-button-response","222","1303126","0.0-219.0","A2YG71R13G0CYR","img_art/27.jpg","3","","","","","","","","","","","","","","","","","","","","","","","","",""
"2526","","image-button-response","223","1305653","0.0-220.0-0.0","A2YG71R13G0CYR","img_art/27.jpg","1","","","","","","","","","","","","","","","","","","","","","","","","",""
"1439","","image-button-response","224","1307094","0.0-221.0-0.0","A2YG71R13G0CYR","img_art/27.jpg","2","","","","","","","","","","","","","","","","","","","","","","","","",""
"null","","html-keyboard-response","225","1307604","0.0-222.0","A2YG71R13G0CYR","<p style=""font-size: 48px;"">+</p>","","","","","null","allTrialResponses","500","1","25","img_art/27.jpg","-28","Looks like children scribbled on Micheal Angelo","Jenna,Paige,Angelica,Anna,Caroline,Katelyn","the green & white scribbles feel childlike. perhaps the quality of the photo, but the colors are gloomy.,-13,360,20","Pleased. Reminds me of a child drawing,46,60,20","This looks like a poor copy of Cy Twombly's style.,-3,280,20","It looks like when my little sister took magic markers to the wall.,-11,300,20","Didnt actually make me feel anything, sort of bland,3,100,20","Doesnt look like anything to me. Doesnt capture my attention.,-25,100,20","Anna","It looks like when my little sister took magic markers to the wall.,-11,300,20","Paige","Pleased. Reminds me of a child drawing,46,60,20","Angelica","This looks like a poor copy of Cy Twombly's style.,-3,280,20","4"
"4213","","survey-text","226","1311838","0.0-223.0-0.0","A2YG71R13G0CYR","","","","{""Q0"":""table""}","","","","","","","","","","","","","","","","","","","","","","",""
"14950","","survey-text","227","1326790","0.0-224.0-0.0","A2YG71R13G0CYR","","","","{""Q0"":""Interesting and unique piece. I'm drawn in ""}","","","","","","","","","","","","","","","","","","","","","","",""
"1902.6000000014901","","image-slider-response","228","1328694","0.0-225.0","A2YG71R13G0CYR","","","","","25","","","","","","","","","","","","","","","","","","","","","",""
"4671","","image-button-response","229","1333696","0.0-226.0","A2YG71R13G0CYR","img_art/18.jpg","3","","","","","","","","","","","","","","","","","","","","","","","","",""
"868","","image-button-response","230","1334566","0.0-227.0","A2YG71R13G0CYR","img_art/18.jpg","3","","","","","","","","","","","","","","","","","","","","","","","","",""
"2806","","image-button-response","231","1337374","0.0-228.0-0.0","A2YG71R13G0CYR","img_art/18.jpg","5","","","","","","","","","","","","","","","","","","","","","","","","",""
"2950","","image-button-response","232","1340326","0.0-229.0-0.0","A2YG71R13G0CYR","img_art/18.jpg","0","","","","","","","","","","","","","","","","","","","","","","","","",""
"null","","html-keyboard-response","233","1340828","0.0-230.0","A2YG71R13G0CYR","<p style=""font-size: 48px;"">+</p>","","","","","null","allTrialResponses","500","1","26","img_art/18.jpg","25","Interesting and unique piece. I'm drawn in ","Brianna,Paige,Angelica,Anna,Megan,Kaylee","Very eerie and it's spooky,11,20,20","Unhappy. Makes me thing of evil,-10,60,20","It looks grotesque and violent.,-50,280,20","I could spend a long time looking at it and see different things in the shapes.,21,300,20","Nice palette with complexity becoming nice at the center,34,200,20","looks like a war,22,200,20","Anna","I could spend a long time looking at it and see different things in the shapes.,21,300,20","Kaylee","looks like a war,22,200,20","Brianna","Very eerie and it's spooky,11,20,20","4"
"12038","","survey-text","234","1352870","0.0-231.0-0.0","A2YG71R13G0CYR","","","","{""Q0"":""Looks like a table setting... Color choices are awful ""}","","","","","","","","","","","","","","","","","","","","","","",""
"1798.300000000745","","image-slider-response","235","1354670","0.0-232.0","A2YG71R13G0CYR","","","","","-17","","","","","","","","","","","","","","","","","","","","","",""
"3879","","image-button-response","236","1359673","0.0-233.0","A2YG71R13G0CYR","img_art/26.jpg","3","","","","","","","","","","","","","","","","","","","","","","","","",""
"524","","image-button-response","237","1360198","0.0-234.0","A2YG71R13G0CYR","img_art/26.jpg","3","","","","","","","","","","","","","","","","","","","","","","","","",""
"2375","","image-button-response","238","1362574","0.0-235.0-0.0","A2YG71R13G0CYR","img_art/26.jpg","0","","","","","","","","","","","","","","","","","","","","","","","","",""
"806","","image-button-response","239","1363382","0.0-236.0-0.0","A2YG71R13G0CYR","img_art/26.jpg","1","","","","","","","","","","","","","","","","","","","","","","","","",""
"null","","html-keyboard-response","240","1364883","0.0-237.0","A2YG71R13G0CYR","<p style=""font-size: 48px;"">+</p>","","","","","null","allTrialResponses","1500","1","27","img_art/26.jpg","-17","Looks like a table setting... Color choices are awful ","Brianna,Nicole,Samantha,Anna,Alexandria,Kaylee","This picture is ok; just a normal city,11,20,20","It's relaxing to look at but I wish it was just a little more defined,20,20,20","I like the colors and trees. Seems cheap vintage retail store art but i love it anyways,50,140,20","It looks like a watercolor I did when I was 6.,-30,300,20","makes me happy and reminds me of a paris courtyard,29,80,20","cool cozy town vibes,50,200,20","Anna","It looks like a watercolor I did when I was 6.,-30,300,20","Brianna","This picture is ok; just a normal city,11,20,20","Nicole","It's relaxing to look at but I wish it was just a little more defined,20,20,20","4"
"5911","","survey-text","241","1370799","0.0-238.0-0.0","A2YG71R13G0CYR","","","","{""Q0"":""WHYYYYYYYYYYY""}","","","","","","","","","","","","","","","","","","","","","","",""
"2805.2000000029802","","image-slider-response","242","1373606","0.0-239.0","A2YG71R13G0CYR","","","","","-50","","","","","","","","","","","","","","","","","","","","","",""
"2102","","image-button-response","243","1378608","0.0-240.0","A2YG71R13G0CYR","img_art/5.jpg","5","","","","","","","","","","","","","","","","","","","","","","","","",""
"861","","image-button-response","244","1379470","0.0-241.0","A2YG71R13G0CYR","img_art/5.jpg","4","","","","","","","","","","","","","","","","","","","","","","","","",""
"862","","image-button-response","245","1380333","0.0-242.0-0.0","A2YG71R13G0CYR","img_art/5.jpg","5","","","","","","","","","","","","","","","","","","","","","","","","",""
"3782","","image-button-response","246","1384118","0.0-243.0-0.0","A2YG71R13G0CYR","img_art/5.jpg","3","","","","","","","","","","","","","","","","","","","","","","","","",""
"null","","html-keyboard-response","247","1385119","0.0-244.0","A2YG71R13G0CYR","<p style=""font-size: 48px;"">+</p>","","","","","null","allTrialResponses","1000","1","28","img_art/5.jpg","-50","WHYYYYYYYYYYY","Brianna,Nicole,Jasmine,Anna,Brooke,Alicia","Very bright and has colors you wouldn't think would go together,11,20,20","I hate the shapes,-30,20,20","Not sure what to say about this piece honestly. It's okay I guess.,0,340,20","It's kind of boring.,-20,300,20","No. What even is this? A mop?,-35,60,20","pointless, ugly, not creative.,-50,120,20","Brooke","No. What even is this? A mop?,-35,60,20","Alicia","pointless, ugly, not creative.,-50,120,20","Anna","It's kind of boring.,-20,300,20","4"
"11124","","survey-text","248","1396254","0.0-245.0-0.0","A2YG71R13G0CYR","","","","{""Q0"":""Intersting landscape looking painting ""}","","","","","","","","","","","","","","","","","","","","","","",""
"2949.89999999851","","image-slider-response","249","1399206","0.0-246.0","A2YG71R13G0CYR","","","","","19","","","","","","","","","","","","","","","","","","","","","",""
"2966","","image-button-response","250","1404208","0.0-247.0","A2YG71R13G0CYR","img_art/7.jpg","3","","","","","","","","","","","","","","","","","","","","","","","","",""
"709","","image-button-response","251","1404918","0.0-248.0","A2YG71R13G0CYR","img_art/7.jpg","1","","","","","","","","","","","","","","","","","","","","","","","","",""
"847","","image-button-response","252","1405766","0.0-249.0-0.0","A2YG71R13G0CYR","img_art/7.jpg","3","","","","","","","","","","","","","","","","","","","","","","","","",""
"862","","image-button-response","253","1406631","0.0-250.0-0.0","A2YG71R13G0CYR","img_art/7.jpg","2","","","","","","","","","","","","","","","","","","","","","","","","",""
"null","","html-keyboard-response","254","1408133","0.0-251.0","A2YG71R13G0CYR","<p style=""font-size: 48px;"">+</p>","","","","","null","allTrialResponses","1500","1","29","img_art/7.jpg","19","Intersting landscape looking painting ","Dominique,Mikayla,Cassandra,Anna,Brooke,Alicia","One I would love to own . Calm relaxing spiritual and full of love,41,400,20","I love the texture.,20,300,20","Just neutral...looks like sand at the beach.,3,120,20","It's kind of ugly but I like the texture.,10,300,20","tracks in dirt?,-15,60,20","I don't get it. looks like a picture of the ground.,-42,120,20","Mikayla","I love the texture.,20,300,20","Anna","It's kind of ugly but I like the texture.,10,300,20","Cassandra","Just neutral...looks like sand at the beach.,3,120,20","4"
"11149","","survey-text","255","1419286","0.0-252.0-0.0","A2YG71R13G0CYR","","","","{""Q0"":""Looks like a where's waldo painting. ""}","","","","","","","","","","","","","","","","","","","","","","",""
"2455","","image-slider-response","256","1421744","0.0-253.0","A2YG71R13G0CYR","","","","","-15","","","","","","","","","","","","","","","","","","","","","",""
"2877","","image-button-response","257","1426745","0.0-254.0","A2YG71R13G0CYR","img_art/19.jpg","4","","","","","","","","","","","","","","","","","","","","","","","","",""
"1308","","image-button-response","258","1428054","0.0-255.0","A2YG71R13G0CYR","img_art/19.jpg","4","","","","","","","","","","","","","","","","","","","","","","","","",""
"575","","image-button-response","259","1428630","0.0-256.0-0.0","A2YG71R13G0CYR","img_art/19.jpg","5","","","","","","","","","","","","","","","","","","","","","","","","",""
"1487","","image-button-response","260","1430118","0.0-257.0-0.0","A2YG71R13G0CYR","img_art/19.jpg","2","","","","","","","","","","","","","","","","","","","","","","","","",""
"null","","html-keyboard-response","261","1431620","0.0-258.0","A2YG71R13G0CYR","<p style=""font-size: 48px;"">+</p>","","","","","null","allTrialResponses","1500","1","30","img_art/19.jpg","-15","Looks like a where's waldo painting. ","Kaitlin,Mikayla,Cassandra,Anna,Rachel,Grace","this looks like a busy city lifestyle,24,60,20","Very pretty and colorful.,23,300,20","Nuetral...can't think of anything to say,4,120,20","I like the shapes.,22,300,20","Reminds me of a busy town. Chaotic in nature.,-11,80,20","Looks like a child's rendering of a city street but not too sure.,0,180,20","Rachel","Reminds me of a busy town. Chaotic in nature.,-11,80,20","Grace","Looks like a child's rendering of a city street but not too sure.,0,180,20","Cassandra","Nuetral...can't think of anything to say,4,120,20","4"
"5686","","image-button-response_instructions","262","1437326","0.0-259.0","A2YG71R13G0CYR","","0","instructions","","","","","","","","","","","","","","","","","","","","","","","",""
