"rt","url","trial_type","trial_index","time_elapsed","internal_node_id","participant_id","stimulus","button_pressed","Name","responses","response","key_press","variableName","fixationTime","condition","trial","photo","subjectRating","subjectResponse","agentsNames","agent_1_Response","agent_2_Response","agent_3_Response","agent_4_Response","agent_5_Response","agent_6_Response","kept_1_name","kept_1_response","kept_2_name","kept_2_response","kept_3_name","kept_3_response","errorCounter"
"12720","external_page_harvard.html","external-html","0","12833","0.0-0.0","A2YLTA4QNKYSRY","","","","","","","","","","","","","","","","","","","","","","","","","","",""
"1756","","image-button-response","1","14590","0.0-1.0","A2YLTA4QNKYSRY","","0","","","","","","","","","","","","","","","","","","","","","","","","",""
"2377","","image-button-response","2","16971","0.0-2.0-0.0","A2YLTA4QNKYSRY","","1","phone","","","","","","","","","","","","","","","","","","","","","","","",""
"7339","","survey-text","3","24312","0.0-3.0-0.0","A2YLTA4QNKYSRY","","","","{""Q0"":""A2YLTA4QNKYSRY""}","","","","","","","","","","","","","","","","","","","","","","",""
"7504","","image-button-response_instructions","4","31817","0.0-4.0","A2YLTA4QNKYSRY","","0","instructions","","","","","","","","","","","","","","","","","","","","","","","",""
"17656","","image-button-response_instructions","5","49475","0.0-5.0","A2YLTA4QNKYSRY","img_art/ins/popularity/ins1.png","0","instructions","","","","","","","","","","","","","","","","","","","","","","","",""
"6282","","image-button-response_instructions","6","55757","0.0-6.0","A2YLTA4QNKYSRY","img_art/ins/popularity/ins2.png","0","instructions","","","","","","","","","","","","","","","","","","","","","","","",""
"5816","","image-button-response_instructions","7","61575","0.0-7.0","A2YLTA4QNKYSRY","img_art/ins/popularity/ins2Extreme.png","0","instructions","","","","","","","","","","","","","","","","","","","","","","","",""
"6552","","image-button-response_instructions","8","68128","0.0-8.0","A2YLTA4QNKYSRY","img_art/ins/popularity/ins3KEEPpop.PNG","0","instructions","","","","","","","","","","","","","","","","","","","","","","","",""
"9229","","image-button-response_instructions","9","77357","0.0-9.0","A2YLTA4QNKYSRY","img_art/ins/popularity/ins3ANamepop.PNG","0","instructions","","","","","","","","","","","","","","","","","","","","","","","",""
"5900","","image-button-response_instructions","10","83257","0.0-10.0","A2YLTA4QNKYSRY","img_art/ins/popularity/ins3ARatingpop.png","0","instructions","","","","","","","","","","","","","","","","","","","","","","","",""
"5406","","image-button-response_instructions","11","88663","0.0-11.0","A2YLTA4QNKYSRY","img_art/ins/popularity/ins3ATextpop.png","0","instructions","","","","","","","","","","","","","","","","","","","","","","","",""
"7875","","image-button-response_instructions","12","96540","0.0-12.0","A2YLTA4QNKYSRY","img_art/ins/popularity/ins3ALikespop.png","0","instructions","","","","","","","","","","","","","","","","","","","","","","","",""
"4868","","image-button-response_instructions","13","101408","0.0-13.0","A2YLTA4QNKYSRY","img_art/ins/popularity/ins3KEEPpop.PNG","0","instructions","","","","","","","","","","","","","","","","","","","","","","","",""
"7065","","image-button-response_instructions","14","108473","0.0-14.0","A2YLTA4QNKYSRY","img_art/ins/popularity/ins3_5RED.png","0","instructions","","","","","","","","","","","","","","","","","","","","","","","",""
"2664","","image-button-response_instructions","15","111138","0.0-15.0","A2YLTA4QNKYSRY","img_art/ins/popularity/ins3KEEPpop.PNG","0","instructions","","","","","","","","","","","","","","","","","","","","","","","",""
"3277","","image-button-response_instructions","16","114416","0.0-16.0","A2YLTA4QNKYSRY","img_art/ins/popularity/ins4KEEPpop.PNG","0","instructions","","","","","","","","","","","","","","","","","","","","","","","",""
"6995","","image-button-response_instructions","17","121411","0.0-17.0","A2YLTA4QNKYSRY","img_art/ins/popularity/ins5KEEPpop.PNG","0","instructions","","","","","","","","","","","","","","","","","","","","","","","",""
"15720","","image-button-response_instructions","18","137132","0.0-18.0","A2YLTA4QNKYSRY","","0","instructions","","","","","","","","","","","","","","","","","","","","","","","",""
"11254","","survey-text","19","148408","0.0-19.0-0.0","A2YLTA4QNKYSRY","","","","{""Q0"":""but""}","","","","","","","","","","","","","","","","","","","","","","",""
"22881","","survey-text","20","171291","0.0-20.0-0.0","A2YLTA4QNKYSRY","","","","{""Q0"":""I am not fond of it. It is too simple.""}","","","","","","","","","","","","","","","","","","","","","","",""
"3940.0999999996275","","image-slider-response","21","175233","0.0-21.0","A2YLTA4QNKYSRY","","","","","-32","","","","","","","","","","","","","","","","","","","","","",""
"null","","image-button-response","22","180236","0.0-22.0","A2YLTA4QNKYSRY","img_art/ins/1.jpg","null","","","","","","","","","","","","","","","","","","","","","","","","",""
"27371","","image-button-response","23","207608","0.0-23.0","A2YLTA4QNKYSRY","img_art/ins/1.jpg","3","","","","","","","","","","","","","","","","","","","","","","","","",""
"5774","","image-button-response","24","213384","0.0-24.0-0.0","A2YLTA4QNKYSRY","img_art/ins/1.jpg","4","","","","","","","","","","","","","","","","","","","","","","","","",""
"1817","","image-button-response","25","215203","0.0-25.0-0.0","A2YLTA4QNKYSRY","img_art/ins/1.jpg","5","","","","","","","","","","","","","","","","","","","","","","","","",""
"null","","html-keyboard-response","26","215708","0.0-26.0","A2YLTA4QNKYSRY","<p style=""font-size: 48px;"">+</p>","","","","","null","allTrialResponses","500","1","-2","img_art/ins/1.jpg","-32","I am not fond of it. It is too simple.","Adam,Alex,Ben,Carl,Daniel,Jack","Seems like doodles,-20,20,20","very creative work.,36,40,20","This color reminds me of poo,-46,60,20","very calming artwork,42,80,20","It looks like a murder scene.,-48,100,20","I like the sophisticated brushwork,40,120,20","Carl","very calming artwork,42,80,20","Daniel","It looks like a murder scene.,-48,100,20","Jack","I like the sophisticated brushwork,40,120,20","0"
"20337","","survey-text","27","236048","0.0-27.0-0.0","A2YLTA4QNKYSRY","","","","{""Q0"":""It reminds me of the Middle East""}","","","","","","","","","","","","","","","","","","","","","","",""
"3152.899999999907","","image-slider-response","28","239203","0.0-28.0","A2YLTA4QNKYSRY","","","","","11","","","","","","","","","","","","","","","","","","","","","",""
"null","","image-button-response","29","244207","0.0-29.0","A2YLTA4QNKYSRY","img_art/ins/2.jpg","null","","","","","","","","","","","","","","","","","","","","","","","","",""
"1933","","image-button-response","30","246141","0.0-30.0","A2YLTA4QNKYSRY","img_art/ins/2.jpg","1","","","","","","","","","","","","","","","","","","","","","","","","",""
"4898","","image-button-response","31","251041","0.0-31.0-0.0","A2YLTA4QNKYSRY","img_art/ins/2.jpg","2","","","","","","","","","","","","","","","","","","","","","","","","",""
"1574","","image-button-response","32","252617","0.0-32.0-0.0","A2YLTA4QNKYSRY","img_art/ins/2.jpg","2","","","","","","","","","","","","","","","","","","","","","","","","",""
"1767","","image-button-response","33","260587","0.0-32.1-0.1","A2YLTA4QNKYSRY","img_art/ins/2.jpg","5","","","","","","","","","","","","","","","","","","","","","","","","",""
"null","","html-keyboard-response","34","262102","0.0-33.0","A2YLTA4QNKYSRY","<p style=""font-size: 48px;"">+</p>","","","","","null","allTrialResponses","1500","1","-1","img_art/ins/2.jpg","11","It reminds me of the Middle East","James,John,Kyle,Carl,Daniel,Jack","looks too angry,-50,140,20","love the texture of paint,48,160,20","Idk, it is just annoying,-32,180,20","I can feel the artist's passion in it,45,80,20","One of my pet peevs,-48,100,20","I would never be able to compose a sophisticated pallete like this,48,120,20","John","love the texture of paint,48,160,20","Kyle","Idk, it is just annoying,-32,180,20","Jack","I would never be able to compose a sophisticated pallete like this,48,120,20","2"
"22913","","survey-text","35","285017","0.0-34.0-0.0","A2YLTA4QNKYSRY","","","","{""Q0"":""I like the contrast. The colors are beautiful.""}","","","","","","","","","","","","","","","","","","","","","","",""
"2829.5","","image-slider-response","36","287848","0.0-35.0","A2YLTA4QNKYSRY","","","","","30","","","","","","","","","","","","","","","","","","","","","",""
"4362","","image-button-response","37","292858","0.0-36.0","A2YLTA4QNKYSRY","img_art/ins/3.jpg","0","","","","","","","","","","","","","","","","","","","","","","","","",""
"1517","","image-button-response","38","294377","0.0-37.0","A2YLTA4QNKYSRY","img_art/ins/3.jpg","1","","","","","","","","","","","","","","","","","","","","","","","","",""
"1994","","image-button-response","39","296372","0.0-38.0-0.0","A2YLTA4QNKYSRY","img_art/ins/3.jpg","0","","","","","","","","","","","","","","","","","","","","","","","","",""
"6561","","image-button-response","40","302934","0.0-39.0-0.0","A2YLTA4QNKYSRY","img_art/ins/3.jpg","3","","","","","","","","","","","","","","","","","","","","","","","","",""
"null","","html-keyboard-response","41","303949","0.0-40.0","A2YLTA4QNKYSRY","<p style=""font-size: 48px;"">+</p>","","","","","null","allTrialResponses","1000","1","0","img_art/ins/3.jpg","30","I like the contrast. The colors are beautiful.","Sam,John,Kyle,Mike,Ron,Jack","I can feel a rainy day from this painting,18,240,20","I like the overlapping of brushes,41,160,20","It looks like a playground for bats,-36,180,20","enjoy the different shades of blue,22,200,20","It looks depressing,-26,220,20","I feel connected to the artist,40,120,20","John","I like the overlapping of brushes,41,160,20","Sam","I can feel a rainy day from this painting,18,240,20","Mike","enjoy the different shades of blue,22,200,20","2"
"7055","","image-button-response_instructions","42","311009","0.0-41.0","A2YLTA4QNKYSRY","","0","instructions","","","","","","","","","","","","","","","","","","","","","","","",""
"15772","","survey-likert","43","326782","0.0-42.0-0.0","A2YLTA4QNKYSRY","","","","{""Q0"":"""",""Q1"":0,""Q2"":1}","","","","","","","","","","","","","","","","","","","","","","",""
"5035","","survey-text","44","331820","0.0-43.0-0.0","A2YLTA4QNKYSRY","","","","{""Q0"":""rock""}","","","","","","","","","","","","","","","","","","","","","","",""
"26294","","survey-text","45","358116","0.0-44.0-0.0","A2YLTA4QNKYSRY","","","","{""Q0"":""Simply amazing. The color mixture makes it look so realistic.""}","","","","","","","","","","","","","","","","","","","","","","",""
"2883.7000000001863","","image-slider-response","46","361001","0.0-45.0","A2YLTA4QNKYSRY","","","","","22","","","","","","","","","","","","","","","","","","","","","",""
"null","","image-button-response","47","366028","0.0-46.0","A2YLTA4QNKYSRY","img_art/30.jpg","null","","","","","","","","","","","","","","","","","","","","","","","","",""
"2855","","image-button-response","48","368884","0.0-47.0","A2YLTA4QNKYSRY","img_art/30.jpg","1","","","","","","","","","","","","","","","","","","","","","","","","",""
"12408","","image-button-response","49","381292","0.0-48.0-0.0","A2YLTA4QNKYSRY","img_art/30.jpg","3","","","","","","","","","","","","","","","","","","","","","","","","",""
"6648","","image-button-response","50","387941","0.0-49.0-0.0","A2YLTA4QNKYSRY","img_art/30.jpg","2","","","","","","","","","","","","","","","","","","","","","","","","",""
"null","","html-keyboard-response","51","388459","0.0-50.0","A2YLTA4QNKYSRY","<p style=""font-size: 48px;"">+</p>","","","","","null","allTrialResponses","500","1","1","img_art/30.jpg","22","Simply amazing. The color mixture makes it look so realistic.","Gabriel,Grant,Jared,Bryan,Logan,Jake","dont like this much at all,-30,160,20","The brush strokes are appealing, and make me want to look at this longer.,11,200,20","i dont like how the colors are mixed,-6,400,20","A little too dull. Would've liked brighter colors. Also looks washed out.,1,400,20","literally stupid I made this with as seen on tv products when I was 7,-42,360,20","This is just simple and ugly.,-2,360,20","Grant","The brush strokes are appealing, and make me want to look at this longer.,11,200,20","Bryan","A little too dull. Would've liked brighter colors. Also looks washed out.,1,400,20","Jared","i dont like how the colors are mixed,-6,400,20","2"
"23394","","survey-text","52","411856","0.0-51.0-0.0","A2YLTA4QNKYSRY","","","","{""Q0"":""The colors make it look sad. It reminds me of fall.""}","","","","","","","","","","","","","","","","","","","","","","",""
"3104.600000000093","","image-slider-response","53","414962","0.0-52.0","A2YLTA4QNKYSRY","","","","","-11","","","","","","","","","","","","","","","","","","","","","",""
"null","","image-button-response","54","419965","0.0-53.0","A2YLTA4QNKYSRY","img_art/4.jpg","null","","","","","","","","","","","","","","","","","","","","","","","","",""
"5498","","image-button-response","55","425464","0.0-54.0","A2YLTA4QNKYSRY","img_art/4.jpg","1","","","","","","","","","","","","","","","","","","","","","","","","",""
"5986","","image-button-response","56","431451","0.0-55.0-0.0","A2YLTA4QNKYSRY","img_art/4.jpg","5","","","","","","","","","","","","","","","","","","","","","","","","",""
"1981","","image-button-response","57","433433","0.0-56.0-0.0","A2YLTA4QNKYSRY","img_art/4.jpg","4","","","","","","","","","","","","","","","","","","","","","","","","",""
"null","","html-keyboard-response","58","434436","0.0-57.0","A2YLTA4QNKYSRY","<p style=""font-size: 48px;"">+</p>","","","","","null","allTrialResponses","1000","1","2","img_art/4.jpg","-11","The colors make it look sad. It reminds me of fall.","Bradley,Grant,Jared,Bryan,Anthony,Connor","This looks like what happens when someone steps on a mustard packet.,-7,300,20","This elicits no reaction in me.,0,200,20","it looks like a deformed hand,-9,400,20","McDonald's golden arches on steroids.,-20,400,20","Ugly and bland compared to the other pieces.,-33,200,20","Seems simplistic,-8,240,20","Grant","This elicits no reaction in me.,0,200,20","Connor","Seems simplistic,-8,240,20","Anthony","Ugly and bland compared to the other pieces.,-33,200,20","2"
"48223","","survey-text","59","482662","0.0-58.0-0.0","A2YLTA4QNKYSRY","","","","{""Q0"":""Very simplistic for my taste""}","","","","","","","","","","","","","","","","","","","","","","",""
"2369.3000000002794","","image-slider-response","60","485032","0.0-59.0","A2YLTA4QNKYSRY","","","","","1","","","","","","","","","","","","","","","","","","","","","",""
"null","","image-button-response","61","490044","0.0-60.0","A2YLTA4QNKYSRY","img_art/15.jpg","null","","","","","","","","","","","","","","","","","","","","","","","","",""
"774","","image-button-response","62","490818","0.0-61.0","A2YLTA4QNKYSRY","img_art/15.jpg","1","","","","","","","","","","","","","","","","","","","","","","","","",""
"3729","","image-button-response","63","494548","0.0-62.0-0.0","A2YLTA4QNKYSRY","img_art/15.jpg","2","","","","","","","","","","","","","","","","","","","","","","","","",""
"4893","","image-button-response","64","499442","0.0-63.0-0.0","A2YLTA4QNKYSRY","img_art/15.jpg","4","","","","","","","","","","","","","","","","","","","","","","","","",""
"null","","html-keyboard-response","65","499952","0.0-64.0","A2YLTA4QNKYSRY","<p style=""font-size: 48px;"">+</p>","","","","","null","allTrialResponses","500","1","3","img_art/15.jpg","1","Very simplistic for my taste","Brandon,Grant,Mark,Richard,Anthony,Connor","Not a fan of abstract, but the black is very striking,10,320,20","This elicits no reaction in me.,0,200,20","Chameleons on reeds. Nice but doesn't really make me feel anything.,11,80,20","dark and provoking,-50,340,20","This piece isn't particularly attractive, but it's not ugly either.,1,200,20","Neat to explore meaning, blue is interesting,11,240,20","Grant","This elicits no reaction in me.,0,200,20","Mark","Chameleons on reeds. Nice but doesn't really make me feel anything.,11,80,20","Anthony","This piece isn't particularly attractive, but it's not ugly either.,1,200,20","2"
"11003","","survey-text","66","510958","0.0-65.0-0.0","A2YLTA4QNKYSRY","","","","{""Q0"":""It looks like a child painted this.""}","","","","","","","","","","","","","","","","","","","","","","",""
"10326.600000000093","","image-slider-response","67","521286","0.0-66.0","A2YLTA4QNKYSRY","","","","","-3","","","","","","","","","","","","","","","","","","","","","",""
"null","","image-button-response","68","526301","0.0-67.0","A2YLTA4QNKYSRY","img_art/2.jpg","null","","","","","","","","","","","","","","","","","","","","","","","","",""
"7842","","image-button-response","69","534144","0.0-68.0","A2YLTA4QNKYSRY","img_art/2.jpg","3","","","","","","","","","","","","","","","","","","","","","","","","",""
"2609","","image-button-response","70","536754","0.0-69.0-0.0","A2YLTA4QNKYSRY","img_art/2.jpg","5","","","","","","","","","","","","","","","","","","","","","","","","",""
"3407","","image-button-response","71","540162","0.0-70.0-0.0","A2YLTA4QNKYSRY","img_art/2.jpg","0","","","","","","","","","","","","","","","","","","","","","","","","",""
"null","","html-keyboard-response","72","541171","0.0-71.0","A2YLTA4QNKYSRY","<p style=""font-size: 48px;"">+</p>","","","","","null","allTrialResponses","1000","1","4","img_art/2.jpg","-3","It looks like a child painted this.","Scott,Grant,Mark,Dustin,Anthony,Kenneth","looks like a child's artwork,-40,20,20","The colors are entirely unappealing and very unpleasant to look at.,-20,200,20","It feels like a party and Moulin Rouge.,20,80,20","Doesn't look like anything. Just a blob of colors.,1,20,20","Ugly color scheme,-50,200,20","I cant tell whats happening here and that shade of green is just not my thing.,-17,300,20","Dustin","Doesn't look like anything. Just a blob of colors.,1,20,20","Kenneth","I cant tell whats happening here and that shade of green is just not my thing.,-17,300,20","Scott","looks like a child's artwork,-40,20,20","2"
"21679","","survey-text","73","562853","0.0-72.0-0.0","A2YLTA4QNKYSRY","","","","{""Q0"":""Reminds m to those old paintings that my grandma has at home.""}","","","","","","","","","","","","","","","","","","","","","","",""
"3307","","image-slider-response","74","566162","0.0-73.0","A2YLTA4QNKYSRY","","","","","3","","","","","","","","","","","","","","","","","","","","","",""
"null","","image-button-response","75","571175","0.0-74.0","A2YLTA4QNKYSRY","img_art/1.jpg","null","","","","","","","","","","","","","","","","","","","","","","","","",""
"3771","","image-button-response","76","574947","0.0-75.0","A2YLTA4QNKYSRY","img_art/1.jpg","0","","","","","","","","","","","","","","","","","","","","","","","","",""
"6343","","image-button-response","77","581291","0.0-76.0-0.0","A2YLTA4QNKYSRY","img_art/1.jpg","5","","","","","","","","","","","","","","","","","","","","","","","","",""
"4987","","image-button-response","78","586280","0.0-77.0-0.0","A2YLTA4QNKYSRY","img_art/1.jpg","4","","","","","","","","","","","","","","","","","","","","","","","","",""
"null","","html-keyboard-response","79","587785","0.0-78.0","A2YLTA4QNKYSRY","<p style=""font-size: 48px;"">+</p>","","","","","null","allTrialResponses","1500","1","5","img_art/1.jpg","3","Reminds m to those old paintings that my grandma has at home.","Scott,Nicholas,Tristan,Dustin,Michael,Kenneth","good colors and contrast,31,20,20","Love the colors but it makes me feel like someone is looking at me through it,38,240,20","Unpleasing palette. I see a figure but it seems incongrous to the highly abstract background.,-20,300,20","Too messy. Just looks like a mess of dark colors.,-20,20,20","Just a mess though a better mess than some others.,-11,140,20","I love colorful photos and I like this one a lot.,25,300,20","Scott","good colors and contrast,31,20,20","Kenneth","I love colorful photos and I like this one a lot.,25,300,20","Michael","Just a mess though a better mess than some others.,-11,140,20","2"
"4188","","survey-text","80","591977","0.0-79.0-0.0","A2YLTA4QNKYSRY","","","","{""Q0"":""sky""}","","","","","","","","","","","","","","","","","","","","","","",""
"53588","","survey-text","81","645566","0.0-80.0-0.0","A2YLTA4QNKYSRY","","","","{""Q0"":""It is amazing. The colors are beautifully matched.""}","","","","","","","","","","","","","","","","","","","","","","",""
"2520.7000000001863","","image-slider-response","82","648088","0.0-81.0","A2YLTA4QNKYSRY","","","","","21","","","","","","","","","","","","","","","","","","","","","",""
"4332","","image-button-response","83","653106","0.0-82.0","A2YLTA4QNKYSRY","img_art/24.jpg","0","","","","","","","","","","","","","","","","","","","","","","","","",""
"9126","","image-button-response","84","662233","0.0-83.0","A2YLTA4QNKYSRY","img_art/24.jpg","3","","","","","","","","","","","","","","","","","","","","","","","","",""
"7876","","image-button-response","85","670110","0.0-84.0-0.0","A2YLTA4QNKYSRY","img_art/24.jpg","5","","","","","","","","","","","","","","","","","","","","","","","","",""
"2172","","image-button-response","86","672283","0.0-85.0-0.0","A2YLTA4QNKYSRY","img_art/24.jpg","0","","","","","","","","","","","","","","","","","","","","","","","","",""
"null","","html-keyboard-response","87","673288","0.0-86.0","A2YLTA4QNKYSRY","<p style=""font-size: 48px;"">+</p>","","","","","null","allTrialResponses","1000","1","6","img_art/24.jpg","21","It is amazing. The colors are beautifully matched.","Scott,Isaiah,Carlos,John,Michael,Kenneth","pretty like a waterfall,22,20,20","I feel relaxed and happy, looking at the stream, but it feels hollow, like something is fake.,5,300,20","It is like a really bad impressionist painting.,-40,80,20","Beautiful.Nice use of colors and invokes feelings of serene and peace,40,120,20","It's not super high uality  but there is some skill and talent in it I see.,15,140,20","Cute; I like what the image itself & the colors.,25,300,20","John","Beautiful.Nice use of colors and invokes feelings of serene and peace,40,120,20","Kenneth","Cute; I like what the image itself & the colors.,25,300,20","Scott","pretty like a waterfall,22,20,20","2"
"35224","","survey-text","88","708514","0.0-87.0-0.0","A2YLTA4QNKYSRY","","","","{""Q0"":""Th colors are beautiful but I do not understand the painting""}","","","","","","","","","","","","","","","","","","","","","","",""
"4756.0999999996275","","image-slider-response","89","713271","0.0-88.0","A2YLTA4QNKYSRY","","","","","0","","","","","","","","","","","","","","","","","","","","","",""
"4747","","image-button-response","90","718279","0.0-89.0","A2YLTA4QNKYSRY","img_art/13.jpg","1","","","","","","","","","","","","","","","","","","","","","","","","",""
"2692","","image-button-response","91","720972","0.0-90.0","A2YLTA4QNKYSRY","img_art/13.jpg","4","","","","","","","","","","","","","","","","","","","","","","","","",""
"2076","","image-button-response","92","723049","0.0-91.0-0.0","A2YLTA4QNKYSRY","img_art/13.jpg","1","","","","","","","","","","","","","","","","","","","","","","","","",""
"4564","","image-button-response","93","727614","0.0-92.0-0.0","A2YLTA4QNKYSRY","img_art/13.jpg","5","","","","","","","","","","","","","","","","","","","","","","","","",""
"null","","html-keyboard-response","94","728129","0.0-93.0","A2YLTA4QNKYSRY","<p style=""font-size: 48px;"">+</p>","","","","","null","allTrialResponses","500","1","7","img_art/13.jpg","0","Th colors are beautiful but I do not understand the painting","Scott,Elijah,Jesus,John,Malik,Kenneth","I like the transition to other colors,24,20,20","Makes me feel nice and calm,18,80,20","I enjoy the cool colors mixed together,31,100,20","Pretty and it reminds me of rain droplets running down a window on a rainy day.,40,120,20","Gorgeous contrast and color choice, very pleasing,50,40,20","I would hang this photo in my room.,21,300,20","Malik","Gorgeous contrast and color choice, very pleasing,50,40,20","Elijah","Makes me feel nice and calm,18,80,20","Kenneth","I would hang this photo in my room.,21,300,20","2"
"17762","","survey-text","95","745893","0.0-94.0-0.0","A2YLTA4QNKYSRY","","","","{""Q0"":""It doesn't provoke anything in me""}","","","","","","","","","","","","","","","","","","","","","","",""
"9083.600000000093","","image-slider-response","96","754977","0.0-95.0","A2YLTA4QNKYSRY","","","","","0","","","","","","","","","","","","","","","","","","","","","",""
"3850","","image-button-response","97","759991","0.0-96.0","A2YLTA4QNKYSRY","img_art/6.jpg","0","","","","","","","","","","","","","","","","","","","","","","","","",""
"7310","","image-button-response","98","767302","0.0-97.0","A2YLTA4QNKYSRY","img_art/6.jpg","3","","","","","","","","","","","","","","","","","","","","","","","","",""
"1927","","image-button-response","99","769230","0.0-98.0-0.0","A2YLTA4QNKYSRY","img_art/6.jpg","1","","","","","","","","","","","","","","","","","","","","","","","","",""
"6100","","image-button-response","100","775331","0.0-99.0-0.0","A2YLTA4QNKYSRY","img_art/6.jpg","0","","","","","","","","","","","","","","","","","","","","","","","","",""
"null","","html-keyboard-response","101","775844","0.0-100.0","A2YLTA4QNKYSRY","<p style=""font-size: 48px;"">+</p>","","","","","null","allTrialResponses","500","1","8","img_art/6.jpg","0","It doesn't provoke anything in me","Jesse,Elijah,Charles,Paul,Malik,Kenneth","Nothing grabs at me here,-11,80,20","Not impressed, just very plain,-10,80,20","It's pretty dour,-10,100,20","Maybe it's supposed to be a bird but it looks like a scary cloaked figure. it's just too simple and jarring,-23,300,20","Lonesome in nature,13,40,20","Simple and pretty.,18,300,20","Paul","Maybe it's supposed to be a bird but it looks like a scary cloaked figure. it's just too simple and jarring,-23,300,20","Elijah","Not impressed, just very plain,-10,80,20","Jesse","Nothing grabs at me here,-11,80,20","2"
"45268","","survey-text","102","821116","0.0-101.0-0.0","A2YLTA4QNKYSRY","","","","{""Q0"":""The colors are nice but the painting is ugly.""}","","","","","","","","","","","","","","","","","","","","","","",""
"2767.2000000001863","","image-slider-response","103","823884","0.0-102.0","A2YLTA4QNKYSRY","","","","","-22","","","","","","","","","","","","","","","","","","","","","",""
"4759","","image-button-response","104","828896","0.0-103.0","A2YLTA4QNKYSRY","img_art/22.jpg","5","","","","","","","","","","","","","","","","","","","","","","","","",""
"1066","","image-button-response","105","829964","0.0-104.0","A2YLTA4QNKYSRY","img_art/22.jpg","5","","","","","","","","","","","","","","","","","","","","","","","","",""
"4502","","image-button-response","106","834467","0.0-105.0-0.0","A2YLTA4QNKYSRY","img_art/22.jpg","1","","","","","","","","","","","","","","","","","","","","","","","","",""
"2604","","image-button-response","107","837072","0.0-106.0-0.0","A2YLTA4QNKYSRY","img_art/22.jpg","2","","","","","","","","","","","","","","","","","","","","","","","","",""
"null","","html-keyboard-response","108","837574","0.0-107.0","A2YLTA4QNKYSRY","<p style=""font-size: 48px;"">+</p>","","","","","null","allTrialResponses","500","1","9","img_art/22.jpg","-22","The colors are nice but the painting is ugly.","Jesse,Elijah,Austin,Paul,Alejandro,Christopher","I usually dont like blurry pieces but the colors are amazing in this,14,80,20","Makes me feel a bit anxious,6,80,20","Great color palette,29,240,20","I really like the bright colors and sunset feel,31,300,20","Beautiful use of chalk or pastels. Love the abstract nature.,35,80,20","boring, too many red and yellow tones for my taste,-15,160,20","Christopher","boring, too many red and yellow tones for my taste,-15,160,20","Elijah","Makes me feel a bit anxious,6,80,20","Austin","Great color palette,29,240,20","2"
"151447","","survey-text","109","989025","0.0-108.0-0.0","A2YLTA4QNKYSRY","","","","{""Q0"":""It reminds me of nature. The color are beautiful""}","","","","","","","","","","","","","","","","","","","","","","",""
"2011.2999999998137","","image-slider-response","110","991038","0.0-109.0","A2YLTA4QNKYSRY","","","","","33","","","","","","","","","","","","","","","","","","","","","",""
"4680","","image-button-response","111","996047","0.0-110.0","A2YLTA4QNKYSRY","img_art/21.jpg","0","","","","","","","","","","","","","","","","","","","","","","","","",""
"2282","","image-button-response","112","998331","0.0-111.0","A2YLTA4QNKYSRY","img_art/21.jpg","2","","","","","","","","","","","","","","","","","","","","","","","","",""
"2554","","image-button-response","113","1000885","0.0-112.0-0.0","A2YLTA4QNKYSRY","img_art/21.jpg","0","","","","","","","","","","","","","","","","","","","","","","","","",""
"5189","","image-button-response","114","1006075","0.0-113.0-0.0","A2YLTA4QNKYSRY","img_art/21.jpg","0","","","","","","","","","","","","","","","","","","","","","","","","",""
"2698","","image-button-response","115","1011429","0.0-113.1-0.1","A2YLTA4QNKYSRY","img_art/21.jpg","5","","","","","","","","","","","","","","","","","","","","","","","","",""
"null","","html-keyboard-response","116","1012440","0.0-114.0","A2YLTA4QNKYSRY","<p style=""font-size: 48px;"">+</p>","","","","","null","allTrialResponses","1000","1","10","img_art/21.jpg","33","It reminds me of nature. The color are beautiful","Colton,Elijah,Austin,James,Jeremy,Christopher","i enjoy the clash of colors, reminds me of a storm at sea,32,220,20","Can't understand what it is,-27,80,20","Touches the heart,50,240,20","Don't really lean either way.,1,380,20","the picture is boring,1,60,20","I love the section of blues, the colors overall are really lovely,31,160,20","Austin","Touches the heart,50,240,20","Colton","i enjoy the clash of colors, reminds me of a storm at sea,32,220,20","Christopher","I love the section of blues, the colors overall are really lovely,31,160,20","4"
"6230","","survey-text","117","1018677","0.0-115.0-0.0","A2YLTA4QNKYSRY","","","","{""Q0"":""our""}","","","","","","","","","","","","","","","","","","","","","","",""
"30375","","survey-text","118","1049052","0.0-116.0-0.0","A2YLTA4QNKYSRY","","","","{""Q0"":""Very abstract but I love it. I can imagine so many things going on.""}","","","","","","","","","","","","","","","","","","","","","","",""
"1829.1000000000931","","image-slider-response","119","1050882","0.0-117.0","A2YLTA4QNKYSRY","","","","","41","","","","","","","","","","","","","","","","","","","","","",""
"null","","image-button-response","120","1055896","0.0-118.0","A2YLTA4QNKYSRY","img_art/18.jpg","null","","","","","","","","","","","","","","","","","","","","","","","","",""
"4228","","image-button-response","121","1060124","0.0-119.0","A2YLTA4QNKYSRY","img_art/18.jpg","0","","","","","","","","","","","","","","","","","","","","","","","","",""
"3362","","image-button-response","122","1063487","0.0-120.0-0.0","A2YLTA4QNKYSRY","img_art/18.jpg","1","","","","","","","","","","","","","","","","","","","","","","","","",""
"1886","","image-button-response","123","1065375","0.0-121.0-0.0","A2YLTA4QNKYSRY","img_art/18.jpg","4","","","","","","","","","","","","","","","","","","","","","","","","",""
"null","","html-keyboard-response","124","1066883","0.0-122.0","A2YLTA4QNKYSRY","<p style=""font-size: 48px;"">+</p>","","","","","null","allTrialResponses","1500","1","11","img_art/18.jpg","41","Very abstract but I love it. I can imagine so many things going on.","Colton,Edward,Austin,Timothy,Justin,Christopher","reminds me of greek mythology,22,220,20","Reminds me of the four horsemen of the apocalypse,29,60,20","Nice abstract art,50,240,20","This gives a very ominous feeling,-30,240,20","This is really interesting to look at. I like the colors and the spectral look.,27,280,20","this is kind of cool. I like the color scheme and the figure in the upper left is interesting,15,160,20","Colton","reminds me of greek mythology,22,220,20","Edward","Reminds me of the four horsemen of the apocalypse,29,60,20","Justin","This is really interesting to look at. I like the colors and the spectral look.,27,280,20","4"
"14211","","survey-text","125","1081096","0.0-123.0-0.0","A2YLTA4QNKYSRY","","","","{""Q0"":""It reminds me of Chinese art""}","","","","","","","","","","","","","","","","","","","","","","",""
"1721.8000000002794","","image-slider-response","126","1082819","0.0-124.0","A2YLTA4QNKYSRY","","","","","10","","","","","","","","","","","","","","","","","","","","","",""
"null","","image-button-response","127","1087827","0.0-125.0","A2YLTA4QNKYSRY","img_art/10.jpg","null","","","","","","","","","","","","","","","","","","","","","","","","",""
"30213","","image-button-response","128","1118042","0.0-126.0","A2YLTA4QNKYSRY","img_art/10.jpg","1","","","","","","","","","","","","","","","","","","","","","","","","",""
"5513","","image-button-response","129","1123557","0.0-127.0-0.0","A2YLTA4QNKYSRY","img_art/10.jpg","4","","","","","","","","","","","","","","","","","","","","","","","","",""
"1283","","image-button-response","130","1124842","0.0-128.0-0.0","A2YLTA4QNKYSRY","img_art/10.jpg","5","","","","","","","","","","","","","","","","","","","","","","","","",""
"null","","html-keyboard-response","131","1125349","0.0-129.0","A2YLTA4QNKYSRY","<p style=""font-size: 48px;"">+</p>","","","","","null","allTrialResponses","500","1","12","img_art/10.jpg","10","It reminds me of Chinese art","Colton,Edward,Bryce,Joshua,Justin,Luke","it looks very musical,24,220,20","It looks like it's sinking but it could also be a view from above,40,60,20","Kinda creepy not my favorite,-26,20,20","This one is interesting. I like it.,11,240,20","The design is dynamic and interesting.,14,280,20","it reminds me of a musical instrument,19,20,20","Edward","It looks like it's sinking but it could also be a view from above,40,60,20","Justin","The design is dynamic and interesting.,14,280,20","Luke","it reminds me of a musical instrument,19,20,20","4"
"21791","","survey-text","132","1147143","0.0-130.0-0.0","A2YLTA4QNKYSRY","","","","{""Q0"":""It is too simple. I does not get my attention at all""}","","","","","","","","","","","","","","","","","","","","","","",""
"1950.3999999999069","","image-slider-response","133","1149094","0.0-131.0","A2YLTA4QNKYSRY","","","","","-15","","","","","","","","","","","","","","","","","","","","","",""
"null","","image-button-response","134","1154102","0.0-132.0","A2YLTA4QNKYSRY","img_art/27.jpg","null","","","","","","","","","","","","","","","","","","","","","","","","",""
"1338","","image-button-response","135","1155442","0.0-133.0","A2YLTA4QNKYSRY","img_art/27.jpg","0","","","","","","","","","","","","","","","","","","","","","","","","",""
"830","","image-button-response","136","1156273","0.0-134.0-0.0","A2YLTA4QNKYSRY","img_art/27.jpg","4","","","","","","","","","","","","","","","","","","","","","","","","",""
"1322","","image-button-response","137","1157597","0.0-135.0-0.0","A2YLTA4QNKYSRY","img_art/27.jpg","5","","","","","","","","","","","","","","","","","","","","","","","","",""
"null","","html-keyboard-response","138","1159110","0.0-136.0","A2YLTA4QNKYSRY","<p style=""font-size: 48px;"">+</p>","","","","","null","allTrialResponses","1500","1","13","img_art/27.jpg","-15","It is too simple. I does not get my attention at all","Jonathan,Edward,Blake,Kevin,Justin,Luke","Very cool colors and I like the contrast of lights and darks,30,140,20","It looks like a kid colored a picture and an adult added to it,19,60,20","fruity and sweet. warm and juicy,10,280,20","A fall mess going on here,2,320,20","The colors are put together in an interesting way.,-9,280,20","it looks very simple and childlike,-31,20,20","Jonathan","Very cool colors and I like the contrast of lights and darks,30,140,20","Justin","The colors are put together in an interesting way.,-9,280,20","Luke","it looks very simple and childlike,-31,20,20","4"
"20285","","survey-text","139","1179397","0.0-137.0-0.0","A2YLTA4QNKYSRY","","","","{""Q0"":""It is very old fashioned and boring""}","","","","","","","","","","","","","","","","","","","","","","",""
"14949.700000000186","","image-slider-response","140","1194348","0.0-138.0","A2YLTA4QNKYSRY","","","","","-27","","","","","","","","","","","","","","","","","","","","","",""
"3775","","image-button-response","141","1199354","0.0-139.0","A2YLTA4QNKYSRY","img_art/28.jpg","2","","","","","","","","","","","","","","","","","","","","","","","","",""
"34","","image-button-response","142","1199389","0.0-140.0","A2YLTA4QNKYSRY","img_art/28.jpg","0","","","","","","","","","","","","","","","","","","","","","","","","",""
"1016","","image-button-response","143","1200407","0.0-141.0-0.0","A2YLTA4QNKYSRY","img_art/28.jpg","4","","","","","","","","","","","","","","","","","","","","","","","","",""
"1563","","image-button-response","144","1201972","0.0-142.0-0.0","A2YLTA4QNKYSRY","img_art/28.jpg","2","","","","","","","","","","","","","","","","","","","","","","","","",""
"null","","html-keyboard-response","145","1202974","0.0-143.0","A2YLTA4QNKYSRY","<p style=""font-size: 48px;"">+</p>","","","","","null","allTrialResponses","1000","1","14","img_art/28.jpg","-27","It is very old fashioned and boring","Jonathan,Adam,Travis,Ethan,Justin,Luke","The lack of color variance leaves it looking ugly even if I like the brush strokes,-10,140,20","Dislike the colors.,-20,40,20","Hate it...brown and drab,-37,260,20","The colors are really ugly. They do not compliment each other well.,-45,120,20","I don't like the colors or the design.,-20,280,20","no clear colors or meaning to evoke emotions,-15,20,20","Jonathan","The lack of color variance leaves it looking ugly even if I like the brush strokes,-10,140,20","Justin","I don't like the colors or the design.,-20,280,20","Travis","Hate it...brown and drab,-37,260,20","4"
"28552","","survey-text","146","1231529","0.0-144.0-0.0","A2YLTA4QNKYSRY","","","","{""Q0"":""Beautifully don. The strokes are great and so are the colors""}","","","","","","","","","","","","","","","","","","","","","","",""
"1530.7000000001863","","image-slider-response","147","1233061","0.0-145.0","A2YLTA4QNKYSRY","","","","","25","","","","","","","","","","","","","","","","","","","","","",""
"2816","","image-button-response","148","1238075","0.0-146.0","A2YLTA4QNKYSRY","img_art/17.jpg","2","","","","","","","","","","","","","","","","","","","","","","","","",""
"3981","","image-button-response","149","1242057","0.0-147.0","A2YLTA4QNKYSRY","img_art/17.jpg","3","","","","","","","","","","","","","","","","","","","","","","","","",""
"1677","","image-button-response","150","1243736","0.0-148.0-0.0","A2YLTA4QNKYSRY","img_art/17.jpg","4","","","","","","","","","","","","","","","","","","","","","","","","",""
"1504","","image-button-response","151","1245240","0.0-149.0-0.0","A2YLTA4QNKYSRY","img_art/17.jpg","2","","","","","","","","","","","","","","","","","","","","","","","","",""
"null","","html-keyboard-response","152","1246245","0.0-150.0","A2YLTA4QNKYSRY","<p style=""font-size: 48px;"">+</p>","","","","","null","allTrialResponses","1000","1","15","img_art/17.jpg","25","Beautifully don. The strokes are great and so are the colors","Jonathan,Taylor,Travis,Sean,Justin,Jorge","Feels nostalgic somehow,31,140,20","Somewhat should trim the tree branches at the shopping mall.,10,200,20","Very pretty...the colors and good and flow well.,33,260,20","my response to the picture is that it looks beautiful,27,40,20","I like the colors and the design.,20,280,20","battle between nature and man,31,180,20","Sean","my response to the picture is that it looks beautiful,27,40,20","Justin","I like the colors and the design.,20,280,20","Travis","Very pretty...the colors and good and flow well.,33,260,20","4"
"6641","","survey-text","153","1252892","0.0-151.0-0.0","A2YLTA4QNKYSRY","","","","{""Q0"":""course""}","","","","","","","","","","","","","","","","","","","","","","",""
"24098","","survey-text","154","1276991","0.0-152.0-0.0","A2YLTA4QNKYSRY","","","","{""Q0"":""It looks like the floor is dirty""}","","","","","","","","","","","","","","","","","","","","","","",""
"1940.8000000002794","","image-slider-response","155","1278933","0.0-153.0","A2YLTA4QNKYSRY","","","","","-30","","","","","","","","","","","","","","","","","","","","","",""
"3744","","image-button-response","156","1283938","0.0-154.0","A2YLTA4QNKYSRY","img_art/7.jpg","3","","","","","","","","","","","","","","","","","","","","","","","","",""
"2377","","image-button-response","157","1286316","0.0-155.0","A2YLTA4QNKYSRY","img_art/7.jpg","4","","","","","","","","","","","","","","","","","","","","","","","","",""
"4472","","image-button-response","158","1290789","0.0-156.0-0.0","A2YLTA4QNKYSRY","img_art/7.jpg","1","","","","","","","","","","","","","","","","","","","","","","","","",""
"1394","","image-button-response","159","1292184","0.0-157.0-0.0","A2YLTA4QNKYSRY","img_art/7.jpg","3","","","","","","","","","","","","","","","","","","","","","","","","",""
"null","","html-keyboard-response","160","1293691","0.0-158.0","A2YLTA4QNKYSRY","<p style=""font-size: 48px;"">+</p>","","","","","null","allTrialResponses","1500","1","16","img_art/7.jpg","-30","It looks like the floor is dirty","Jose,Jason,Travis,Sean,Justin,Marcus","Reminds me of bugs, I hate bugs,-7,200,20","Boring  and lacks color,-11,20,20","Just neutral...looks like sand at the beach.,3,260,20","does not look good,-42,40,20","It looks like a wall, not really something I'd enjoy looking at.,-12,280,20","Looks like vomit, or chunky feces,-42,60,20","Justin","It looks like a wall, not really something I'd enjoy looking at.,-12,280,20","Jason","Boring  and lacks color,-11,20,20","Sean","does not look good,-42,40,20","4"
"37860","","survey-text","161","1331554","0.0-159.0-0.0","A2YLTA4QNKYSRY","","","","{""Q0"":""It looks like a blurred village""}","","","","","","","","","","","","","","","","","","","","","","",""
"1657.6000000000931","","image-slider-response","162","1333213","0.0-160.0","A2YLTA4QNKYSRY","","","","","-23","","","","","","","","","","","","","","","","","","","","","",""
"3343","","image-button-response","163","1338220","0.0-161.0","A2YLTA4QNKYSRY","img_art/11.jpg","0","","","","","","","","","","","","","","","","","","","","","","","","",""
"1438","","image-button-response","164","1339660","0.0-162.0","A2YLTA4QNKYSRY","img_art/11.jpg","2","","","","","","","","","","","","","","","","","","","","","","","","",""
"5667","","image-button-response","165","1345327","0.0-163.0-0.0","A2YLTA4QNKYSRY","img_art/11.jpg","0","","","","","","","","","","","","","","","","","","","","","","","","",""
"1278","","image-button-response","166","1346607","0.0-164.0-0.0","A2YLTA4QNKYSRY","img_art/11.jpg","1","","","","","","","","","","","","","","","","","","","","","","","","",""
"null","","html-keyboard-response","167","1347122","0.0-165.0","A2YLTA4QNKYSRY","<p style=""font-size: 48px;"">+</p>","","","","","null","allTrialResponses","500","1","17","img_art/11.jpg","-23","It looks like a blurred village","Shawn,Jason,Ian,Sean,Justin,Brian","Like the movement but not the background colors.,21,100,20","Interesting use of color,9,20,20","This one is a little erie, gives me post-apocalyptic feeling,27,260,20","pic looks alright,8,40,20","It reminds me of telephone wires.,1,280,20","this looks like a beautiful rainy day in a hellish urban mountain city,14,380,20","Ian","This one is a little erie, gives me post-apocalyptic feeling,27,260,20","Shawn","Like the movement but not the background colors.,21,100,20","Jason","Interesting use of color,9,20,20","4"
"21477","","survey-text","168","1368602","0.0-166.0-0.0","A2YLTA4QNKYSRY","","","","{""Q0"":""It is very warm and reminds me to my childhood.""}","","","","","","","","","","","","","","","","","","","","","","",""
"2590.7000000001863","","image-slider-response","169","1371194","0.0-167.0","A2YLTA4QNKYSRY","","","","","31","","","","","","","","","","","","","","","","","","","","","",""
"4055","","image-button-response","170","1376198","0.0-168.0","A2YLTA4QNKYSRY","img_art/14.jpg","0","","","","","","","","","","","","","","","","","","","","","","","","",""
"3127","","image-button-response","171","1379327","0.0-169.0","A2YLTA4QNKYSRY","img_art/14.jpg","4","","","","","","","","","","","","","","","","","","","","","","","","",""
"2311","","image-button-response","172","1381639","0.0-170.0-0.0","A2YLTA4QNKYSRY","img_art/14.jpg","5","","","","","","","","","","","","","","","","","","","","","","","","",""
"1355","","image-button-response","173","1382996","0.0-171.0-0.0","A2YLTA4QNKYSRY","img_art/14.jpg","3","","","","","","","","","","","","","","","","","","","","","","","","",""
"null","","html-keyboard-response","174","1384012","0.0-172.0","A2YLTA4QNKYSRY","<p style=""font-size: 48px;"">+</p>","","","","","null","allTrialResponses","1000","1","18","img_art/14.jpg","31","It is very warm and reminds me to my childhood.","Shawn,Jason,Ian,Devin,Lucas,Spencer","Like the brushstrokes but not the composition,9,100,20","Focal point is interesting,5,20,20","This just looks like a kids watercolor painting.,-30,260,20","It looks nice colorwise but detail is lacking,18,380,20","In my opinion it's spectacular.,35,380,20","I like the simplicity along with the colors,27,120,20","Lucas","In my opinion it's spectacular.,35,380,20","Spencer","I like the simplicity along with the colors,27,120,20","Devin","It looks nice colorwise but detail is lacking,18,380,20","4"
"22643","","survey-text","175","1406658","0.0-173.0-0.0","A2YLTA4QNKYSRY","","","","{""Q0"":""It looks like an Egyptian hieroglyphic.""}","","","","","","","","","","","","","","","","","","","","","","",""
"3922.5","","image-slider-response","176","1410582","0.0-174.0","A2YLTA4QNKYSRY","","","","","0","","","","","","","","","","","","","","","","","","","","","",""
"null","","image-button-response","177","1415585","0.0-175.0","A2YLTA4QNKYSRY","img_art/25.jpg","null","","","","","","","","","","","","","","","","","","","","","","","","",""
"603","","image-button-response","178","1416188","0.0-176.0","A2YLTA4QNKYSRY","img_art/25.jpg","2","","","","","","","","","","","","","","","","","","","","","","","","",""
"4262","","image-button-response","179","1420451","0.0-177.0-0.0","A2YLTA4QNKYSRY","img_art/25.jpg","5","","","","","","","","","","","","","","","","","","","","","","","","",""
"2450","","image-button-response","180","1422903","0.0-178.0-0.0","A2YLTA4QNKYSRY","img_art/25.jpg","0","","","","","","","","","","","","","","","","","","","","","","","","",""
"null","","html-keyboard-response","181","1424416","0.0-179.0","A2YLTA4QNKYSRY","<p style=""font-size: 48px;"">+</p>","","","","","null","allTrialResponses","1500","1","19","img_art/25.jpg","0","It looks like an Egyptian hieroglyphic.","Dalton,Jeffrey,Stephen,Devin,Lucas,Spencer","This reminds me of royalty and servants.,32,300,20","reminds me of a demon,-25,40,20","It's nice but nothing special.,7,140,20","It looks a bit strange to me, neck too long,-19,380,20","Well-designed, interesting.,30,380,20","I really like it, very simple, very tribal,38,120,20","Stephen","It's nice but nothing special.,7,140,20","Spencer","I really like it, very simple, very tribal,38,120,20","Dalton","This reminds me of royalty and servants.,32,300,20","4"
"45758","","survey-text","182","1470177","0.0-180.0-0.0","A2YLTA4QNKYSRY","","","","{""Q0"":""Looks very childish but at the same time very detailed.""}","","","","","","","","","","","","","","","","","","","","","","",""
"1972.3999999999069","","image-slider-response","183","1472151","0.0-181.0","A2YLTA4QNKYSRY","","","","","10","","","","","","","","","","","","","","","","","","","","","",""
"null","","image-button-response","184","1477165","0.0-182.0","A2YLTA4QNKYSRY","img_art/19.jpg","null","","","","","","","","","","","","","","","","","","","","","","","","",""
"661","","image-button-response","185","1477827","0.0-183.0","A2YLTA4QNKYSRY","img_art/19.jpg","0","","","","","","","","","","","","","","","","","","","","","","","","",""
"2884","","image-button-response","186","1480713","0.0-184.0-0.0","A2YLTA4QNKYSRY","img_art/19.jpg","2","","","","","","","","","","","","","","","","","","","","","","","","",""
"2034","","image-button-response","187","1482749","0.0-185.0-0.0","A2YLTA4QNKYSRY","img_art/19.jpg","5","","","","","","","","","","","","","","","","","","","","","","","","",""
"null","","html-keyboard-response","188","1483261","0.0-186.0","A2YLTA4QNKYSRY","<p style=""font-size: 48px;"">+</p>","","","","","null","allTrialResponses","500","1","20","img_art/19.jpg","10","Looks very childish but at the same time very detailed.","Dalton,Devon,Stephen,Matthew,Zachary,Spencer","love the images I can pick out of this art,1,300,20","this looks like a busy city lifestyle,24,400,20","Solid use of colors but wished it looked more realistic.,12,140,20","someone at the beach maybe?,27,120,20","Reminds me of a busy town. Chaotic in nature.,-11,400,20","Very abstract but I like it, it's busy, lots of colors,43,120,20","Dalton","love the images I can pick out of this art,1,300,20","Stephen","Solid use of colors but wished it looked more realistic.,12,140,20","Spencer","Very abstract but I like it, it's busy, lots of colors,43,120,20","4"
"3556","","survey-text","189","1486824","0.0-187.0-0.0","A2YLTA4QNKYSRY","","","","{""Q0"":""we""}","","","","","","","","","","","","","","","","","","","","","","",""
"24925","","survey-text","190","1511749","0.0-188.0-0.0","A2YLTA4QNKYSRY","","","","{""Q0"":""Again. It looks very childish and I do not like it at all.""}","","","","","","","","","","","","","","","","","","","","","","",""
"2570.2000000001863","","image-slider-response","191","1514320","0.0-189.0","A2YLTA4QNKYSRY","","","","","-31","","","","","","","","","","","","","","","","","","","","","",""
"2622","","image-button-response","192","1519326","0.0-190.0","A2YLTA4QNKYSRY","img_art/9.jpg","2","","","","","","","","","","","","","","","","","","","","","","","","",""
"579","","image-button-response","193","1519906","0.0-191.0","A2YLTA4QNKYSRY","img_art/9.jpg","3","","","","","","","","","","","","","","","","","","","","","","","","",""
"1359","","image-button-response","194","1521266","0.0-192.0-0.0","A2YLTA4QNKYSRY","img_art/9.jpg","5","","","","","","","","","","","","","","","","","","","","","","","","",""
"1343","","image-button-response","195","1522610","0.0-193.0-0.0","A2YLTA4QNKYSRY","img_art/9.jpg","2","","","","","","","","","","","","","","","","","","","","","","","","",""
"null","","html-keyboard-response","196","1523624","0.0-194.0","A2YLTA4QNKYSRY","<p style=""font-size: 48px;"">+</p>","","","","","null","allTrialResponses","1000","1","21","img_art/9.jpg","-31","Again. It looks very childish and I do not like it at all.","Dalton,Corey,Stephen,Adrian,Eric,Spencer","a mother in bed surrounded by emotions,1,300,20","keeps me interested. like the colors,17,260,20","Too much going on, don't know what the focus is,-11,140,20","Looks like my niece's doodles.,-50,60,20","I see some of my favorite colors which I like, but I don't like what's portrayed.,35,100,20","Depressing to me, like a dark dream,-11,120,20","Adrian","Looks like my niece's doodles.,-50,60,20","Spencer","Depressing to me, like a dark dream,-11,120,20","Stephen","Too much going on, don't know what the focus is,-11,140,20","4"
"32019","","survey-text","197","1555646","0.0-195.0-0.0","A2YLTA4QNKYSRY","","","","{""Q0"":""I like the concept and the colors. I love the faces in the sky.""}","","","","","","","","","","","","","","","","","","","","","","",""
"1610.8999999999069","","image-slider-response","198","1557258","0.0-196.0","A2YLTA4QNKYSRY","","","","","24","","","","","","","","","","","","","","","","","","","","","",""
"3185","","image-button-response","199","1562262","0.0-197.0","A2YLTA4QNKYSRY","img_art/8.jpg","1","","","","","","","","","","","","","","","","","","","","","","","","",""
"2165","","image-button-response","200","1564428","0.0-198.0","A2YLTA4QNKYSRY","img_art/8.jpg","2","","","","","","","","","","","","","","","","","","","","","","","","",""
"4186","","image-button-response","201","1568615","0.0-199.0-0.0","A2YLTA4QNKYSRY","img_art/8.jpg","4","","","","","","","","","","","","","","","","","","","","","","","","",""
"1734","","image-button-response","202","1570350","0.0-200.0-0.0","A2YLTA4QNKYSRY","img_art/8.jpg","0","","","","","","","","","","","","","","","","","","","","","","","","",""
"null","","html-keyboard-response","203","1570866","0.0-201.0","A2YLTA4QNKYSRY","<p style=""font-size: 48px;"">+</p>","","","","","null","allTrialResponses","500","1","22","img_art/8.jpg","24","I like the concept and the colors. I love the faces in the sky.","Brendan,Andrew,Stephen,Adrian,Tanner,Spencer","beautiful buildings,32,340,20","Looks like it would be an interesting place to live,35,160,20","Has nice depth to it.,12,140,20","Pleasant colors, lots of interest. Not sure what's going on but I like it.,20,60,20","mothe nature/godess, watching over you,21,180,20","Nice formats, I just don't like it much,-16,120,20","Stephen","Has nice depth to it.,12,140,20","Tanner","mothe nature/godess, watching over you,21,180,20","Brendan","beautiful buildings,32,340,20","4"
"46471","","survey-text","204","1617341","0.0-202.0-0.0","A2YLTA4QNKYSRY","","","","{""Q0"":""I do not know what is going on here. I like the yellow color though ""}","","","","","","","","","","","","","","","","","","","","","","",""
"4845.399999999907","","image-slider-response","205","1622187","0.0-203.0","A2YLTA4QNKYSRY","","","","","0","","","","","","","","","","","","","","","","","","","","","",""
"4692","","image-button-response","206","1627189","0.0-204.0","A2YLTA4QNKYSRY","img_art/5.jpg","1","","","","","","","","","","","","","","","","","","","","","","","","",""
"2236","","image-button-response","207","1629426","0.0-205.0","A2YLTA4QNKYSRY","img_art/5.jpg","2","","","","","","","","","","","","","","","","","","","","","","","","",""
"6847","","image-button-response","208","1636274","0.0-206.0-0.0","A2YLTA4QNKYSRY","img_art/5.jpg","5","","","","","","","","","","","","","","","","","","","","","","","","",""
"5178","","image-button-response","209","1641453","0.0-207.0-0.0","A2YLTA4QNKYSRY","img_art/5.jpg","3","","","","","","","","","","","","","","","","","","","","","","","","",""
"null","","html-keyboard-response","210","1642961","0.0-208.0","A2YLTA4QNKYSRY","<p style=""font-size: 48px;"">+</p>","","","","","null","allTrialResponses","1500","1","23","img_art/5.jpg","0","I do not know what is going on here. I like the yellow color though ","Brendan,Ryan,Stephen,Antonio,Tanner,Cole","a volcano erruption,21,340,20","Very good color coordination,41,380,20","Very little going on.,-4,140,20","Too much angular things happening, makes me think of stabbing something which makes me uncomfortable,-50,220,20","sharp, painful yet playful,-5,180,20","It looks like a poorly drawn pear,17,200,20","Stephen","Very little going on.,-4,140,20","Cole","It looks like a poorly drawn pear,17,200,20","Antonio","Too much angular things happening, makes me think of stabbing something which makes me uncomfortable,-50,220,20","4"
"39051","","survey-text","211","1682016","0.0-209.0-0.0","A2YLTA4QNKYSRY","","","","{""Q0"":""I see just strokes/lines""}","","","","","","","","","","","","","","","","","","","","","","",""
"3230","","image-slider-response","212","1685247","0.0-210.0","A2YLTA4QNKYSRY","","","","","-11","","","","","","","","","","","","","","","","","","","","","",""
"3434","","image-button-response","213","1690253","0.0-211.0","A2YLTA4QNKYSRY","img_art/3.jpg","2","","","","","","","","","","","","","","","","","","","","","","","","",""
"1433","","image-button-response","214","1691687","0.0-212.0","A2YLTA4QNKYSRY","img_art/3.jpg","4","","","","","","","","","","","","","","","","","","","","","","","","",""
"1232","","image-button-response","215","1692921","0.0-213.0-0.0","A2YLTA4QNKYSRY","img_art/3.jpg","2","","","","","","","","","","","","","","","","","","","","","","","","",""
"593","","image-button-response","216","1693514","0.0-214.0-0.0","A2YLTA4QNKYSRY","img_art/3.jpg","1","","","","","","","","","","","","","","","","","","","","","","","","",""
"null","","html-keyboard-response","217","1694519","0.0-215.0","A2YLTA4QNKYSRY","<p style=""font-size: 48px;"">+</p>","","","","","null","allTrialResponses","1000","1","24","img_art/3.jpg","-11","I see just strokes/lines","Alexander,Mason,Stephen,Antonio,Aaron,Cole","Somewhere between a child's art and a poorly drawn battle map.,8,120,20","scribbles in red. 2 minute piece.,-30,100,20","Don't see what the purpose is.,-31,140,20","The red makes me think of blood which makes me think of pain,-50,220,20","Definition of mediocre abstract art,-12,20,20","Sharp peaks look like sharp teeth,-37,200,20","Aaron","Definition of mediocre abstract art,-12,20,20","Stephen","Don't see what the purpose is.,-31,140,20","Mason","scribbles in red. 2 minute piece.,-30,100,20","4"
"28399","","survey-text","218","1722922","0.0-216.0-0.0","A2YLTA4QNKYSRY","","","","{""Q0"":""Too many colors. It looks like the night lights in the city""}","","","","","","","","","","","","","","","","","","","","","","",""
"1744","","image-slider-response","219","1724667","0.0-217.0","A2YLTA4QNKYSRY","","","","","-15","","","","","","","","","","","","","","","","","","","","","",""
"3257","","image-button-response","220","1729683","0.0-218.0","A2YLTA4QNKYSRY","img_art/23.jpg","1","","","","","","","","","","","","","","","","","","","","","","","","",""
"3275","","image-button-response","221","1732960","0.0-219.0","A2YLTA4QNKYSRY","img_art/23.jpg","5","","","","","","","","","","","","","","","","","","","","","","","","",""
"4867","","image-button-response","222","1737828","0.0-220.0-0.0","A2YLTA4QNKYSRY","img_art/23.jpg","1","","","","","","","","","","","","","","","","","","","","","","","","",""
"1754","","image-button-response","223","1739583","0.0-221.0-0.0","A2YLTA4QNKYSRY","img_art/23.jpg","2","","","","","","","","","","","","","","","","","","","","","","","","",""
"null","","html-keyboard-response","224","1740090","0.0-222.0","A2YLTA4QNKYSRY","<p style=""font-size: 48px;"">+</p>","","","","","null","allTrialResponses","500","1","25","img_art/23.jpg","-15","Too many colors. It looks like the night lights in the city","Tyler,Mason,Stephen,Thomas,Aaron,Peter","Looks celebratory and joyful! However, the photograph does not do the original work's colors justice.,27,320,20","No reactions, childish.,-19,100,20","Solid colors but the white throws it off for me.,4,140,20","Beautiful. Very detailed and colorful. I enjoy looking at it.,50,220,20","I love the colors and the contrast.,50,20,20","Reminds me of disco/70's, not my favorite design,-12,320,20","Peter","Reminds me of disco/70's, not my favorite design,-12,320,20","Mason","No reactions, childish.,-19,100,20","Stephen","Solid colors but the white throws it off for me.,4,140,20","4"
"4578","","survey-text","225","1744674","0.0-223.0-0.0","A2YLTA4QNKYSRY","","","","{""Q0"":""table""}","","","","","","","","","","","","","","","","","","","","","","",""
"23120","","survey-text","226","1767795","0.0-224.0-0.0","A2YLTA4QNKYSRY","","","","{""Q0"":""It looks beautiful. I do not what it is but I like it.""}","","","","","","","","","","","","","","","","","","","","","","",""
"2131.0999999996275","","image-slider-response","227","1769928","0.0-225.0","A2YLTA4QNKYSRY","","","","","13","","","","","","","","","","","","","","","","","","","","","",""
"3340","","image-button-response","228","1774933","0.0-226.0","A2YLTA4QNKYSRY","img_art/20.jpg","4","","","","","","","","","","","","","","","","","","","","","","","","",""
"765","","image-button-response","229","1775700","0.0-227.0","A2YLTA4QNKYSRY","img_art/20.jpg","2","","","","","","","","","","","","","","","","","","","","","","","","",""
"3419","","image-button-response","230","1779119","0.0-228.0-0.0","A2YLTA4QNKYSRY","img_art/20.jpg","5","","","","","","","","","","","","","","","","","","","","","","","","",""
"762","","image-button-response","231","1779884","0.0-229.0-0.0","A2YLTA4QNKYSRY","img_art/20.jpg","4","","","","","","","","","","","","","","","","","","","","","","","","",""
"null","","html-keyboard-response","232","1781395","0.0-230.0","A2YLTA4QNKYSRY","<p style=""font-size: 48px;"">+</p>","","","","","null","allTrialResponses","1500","1","26","img_art/20.jpg","13","It looks beautiful. I do not what it is but I like it.","Kyle,Mason,Stephen,Christian,Cody,Peter","This one is okay but I don't really care for it,5,340,20","Very cool, and calming (again) Love it.,47,100,20","Liked the background,15,140,20","reminds me of georgia o'keeffe's skull,22,140,20","I like the distortion of the objects, good colors,20,180,20","Little picturesque town that I would like to visit,19,320,20","Stephen","Liked the background,15,140,20","Peter","Little picturesque town that I would like to visit,19,320,20","Cody","I like the distortion of the objects, good colors,20,180,20","4"
"17765","","survey-text","233","1799164","0.0-231.0-0.0","A2YLTA4QNKYSRY","","","","{""Q0"":""There are many things going on""}","","","","","","","","","","","","","","","","","","","","","","",""
"7004.299999999814","","image-slider-response","234","1806169","0.0-232.0","A2YLTA4QNKYSRY","","","","","-1","","","","","","","","","","","","","","","","","","","","","",""
"null","","image-button-response","235","1811174","0.0-233.0","A2YLTA4QNKYSRY","img_art/29.jpg","null","","","","","","","","","","","","","","","","","","","","","","","","",""
"2564","","image-button-response","236","1813739","0.0-234.0","A2YLTA4QNKYSRY","img_art/29.jpg","5","","","","","","","","","","","","","","","","","","","","","","","","",""
"1482","","image-button-response","237","1815222","0.0-235.0-0.0","A2YLTA4QNKYSRY","img_art/29.jpg","4","","","","","","","","","","","","","","","","","","","","","","","","",""
"1205","","image-button-response","238","1816428","0.0-236.0-0.0","A2YLTA4QNKYSRY","img_art/29.jpg","3","","","","","","","","","","","","","","","","","","","","","","","","",""
"null","","html-keyboard-response","239","1817433","0.0-237.0","A2YLTA4QNKYSRY","<p style=""font-size: 48px;"">+</p>","","","","","null","allTrialResponses","1000","1","27","img_art/29.jpg","-1","There are many things going on","Chase,Jack,Stephen,Patrick,Cody,Peter","This is ugly as fuck,-50,120,20","risks well taken. the brush is hilarious. feels like an artist's frustration, which is relatable.,50,320,20","Really enjoy everything about this one.,50,140,20","I don't like the black,-50,280,20","Feels messy, stressful,-22,180,20","Looks like a jail cell,-15,320,20","Peter","Looks like a jail cell,-15,320,20","Cody","Feels messy, stressful,-22,180,20","Patrick","I don't like the black,-50,280,20","4"
"14501","","survey-text","240","1831939","0.0-238.0-0.0","A2YLTA4QNKYSRY","","","","{""Q0"":""I see no point in it.""}","","","","","","","","","","","","","","","","","","","","","","",""
"1947.2999999998137","","image-slider-response","241","1833887","0.0-239.0","A2YLTA4QNKYSRY","","","","","-21","","","","","","","","","","","","","","","","","","","","","",""
"3574","","image-button-response","242","1838892","0.0-240.0","A2YLTA4QNKYSRY","img_art/12.jpg","2","","","","","","","","","","","","","","","","","","","","","","","","",""
"2430","","image-button-response","243","1841323","0.0-241.0","A2YLTA4QNKYSRY","img_art/12.jpg","4","","","","","","","","","","","","","","","","","","","","","","","","",""
"2381","","image-button-response","244","1843706","0.0-242.0-0.0","A2YLTA4QNKYSRY","img_art/12.jpg","5","","","","","","","","","","","","","","","","","","","","","","","","",""
"881","","image-button-response","245","1844588","0.0-243.0-0.0","A2YLTA4QNKYSRY","img_art/12.jpg","2","","","","","","","","","","","","","","","","","","","","","","","","",""
"null","","html-keyboard-response","246","1845590","0.0-244.0","A2YLTA4QNKYSRY","<p style=""font-size: 48px;"">+</p>","","","","","null","allTrialResponses","1000","1","28","img_art/12.jpg","-21","I see no point in it.","Caleb,Isaac,William,Patrick,Cody,Peter","Almost natural flowing between abstract sections.,27,40,20","I like the gradient of little color on the top to colorful on the bottom.,24,280,20","to contemporary for me,3,380,20","I don't like the blocking,-20,280,20","Pretty but not a huge fan of the colors,20,180,20","Reminds me Early 2000's decor, don't favor it,-10,320,20","Cody","Pretty but not a huge fan of the colors,20,180,20","Peter","Reminds me Early 2000's decor, don't favor it,-10,320,20","William","to contemporary for me,3,380,20","4"
"13786","","survey-text","247","1859381","0.0-245.0-0.0","A2YLTA4QNKYSRY","","","","{""Q0"":""Kind of cute and creepy at the same time.""}","","","","","","","","","","","","","","","","","","","","","","",""
"1787.5","","image-slider-response","248","1861169","0.0-246.0","A2YLTA4QNKYSRY","","","","","-7","","","","","","","","","","","","","","","","","","","","","",""
"2587","","image-button-response","249","1866183","0.0-247.0","A2YLTA4QNKYSRY","img_art/16.jpg","0","","","","","","","","","","","","","","","","","","","","","","","","",""
"329","","image-button-response","250","1866513","0.0-248.0","A2YLTA4QNKYSRY","img_art/16.jpg","2","","","","","","","","","","","","","","","","","","","","","","","","",""
"1505","","image-button-response","251","1868019","0.0-249.0-0.0","A2YLTA4QNKYSRY","img_art/16.jpg","0","","","","","","","","","","","","","","","","","","","","","","","","",""
"3068","","image-button-response","252","1871088","0.0-250.0-0.0","A2YLTA4QNKYSRY","img_art/16.jpg","4","","","","","","","","","","","","","","","","","","","","","","","","",""
"null","","html-keyboard-response","253","1872091","0.0-251.0","A2YLTA4QNKYSRY","<p style=""font-size: 48px;"">+</p>","","","","","null","allTrialResponses","1000","1","29","img_art/16.jpg","-7","Kind of cute and creepy at the same time.","Dakota,Steven,William,Nathaniel,Cody,Peter","depressing and confrontational,-9,280,20","Not interested at all,-15,160,20","liked the bear, nothing else made sense,10,380,20","Creeps me out. Like..really creeps me out.,-48,220,20","Kind of creepyyyyyy,-41,180,20","It's a little unsettling,2,320,20","William","liked the bear, nothing else made sense,10,380,20","Dakota","depressing and confrontational,-9,280,20","Cody","Kind of creepyyyyyy,-41,180,20","4"
"19080","","survey-text","254","1891174","0.0-252.0-0.0","A2YLTA4QNKYSRY","","","","{""Q0"":""Very childish. ""}","","","","","","","","","","","","","","","","","","","","","","",""
"1601.9000000003725","","image-slider-response","255","1892777","0.0-253.0","A2YLTA4QNKYSRY","","","","","-28","","","","","","","","","","","","","","","","","","","","","",""
"3421","","image-button-response","256","1897785","0.0-254.0","A2YLTA4QNKYSRY","img_art/26.jpg","1","","","","","","","","","","","","","","","","","","","","","","","","",""
"654","","image-button-response","257","1898441","0.0-255.0","A2YLTA4QNKYSRY","img_art/26.jpg","4","","","","","","","","","","","","","","","","","","","","","","","","",""
"2431","","image-button-response","258","1900873","0.0-256.0-0.0","A2YLTA4QNKYSRY","img_art/26.jpg","5","","","","","","","","","","","","","","","","","","","","","","","","",""
"1010","","image-button-response","259","1901884","0.0-257.0-0.0","A2YLTA4QNKYSRY","img_art/26.jpg","1","","","","","","","","","","","","","","","","","","","","","","","","",""
"null","","html-keyboard-response","260","1903396","0.0-258.0","A2YLTA4QNKYSRY","<p style=""font-size: 48px;"">+</p>","","","","","null","allTrialResponses","1500","1","30","img_art/26.jpg","-28","Very childish. ","Dakota,Derek,William,Joseph,Cody,David","juvenile, faint and weak,-41,280,20","Looks messy and like it was painted by a small child,-48,360,20","feels a tad old,30,380,20","Looks like the suburbs. I live in those.,13,220,20","Looks unfinished,-31,180,20","The piece doesn't really invoke anything for me.,0,340,20","Cody","Looks unfinished,-31,180,20","David","The piece doesn't really invoke anything for me.,0,340,20","Derek","Looks messy and like it was painted by a small child,-48,360,20","4"
"5116","","image-button-response_instructions","261","1908515","0.0-259.0","A2YLTA4QNKYSRY","","0","instructions","","","","","","","","","","","","","","","","","","","","","","","",""
"1226","","image-button-response","262","1909745","0.0-260.0","A2YLTA4QNKYSRY","","0","","","","","","","","","","","","","","","","","","","","","","","","",""
