"rt","url","trial_type","trial_index","time_elapsed","internal_node_id","participant_id","stimulus","button_pressed","Name","responses","response","key_press","variableName","fixationTime","condition","trial","photo","subjectRating","subjectResponse","agentsNames","agent_1_Response","agent_2_Response","agent_3_Response","agent_4_Response","agent_5_Response","agent_6_Response","kept_1_name","kept_1_response","kept_2_name","kept_2_response","kept_3_name","kept_3_response","errorCounter"
"406800","external_page_harvard.html","external-html","0","407543","0.0-0.0","A2YZPA1SIVXL23","","","","","","","","","","","","","","","","","","","","","","","","","","",""
"1890","","image-button-response","1","409439","0.0-1.0","A2YZPA1SIVXL23","","0","","","","","","","","","","","","","","","","","","","","","","","","",""
"2061","","image-button-response","2","411510","0.0-2.0-0.0","A2YZPA1SIVXL23","","1","phone","","","","","","","","","","","","","","","","","","","","","","","",""
"3931","","survey-text","3","415443","0.0-3.0-0.0","A2YZPA1SIVXL23","","","","{""Q0"":""A2YZPA1SIVXL23""}","","","","","","","","","","","","","","","","","","","","","","",""
"16553","","image-button-response_instructions","4","432002","0.0-4.0","A2YZPA1SIVXL23","","0","instructions","","","","","","","","","","","","","","","","","","","","","","","",""
"19892","","image-button-response_instructions","5","451897","0.0-5.0","A2YZPA1SIVXL23","img_art/ins/popularity/ins1.png","0","instructions","","","","","","","","","","","","","","","","","","","","","","","",""
"3961","","image-button-response_instructions","6","455862","0.0-6.0","A2YZPA1SIVXL23","img_art/ins/popularity/ins2.png","0","instructions","","","","","","","","","","","","","","","","","","","","","","","",""
"3346","","image-button-response_instructions","7","459210","0.0-7.0","A2YZPA1SIVXL23","img_art/ins/popularity/ins2Extreme.png","0","instructions","","","","","","","","","","","","","","","","","","","","","","","",""
"11076","","image-button-response_instructions","8","470287","0.0-8.0","A2YZPA1SIVXL23","img_art/ins/popularity/ins3KEEPpop.PNG","0","instructions","","","","","","","","","","","","","","","","","","","","","","","",""
"3294","","image-button-response_instructions","9","473584","0.0-9.0","A2YZPA1SIVXL23","img_art/ins/popularity/ins3ANamepop.PNG","0","instructions","","","","","","","","","","","","","","","","","","","","","","","",""
"3642","","image-button-response_instructions","10","477228","0.0-10.0","A2YZPA1SIVXL23","img_art/ins/popularity/ins3ARatingpop.png","0","instructions","","","","","","","","","","","","","","","","","","","","","","","",""
"2338","","image-button-response_instructions","11","479568","0.0-11.0","A2YZPA1SIVXL23","img_art/ins/popularity/ins3ATextpop.png","0","instructions","","","","","","","","","","","","","","","","","","","","","","","",""
"2290","","image-button-response_instructions","12","481860","0.0-12.0","A2YZPA1SIVXL23","img_art/ins/popularity/ins3ALikespop.png","0","instructions","","","","","","","","","","","","","","","","","","","","","","","",""
"1008","","image-button-response_instructions","13","482872","0.0-13.0","A2YZPA1SIVXL23","img_art/ins/popularity/ins3KEEPpop.PNG","0","instructions","","","","","","","","","","","","","","","","","","","","","","","",""
"1062","","image-button-response_instructions","14","483936","0.0-14.0","A2YZPA1SIVXL23","img_art/ins/popularity/ins3_5RED.png","0","instructions","","","","","","","","","","","","","","","","","","","","","","","",""
"902","","image-button-response_instructions","15","484840","0.0-15.0","A2YZPA1SIVXL23","img_art/ins/popularity/ins3KEEPpop.PNG","0","instructions","","","","","","","","","","","","","","","","","","","","","","","",""
"1541","","image-button-response_instructions","16","486382","0.0-16.0","A2YZPA1SIVXL23","img_art/ins/popularity/ins4KEEPpop.PNG","0","instructions","","","","","","","","","","","","","","","","","","","","","","","",""
"6745","","image-button-response_instructions","17","493129","0.0-17.0","A2YZPA1SIVXL23","img_art/ins/popularity/ins5KEEPpop.PNG","0","instructions","","","","","","","","","","","","","","","","","","","","","","","",""
"1838","","image-button-response_instructions","18","494969","0.0-18.0","A2YZPA1SIVXL23","","0","instructions","","","","","","","","","","","","","","","","","","","","","","","",""
"5341","","survey-text","19","500345","0.0-19.0-0.0","A2YZPA1SIVXL23","","","","{""Q0"":""but""}","","","","","","","","","","","","","","","","","","","","","","",""
"7333","","survey-text","20","507680","0.0-20.0-0.0","A2YZPA1SIVXL23","","","","{""Q0"":""not bad""}","","","","","","","","","","","","","","","","","","","","","","",""
"3590","","image-slider-response","21","511277","0.0-21.0","A2YZPA1SIVXL23","","","","","32","","","","","","","","","","","","","","","","","","","","","",""
"3824","","image-button-response","22","516291","0.0-22.0","A2YZPA1SIVXL23","img_art/ins/1.jpg","1","","","","","","","","","","","","","","","","","","","","","","","","",""
"2640","","image-button-response","23","518934","0.0-23.0","A2YZPA1SIVXL23","img_art/ins/1.jpg","2","","","","","","","","","","","","","","","","","","","","","","","","",""
"8871","","image-button-response","24","527810","0.0-24.0-0.0","A2YZPA1SIVXL23","img_art/ins/1.jpg","1","","","","","","","","","","","","","","","","","","","","","","","","",""
"1012","","image-button-response","25","528829","0.0-25.0-0.0","A2YZPA1SIVXL23","img_art/ins/1.jpg","0","","","","","","","","","","","","","","","","","","","","","","","","",""
"null","","html-keyboard-response","26","530334","0.0-26.0","A2YZPA1SIVXL23","<p style=""font-size: 48px;"">+</p>","","","","","null","allTrialResponses","1500","1","-2","img_art/ins/1.jpg","32","not bad","Adam,Alex,Ben,Carl,Daniel,Jack","Seems like doodles,-20,20,20","very creative work.,36,40,20","This color reminds me of poo,-46,60,20","very calming artwork,42,80,20","It looks like a murder scene.,-48,100,20","I like the sophisticated brushwork,40,120,20","Ben","This color reminds me of poo,-46,60,20","Alex","very creative work.,36,40,20","Adam","Seems like doodles,-20,20,20","0"
"9156","","survey-text","27","539498","0.0-27.0-0.0","A2YZPA1SIVXL23","","","","{""Q0"":""Slightly good""}","","","","","","","","","","","","","","","","","","","","","","",""
"2914","","image-slider-response","28","542418","0.0-28.0","A2YZPA1SIVXL23","","","","","26","","","","","","","","","","","","","","","","","","","","","",""
"1382","","image-button-response","29","548193","0.0-29.0","A2YZPA1SIVXL23","img_art/ins/2.jpg","4","","","","","","","","","","","","","","","","","","","","","","","","",""
"2156","","image-button-response","30","550354","0.0-30.0","A2YZPA1SIVXL23","img_art/ins/2.jpg","4","","","","","","","","","","","","","","","","","","","","","","","","",""
"840","","image-button-response","31","551198","0.0-31.0-0.0","A2YZPA1SIVXL23","img_art/ins/2.jpg","5","","","","","","","","","","","","","","","","","","","","","","","","",""
"1153","","image-button-response","32","552355","0.0-32.0-0.0","A2YZPA1SIVXL23","img_art/ins/2.jpg","3","","","","","","","","","","","","","","","","","","","","","","","","",""
"null","","html-keyboard-response","33","552858","0.0-33.0","A2YZPA1SIVXL23","<p style=""font-size: 48px;"">+</p>","","","","","null","allTrialResponses","500","1","-1","img_art/ins/2.jpg","26","Slightly good","Adam,Alex,Ben,James,John,Kyle","too much color,-18,20,20","I like the blocks of color arrangements,30,40,20","meaningless painting,-45,60,20","looks too angry,-50,140,20","love the texture of paint,48,160,20","Idk, it is just annoying,-32,180,20","John","love the texture of paint,48,160,20","Kyle","Idk, it is just annoying,-32,180,20","James","looks too angry,-50,140,20","0"
"4809","","survey-text","34","557679","0.0-34.0-0.0","A2YZPA1SIVXL23","","","","{""Q0"":""Bad""}","","","","","","","","","","","","","","","","","","","","","","",""
"11746","","survey-text","35","571819","0.0-34.1-0.1","A2YZPA1SIVXL23","","","","{""Q0"":""Slightly good""}","","","","","","","","","","","","","","","","","","","","","","",""
"3148","","image-slider-response","36","574969","0.0-35.0","A2YZPA1SIVXL23","","","","","38","","","","","","","","","","","","","","","","","","","","","",""
"1869","","image-button-response","37","580195","0.0-36.0","A2YZPA1SIVXL23","img_art/ins/3.jpg","4","","","","","","","","","","","","","","","","","","","","","","","","",""
"4836","","image-button-response","38","585036","0.0-37.0","A2YZPA1SIVXL23","img_art/ins/3.jpg","4","","","","","","","","","","","","","","","","","","","","","","","","",""
"1448","","image-button-response","39","586491","0.0-38.0-0.0","A2YZPA1SIVXL23","img_art/ins/3.jpg","1","","","","","","","","","","","","","","","","","","","","","","","","",""
"590","","image-button-response","40","587086","0.0-39.0-0.0","A2YZPA1SIVXL23","img_art/ins/3.jpg","0","","","","","","","","","","","","","","","","","","","","","","","","",""
"null","","html-keyboard-response","41","588088","0.0-40.0","A2YZPA1SIVXL23","<p style=""font-size: 48px;"">+</p>","","","","","null","allTrialResponses","1000","1","0","img_art/ins/3.jpg","38","Slightly good","Mike,Ron,Sam,James,John,Kyle","enjoy the different shades of blue,22,200,20","It looks depressing,-26,220,20","I can feel a rainy day from this painting,18,240,20","My worst nightmare,-42,140,20","I like the overlapping of brushes,41,160,20","It looks like a playground for bats,-36,180,20","John","I like the overlapping of brushes,41,160,20","Ron","It looks depressing,-26,220,20","Mike","enjoy the different shades of blue,22,200,20","0"
"2289","","image-button-response_instructions","42","590385","0.0-41.0","A2YZPA1SIVXL23","","0","instructions","","","","","","","","","","","","","","","","","","","","","","","",""
"10495","","survey-likert","43","600887","0.0-42.0-0.0","A2YZPA1SIVXL23","","","","{""Q0"":"""",""Q1"":0,""Q2"":1}","","","","","","","","","","","","","","","","","","","","","","",""
"4574","","survey-text","44","605475","0.0-43.0-0.0","A2YZPA1SIVXL23","","","","{""Q0"":""rock""}","","","","","","","","","","","","","","","","","","","","","","",""
"10062","","survey-text","45","615540","0.0-44.0-0.0","A2YZPA1SIVXL23","","","","{""Q0"":""Wonderful""}","","","","","","","","","","","","","","","","","","","","","","",""
"2278","","image-slider-response","46","617825","0.0-45.0","A2YZPA1SIVXL23","","","","","14","","","","","","","","","","","","","","","","","","","","","",""
"4007","","image-button-response","47","622863","0.0-46.0","A2YZPA1SIVXL23","img_art/21.jpg","2","","","","","","","","","","","","","","","","","","","","","","","","",""
"865","","image-button-response","48","623734","0.0-47.0","A2YZPA1SIVXL23","img_art/21.jpg","2","","","","","","","","","","","","","","","","","","","","","","","","",""
"511","","image-button-response","49","624251","0.0-48.0-0.0","A2YZPA1SIVXL23","img_art/21.jpg","1","","","","","","","","","","","","","","","","","","","","","","","","",""
"1092","","image-button-response","50","625347","0.0-49.0-0.0","A2YZPA1SIVXL23","img_art/21.jpg","0","","","","","","","","","","","","","","","","","","","","","","","","",""
"null","","html-keyboard-response","51","626854","0.0-50.0","A2YZPA1SIVXL23","<p style=""font-size: 48px;"">+</p>","","","","","null","allTrialResponses","1500","1","1","img_art/21.jpg","14","Wonderful","Cody,Evan,Isaac,Nicholas,Shawn,Michael","Pretty, good colors,30,180,20","I feel confused,-18,140,20","I like the colors. It looks dramatic.,5,280,20","Love the colors and the relationship between the light and storm,50,240,20","Lovely colors and emotive effects. Turner-esque in a not-so derivative way.,44,100,20","What's the point?,-30,140,20","Isaac","I like the colors. It looks dramatic.,5,280,20","Evan","I feel confused,-18,140,20","Cody","Pretty, good colors,30,180,20","0"
"19730","","survey-text","52","646599","0.0-51.0-0.0","A2YZPA1SIVXL23","","","","{""Q0"":""Amazing""}","","","","","","","","","","","","","","","","","","","","","","",""
"24906","","image-slider-response","53","671510","0.0-52.0","A2YZPA1SIVXL23","","","","","37","","","","","","","","","","","","","","","","","","","","","",""
"2685","","image-button-response","54","676518","0.0-53.0","A2YZPA1SIVXL23","img_art/8.jpg","5","","","","","","","","","","","","","","","","","","","","","","","","",""
"6010","","image-button-response","55","682532","0.0-54.0","A2YZPA1SIVXL23","img_art/8.jpg","4","","","","","","","","","","","","","","","","","","","","","","","","",""
"491","","image-button-response","56","683029","0.0-55.0-0.0","A2YZPA1SIVXL23","img_art/8.jpg","5","","","","","","","","","","","","","","","","","","","","","","","","",""
"1315","","image-button-response","57","684348","0.0-56.0-0.0","A2YZPA1SIVXL23","img_art/8.jpg","2","","","","","","","","","","","","","","","","","","","","","","","","",""
"null","","html-keyboard-response","58","684857","0.0-57.0","A2YZPA1SIVXL23","<p style=""font-size: 48px;"">+</p>","","","","","null","allTrialResponses","500","1","2","img_art/8.jpg","37","Amazing","Cody,Evan,Isaac,William,Jason,Christopher","Love the colors & block-style,50,180,20","I can't tell if this is supposed to portray just city life or a town crumbling,-5,140,20","It looks like it took a lot of time to complete.,34,280,20","makes me think of a busy city,-18,380,20","There are a lot of different interesting elements in the picture.,12,20,20","it's interesting but i don't enjoy the style,-5,160,20","Jason","There are a lot of different interesting elements in the picture.,12,20,20","Christopher","it's interesting but i don't enjoy the style,-5,160,20","Isaac","It looks like it took a lot of time to complete.,34,280,20","0"
"5691","","survey-text","59","690555","0.0-58.0-0.0","A2YZPA1SIVXL23","","","","{""Q0"":""Not bad""}","","","","","","","","","","","","","","","","","","","","","","",""
"7197","","image-slider-response","60","697755","0.0-59.0","A2YZPA1SIVXL23","","","","","14","","","","","","","","","","","","","","","","","","","","","",""
"null","","image-button-response","61","702958","0.0-60.0","A2YZPA1SIVXL23","img_art/23.jpg","null","","","","","","","","","","","","","","","","","","","","","","","","",""
"7266","","image-button-response","62","710227","0.0-61.0","A2YZPA1SIVXL23","img_art/23.jpg","4","","","","","","","","","","","","","","","","","","","","","","","","",""
"1566","","image-button-response","63","711799","0.0-62.0-0.0","A2YZPA1SIVXL23","img_art/23.jpg","4","","","","","","","","","","","","","","","","","","","","","","","","",""
"958","","image-button-response","64","717232","0.0-62.1-0.1","A2YZPA1SIVXL23","img_art/23.jpg","0","","","","","","","","","","","","","","","","","","","","","","","","",""
"872","","image-button-response","65","718107","0.0-63.0-0.0","A2YZPA1SIVXL23","img_art/23.jpg","1","","","","","","","","","","","","","","","","","","","","","","","","",""
"null","","html-keyboard-response","66","718611","0.0-64.0","A2YZPA1SIVXL23","<p style=""font-size: 48px;"">+</p>","","","","","null","allTrialResponses","500","1","3","img_art/23.jpg","14","Not bad","Brett,Isaiah,Isaac,Jonathan,Jason,Christopher","Universal celebration,40,360,20","I feel happy and a little excited. Like watching fireworks with family.,26,300,20","I like the royal colors.,38,280,20","Those colors are awesome! And I love the strip of negative space that almost looks like a line of people,50,140,20","Interesting contrast,9,20,20","it's not uninteresting, but i'm not responding to it,-7,160,20","Jason","Interesting contrast,9,20,20","Brett","Universal celebration,40,360,20","Isaiah","I feel happy and a little excited. Like watching fireworks with family.,26,300,20","2"
"24374","","survey-text","67","742998","0.0-65.0-0.0","A2YZPA1SIVXL23","","","","{""Q0"":""wonderful""}","","","","","","","","","","","","","","","","","","","","","","",""
"2592","","image-slider-response","68","745598","0.0-66.0","A2YZPA1SIVXL23","","","","","27","","","","","","","","","","","","","","","","","","","","","",""
"null","","image-button-response","69","750606","0.0-67.0","A2YZPA1SIVXL23","img_art/20.jpg","null","","","","","","","","","","","","","","","","","","","","","","","","",""
"39281","","image-button-response","70","789891","0.0-68.0","A2YZPA1SIVXL23","img_art/20.jpg","2","","","","","","","","","","","","","","","","","","","","","","","","",""
"511","","image-button-response","71","790407","0.0-69.0-0.0","A2YZPA1SIVXL23","img_art/20.jpg","1","","","","","","","","","","","","","","","","","","","","","","","","",""
"514","","image-button-response","72","790929","0.0-70.0-0.0","A2YZPA1SIVXL23","img_art/20.jpg","0","","","","","","","","","","","","","","","","","","","","","","","","",""
"null","","html-keyboard-response","73","791932","0.0-71.0","A2YZPA1SIVXL23","<p style=""font-size: 48px;"">+</p>","","","","","null","allTrialResponses","1000","1","4","img_art/20.jpg","27","wonderful","Brett,Isaiah,Tanner,Hunter,Jason,Carlos","City life vs shore life,40,360,20","I feel powerful, like I am looking out a window at this machine, that I am in charge.,17,300,20","danger, car crash, stressful,-12,180,20","feels underdeveloped,-11,240,20","The picture looks smudged and dirty,-4,20,20","It feels like it ""almost"" several things.,-10,80,20","Tanner","danger, car crash, stressful,-12,180,20","Isaiah","I feel powerful, like I am looking out a window at this machine, that I am in charge.,17,300,20","Brett","City life vs shore life,40,360,20","2"
"8798","","survey-text","74","800739","0.0-72.0-0.0","A2YZPA1SIVXL23","","","","{""Q0"":""Wonderful""}","","","","","","","","","","","","","","","","","","","","","","",""
"3150","","image-slider-response","75","803894","0.0-73.0","A2YZPA1SIVXL23","","","","","29","","","","","","","","","","","","","","","","","","","","","",""
"1951","","image-button-response","76","809012","0.0-74.0","A2YZPA1SIVXL23","img_art/22.jpg","4","","","","","","","","","","","","","","","","","","","","","","","","",""
"695","","image-button-response","77","809710","0.0-75.0","A2YZPA1SIVXL23","img_art/22.jpg","0","","","","","","","","","","","","","","","","","","","","","","","","",""
"721","","image-button-response","78","810433","0.0-76.0-0.0","A2YZPA1SIVXL23","img_art/22.jpg","1","","","","","","","","","","","","","","","","","","","","","","","","",""
"817","","image-button-response","79","811252","0.0-77.0-0.0","A2YZPA1SIVXL23","img_art/22.jpg","2","","","","","","","","","","","","","","","","","","","","","","","","",""
"null","","html-keyboard-response","80","812276","0.0-78.0","A2YZPA1SIVXL23","<p style=""font-size: 48px;"">+</p>","","","","","null","allTrialResponses","1000","1","5","img_art/22.jpg","29","Wonderful","Brett,Isaiah,Tanner,Charles,Cole,Benjamin","Climate change in a big city,35,360,20","The painting makes me feel a little sad.,12,300,20","fire, danger, resentful,-17,180,20","I like the key near the sphere in the center,19,100,20","Bright colors feel warm,22,200,20","Colors are bright and cheerful.,5,260,20","Brett","Climate change in a big city,35,360,20","Isaiah","The painting makes me feel a little sad.,12,300,20","Tanner","fire, danger, resentful,-17,180,20","2"
"4062","","survey-text","81","816361","0.0-79.0-0.0","A2YZPA1SIVXL23","","","","{""Q0"":""sky""}","","","","","","","","","","","","","","","","","","","","","","",""
"24002","","survey-text","82","840367","0.0-80.0-0.0","A2YZPA1SIVXL23","","","","{""Q0"":""Not bad""}","","","","","","","","","","","","","","","","","","","","","","",""
"2659","","image-slider-response","83","843030","0.0-81.0","A2YZPA1SIVXL23","","","","","26","","","","","","","","","","","","","","","","","","","","","",""
"null","","image-button-response","84","848194","0.0-82.0","A2YZPA1SIVXL23","img_art/27.jpg","null","","","","","","","","","","","","","","","","","","","","","","","","",""
"3919","","image-button-response","85","852118","0.0-83.0","A2YZPA1SIVXL23","img_art/27.jpg","3","","","","","","","","","","","","","","","","","","","","","","","","",""
"884","","image-button-response","86","853007","0.0-84.0-0.0","A2YZPA1SIVXL23","img_art/27.jpg","4","","","","","","","","","","","","","","","","","","","","","","","","",""
"1087","","image-button-response","87","854098","0.0-85.0-0.0","A2YZPA1SIVXL23","img_art/27.jpg","2","","","","","","","","","","","","","","","","","","","","","","","","",""
"null","","html-keyboard-response","88","854602","0.0-86.0","A2YZPA1SIVXL23","<p style=""font-size: 48px;"">+</p>","","","","","null","allTrialResponses","500","1","6","img_art/27.jpg","26","Not bad","Brett,Isaiah,Tanner,Corey,Noah,Mark","Soothing in the middle of some confusion,40,360,20","I feel peaceful and a little nervous at the same time.,11,300,20","makes me think of fume clouds, low visibility,-28,180,20","this is ugly and does nothing for me,-35,260,20","I generally enjoy the style, but I'm finding the green lines grating,-9,260,20","I see a cathedral through the woods.,12,80,20","Corey","this is ugly and does nothing for me,-35,260,20","Noah","I generally enjoy the style, but I'm finding the green lines grating,-9,260,20","Tanner","makes me think of fume clouds, low visibility,-28,180,20","2"
"11046","","survey-text","89","865657","0.0-87.0-0.0","A2YZPA1SIVXL23","","","","{""Q0"":""Amazing""}","","","","","","","","","","","","","","","","","","","","","","",""
"6535","","image-slider-response","90","872198","0.0-88.0","A2YZPA1SIVXL23","","","","","30","","","","","","","","","","","","","","","","","","","","","",""
"null","","image-button-response","91","877203","0.0-89.0","A2YZPA1SIVXL23","img_art/13.jpg","null","","","","","","","","","","","","","","","","","","","","","","","","",""
"16169","","image-button-response","92","893377","0.0-90.0","A2YZPA1SIVXL23","img_art/13.jpg","1","","","","","","","","","","","","","","","","","","","","","","","","",""
"563","","image-button-response","93","893945","0.0-91.0-0.0","A2YZPA1SIVXL23","img_art/13.jpg","0","","","","","","","","","","","","","","","","","","","","","","","","",""
"1136","","image-button-response","94","895087","0.0-92.0-0.0","A2YZPA1SIVXL23","img_art/13.jpg","2","","","","","","","","","","","","","","","","","","","","","","","","",""
"null","","html-keyboard-response","95","896091","0.0-93.0","A2YZPA1SIVXL23","<p style=""font-size: 48px;"">+</p>","","","","","null","allTrialResponses","1000","1","7","img_art/13.jpg","30","Amazing","Patrick,Victor,Tanner,Corey,Noah,Eric","I love the different blue shades,31,280,20","Great color balance. I like the splatter, and how the vertical lines go from sharper to more blended.,31,340,20","happy, serenity,30,180,20","i like the splatters and the colors,21,260,20","evokes a dampening feeling,-9,260,20","I love the style of this piece, but the color choice could've been more eye catching or calming.,40,100,20","Victor","Great color balance. I like the splatter, and how the vertical lines go from sharper to more blended.,31,340,20","Patrick","I love the different blue shades,31,280,20","Tanner","happy, serenity,30,180,20","2"
"35069","","survey-text","96","931170","0.0-94.0-0.0","A2YZPA1SIVXL23","","","","{""Q0"":""Wonderful""}","","","","","","","","","","","","","","","","","","","","","","",""
"3267","","image-slider-response","97","934444","0.0-95.0","A2YZPA1SIVXL23","","","","","31","","","","","","","","","","","","","","","","","","","","","",""
"2229","","image-button-response","98","939459","0.0-96.0","A2YZPA1SIVXL23","img_art/11.jpg","1","","","","","","","","","","","","","","","","","","","","","","","","",""
"1042","","image-button-response","99","940504","0.0-97.0","A2YZPA1SIVXL23","img_art/11.jpg","0","","","","","","","","","","","","","","","","","","","","","","","","",""
"634","","image-button-response","100","941145","0.0-98.0-0.0","A2YZPA1SIVXL23","img_art/11.jpg","1","","","","","","","","","","","","","","","","","","","","","","","","",""
"3407","","image-button-response","101","944562","0.0-99.0-0.0","A2YZPA1SIVXL23","img_art/11.jpg","2","","","","","","","","","","","","","","","","","","","","","","","","",""
"null","","html-keyboard-response","102","945564","0.0-100.0","A2YZPA1SIVXL23","<p style=""font-size: 48px;"">+</p>","","","","","null","allTrialResponses","1000","1","8","img_art/11.jpg","31","Wonderful","Patrick,Victor,Tanner,Jesus,Mason,Matthew","Looks sad but clean,31,280,20","Love the colors against the black and gray. The lines are calming.,22,340,20","small town, friendly. calm,35,180,20","The different textures and colors make this pleasing to look at.,30,100,20","dna, odd but nice.,25,100,20","Dark but bright, city but ocean, musical scales.,50,120,20","Patrick","Looks sad but clean,31,280,20","Victor","Love the colors against the black and gray. The lines are calming.,22,340,20","Tanner","small town, friendly. calm,35,180,20","2"
"22075","","survey-text","103","967651","0.0-101.0-0.0","A2YZPA1SIVXL23","","","","{""Q0"":""Not bad""}","","","","","","","","","","","","","","","","","","","","","","",""
"19638","","image-slider-response","104","987292","0.0-102.0","A2YZPA1SIVXL23","","","","","18","","","","","","","","","","","","","","","","","","","","","",""
"null","","image-button-response","105","992298","0.0-103.0","A2YZPA1SIVXL23","img_art/26.jpg","null","","","","","","","","","","","","","","","","","","","","","","","","",""
"1315","","image-button-response","106","993616","0.0-104.0","A2YZPA1SIVXL23","img_art/26.jpg","1","","","","","","","","","","","","","","","","","","","","","","","","",""
"532","","image-button-response","107","994152","0.0-105.0-0.0","A2YZPA1SIVXL23","img_art/26.jpg","0","","","","","","","","","","","","","","","","","","","","","","","","",""
"758","","image-button-response","108","994915","0.0-106.0-0.0","A2YZPA1SIVXL23","img_art/26.jpg","2","","","","","","","","","","","","","","","","","","","","","","","","",""
"null","","html-keyboard-response","109","995918","0.0-107.0","A2YZPA1SIVXL23","<p style=""font-size: 48px;"">+</p>","","","","","null","allTrialResponses","1000","1","9","img_art/26.jpg","18","Not bad","Patrick,Victor,Tanner,Justin,Alex,Taylor","I can somewhat city a city in this drawing,11,280,20","the trees are cool,1,340,20","happy, park, childhood,9,180,20","It looks boring and too rough.,-9,280,20","I can make out a street view and I am a fan of watercolors but still too boring,15,100,20","At least it is a bit of scenery.,10,200,20","Victor","the trees are cool,1,340,20","Patrick","I can somewhat city a city in this drawing,11,280,20","Tanner","happy, park, childhood,9,180,20","2"
"15331","","survey-text","110","1011267","0.0-108.0-0.0","A2YZPA1SIVXL23","","","","{""Q0"":""great thinking""}","","","","","","","","","","","","","","","","","","","","","","",""
"2668","","image-slider-response","111","1013938","0.0-109.0","A2YZPA1SIVXL23","","","","","17","","","","","","","","","","","","","","","","","","","","","",""
"null","","image-button-response","112","1018954","0.0-110.0","A2YZPA1SIVXL23","img_art/28.jpg","null","","","","","","","","","","","","","","","","","","","","","","","","",""
"846","","image-button-response","113","1019804","0.0-111.0","A2YZPA1SIVXL23","img_art/28.jpg","4","","","","","","","","","","","","","","","","","","","","","","","","",""
"1337","","image-button-response","114","1021145","0.0-112.0-0.0","A2YZPA1SIVXL23","img_art/28.jpg","1","","","","","","","","","","","","","","","","","","","","","","","","",""
"1109","","image-button-response","115","1022259","0.0-113.0-0.0","A2YZPA1SIVXL23","img_art/28.jpg","0","","","","","","","","","","","","","","","","","","","","","","","","",""
"null","","html-keyboard-response","116","1022768","0.0-114.0","A2YZPA1SIVXL23","<p style=""font-size: 48px;"">+</p>","","","","","null","allTrialResponses","500","1","10","img_art/28.jpg","17","great thinking","Patrick,Victor,Tanner,Antonio,Samuel,John","This swirly drawing i snot my type I get confused and dizzy,-20,280,20","Almost looks like child's artwork, sloppy and chaotic,6,340,20","almost reminds me of thomas becket getting his head cut off,21,180,20","Colors are pleasing. Made me think of two people kneeling and talking. A curious feeling.,15,220,20","conversating means hope,15,400,20","Not a fan of the bleak and dreary colors,-10,120,20","Samuel","conversating means hope,15,400,20","Victor","Almost looks like child's artwork, sloppy and chaotic,6,340,20","Patrick","This swirly drawing i snot my type I get confused and dizzy,-20,280,20","2"
"4589","","survey-text","117","1027384","0.0-115.0-0.0","A2YZPA1SIVXL23","","","","{""Q0"":""our""}","","","","","","","","","","","","","","","","","","","","","","",""
"8103","","survey-text","118","1035490","0.0-116.0-0.0","A2YZPA1SIVXL23","","","","{""Q0"":""Beautiful""}","","","","","","","","","","","","","","","","","","","","","","",""
"2981","","image-slider-response","119","1038474","0.0-117.0","A2YZPA1SIVXL23","","","","","20","","","","","","","","","","","","","","","","","","","","","",""
"null","","image-button-response","120","1044215","0.0-118.0","A2YZPA1SIVXL23","img_art/14.jpg","null","","","","","","","","","","","","","","","","","","","","","","","","",""
"2155","","image-button-response","121","1046373","0.0-119.0","A2YZPA1SIVXL23","img_art/14.jpg","1","","","","","","","","","","","","","","","","","","","","","","","","",""
"953","","image-button-response","122","1047330","0.0-120.0-0.0","A2YZPA1SIVXL23","img_art/14.jpg","4","","","","","","","","","","","","","","","","","","","","","","","","",""
"1438","","image-button-response","123","1048771","0.0-121.0-0.0","A2YZPA1SIVXL23","img_art/14.jpg","0","","","","","","","","","","","","","","","","","","","","","","","","",""
"null","","html-keyboard-response","124","1050273","0.0-122.0","A2YZPA1SIVXL23","<p style=""font-size: 48px;"">+</p>","","","","","null","allTrialResponses","1500","1","11","img_art/14.jpg","20","Beautiful","Patrick,Victor,Caleb,Angel,Samuel,Bryce","It uplifts my mood due to the color scheme,32,280,20","Meh. Pleasant to look at. Colors are nice,6,340,20","Again. This is pretty neutral, leaning dislike.,-18,40,20","This reminds me of a tree but the tree is sickly, and poorly cared for.,-10,180,20","tree of life brings hope,7,400,20","The red looks like blood and im not a huge fan,15,20,20","Victor","Meh. Pleasant to look at. Colors are nice,6,340,20","Samuel","tree of life brings hope,7,400,20","Patrick","It uplifts my mood due to the color scheme,32,280,20","2"
"8483","","survey-text","125","1058766","0.0-123.0-0.0","A2YZPA1SIVXL23","","","","{""Q0"":""Greatful""}","","","","","","","","","","","","","","","","","","","","","","",""
"3192","","image-slider-response","126","1061962","0.0-124.0","A2YZPA1SIVXL23","","","","","25","","","","","","","","","","","","","","","","","","","","","",""
"null","","image-button-response","127","1066968","0.0-125.0","A2YZPA1SIVXL23","img_art/30.jpg","null","","","","","","","","","","","","","","","","","","","","","","","","",""
"9053","","image-button-response","128","1076026","0.0-126.0","A2YZPA1SIVXL23","img_art/30.jpg","1","","","","","","","","","","","","","","","","","","","","","","","","",""
"1525","","image-button-response","129","1077560","0.0-127.0-0.0","A2YZPA1SIVXL23","img_art/30.jpg","4","","","","","","","","","","","","","","","","","","","","","","","","",""
"1103","","image-button-response","130","1078666","0.0-128.0-0.0","A2YZPA1SIVXL23","img_art/30.jpg","2","","","","","","","","","","","","","","","","","","","","","","","","",""
"null","","html-keyboard-response","131","1079168","0.0-129.0","A2YZPA1SIVXL23","<p style=""font-size: 48px;"">+</p>","","","","","null","allTrialResponses","500","1","12","img_art/30.jpg","25","Greatful","Patrick,Victor,Jack,Travis,Samuel,Austin","I don't like the blended colors,-20,280,20","I just don't see the point of this piece,-11,340,20","love the movement of the brush strokes. very interesting piece.,38,320,20","I didn't like this...it looks like someone just finger painted it.,-10,260,20","perceiving greatness,20,400,20","Love the bold brush strokes and the illusion it creates,50,240,20","Victor","I just don't see the point of this piece,-11,340,20","Samuel","perceiving greatness,20,400,20","Jack","love the movement of the brush strokes. very interesting piece.,38,320,20","2"
"8163","","survey-text","132","1087346","0.0-130.0-0.0","A2YZPA1SIVXL23","","","","{""Q0"":""Amazing""}","","","","","","","","","","","","","","","","","","","","","","",""
"3397","","image-slider-response","133","1090746","0.0-131.0","A2YZPA1SIVXL23","","","","","24","","","","","","","","","","","","","","","","","","","","","",""
"null","","image-button-response","134","1096265","0.0-132.0","A2YZPA1SIVXL23","img_art/9.jpg","null","","","","","","","","","","","","","","","","","","","","","","","","",""
"5449","","image-button-response","135","1101718","0.0-133.0","A2YZPA1SIVXL23","img_art/9.jpg","4","","","","","","","","","","","","","","","","","","","","","","","","",""
"1619","","image-button-response","136","1103342","0.0-134.0-0.0","A2YZPA1SIVXL23","img_art/9.jpg","1","","","","","","","","","","","","","","","","","","","","","","","","",""
"742","","image-button-response","137","1104089","0.0-135.0-0.0","A2YZPA1SIVXL23","img_art/9.jpg","0","","","","","","","","","","","","","","","","","","","","","","","","",""
"null","","html-keyboard-response","138","1104592","0.0-136.0","A2YZPA1SIVXL23","<p style=""font-size: 48px;"">+</p>","","","","","null","allTrialResponses","500","1","13","img_art/9.jpg","24","Amazing","Devon,Victor,Jack,Joseph,Samuel,Grant","this looks to be a child nightmare,-10,400,20","The colors are okay, but this looks like someone scribbled with a crayon,1,340,20","gorgeous colors, love the little details,42,320,20","It's nice. Peaceful. Calming.,11,220,20","what a wild ride,11,400,20","The colors are pretty, and remind me of a circus.,5,200,20","Samuel","what a wild ride,11,400,20","Victor","The colors are okay, but this looks like someone scribbled with a crayon,1,340,20","Devon","this looks to be a child nightmare,-10,400,20","2"
"11837","","survey-text","139","1116446","0.0-137.0-0.0","A2YZPA1SIVXL23","","","","{""Q0"":""not bad""}","","","","","","","","","","","","","","","","","","","","","","",""
"2659","","image-slider-response","140","1119112","0.0-138.0","A2YZPA1SIVXL23","","","","","30","","","","","","","","","","","","","","","","","","","","","",""
"null","","image-button-response","141","1124248","0.0-139.0","A2YZPA1SIVXL23","img_art/29.jpg","null","","","","","","","","","","","","","","","","","","","","","","","","",""
"5694","","image-button-response","142","1129945","0.0-140.0","A2YZPA1SIVXL23","img_art/29.jpg","1","","","","","","","","","","","","","","","","","","","","","","","","",""
"1590","","image-button-response","143","1131539","0.0-141.0-0.0","A2YZPA1SIVXL23","img_art/29.jpg","4","","","","","","","","","","","","","","","","","","","","","","","","",""
"811","","image-button-response","144","1132354","0.0-142.0-0.0","A2YZPA1SIVXL23","img_art/29.jpg","3","","","","","","","","","","","","","","","","","","","","","","","","",""
"null","","html-keyboard-response","145","1133856","0.0-143.0","A2YZPA1SIVXL23","<p style=""font-size: 48px;"">+</p>","","","","","null","allTrialResponses","1500","1","14","img_art/29.jpg","30","not bad","Devon,Victor,Mitchell,Timothy,Samuel,Alejandro","seems fun, looks like a battle zone,22,400,20","I like the colors but it looks very amateur,1,340,20","death, darkness, negative picture,-31,180,20","Doesnt say much for me,0,240,20","too challenging to comprehend,-28,400,20","Reminiscent of Jackson Pollock with a hint of abstract structure with the bordering.,32,80,20","Victor","I like the colors but it looks very amateur,1,340,20","Samuel","too challenging to comprehend,-28,400,20","Timothy","Doesnt say much for me,0,240,20","2"
"16040","","survey-text","146","1149906","0.0-144.0-0.0","A2YZPA1SIVXL23","","","","{""Q0"":""Greatful""}","","","","","","","","","","","","","","","","","","","","","","",""
"2714","","image-slider-response","147","1152626","0.0-145.0","A2YZPA1SIVXL23","","","","","28","","","","","","","","","","","","","","","","","","","","","",""
"null","","image-button-response","148","1157656","0.0-146.0","A2YZPA1SIVXL23","img_art/7.jpg","null","","","","","","","","","","","","","","","","","","","","","","","","",""
"888","","image-button-response","149","1158548","0.0-147.0","A2YZPA1SIVXL23","img_art/7.jpg","1","","","","","","","","","","","","","","","","","","","","","","","","",""
"1459","","image-button-response","150","1160011","0.0-148.0-0.0","A2YZPA1SIVXL23","img_art/7.jpg","4","","","","","","","","","","","","","","","","","","","","","","","","",""
"339","","image-button-response","151","1160355","0.0-149.0-0.0","A2YZPA1SIVXL23","img_art/7.jpg","5","","","","","","","","","","","","","","","","","","","","","","","","",""
"null","","html-keyboard-response","152","1160894","0.0-150.0","A2YZPA1SIVXL23","<p style=""font-size: 48px;"">+</p>","","","","","null","allTrialResponses","500","1","15","img_art/7.jpg","28","Greatful","Dustin,Victor,Chase,Timothy,Samuel,Logan","I see dryness, which is sad. Dirt, sand, the dessert. Barren dry lifeless,-30,20,20","I like the texture,12,340,20","Just looks like rocks or some kind of mineral.,0,120,20","This feels very earthy and grounded,20,240,20","looking down on earth,19,400,20","mars also crunchy leaves maybe a beehive,32,360,20","Victor","I like the texture,12,340,20","Samuel","looking down on earth,19,400,20","Logan","mars also crunchy leaves maybe a beehive,32,360,20","2"
"5902","","survey-text","153","1166819","0.0-151.0-0.0","A2YZPA1SIVXL23","","","","{""Q0"":""course""}","","","","","","","","","","","","","","","","","","","","","","",""
"8455","","survey-text","154","1175278","0.0-152.0-0.0","A2YZPA1SIVXL23","","","","{""Q0"":""Beautiful""}","","","","","","","","","","","","","","","","","","","","","","",""
"3088","","image-slider-response","155","1178378","0.0-153.0","A2YZPA1SIVXL23","","","","","29","","","","","","","","","","","","","","","","","","","","","",""
"null","","image-button-response","156","1183379","0.0-154.0","A2YZPA1SIVXL23","img_art/4.jpg","null","","","","","","","","","","","","","","","","","","","","","","","","",""
"1687","","image-button-response","157","1185072","0.0-155.0","A2YZPA1SIVXL23","img_art/4.jpg","2","","","","","","","","","","","","","","","","","","","","","","","","",""
"474","","image-button-response","158","1185551","0.0-156.0-0.0","A2YZPA1SIVXL23","img_art/4.jpg","1","","","","","","","","","","","","","","","","","","","","","","","","",""
"297","","image-button-response","159","1185852","0.0-157.0-0.0","A2YZPA1SIVXL23","img_art/4.jpg","0","","","","","","","","","","","","","","","","","","","","","","","","",""
"null","","html-keyboard-response","160","1186854","0.0-158.0","A2YZPA1SIVXL23","<p style=""font-size: 48px;"">+</p>","","","","","null","allTrialResponses","1000","1","16","img_art/4.jpg","29","Beautiful","Ian,Victor,Aaron,Daniel,Samuel,Logan","I just don't understand this one at all, I do not like it,-43,260,20","Hate the color, and just do not get the point.,-13,340,20","It doesn't make me feel anything it just looks like a kid did it.,-30,20,20","Better version of a 7 year old who got lucky,-23,320,20","The muted tones,-11,400,20","it looks like a preschooler just dragged his fingers around,-36,360,20","Aaron","It doesn't make me feel anything it just looks like a kid did it.,-30,20,20","Victor","Hate the color, and just do not get the point.,-13,340,20","Ian","I just don't understand this one at all, I do not like it,-43,260,20","2"
"11620","","survey-text","161","1198525","0.0-159.0-0.0","A2YZPA1SIVXL23","","","","{""Q0"":""Greatuful""}","","","","","","","","","","","","","","","","","","","","","","",""
"2587","","image-slider-response","162","1201115","0.0-160.0","A2YZPA1SIVXL23","","","","","33","","","","","","","","","","","","","","","","","","","","","",""
"null","","image-button-response","163","1206192","0.0-161.0","A2YZPA1SIVXL23","img_art/18.jpg","null","","","","","","","","","","","","","","","","","","","","","","","","",""
"1719","","image-button-response","164","1207915","0.0-162.0","A2YZPA1SIVXL23","img_art/18.jpg","1","","","","","","","","","","","","","","","","","","","","","","","","",""
"1861","","image-button-response","165","1209780","0.0-163.0-0.0","A2YZPA1SIVXL23","img_art/18.jpg","3","","","","","","","","","","","","","","","","","","","","","","","","",""
"882","","image-button-response","166","1210668","0.0-164.0-0.0","A2YZPA1SIVXL23","img_art/18.jpg","5","","","","","","","","","","","","","","","","","","","","","","","","",""
"null","","html-keyboard-response","167","1211677","0.0-165.0","A2YZPA1SIVXL23","<p style=""font-size: 48px;"">+</p>","","","","","null","allTrialResponses","1000","1","17","img_art/18.jpg","33","Greatuful","Ian,Victor,Aaron,Juan,Malik,Jake","This one raises some questions, there could be some sort of fight or battle going on.,11,260,20","nice balance of color. The different sizes and types of strokes give a lot to look at,18,340,20","I could spend a long time looking at it and see different things in the shapes.,21,20,20","Again, this is too abtract.,-25,260,20","Gently chaotic and beautiful,40,40,20","It looks grotesque and violent.,-50,360,20","Victor","nice balance of color. The different sizes and types of strokes give a lot to look at,18,340,20","Juan","Again, this is too abtract.,-25,260,20","Jake","It looks grotesque and violent.,-50,360,20","2"
"18457","","survey-text","168","1230142","0.0-166.0-0.0","A2YZPA1SIVXL23","","","","{""Q0"":""Gratufl""}","","","","","","","","","","","","","","","","","","","","","","",""
"3333","","image-slider-response","169","1233485","0.0-167.0","A2YZPA1SIVXL23","","","","","26","","","","","","","","","","","","","","","","","","","","","",""
"null","","image-button-response","170","1238492","0.0-168.0","A2YZPA1SIVXL23","img_art/3.jpg","null","","","","","","","","","","","","","","","","","","","","","","","","",""
"756","","image-button-response","171","1239252","0.0-169.0","A2YZPA1SIVXL23","img_art/3.jpg","0","","","","","","","","","","","","","","","","","","","","","","","","",""
"406","","image-button-response","172","1239661","0.0-170.0-0.0","A2YZPA1SIVXL23","img_art/3.jpg","1","","","","","","","","","","","","","","","","","","","","","","","","",""
"850","","image-button-response","173","1240516","0.0-171.0-0.0","A2YZPA1SIVXL23","img_art/3.jpg","3","","","","","","","","","","","","","","","","","","","","","","","","",""
"null","","html-keyboard-response","174","1242030","0.0-172.0","A2YZPA1SIVXL23","<p style=""font-size: 48px;"">+</p>","","","","","null","allTrialResponses","1500","1","18","img_art/3.jpg","26","Gratufl","Zachary,Victor,Jesse,Juan,Adam,Jake","Too red and chaotic. Not calming.,-41,400,20","Again, looks like a child's work. I don't get these types of pieces. Too simple,-47,340,20","No substance or feeling to it,-20,80,20","It makes me think of just an angry scribble. There's no beauty to it for me.,-50,260,20","Reminds me of a hot mess,-10,40,20","This is angry and childish looking.,-49,360,20","Zachary","Too red and chaotic. Not calming.,-41,400,20","Victor","Again, looks like a child's work. I don't get these types of pieces. Too simple,-47,340,20","Juan","It makes me think of just an angry scribble. There's no beauty to it for me.,-50,260,20","2"
"6806","","survey-text","175","1248855","0.0-173.0-0.0","A2YZPA1SIVXL23","","","","{""Q0"":""Wonderful""}","","","","","","","","","","","","","","","","","","","","","","",""
"2913","","image-slider-response","176","1251774","0.0-174.0","A2YZPA1SIVXL23","","","","","35","","","","","","","","","","","","","","","","","","","","","",""
"null","","image-button-response","177","1257192","0.0-175.0","A2YZPA1SIVXL23","img_art/12.jpg","null","","","","","","","","","","","","","","","","","","","","","","","","",""
"9204","","image-button-response","178","1266399","0.0-176.0","A2YZPA1SIVXL23","img_art/12.jpg","3","","","","","","","","","","","","","","","","","","","","","","","","",""
"1326","","image-button-response","179","1267733","0.0-177.0-0.0","A2YZPA1SIVXL23","img_art/12.jpg","1","","","","","","","","","","","","","","","","","","","","","","","","",""
"939","","image-button-response","180","1268678","0.0-178.0-0.0","A2YZPA1SIVXL23","img_art/12.jpg","0","","","","","","","","","","","","","","","","","","","","","","","","",""
"null","","html-keyboard-response","181","1269680","0.0-179.0","A2YZPA1SIVXL23","<p style=""font-size: 48px;"">+</p>","","","","","null","allTrialResponses","1000","1","19","img_art/12.jpg","35","Wonderful","Zachary,Victor,Jeremy,Juan,Vincent,Scott","I like how it's split into tiny squares, but otherwise, not very intriguing.,-18,400,20","I like the colors and pattern,21,340,20","do not like it. Seems too busy,-10,60,20","This is too abstract and the colors are too worn out.,-23,260,20","I have seen some like this before very popular and full of life,42,360,20","I don't like the pattern or color choice,-41,20,20","Juan","This is too abstract and the colors are too worn out.,-23,260,20","Victor","I like the colors and pattern,21,340,20","Zachary","I like how it's split into tiny squares, but otherwise, not very intriguing.,-18,400,20","2"
"15859","","survey-text","182","1285566","0.0-180.0-0.0","A2YZPA1SIVXL23","","","","{""Q0"":""Wonderful""}","","","","","","","","","","","","","","","","","","","","","","",""
"2756","","image-slider-response","183","1288326","0.0-181.0","A2YZPA1SIVXL23","","","","","37","","","","","","","","","","","","","","","","","","","","","",""
"null","","image-button-response","184","1294201","0.0-182.0","A2YZPA1SIVXL23","img_art/10.jpg","null","","","","","","","","","","","","","","","","","","","","","","","","",""
"2570","","image-button-response","185","1296775","0.0-183.0","A2YZPA1SIVXL23","img_art/10.jpg","0","","","","","","","","","","","","","","","","","","","","","","","","",""
"491","","image-button-response","186","1297269","0.0-184.0-0.0","A2YZPA1SIVXL23","img_art/10.jpg","1","","","","","","","","","","","","","","","","","","","","","","","","",""
"1125","","image-button-response","187","1298400","0.0-185.0-0.0","A2YZPA1SIVXL23","img_art/10.jpg","3","","","","","","","","","","","","","","","","","","","","","","","","",""
"null","","html-keyboard-response","188","1299404","0.0-186.0","A2YZPA1SIVXL23","<p style=""font-size: 48px;"">+</p>","","","","","null","allTrialResponses","1000","1","20","img_art/10.jpg","37","Wonderful","Zachary,Victor,Nathaniel,Juan,Alexis,Steven","Reminds me of a terrarium with cacti inside. It reminds me of home.,27,400,20","Looks like someone just smeared some paint and called it good. Do not like.,-6,340,20","For black and white, this is pretty vibrant and cool. I like this.,39,220,20","It's interesting and my eyes keep being drawn to different parts of the picture.,11,260,20","It looks like a sea monster overtaking a ship,21,140,20","I dont like it, there is too much going on,-19,160,20","Zachary","Reminds me of a terrarium with cacti inside. It reminds me of home.,27,400,20","Victor","Looks like someone just smeared some paint and called it good. Do not like.,-6,340,20","Juan","It's interesting and my eyes keep being drawn to different parts of the picture.,11,260,20","2"
"3467","","survey-text","189","1302892","0.0-187.0-0.0","A2YZPA1SIVXL23","","","","{""Q0"":""we""}","","","","","","","","","","","","","","","","","","","","","","",""
"7709","","survey-text","190","1310605","0.0-188.0-0.0","A2YZPA1SIVXL23","","","","{""Q0"":""Amazing""}","","","","","","","","","","","","","","","","","","","","","","",""
"2867","","image-slider-response","191","1313477","0.0-189.0","A2YZPA1SIVXL23","","","","","29","","","","","","","","","","","","","","","","","","","","","",""
"null","","image-button-response","192","1319208","0.0-190.0","A2YZPA1SIVXL23","img_art/24.jpg","null","","","","","","","","","","","","","","","","","","","","","","","","",""
"2768","","image-button-response","193","1321981","0.0-191.0","A2YZPA1SIVXL23","img_art/24.jpg","0","","","","","","","","","","","","","","","","","","","","","","","","",""
"495","","image-button-response","194","1322479","0.0-192.0-0.0","A2YZPA1SIVXL23","img_art/24.jpg","1","","","","","","","","","","","","","","","","","","","","","","","","",""
"1022","","image-button-response","195","1323504","0.0-193.0-0.0","A2YZPA1SIVXL23","img_art/24.jpg","2","","","","","","","","","","","","","","","","","","","","","","","","",""
"null","","html-keyboard-response","196","1324505","0.0-194.0","A2YZPA1SIVXL23","<p style=""font-size: 48px;"">+</p>","","","","","null","allTrialResponses","1000","1","21","img_art/24.jpg","29","Amazing","Zachary,Victor,Paul,Juan,Jeffrey,Marcus","Looks like a beautiful stream rolling through terrain of rocks and flowers.,43,400,20","I don't even know. It's just kind of meh,1,340,20","It looks alive, like I can hear the water flowing,41,300,20","I love the colors, but I wish the water was less abstract.,17,260,20","Very refreshing and vigorous,19,40,20","Love the colors in this work, and the sense of motion in the water,36,60,20","Zachary","Looks like a beautiful stream rolling through terrain of rocks and flowers.,43,400,20","Victor","I don't even know. It's just kind of meh,1,340,20","Paul","It looks alive, like I can hear the water flowing,41,300,20","2"
"7346","","survey-text","197","1331862","0.0-195.0-0.0","A2YZPA1SIVXL23","","","","{""Q0"":""Not bad""}","","","","","","","","","","","","","","","","","","","","","","",""
"2655","","image-slider-response","198","1334520","0.0-196.0","A2YZPA1SIVXL23","","","","","25","","","","","","","","","","","","","","","","","","","","","",""
"null","","image-button-response","199","1339528","0.0-197.0","A2YZPA1SIVXL23","img_art/5.jpg","null","","","","","","","","","","","","","","","","","","","","","","","","",""
"671","","image-button-response","200","1340206","0.0-198.0","A2YZPA1SIVXL23","img_art/5.jpg","4","","","","","","","","","","","","","","","","","","","","","","","","",""
"708","","image-button-response","201","1340918","0.0-199.0-0.0","A2YZPA1SIVXL23","img_art/5.jpg","0","","","","","","","","","","","","","","","","","","","","","","","","",""
"389","","image-button-response","202","1341312","0.0-200.0-0.0","A2YZPA1SIVXL23","img_art/5.jpg","1","","","","","","","","","","","","","","","","","","","","","","","","",""
"null","","html-keyboard-response","203","1341821","0.0-201.0","A2YZPA1SIVXL23","<p style=""font-size: 48px;"">+</p>","","","","","null","allTrialResponses","500","1","22","img_art/5.jpg","25","Not bad","Zachary,Victor,Paul,Gregory,Ryan,Colton","Not sure what to make of this one.,-1,400,20","I like these colors together and the tiny splatters, but what is this?,7,340,20","I like how simple it is and the pink brushstrokes are nice,27,300,20","Don't really see it and yellow/pink don't go well together,-35,220,20","Very good color coordination,41,380,20","I like the strokes and colors used,20,220,20","Ryan","Very good color coordination,41,380,20","Zachary","Not sure what to make of this one.,-1,400,20","Victor","I like these colors together and the tiny splatters, but what is this?,7,340,20","2"
"13080","","survey-text","204","1354975","0.0-202.0-0.0","A2YZPA1SIVXL23","","","","{""Q0"":""Looking good""}","","","","","","","","","","","","","","","","","","","","","","",""
"2851","","image-slider-response","205","1357834","0.0-203.0","A2YZPA1SIVXL23","","","","","24","","","","","","","","","","","","","","","","","","","","","",""
"null","","image-button-response","206","1363199","0.0-204.0","A2YZPA1SIVXL23","img_art/17.jpg","null","","","","","","","","","","","","","","","","","","","","","","","","",""
"1916","","image-button-response","207","1365120","0.0-205.0","A2YZPA1SIVXL23","img_art/17.jpg","1","","","","","","","","","","","","","","","","","","","","","","","","",""
"542","","image-button-response","208","1365666","0.0-206.0-0.0","A2YZPA1SIVXL23","img_art/17.jpg","0","","","","","","","","","","","","","","","","","","","","","","","","",""
"2006","","image-button-response","209","1367681","0.0-207.0-0.0","A2YZPA1SIVXL23","img_art/17.jpg","4","","","","","","","","","","","","","","","","","","","","","","","","",""
"null","","html-keyboard-response","210","1368187","0.0-208.0","A2YZPA1SIVXL23","<p style=""font-size: 48px;"">+</p>","","","","","null","allTrialResponses","500","1","23","img_art/17.jpg","24","Looking good","Zachary,Victor,Tristan,Thomas,Ryan,James","Reminds me of a beautiful tree growing in a courtyard. I like the light and airy technique used.,34,400,20","cool. Sharp and blocky below, light and flowing on top. Overall pleasing to look at,32,340,20","peaceful. contemplative. balanced. old,10,300,20","Colors and composition are beautiful. I would hang this in my home.,50,220,20","Feels supernatural and scary,-16,380,20","It's nice and realistic looking.,12,380,20","Victor","cool. Sharp and blocky below, light and flowing on top. Overall pleasing to look at,32,340,20","Zachary","Reminds me of a beautiful tree growing in a courtyard. I like the light and airy technique used.,34,400,20","Ryan","Feels supernatural and scary,-16,380,20","2"
"8409","","survey-text","211","1376615","0.0-209.0-0.0","A2YZPA1SIVXL23","","","","{""Q0"":""Greatful""}","","","","","","","","","","","","","","","","","","","","","","",""
"3250","","image-slider-response","212","1379876","0.0-210.0","A2YZPA1SIVXL23","","","","","27","","","","","","","","","","","","","","","","","","","","","",""
"null","","image-button-response","213","1384889","0.0-211.0","A2YZPA1SIVXL23","img_art/1.jpg","null","","","","","","","","","","","","","","","","","","","","","","","","",""
"2109","","image-button-response","214","1386999","0.0-212.0","A2YZPA1SIVXL23","img_art/1.jpg","0","","","","","","","","","","","","","","","","","","","","","","","","",""
"1498","","image-button-response","215","1388500","0.0-213.0-0.0","A2YZPA1SIVXL23","img_art/1.jpg","1","","","","","","","","","","","","","","","","","","","","","","","","",""
"925","","image-button-response","216","1389428","0.0-214.0-0.0","A2YZPA1SIVXL23","img_art/1.jpg","4","","","","","","","","","","","","","","","","","","","","","","","","",""
"null","","html-keyboard-response","217","1390026","0.0-215.0","A2YZPA1SIVXL23","<p style=""font-size: 48px;"">+</p>","","","","","null","allTrialResponses","500","1","24","img_art/1.jpg","27","Greatful","Zachary,Victor,Nathan,Shane,Ryan,Joshua","While I like the colors, I find nothing interesting or thought provoking about it.,10,400,20","I like the colors and layers,25,340,20","Not a fan of the mood, overly party-ish and bright colors do not suit my taste,-40,200,20","Warmth of the sun,22,80,20","Seems like one i previously saw in this survey,27,380,20","Reminds me of fall.,7,240,20","Zachary","While I like the colors, I find nothing interesting or thought provoking about it.,10,400,20","Victor","I like the colors and layers,25,340,20","Ryan","Seems like one i previously saw in this survey,27,380,20","2"
"7757","","survey-text","218","1397791","0.0-216.0-0.0","A2YZPA1SIVXL23","","","","{""Q0"":""Wonderful""}","","","","","","","","","","","","","","","","","","","","","","",""
"2819","","image-slider-response","219","1400614","0.0-217.0","A2YZPA1SIVXL23","","","","","28","","","","","","","","","","","","","","","","","","","","","",""
"null","","image-button-response","220","1406115","0.0-218.0","A2YZPA1SIVXL23","img_art/6.jpg","null","","","","","","","","","","","","","","","","","","","","","","","","",""
"1485","","image-button-response","221","1407607","0.0-219.0","A2YZPA1SIVXL23","img_art/6.jpg","1","","","","","","","","","","","","","","","","","","","","","","","","",""
"588","","image-button-response","222","1408198","0.0-220.0-0.0","A2YZPA1SIVXL23","img_art/6.jpg","0","","","","","","","","","","","","","","","","","","","","","","","","",""
"1310","","image-button-response","223","1409511","0.0-221.0-0.0","A2YZPA1SIVXL23","img_art/6.jpg","4","","","","","","","","","","","","","","","","","","","","","","","","",""
"null","","html-keyboard-response","224","1410012","0.0-222.0","A2YZPA1SIVXL23","<p style=""font-size: 48px;"">+</p>","","","","","null","allTrialResponses","500","1","25","img_art/6.jpg","28","Wonderful","Zachary,Victor,Gabriel,David,Ryan,Jorge","Reminds me of a plant poking through the soil. It reminds me of new life.,31,400,20","The background on the upper half is nice. I also like the contrast of the top and bottom halves,5,340,20","its like a jalapeno,-28,160,20","I like the simplicity of the piece.,10,340,20","Makes me feel lonely,-22,380,20","seeds of change,11,180,20","Victor","The background on the upper half is nice. I also like the contrast of the top and bottom halves,5,340,20","Zachary","Reminds me of a plant poking through the soil. It reminds me of new life.,31,400,20","Ryan","Makes me feel lonely,-22,380,20","2"
"4394","","survey-text","225","1414432","0.0-223.0-0.0","A2YZPA1SIVXL23","","","","{""Q0"":""table""}","","","","","","","","","","","","","","","","","","","","","","",""
"9372","","survey-text","226","1423808","0.0-224.0-0.0","A2YZPA1SIVXL23","","","","{""Q0"":""Wonderful""}","","","","","","","","","","","","","","","","","","","","","","",""
"3459","","image-slider-response","227","1427270","0.0-225.0","A2YZPA1SIVXL23","","","","","34","","","","","","","","","","","","","","","","","","","","","",""
"null","","image-button-response","228","1433200","0.0-226.0","A2YZPA1SIVXL23","img_art/16.jpg","null","","","","","","","","","","","","","","","","","","","","","","","","",""
"2049","","image-button-response","229","1435253","0.0-227.0","A2YZPA1SIVXL23","img_art/16.jpg","1","","","","","","","","","","","","","","","","","","","","","","","","",""
"486","","image-button-response","230","1435742","0.0-228.0-0.0","A2YZPA1SIVXL23","img_art/16.jpg","2","","","","","","","","","","","","","","","","","","","","","","","","",""
"896","","image-button-response","231","1436642","0.0-229.0-0.0","A2YZPA1SIVXL23","img_art/16.jpg","4","","","","","","","","","","","","","","","","","","","","","","","","",""
"null","","html-keyboard-response","232","1437645","0.0-230.0","A2YZPA1SIVXL23","<p style=""font-size: 48px;"">+</p>","","","","","null","allTrialResponses","1000","1","26","img_art/16.jpg","34","Wonderful","Zachary,Victor,Derek,Brian,Ryan,Elijah","Not pleasing to the eyes. I do like that the gun is broken though.,-28,400,20","I don't know why, I just don't like it,-28,340,20","I can't figure out the meaning of this painting but it is pleasant to look at,40,360,20","I love the teddy bear,50,380,20","Very modern, reminds me of bansky,43,380,20","The bear is terrifying,-50,80,20","Victor","I don't know why, I just don't like it,-28,340,20","Derek","I can't figure out the meaning of this painting but it is pleasant to look at,40,360,20","Ryan","Very modern, reminds me of bansky,43,380,20","2"
"6286","","survey-text","233","1443944","0.0-231.0-0.0","A2YZPA1SIVXL23","","","","{""Q0"":""Wonderful""}","","","","","","","","","","","","","","","","","","","","","","",""
"3114","","image-slider-response","234","1447063","0.0-232.0","A2YZPA1SIVXL23","","","","","34","","","","","","","","","","","","","","","","","","","","","",""
"1586","","image-button-response","235","1452069","0.0-233.0","A2YZPA1SIVXL23","img_art/25.jpg","4","","","","","","","","","","","","","","","","","","","","","","","","",""
"845","","image-button-response","236","1452918","0.0-234.0","A2YZPA1SIVXL23","img_art/25.jpg","4","","","","","","","","","","","","","","","","","","","","","","","","",""
"2007","","image-button-response","237","1454928","0.0-235.0-0.0","A2YZPA1SIVXL23","img_art/25.jpg","1","","","","","","","","","","","","","","","","","","","","","","","","",""
"704","","image-button-response","238","1455635","0.0-236.0-0.0","A2YZPA1SIVXL23","img_art/25.jpg","2","","","","","","","","","","","","","","","","","","","","","","","","",""
"null","","html-keyboard-response","239","1456136","0.0-237.0","A2YZPA1SIVXL23","<p style=""font-size: 48px;"">+</p>","","","","","null","allTrialResponses","500","1","27","img_art/25.jpg","34","Wonderful","Bryan,Victor,Derek,Anthony,Ryan,Jose","Scary. Something out of a Stephen King book/movie.,-31,400,20","Love the colors, and how it's simple yet complex,25,340,20","It's really neat and cool looking,20,360,20","Spooky, but in a good way. I like the green and black color palette.,42,200,20","Reminds me of Mr. Burns on drugs in the Simpsons,-50,380,20","That's pretty awesome. I love the green and black combo, reminds me of one of those cartoon creepy movies,47,200,20","Ryan","Reminds me of Mr. Burns on drugs in the Simpsons,-50,380,20","Victor","Love the colors, and how it's simple yet complex,25,340,20","Derek","It's really neat and cool looking,20,360,20","2"
"6383","","survey-text","240","1462544","0.0-238.0-0.0","A2YZPA1SIVXL23","","","","{""Q0"":""Wonderful""}","","","","","","","","","","","","","","","","","","","","","","",""
"2951","","image-slider-response","241","1465503","0.0-239.0","A2YZPA1SIVXL23","","","","","31","","","","","","","","","","","","","","","","","","","","","",""
"null","","image-button-response","242","1470720","0.0-240.0","A2YZPA1SIVXL23","img_art/15.jpg","null","","","","","","","","","","","","","","","","","","","","","","","","",""
"2176","","image-button-response","243","1472903","0.0-241.0","A2YZPA1SIVXL23","img_art/15.jpg","4","","","","","","","","","","","","","","","","","","","","","","","","",""
"1117","","image-button-response","244","1474026","0.0-242.0-0.0","A2YZPA1SIVXL23","img_art/15.jpg","1","","","","","","","","","","","","","","","","","","","","","","","","",""
"534","","image-button-response","245","1474564","0.0-243.0-0.0","A2YZPA1SIVXL23","img_art/15.jpg","2","","","","","","","","","","","","","","","","","","","","","","","","",""
"null","","html-keyboard-response","246","1476067","0.0-244.0","A2YZPA1SIVXL23","<p style=""font-size: 48px;"">+</p>","","","","","null","allTrialResponses","1500","1","28","img_art/15.jpg","31","Wonderful","Dylan,Victor,Derek,Alexander,Ryan,Luis","This is sort of ugly, but I do like the design.,10,40,20","I like the random blue dabs to break up the black, but it looks unfinished.,4,340,20","Although it looks a bit bland in terms of color, I really like the print/pattern,25,360,20","Leafs spread on the ground.,27,120,20","It triggers my tripophobia,-50,380,20","Extreme darkness and sadness,-30,400,20","Ryan","It triggers my tripophobia,-50,380,20","Victor","I like the random blue dabs to break up the black, but it looks unfinished.,4,340,20","Derek","Although it looks a bit bland in terms of color, I really like the print/pattern,25,360,20","2"
"7152","","survey-text","247","1483239","0.0-245.0-0.0","A2YZPA1SIVXL23","","","","{""Q0"":""Amazing""}","","","","","","","","","","","","","","","","","","","","","","",""
"3290","","image-slider-response","248","1486534","0.0-246.0","A2YZPA1SIVXL23","","","","","31","","","","","","","","","","","","","","","","","","","","","",""
"null","","image-button-response","249","1491541","0.0-247.0","A2YZPA1SIVXL23","img_art/19.jpg","null","","","","","","","","","","","","","","","","","","","","","","","","",""
"880","","image-button-response","250","1492426","0.0-248.0","A2YZPA1SIVXL23","img_art/19.jpg","4","","","","","","","","","","","","","","","","","","","","","","","","",""
"651","","image-button-response","251","1493087","0.0-249.0-0.0","A2YZPA1SIVXL23","img_art/19.jpg","1","","","","","","","","","","","","","","","","","","","","","","","","",""
"641","","image-button-response","252","1493738","0.0-250.0-0.0","A2YZPA1SIVXL23","img_art/19.jpg","2","","","","","","","","","","","","","","","","","","","","","","","","",""
"null","","html-keyboard-response","253","1494752","0.0-251.0","A2YZPA1SIVXL23","<p style=""font-size: 48px;"">+</p>","","","","","null","allTrialResponses","1000","1","29","img_art/19.jpg","31","Amazing","Richard,Victor,Derek,Trevor,Ryan,Blake","not professional looking but not bad either,13,340,20","too much going on, can't tell what it is,-14,340,20","It has a chaotic energy about it that draws me in,40,360,20","i like the colors and the way it looks like an actual scene,18,280,20","Its just a nice painting, nothing too special but nothing negative,25,380,20","an old cityfrom many years ago. its ok,6,280,20","Ryan","Its just a nice painting, nothing too special but nothing negative,25,380,20","Victor","too much going on, can't tell what it is,-14,340,20","Derek","It has a chaotic energy about it that draws me in,40,360,20","2"
"6432","","survey-text","254","1501199","0.0-252.0-0.0","A2YZPA1SIVXL23","","","","{""Q0"":""Looking bad""}","","","","","","","","","","","","","","","","","","","","","","",""
"3220","","image-slider-response","255","1504423","0.0-253.0","A2YZPA1SIVXL23","","","","","31","","","","","","","","","","","","","","","","","","","","","",""
"null","","image-button-response","256","1509427","0.0-254.0","A2YZPA1SIVXL23","img_art/2.jpg","null","","","","","","","","","","","","","","","","","","","","","","","","",""
"2010","","image-button-response","257","1511442","0.0-255.0","A2YZPA1SIVXL23","img_art/2.jpg","1","","","","","","","","","","","","","","","","","","","","","","","","",""
"344","","image-button-response","258","1511791","0.0-256.0-0.0","A2YZPA1SIVXL23","img_art/2.jpg","2","","","","","","","","","","","","","","","","","","","","","","","","",""
"919","","image-button-response","259","1512712","0.0-257.0-0.0","A2YZPA1SIVXL23","img_art/2.jpg","3","","","","","","","","","","","","","","","","","","","","","","","","",""
"null","","html-keyboard-response","260","1514224","0.0-258.0","A2YZPA1SIVXL23","<p style=""font-size: 48px;"">+</p>","","","","","null","allTrialResponses","1500","1","30","img_art/2.jpg","31","Looking bad","Brendan,Victor,Derek,Seth,Ryan,Edward","its ugly af to be honest,-50,340,20","It's interesting. The chunks of black here and there are nice,13,340,20","Not my favorite but I can see this being hung in a art museum,25,360,20","I think I see people sitting in lawn chairs in a circle watching an event. Not really sure so I rated it lower.,-35,60,20","Very simple and childish,40,380,20","My immediate reaction was it looked like a class but then I saw a smile in the middle,11,60,20","Victor","It's interesting. The chunks of black here and there are nice,13,340,20","Derek","Not my favorite but I can see this being hung in a art museum,25,360,20","Seth","I think I see people sitting in lawn chairs in a circle watching an event. Not really sure so I rated it lower.,-35,60,20","2"
"13126","","image-button-response_instructions","261","1527471","0.0-259.0","A2YZPA1SIVXL23","","0","instructions","","","","","","","","","","","","","","","","","","","","","","","",""
"1499","","image-button-response","262","1528999","0.0-260.0","A2YZPA1SIVXL23","","0","","","","","","","","","","","","","","","","","","","","","","","","",""
