"rt","url","trial_type","trial_index","time_elapsed","internal_node_id","participant_id","stimulus","button_pressed","Name","responses","response","key_press","variableName","fixationTime","condition","trial","photo","subjectRating","subjectResponse","agentsNames","agent_1_Response","agent_2_Response","agent_3_Response","agent_4_Response","agent_5_Response","agent_6_Response","kept_1_name","kept_1_response","kept_2_name","kept_2_response","kept_3_name","kept_3_response","errorCounter"
"114359","external_page_harvard.html","external-html","0","114487","0.0-0.0","A2ZSL0EDN3H4AT","","","","","","","","","","","","","","","","","","","","","","","","","","",""
"1902","","image-button-response","1","116391","0.0-1.0","A2ZSL0EDN3H4AT","","1","","","","","","","","","","","","","","","","","","","","","","","","",""
"2025","","image-button-response","2","118422","0.0-2.0-0.0","A2ZSL0EDN3H4AT","","1","phone","","","","","","","","","","","","","","","","","","","","","","","",""
"7112","","survey-text","3","125537","0.0-3.0-0.0","A2ZSL0EDN3H4AT","","","","{""Q0"":""A2ZSL0EDN3H4AT""}","","","","","","","","","","","","","","","","","","","","","","",""
"6304","","image-button-response_instructions","4","131843","0.0-4.0","A2ZSL0EDN3H4AT","","0","instructions","","","","","","","","","","","","","","","","","","","","","","","",""
"20122","","image-button-response_instructions","5","151966","0.0-5.0","A2ZSL0EDN3H4AT","img_art/ins/popularity/ins1.png","0","instructions","","","","","","","","","","","","","","","","","","","","","","","",""
"4813","","image-button-response_instructions","6","156780","0.0-6.0","A2ZSL0EDN3H4AT","img_art/ins/popularity/ins2.png","0","instructions","","","","","","","","","","","","","","","","","","","","","","","",""
"2192","","image-button-response_instructions","7","158974","0.0-7.0","A2ZSL0EDN3H4AT","img_art/ins/popularity/ins2Extreme.png","0","instructions","","","","","","","","","","","","","","","","","","","","","","","",""
"9203","","image-button-response_instructions","8","168178","0.0-8.0","A2ZSL0EDN3H4AT","img_art/ins/popularity/ins3KEEPpop.PNG","0","instructions","","","","","","","","","","","","","","","","","","","","","","","",""
"4711","","image-button-response_instructions","9","172891","0.0-9.0","A2ZSL0EDN3H4AT","img_art/ins/popularity/ins3ANamepop.PNG","0","instructions","","","","","","","","","","","","","","","","","","","","","","","",""
"1826","","image-button-response_instructions","10","174718","0.0-10.0","A2ZSL0EDN3H4AT","img_art/ins/popularity/ins3ARatingpop.png","0","instructions","","","","","","","","","","","","","","","","","","","","","","","",""
"1281","","image-button-response_instructions","11","176000","0.0-11.0","A2ZSL0EDN3H4AT","img_art/ins/popularity/ins3ATextpop.png","0","instructions","","","","","","","","","","","","","","","","","","","","","","","",""
"1461","","image-button-response_instructions","12","177462","0.0-12.0","A2ZSL0EDN3H4AT","img_art/ins/popularity/ins3ALikespop.png","0","instructions","","","","","","","","","","","","","","","","","","","","","","","",""
"1053","","image-button-response_instructions","13","178517","0.0-13.0","A2ZSL0EDN3H4AT","img_art/ins/popularity/ins3KEEPpop.PNG","0","instructions","","","","","","","","","","","","","","","","","","","","","","","",""
"1858","","image-button-response_instructions","14","180376","0.0-14.0","A2ZSL0EDN3H4AT","img_art/ins/popularity/ins3_5RED.png","0","instructions","","","","","","","","","","","","","","","","","","","","","","","",""
"1451","","image-button-response_instructions","15","181828","0.0-15.0","A2ZSL0EDN3H4AT","img_art/ins/popularity/ins3KEEPpop.PNG","0","instructions","","","","","","","","","","","","","","","","","","","","","","","",""
"1141","","image-button-response_instructions","16","182970","0.0-16.0","A2ZSL0EDN3H4AT","img_art/ins/popularity/ins4KEEPpop.PNG","0","instructions","","","","","","","","","","","","","","","","","","","","","","","",""
"10499","","image-button-response_instructions","17","193470","0.0-17.0","A2ZSL0EDN3H4AT","img_art/ins/popularity/ins5KEEPpop.PNG","0","instructions","","","","","","","","","","","","","","","","","","","","","","","",""
"2639","","image-button-response_instructions","18","196110","0.0-18.0","A2ZSL0EDN3H4AT","","0","instructions","","","","","","","","","","","","","","","","","","","","","","","",""
"8124","","survey-text","19","204266","0.0-19.0-0.0","A2ZSL0EDN3H4AT","","","","{""Q0"":""but""}","","","","","","","","","","","","","","","","","","","","","","",""
"9843","","survey-text","20","214110","0.0-20.0-0.0","A2ZSL0EDN3H4AT","","","","{""Q0"":""artistic ""}","","","","","","","","","","","","","","","","","","","","","","",""
"4348.900000035763","","image-slider-response","21","218462","0.0-21.0","A2ZSL0EDN3H4AT","","","","","-16","","","","","","","","","","","","","","","","","","","","","",""
"null","","image-button-response","22","223469","0.0-22.0","A2ZSL0EDN3H4AT","img_art/ins/1.jpg","null","","","","","","","","","","","","","","","","","","","","","","","","",""
"14724","","image-button-response","23","238196","0.0-23.0","A2ZSL0EDN3H4AT","img_art/ins/1.jpg","4","","","","","","","","","","","","","","","","","","","","","","","","",""
"8777","","image-button-response","24","246976","0.0-24.0-0.0","A2ZSL0EDN3H4AT","img_art/ins/1.jpg","5","","","","","","","","","","","","","","","","","","","","","","","","",""
"5855","","image-button-response","25","252834","0.0-25.0-0.0","A2ZSL0EDN3H4AT","img_art/ins/1.jpg","3","","","","","","","","","","","","","","","","","","","","","","","","",""
"null","","html-keyboard-response","26","254352","0.0-26.0","A2ZSL0EDN3H4AT","<p style=""font-size: 48px;"">+</p>","","","","","null","allTrialResponses","1500","1","-2","img_art/ins/1.jpg","-16","artistic ","Allison,Ashley,Beth,Dora,Erika,Jen","looks like a lot of things going on in the mist,20,20,20","I just don't get why these type of art would be popular,-32,40,20","This color reminds me of poo,-46,60,20","looks like what my niece in 3rd grade did this afternoon,-50,80,20","I like the sophisticated brushwork,40,100,20","It reminds me of a candy land dream I had,36,120,20","Erika","I like the sophisticated brushwork,40,100,20","Jen","It reminds me of a candy land dream I had,36,120,20","Dora","looks like what my niece in 3rd grade did this afternoon,-50,80,20","0"
"28569","","survey-text","27","282934","0.0-27.0-0.0","A2ZSL0EDN3H4AT","","","","{""Q0"":""colorful and very fall like""}","","","","","","","","","","","","","","","","","","","","","","",""
"3862.099999964237","","image-slider-response","28","286799","0.0-28.0","A2ZSL0EDN3H4AT","","","","","29","","","","","","","","","","","","","","","","","","","","","",""
"null","","image-button-response","29","291803","0.0-29.0","A2ZSL0EDN3H4AT","img_art/ins/2.jpg","null","","","","","","","","","","","","","","","","","","","","","","","","",""
"1695","","image-button-response","30","293501","0.0-30.0","A2ZSL0EDN3H4AT","img_art/ins/2.jpg","1","","","","","","","","","","","","","","","","","","","","","","","","",""
"16356","","image-button-response","31","309859","0.0-31.0-0.0","A2ZSL0EDN3H4AT","img_art/ins/2.jpg","4","","","","","","","","","","","","","","","","","","","","","","","","",""
"12973","","image-button-response","32","322835","0.0-32.0-0.0","A2ZSL0EDN3H4AT","img_art/ins/2.jpg","0","","","","","","","","","","","","","","","","","","","","","","","","",""
"null","","html-keyboard-response","33","324352","0.0-33.0","A2ZSL0EDN3H4AT","<p style=""font-size: 48px;"">+</p>","","","","","null","allTrialResponses","1500","1","-1","img_art/ins/2.jpg","29","colorful and very fall like","Jenna,Kara,Katie,Dora,Erika,Jen","One of my pet peevs,-48,140,20","I like the blocks of color arrangements,30,160,20","too much color!,-28,180,20","looks too angry,-50,80,20","I would never be able to compose a sophisticated pallete like this,48,100,20","It reminds me of a fireplace,36,120,20","Kara","I like the blocks of color arrangements,30,160,20","Erika","I would never be able to compose a sophisticated pallete like this,48,100,20","Jenna","One of my pet peevs,-48,140,20","0"
"65871","","survey-text","34","390242","0.0-34.0-0.0","A2ZSL0EDN3H4AT","","","","{""Q0"":""arctic winter snow""}","","","","","","","","","","","","","","","","","","","","","","",""
"6997.199999988079","","image-slider-response","35","397241","0.0-35.0","A2ZSL0EDN3H4AT","","","","","43","","","","","","","","","","","","","","","","","","","","","",""
"4605","","image-button-response","36","402259","0.0-36.0","A2ZSL0EDN3H4AT","img_art/ins/3.jpg","2","","","","","","","","","","","","","","","","","","","","","","","","",""
"5104","","image-button-response","37","407366","0.0-37.0","A2ZSL0EDN3H4AT","img_art/ins/3.jpg","1","","","","","","","","","","","","","","","","","","","","","","","","",""
"998","","image-button-response","38","408365","0.0-38.0-0.0","A2ZSL0EDN3H4AT","img_art/ins/3.jpg","2","","","","","","","","","","","","","","","","","","","","","","","","",""
"3990","","image-button-response","39","412358","0.0-39.0-0.0","A2ZSL0EDN3H4AT","img_art/ins/3.jpg","4","","","","","","","","","","","","","","","","","","","","","","","","",""
"null","","html-keyboard-response","40","413860","0.0-40.0","A2ZSL0EDN3H4AT","<p style=""font-size: 48px;"">+</p>","","","","","null","allTrialResponses","1500","1","0","img_art/ins/3.jpg","43","arctic winter snow","Jenna,Kara,Mary,Leslie,Erika,Rose","looks like a murder room,-35,140,20","calming blue is very nice,36,160,20","I like the overlapping of brushes,41,220,20","It's an alright work,15,200,20","I feel connected to the artist,40,100,20","My daily routine, it's depressing,-20,240,20","Kara","calming blue is very nice,36,160,20","Mary","I like the overlapping of brushes,41,220,20","Erika","I feel connected to the artist,40,100,20","0"
"11117","","image-button-response_instructions","41","424991","0.0-41.0","A2ZSL0EDN3H4AT","","0","instructions","","","","","","","","","","","","","","","","","","","","","","","",""
"30640","","survey-likert","42","455634","0.0-42.0-0.0","A2ZSL0EDN3H4AT","","","","{""Q0"":"""",""Q1"":0,""Q2"":1}","","","","","","","","","","","","","","","","","","","","","","",""
"7531","","survey-text","43","463173","0.0-43.0-0.0","A2ZSL0EDN3H4AT","","","","{""Q0"":""rock""}","","","","","","","","","","","","","","","","","","","","","","",""
"24587","","survey-text","44","487761","0.0-44.0-0.0","A2ZSL0EDN3H4AT","","","","{""Q0"":""fall like breeze""}","","","","","","","","","","","","","","","","","","","","","","",""
"4873.800000011921","","image-slider-response","45","492637","0.0-45.0","A2ZSL0EDN3H4AT","","","","","16","","","","","","","","","","","","","","","","","","","","","",""
"null","","image-button-response","46","497670","0.0-46.0","A2ZSL0EDN3H4AT","img_art/1.jpg","null","","","","","","","","","","","","","","","","","","","","","","","","",""
"433","","image-button-response","47","498105","0.0-47.0","A2ZSL0EDN3H4AT","img_art/1.jpg","1","","","","","","","","","","","","","","","","","","","","","","","","",""
"1482","","image-button-response","48","499589","0.0-48.0-0.0","A2ZSL0EDN3H4AT","img_art/1.jpg","2","","","","","","","","","","","","","","","","","","","","","","","","",""
"2154","","image-button-response","49","501746","0.0-49.0-0.0","A2ZSL0EDN3H4AT","img_art/1.jpg","4","","","","","","","","","","","","","","","","","","","","","","","","",""
"null","","html-keyboard-response","50","502760","0.0-50.0","A2ZSL0EDN3H4AT","<p style=""font-size: 48px;"">+</p>","","","","","null","allTrialResponses","1000","1","1","img_art/1.jpg","16","fall like breeze","Kaitlyn,Kayla,Alexandra,Michelle,Kaylee,Haley","Interesting blend of colors,9,80,20","Happy! Reminds me of hiking in tennesee.,18,180,20","I love the warm colors of the art,32,60,20","Random paint does not make art,-5,280,20","a colorful piece of art,25,200,20","Pleasant, but a tad too monochromatic in some areas for my taste,7,220,20","Kayla","Happy! Reminds me of hiking in tennesee.,18,180,20","Alexandra","I love the warm colors of the art,32,60,20","Kaylee","a colorful piece of art,25,200,20","0"
"43912","","survey-text","51","546685","0.0-51.0-0.0","A2ZSL0EDN3H4AT","","","","{""Q0"":""unique distraction""}","","","","","","","","","","","","","","","","","","","","","","",""
"2324.899999976158","","image-slider-response","52","549012","0.0-52.0","A2ZSL0EDN3H4AT","","","","","-18","","","","","","","","","","","","","","","","","","","","","",""
"3137","","image-button-response","53","554016","0.0-53.0","A2ZSL0EDN3H4AT","img_art/16.jpg","3","","","","","","","","","","","","","","","","","","","","","","","","",""
"2196","","image-button-response","54","556215","0.0-54.0","A2ZSL0EDN3H4AT","img_art/16.jpg","3","","","","","","","","","","","","","","","","","","","","","","","","",""
"1531","","image-button-response","55","557748","0.0-55.0-0.0","A2ZSL0EDN3H4AT","img_art/16.jpg","4","","","","","","","","","","","","","","","","","","","","","","","","",""
"2354","","image-button-response","56","560105","0.0-56.0-0.0","A2ZSL0EDN3H4AT","img_art/16.jpg","2","","","","","","","","","","","","","","","","","","","","","","","","",""
"null","","html-keyboard-response","57","561611","0.0-57.0","A2ZSL0EDN3H4AT","<p style=""font-size: 48px;"">+</p>","","","","","null","allTrialResponses","1500","1","2","img_art/16.jpg","-18","unique distraction","Breanna,Kayla,Alexandra,Sarah,Kaylee,Jacqueline","The bear is terrifying,-50,380,20","Looks upsetting. Like it's actually graphic violence but you can't tell.,-24,180,20","This is weird and creepy.,-40,60,20","i don't like the collage aspect,-25,180,20","cool teddy bear,50,200,20","Seems very twisted and dark.,-35,300,20","Sarah","i don't like the collage aspect,-25,180,20","Kaylee","cool teddy bear,50,200,20","Alexandra","This is weird and creepy.,-40,60,20","0"
"48081","","survey-text","58","609709","0.0-58.0-0.0","A2ZSL0EDN3H4AT","","","","{""Q0"":""weird object yet creative""}","","","","","","","","","","","","","","","","","","","","","","",""
"6888.400000035763","","image-slider-response","59","616600","0.0-59.0","A2ZSL0EDN3H4AT","","","","","0","","","","","","","","","","","","","","","","","","","","","",""
"2809","","image-button-response","60","621611","0.0-60.0","A2ZSL0EDN3H4AT","img_art/5.jpg","1","","","","","","","","","","","","","","","","","","","","","","","","",""
"600","","image-button-response","61","622216","0.0-61.0","A2ZSL0EDN3H4AT","img_art/5.jpg","1","","","","","","","","","","","","","","","","","","","","","","","","",""
"810","","image-button-response","62","623028","0.0-62.0-0.0","A2ZSL0EDN3H4AT","img_art/5.jpg","0","","","","","","","","","","","","","","","","","","","","","","","","",""
"99","","image-button-response","63","623130","0.0-63.0-0.0","A2ZSL0EDN3H4AT","img_art/5.jpg","0","","","","","","","","","","","","","","","","","","","","","","","","",""
"4122","","image-button-response","64","630980","0.0-63.1-0.1","A2ZSL0EDN3H4AT","img_art/5.jpg","2","","","","","","","","","","","","","","","","","","","","","","","","",""
"null","","html-keyboard-response","65","631483","0.0-64.0","A2ZSL0EDN3H4AT","<p style=""font-size: 48px;"">+</p>","","","","","null","allTrialResponses","500","1","3","img_art/5.jpg","0","weird object yet creative","Anna,Amanda,Alexandra,Sarah,Kaylee,Brianna","It's kind of boring.,-20,300,20","Very good color coordination,41,180,20","This looks like a twelve year old did it,-40,60,20","looks very childish,-35,180,20","a volcano erruption,21,200,20","Very bright and has colors you wouldn't think would go together,11,20,20","Amanda","Very good color coordination,41,180,20","Anna","It's kind of boring.,-20,300,20","Alexandra","This looks like a twelve year old did it,-40,60,20","2"
"62230","","survey-text","66","693731","0.0-65.0-0.0","A2ZSL0EDN3H4AT","","","","{""Q0"":""unique and calming""}","","","","","","","","","","","","","","","","","","","","","","",""
"3427.7999999523163","","image-slider-response","67","697161","0.0-66.0","A2ZSL0EDN3H4AT","","","","","-7","","","","","","","","","","","","","","","","","","","","","",""
"2252","","image-button-response","68","702165","0.0-67.0","A2ZSL0EDN3H4AT","img_art/6.jpg","1","","","","","","","","","","","","","","","","","","","","","","","","",""
"1116","","image-button-response","69","703285","0.0-68.0","A2ZSL0EDN3H4AT","img_art/6.jpg","1","","","","","","","","","","","","","","","","","","","","","","","","",""
"4942","","image-button-response","70","708229","0.0-69.0-0.0","A2ZSL0EDN3H4AT","img_art/6.jpg","2","","","","","","","","","","","","","","","","","","","","","","","","",""
"107","","image-button-response","71","708339","0.0-70.0-0.0","A2ZSL0EDN3H4AT","img_art/6.jpg","2","","","","","","","","","","","","","","","","","","","","","","","","",""
"2960","","image-button-response","72","718761","0.0-70.1-0.1","A2ZSL0EDN3H4AT","img_art/6.jpg","3","","","","","","","","","","","","","","","","","","","","","","","","",""
"null","","html-keyboard-response","73","719779","0.0-71.0","A2ZSL0EDN3H4AT","<p style=""font-size: 48px;"">+</p>","","","","","null","allTrialResponses","1000","1","4","img_art/6.jpg","-7","unique and calming","Anna,Amanda,Alexandra,Sydney,Margaret,Rachel","It reminds me of a simplistic bird. I like the colors used.,40,300,20","Makes me feel lonely,-22,180,20","this is interesting and unique,11,60,20","This piece reminds me of the lorax.,5,320,20","reminds me of a happy edgar allen poe poem,8,100,20","Reminds me of a plant poking through the soil. It reminds me of new life.,31,80,20","Amanda","Makes me feel lonely,-22,180,20","Alexandra","this is interesting and unique,11,60,20","Sydney","This piece reminds me of the lorax.,5,320,20","4"
"21268","","survey-text","74","741074","0.0-72.0-0.0","A2ZSL0EDN3H4AT","","","","{""Q0"":""abstract unique idea""}","","","","","","","","","","","","","","","","","","","","","","",""
"3168.800000011921","","image-slider-response","75","744244","0.0-73.0","A2ZSL0EDN3H4AT","","","","","22","","","","","","","","","","","","","","","","","","","","","",""
"2742","","image-button-response","76","749261","0.0-74.0","A2ZSL0EDN3H4AT","img_art/30.jpg","2","","","","","","","","","","","","","","","","","","","","","","","","",""
"831","","image-button-response","77","750096","0.0-75.0","A2ZSL0EDN3H4AT","img_art/30.jpg","2","","","","","","","","","","","","","","","","","","","","","","","","",""
"5717","","image-button-response","78","755814","0.0-76.0-0.0","A2ZSL0EDN3H4AT","img_art/30.jpg","3","","","","","","","","","","","","","","","","","","","","","","","","",""
"98","","image-button-response","79","755916","0.0-77.0-0.0","A2ZSL0EDN3H4AT","img_art/30.jpg","3","","","","","","","","","","","","","","","","","","","","","","","","",""
"1335","","image-button-response","80","759962","0.0-77.1-0.1","A2ZSL0EDN3H4AT","img_art/30.jpg","1","","","","","","","","","","","","","","","","","","","","","","","","",""
"null","","html-keyboard-response","81","761469","0.0-78.0","A2ZSL0EDN3H4AT","<p style=""font-size: 48px;"">+</p>","","","","","null","allTrialResponses","1500","1","5","img_art/30.jpg","22","abstract unique idea","Cheyenne,Amanda,Alexandra,Sydney,Emma,Kelsey","A bit too dark for my liking,-10,200,20","Love how the red stands out,20,180,20","I really love the pastel colors and the 3D design in this,43,60,20","I love the colors, the style, and the uniqueness in this piece. I love everything.,50,320,20","Like the design, not a big fan of the colors,20,60,20","dont like this much at all,-30,240,20","Alexandra","I really love the pastel colors and the 3D design in this,43,60,20","Sydney","I love the colors, the style, and the uniqueness in this piece. I love everything.,50,320,20","Amanda","Love how the red stands out,20,180,20","6"
"6056","","survey-text","82","767553","0.0-79.0-0.0","A2ZSL0EDN3H4AT","","","","{""Q0"":""sky""}","","","","","","","","","","","","","","","","","","","","","","",""
"12996","","survey-text","83","780551","0.0-80.0-0.0","A2ZSL0EDN3H4AT","","","","{""Q0"":""old fashioned history""}","","","","","","","","","","","","","","","","","","","","","","",""
"2694","","image-slider-response","84","783247","0.0-81.0","A2ZSL0EDN3H4AT","","","","","15","","","","","","","","","","","","","","","","","","","","","",""
"null","","image-button-response","85","788250","0.0-82.0","A2ZSL0EDN3H4AT","img_art/18.jpg","null","","","","","","","","","","","","","","","","","","","","","","","","",""
"1156","","image-button-response","86","789409","0.0-83.0","A2ZSL0EDN3H4AT","img_art/18.jpg","0","","","","","","","","","","","","","","","","","","","","","","","","",""
"2864","","image-button-response","87","792276","0.0-84.0-0.0","A2ZSL0EDN3H4AT","img_art/18.jpg","3","","","","","","","","","","","","","","","","","","","","","","","","",""
"5363","","image-button-response","88","797642","0.0-85.0-0.0","A2ZSL0EDN3H4AT","img_art/18.jpg","1","","","","","","","","","","","","","","","","","","","","","","","","",""
"null","","html-keyboard-response","89","798144","0.0-86.0","A2ZSL0EDN3H4AT","<p style=""font-size: 48px;"">+</p>","","","","","null","allTrialResponses","500","1","6","img_art/18.jpg","15","old fashioned history","Kathryn,Amanda,Alexandra,Sydney,Elizabeth,Jordan","Like riding into battle. A sense of confidence, but also trepidation for what's coming. Could be a personification of death.,-10,140,20","Too political, not my cup of tea,-50,180,20","Ugly, too much is going on,-40,60,20","I like the colors being used, but I don't like the chaos in the middle of it.,20,320,20","Nice abstract art,50,20,20","Oh heck yes! I see two warriors riding down from valhalla, awesome painting,50,20,20","Kathryn","Like riding into battle. A sense of confidence, but also trepidation for what's coming. Could be a personification of death.,-10,140,20","Sydney","I like the colors being used, but I don't like the chaos in the middle of it.,20,320,20","Amanda","Too political, not my cup of tea,-50,180,20","6"
"25950","","survey-text","90","824123","0.0-87.0-0.0","A2ZSL0EDN3H4AT","","","","{""Q0"":""contemporary, very unique and bold""}","","","","","","","","","","","","","","","","","","","","","","",""
"2536.5","","image-slider-response","91","826661","0.0-88.0","A2ZSL0EDN3H4AT","","","","","29","","","","","","","","","","","","","","","","","","","","","",""
"null","","image-button-response","92","831665","0.0-89.0","A2ZSL0EDN3H4AT","img_art/8.jpg","null","","","","","","","","","","","","","","","","","","","","","","","","",""
"1344","","image-button-response","93","833013","0.0-90.0","A2ZSL0EDN3H4AT","img_art/8.jpg","4","","","","","","","","","","","","","","","","","","","","","","","","",""
"2692","","image-button-response","94","835707","0.0-91.0-0.0","A2ZSL0EDN3H4AT","img_art/8.jpg","1","","","","","","","","","","","","","","","","","","","","","","","","",""
"3620","","image-button-response","95","839331","0.0-92.0-0.0","A2ZSL0EDN3H4AT","img_art/8.jpg","5","","","","","","","","","","","","","","","","","","","","","","","","",""
"null","","html-keyboard-response","96","839834","0.0-93.0","A2ZSL0EDN3H4AT","<p style=""font-size: 48px;"">+</p>","","","","","null","allTrialResponses","500","1","7","img_art/8.jpg","29","contemporary, very unique and bold","Kathryn,Amanda,Kimberly,Sydney,Mackenzie,Danielle","The angle makes it kind of disorienting but I enjoy the fantastical colors and imagery. It's like a dream.,10,140,20","I love architectural paintings,46,180,20","Feels very 90's but I like the doorway,15,260,20","I love the colors in this piece.,25,320,20","The different shapes are fun to look for.,30,20,20","Enjoy this, it looks like a rushing water pool, surrounded by mountains and buildings, hiding details such as faces.,30,340,20","Mackenzie","The different shapes are fun to look for.,30,20,20","Amanda","I love architectural paintings,46,180,20","Danielle","Enjoy this, it looks like a rushing water pool, surrounded by mountains and buildings, hiding details such as faces.,30,340,20","6"
"16043","","survey-text","97","855896","0.0-94.0-0.0","A2ZSL0EDN3H4AT","","","","{""Q0"":""sad and gloomy""}","","","","","","","","","","","","","","","","","","","","","","",""
"3466.199999988079","","image-slider-response","98","859364","0.0-95.0","A2ZSL0EDN3H4AT","","","","","-12","","","","","","","","","","","","","","","","","","","","","",""
"null","","image-button-response","99","864381","0.0-96.0","A2ZSL0EDN3H4AT","img_art/20.jpg","null","","","","","","","","","","","","","","","","","","","","","","","","",""
"1465","","image-button-response","100","865849","0.0-97.0","A2ZSL0EDN3H4AT","img_art/20.jpg","1","","","","","","","","","","","","","","","","","","","","","","","","",""
"1248","","image-button-response","101","867098","0.0-98.0-0.0","A2ZSL0EDN3H4AT","img_art/20.jpg","2","","","","","","","","","","","","","","","","","","","","","","","","",""
"5468","","image-button-response","102","872568","0.0-99.0-0.0","A2ZSL0EDN3H4AT","img_art/20.jpg","5","","","","","","","","","","","","","","","","","","","","","","","","",""
"null","","html-keyboard-response","103","874083","0.0-100.0","A2ZSL0EDN3H4AT","<p style=""font-size: 48px;"">+</p>","","","","","null","allTrialResponses","1500","1","8","img_art/20.jpg","-12","sad and gloomy","Lindsey,Amanda,Shelby,Jasmine,Mackenzie,Danielle","Not sure what it is. The colors are pleasant; makes me want to figure it out. An animal skull in the desert?,10,400,20","Too negative looks like a car and plane crash,-50,180,20","Makes me think if a car crash or some sort of disaster,-20,240,20","This one is okay but I don't really care for it,5,340,20","Shapes are fun to interpret,21,20,20","Don't really like the subject it focuses on, however the color usage is great,-10,340,20","Amanda","Too negative looks like a car and plane crash,-50,180,20","Shelby","Makes me think if a car crash or some sort of disaster,-20,240,20","Danielle","Don't really like the subject it focuses on, however the color usage is great,-10,340,20","6"
"58009","","survey-text","104","932113","0.0-101.0-0.0","A2ZSL0EDN3H4AT","","","","{""Q0"":""overcrowded and confusing""}","","","","","","","","","","","","","","","","","","","","","","",""
"2536.199999988079","","image-slider-response","105","934651","0.0-102.0","A2ZSL0EDN3H4AT","","","","","-38","","","","","","","","","","","","","","","","","","","","","",""
"4941","","image-button-response","106","939658","0.0-103.0","A2ZSL0EDN3H4AT","img_art/27.jpg","3","","","","","","","","","","","","","","","","","","","","","","","","",""
"795","","image-button-response","107","940455","0.0-104.0","A2ZSL0EDN3H4AT","img_art/27.jpg","3","","","","","","","","","","","","","","","","","","","","","","","","",""
"3762","","image-button-response","108","944220","0.0-105.0-0.0","A2ZSL0EDN3H4AT","img_art/27.jpg","5","","","","","","","","","","","","","","","","","","","","","","","","",""
"1488","","image-button-response","109","945712","0.0-106.0-0.0","A2ZSL0EDN3H4AT","img_art/27.jpg","1","","","","","","","","","","","","","","","","","","","","","","","","",""
"null","","html-keyboard-response","110","947217","0.0-107.0","A2ZSL0EDN3H4AT","<p style=""font-size: 48px;"">+</p>","","","","","null","allTrialResponses","1500","1","9","img_art/27.jpg","-38","overcrowded and confusing","Jessica,Amanda,Shelby,Alicia,Chloe,Danielle","Don't get the point of this piece that much, but it doesn't bug me,1,400,20","I love the childish aspect to it,37,180,20","The colors in this one are wonderful,20,240,20","dont like it, don't hate it, meh.,2,120,20","Like the movement of the lines and dripping paint.,30,220,20","Looks a bit like a child's project with unsatisfying colors,-31,340,20","Alicia","dont like it, don't hate it, meh.,2,120,20","Danielle","Looks a bit like a child's project with unsatisfying colors,-31,340,20","Amanda","I love the childish aspect to it,37,180,20","6"
"31743","","survey-text","111","978975","0.0-108.0-0.0","A2ZSL0EDN3H4AT","","","","{""Q0"":""unique and sophisticated""}","","","","","","","","","","","","","","","","","","","","","","",""
"2551.800000011921","","image-slider-response","112","981529","0.0-109.0","A2ZSL0EDN3H4AT","","","","","14","","","","","","","","","","","","","","","","","","","","","",""
"4092","","image-button-response","113","986532","0.0-110.0","A2ZSL0EDN3H4AT","img_art/23.jpg","0","","","","","","","","","","","","","","","","","","","","","","","","",""
"2227","","image-button-response","114","988763","0.0-111.0","A2ZSL0EDN3H4AT","img_art/23.jpg","0","","","","","","","","","","","","","","","","","","","","","","","","",""
"3794","","image-button-response","115","992559","0.0-112.0-0.0","A2ZSL0EDN3H4AT","img_art/23.jpg","4","","","","","","","","","","","","","","","","","","","","","","","","",""
"1841","","image-button-response","116","994403","0.0-113.0-0.0","A2ZSL0EDN3H4AT","img_art/23.jpg","2","","","","","","","","","","","","","","","","","","","","","","","","",""
"null","","html-keyboard-response","117","995915","0.0-114.0","A2ZSL0EDN3H4AT","<p style=""font-size: 48px;"">+</p>","","","","","null","allTrialResponses","1500","1","10","img_art/23.jpg","14","unique and sophisticated","Alexandria,Amanda,Gabriela,Alicia,Rebecca,Danielle","makes me happy and want to dance,43,80,20","One of my favorites, love the colors and how the white looks like humans,50,180,20","It looks like a parade of musicians full of excitement. Makes me feel upbeat,33,140,20","No reactions, childish.,-19,120,20","love the contrast (was this painted by a left-handed artist?),7,100,20","While I don't normally enjoy these color schemes all together, I kind of like this one,10,340,20","Alexandria","makes me happy and want to dance,43,80,20","Rebecca","love the contrast (was this painted by a left-handed artist?),7,100,20","Gabriela","It looks like a parade of musicians full of excitement. Makes me feel upbeat,33,140,20","6"
"7175","","survey-text","118","1003129","0.0-115.0-0.0","A2ZSL0EDN3H4AT","","","","{""Q0"":""our""}","","","","","","","","","","","","","","","","","","","","","","",""
"83083","","survey-text","119","1086214","0.0-116.0-0.0","A2ZSL0EDN3H4AT","","","","{""Q0"":""busy and hectic lifestyle""}","","","","","","","","","","","","","","","","","","","","","","",""
"3513.399999976158","","image-slider-response","120","1089730","0.0-117.0","A2ZSL0EDN3H4AT","","","","","-46","","","","","","","","","","","","","","","","","","","","","",""
"2208","","image-button-response","121","1094736","0.0-118.0","A2ZSL0EDN3H4AT","img_art/2.jpg","1","","","","","","","","","","","","","","","","","","","","","","","","",""
"593","","image-button-response","122","1095332","0.0-119.0","A2ZSL0EDN3H4AT","img_art/2.jpg","1","","","","","","","","","","","","","","","","","","","","","","","","",""
"92","","image-button-response","123","1095426","0.0-120.0-0.0","A2ZSL0EDN3H4AT","img_art/2.jpg","1","","","","","","","","","","","","","","","","","","","","","","","","",""
"3552","","image-button-response","124","1102668","0.0-120.1-0.1","A2ZSL0EDN3H4AT","img_art/2.jpg","0","","","","","","","","","","","","","","","","","","","","","","","","",""
"2403","","image-button-response","125","1105074","0.0-121.0-0.0","A2ZSL0EDN3H4AT","img_art/2.jpg","4","","","","","","","","","","","","","","","","","","","","","","","","",""
"null","","html-keyboard-response","126","1106083","0.0-122.0","A2ZSL0EDN3H4AT","<p style=""font-size: 48px;"">+</p>","","","","","null","allTrialResponses","1000","1","11","img_art/2.jpg","-46","busy and hectic lifestyle","Alexandria,Sabrina,Gabriela,Melissa,Rebecca,Jennifer","too abstract and confusing,-19,80,20","I dont like the expression of this,-19,120,20","The people look blurred together,-21,140,20","appealing colors,4,240,20","do not understand,-21,100,20","Ugly color scheme,-50,380,20","Sabrina","I dont like the expression of this,-19,120,20","Alexandria","too abstract and confusing,-19,80,20","Rebecca","do not understand,-21,100,20","8"
"29082","","survey-text","127","1135183","0.0-123.0-0.0","A2ZSL0EDN3H4AT","","","","{""Q0"":""very creative expression""}","","","","","","","","","","","","","","","","","","","","","","",""
"10342","","image-slider-response","128","1145527","0.0-124.0","A2ZSL0EDN3H4AT","","","","","20","","","","","","","","","","","","","","","","","","","","","",""
"null","","image-button-response","129","1150546","0.0-125.0","A2ZSL0EDN3H4AT","img_art/29.jpg","null","","","","","","","","","","","","","","","","","","","","","","","","",""
"4363","","image-button-response","130","1154912","0.0-126.0","A2ZSL0EDN3H4AT","img_art/29.jpg","4","","","","","","","","","","","","","","","","","","","","","","","","",""
"91","","image-button-response","131","1155005","0.0-127.0-0.0","A2ZSL0EDN3H4AT","img_art/29.jpg","4","","","","","","","","","","","","","","","","","","","","","","","","",""
"1961","","image-button-response","132","1161178","0.0-127.1-0.1","A2ZSL0EDN3H4AT","img_art/29.jpg","5","","","","","","","","","","","","","","","","","","","","","","","","",""
"4135","","image-button-response","133","1165317","0.0-128.0-0.0","A2ZSL0EDN3H4AT","img_art/29.jpg","1","","","","","","","","","","","","","","","","","","","","","","","","",""
"null","","html-keyboard-response","134","1165819","0.0-129.0","A2ZSL0EDN3H4AT","<p style=""font-size: 48px;"">+</p>","","","","","null","allTrialResponses","500","1","12","img_art/29.jpg","20","very creative expression","Alexandria,Sabrina,Tiffany,Alexis,Rebecca,Christina","it is difficult to look at but you can't look away,-25,80,20","I love the representation of a mess,50,120,20","I feel a little disgust. There is something off-putting about the smooth shapes and dark colors.,-43,360,20","The black color is great, but I'm really not a fan of this hectic style,-40,100,20","love the texture, i don't know, i just really like it (and the paintbrush adds a nice touch),44,100,20","It's too on trend with the gray and doesn't look like a lasting piece,-4,240,20","Rebecca","love the texture, i don't know, i just really like it (and the paintbrush adds a nice touch),44,100,20","Christina","It's too on trend with the gray and doesn't look like a lasting piece,-4,240,20","Sabrina","I love the representation of a mess,50,120,20","10"
"33701","","survey-text","135","1199541","0.0-130.0-0.0","A2ZSL0EDN3H4AT","","","","{""Q0"":""creative color scheme""}","","","","","","","","","","","","","","","","","","","","","","",""
"2268.199999988079","","image-slider-response","136","1201812","0.0-131.0","A2ZSL0EDN3H4AT","","","","","28","","","","","","","","","","","","","","","","","","","","","",""
"null","","image-button-response","137","1206830","0.0-132.0","A2ZSL0EDN3H4AT","img_art/22.jpg","null","","","","","","","","","","","","","","","","","","","","","","","","",""
"193","","image-button-response","138","1207025","0.0-133.0","A2ZSL0EDN3H4AT","img_art/22.jpg","4","","","","","","","","","","","","","","","","","","","","","","","","",""
"4036","","image-button-response","139","1211063","0.0-134.0-0.0","A2ZSL0EDN3H4AT","img_art/22.jpg","0","","","","","","","","","","","","","","","","","","","","","","","","",""
"1787","","image-button-response","140","1212853","0.0-135.0-0.0","A2ZSL0EDN3H4AT","img_art/22.jpg","3","","","","","","","","","","","","","","","","","","","","","","","","",""
"null","","html-keyboard-response","141","1213356","0.0-136.0","A2ZSL0EDN3H4AT","<p style=""font-size: 48px;"">+</p>","","","","","null","allTrialResponses","500","1","13","img_art/22.jpg","28","creative color scheme","Hailey,Sabrina,Molly,Cassidy,Rebecca,Christina","a lost balloon in outer space,12,200,20","Just not feeling it,-19,120,20","Unfortunately, I can't see anything special in this painting.,-20,340,20","I don't really know why, I just like looking at it,10,140,20","colorful water (in front of castle?),17,100,20","i like the colors but it looks too 80s for me,7,240,20","Rebecca","colorful water (in front of castle?),17,100,20","Hailey","a lost balloon in outer space,12,200,20","Cassidy","I don't really know why, I just like looking at it,10,140,20","10"
"20761","","survey-text","142","1234139","0.0-137.0-0.0","A2ZSL0EDN3H4AT","","","","{""Q0"":""relaxing and chilling""}","","","","","","","","","","","","","","","","","","","","","","",""
"3068.099999964237","","image-slider-response","143","1237209","0.0-138.0","A2ZSL0EDN3H4AT","","","","","7","","","","","","","","","","","","","","","","","","","","","",""
"null","","image-button-response","144","1242213","0.0-139.0","A2ZSL0EDN3H4AT","img_art/9.jpg","null","","","","","","","","","","","","","","","","","","","","","","","","",""
"2124","","image-button-response","145","1244341","0.0-140.0","A2ZSL0EDN3H4AT","img_art/9.jpg","0","","","","","","","","","","","","","","","","","","","","","","","","",""
"3028","","image-button-response","146","1247371","0.0-141.0-0.0","A2ZSL0EDN3H4AT","img_art/9.jpg","2","","","","","","","","","","","","","","","","","","","","","","","","",""
"1701","","image-button-response","147","1249075","0.0-142.0-0.0","A2ZSL0EDN3H4AT","img_art/9.jpg","5","","","","","","","","","","","","","","","","","","","","","","","","",""
"null","","html-keyboard-response","148","1249576","0.0-143.0","A2ZSL0EDN3H4AT","<p style=""font-size: 48px;"">+</p>","","","","","null","allTrialResponses","500","1","14","img_art/9.jpg","7","relaxing and chilling","Hailey,Natalie,Bailey,Cassidy,Rebecca,Mariah","looks like a woman in bed and its ok,8,200,20","Gives me anxiety,-23,400,20","Not very enticing. No real substance other than a lady laying down,-35,360,20","The colors are okay, but this looks like someone scribbled with a crayon,1,140,20","love the color palette, but I'm gonna be honest, I don't really understand it,14,100,20","Pleasant in all ways.,27,140,20","Hailey","looks like a woman in bed and its ok,8,200,20","Bailey","Not very enticing. No real substance other than a lady laying down,-35,360,20","Mariah","Pleasant in all ways.,27,140,20","10"
"12686","","survey-text","149","1262284","0.0-144.0-0.0","A2ZSL0EDN3H4AT","","","","{""Q0"":""sad and evil""}","","","","","","","","","","","","","","","","","","","","","","",""
"2482.300000011921","","image-slider-response","150","1264769","0.0-145.0","A2ZSL0EDN3H4AT","","","","","-50","","","","","","","","","","","","","","","","","","","","","",""
"4730","","image-button-response","151","1269775","0.0-146.0","A2ZSL0EDN3H4AT","img_art/3.jpg","3","","","","","","","","","","","","","","","","","","","","","","","","",""
"2567","","image-button-response","152","1272346","0.0-147.0","A2ZSL0EDN3H4AT","img_art/3.jpg","3","","","","","","","","","","","","","","","","","","","","","","","","",""
"2917","","image-button-response","153","1275266","0.0-148.0-0.0","A2ZSL0EDN3H4AT","img_art/3.jpg","0","","","","","","","","","","","","","","","","","","","","","","","","",""
"1296","","image-button-response","154","1276564","0.0-149.0-0.0","A2ZSL0EDN3H4AT","img_art/3.jpg","2","","","","","","","","","","","","","","","","","","","","","","","","",""
"null","","html-keyboard-response","155","1278078","0.0-150.0","A2ZSL0EDN3H4AT","<p style=""font-size: 48px;"">+</p>","","","","","null","allTrialResponses","1500","1","15","img_art/3.jpg","-50","sad and evil","Hailey,Ashley,Bailey,Allison,Morgan,Mariah","painted by a 2 year old. cold and boring,-30,200,20","Reminds of John Lenonn's art a bit.,27,320,20","Just scribbles. People buy that?,-47,360,20","Reminds me of a hot mess,-10,140,20","Somewhere between a child's art and a poorly drawn battle map.,8,380,20","The composition keeps the eye moving, the colors are satisfying.,31,140,20","Allison","Reminds me of a hot mess,-10,140,20","Hailey","painted by a 2 year old. cold and boring,-30,200,20","Bailey","Just scribbles. People buy that?,-47,360,20","10"
"10449","","survey-text","156","1288571","0.0-151.0-0.0","A2ZSL0EDN3H4AT","","","","{""Q0"":""course""}","","","","","","","","","","","","","","","","","","","","","","",""
"27768","","survey-text","157","1316341","0.0-152.0-0.0","A2ZSL0EDN3H4AT","","","","{""Q0"":""bad weather storm""}","","","","","","","","","","","","","","","","","","","","","","",""
"3756.300000011921","","image-slider-response","158","1320099","0.0-153.0","A2ZSL0EDN3H4AT","","","","","3","","","","","","","","","","","","","","","","","","","","","",""
"2731","","image-button-response","159","1325103","0.0-154.0","A2ZSL0EDN3H4AT","img_art/21.jpg","0","","","","","","","","","","","","","","","","","","","","","","","","",""
"1117","","image-button-response","160","1326224","0.0-155.0","A2ZSL0EDN3H4AT","img_art/21.jpg","5","","","","","","","","","","","","","","","","","","","","","","","","",""
"2551","","image-button-response","161","1328778","0.0-156.0-0.0","A2ZSL0EDN3H4AT","img_art/21.jpg","2","","","","","","","","","","","","","","","","","","","","","","","","",""
"3615","","image-button-response","162","1332396","0.0-157.0-0.0","A2ZSL0EDN3H4AT","img_art/21.jpg","3","","","","","","","","","","","","","","","","","","","","","","","","",""
"null","","html-keyboard-response","163","1333907","0.0-158.0","A2ZSL0EDN3H4AT","<p style=""font-size: 48px;"">+</p>","","","","","null","allTrialResponses","1500","1","16","img_art/21.jpg","3","bad weather storm","Hailey,Erin,Bailey,Allison,Julia,Crystal","ocean and rocks at the beach,11,200,20","Love the colors and hue, ocean,38,120,20","Looks like two ships on fire. Cool image.,12,360,20","I like color mix here,15,140,20","there's not enough fine detail in this one,-27,40,20","Feels like a clash between land and sea,31,300,20","Crystal","Feels like a clash between land and sea,31,300,20","Bailey","Looks like two ships on fire. Cool image.,12,360,20","Allison","I like color mix here,15,140,20","10"
"21783","","survey-text","164","1355713","0.0-159.0-0.0","A2ZSL0EDN3H4AT","","","","{""Q0"":""fashionable looking""}","","","","","","","","","","","","","","","","","","","","","","",""
"2575.599999964237","","image-slider-response","165","1358291","0.0-160.0","A2ZSL0EDN3H4AT","","","","","-9","","","","","","","","","","","","","","","","","","","","","",""
"null","","image-button-response","166","1363313","0.0-161.0","A2ZSL0EDN3H4AT","img_art/12.jpg","null","","","","","","","","","","","","","","","","","","","","","","","","",""
"1559","","image-button-response","167","1364877","0.0-162.0","A2ZSL0EDN3H4AT","img_art/12.jpg","4","","","","","","","","","","","","","","","","","","","","","","","","",""
"1528","","image-button-response","168","1366407","0.0-163.0-0.0","A2ZSL0EDN3H4AT","img_art/12.jpg","1","","","","","","","","","","","","","","","","","","","","","","","","",""
"2544","","image-button-response","169","1368954","0.0-164.0-0.0","A2ZSL0EDN3H4AT","img_art/12.jpg","0","","","","","","","","","","","","","","","","","","","","","","","","",""
"null","","html-keyboard-response","170","1369457","0.0-165.0","A2ZSL0EDN3H4AT","<p style=""font-size: 48px;"">+</p>","","","","","null","allTrialResponses","500","1","17","img_art/12.jpg","-9","fashionable looking","Angelica,Amber,Bailey,Allison,Megan,Crystal","It's strange looking and unappealing.,-4,280,20","Like how all the colors seem to blend together.,15,200,20","Too many blocks. I can't see a purpose or a focal point,-44,360,20","Minimalist colors and shapes.,-5,140,20","Blocky windowed, safe and selfish,-41,200,20","I like the sectioned nature of the squares and curves. Not my favorite but still a good one.,27,300,20","Megan","Blocky windowed, safe and selfish,-41,200,20","Amber","Like how all the colors seem to blend together.,15,200,20","Angelica","It's strange looking and unappealing.,-4,280,20","10"
"15191","","survey-text","171","1384671","0.0-166.0-0.0","A2ZSL0EDN3H4AT","","","","{""Q0"":""creepy and scary""}","","","","","","","","","","","","","","","","","","","","","","",""
"2381.699999988079","","image-slider-response","172","1387054","0.0-167.0","A2ZSL0EDN3H4AT","","","","","-34","","","","","","","","","","","","","","","","","","","","","",""
"null","","image-button-response","173","1392065","0.0-168.0","A2ZSL0EDN3H4AT","img_art/25.jpg","null","","","","","","","","","","","","","","","","","","","","","","","","",""
"361","","image-button-response","174","1392429","0.0-169.0","A2ZSL0EDN3H4AT","img_art/25.jpg","3","","","","","","","","","","","","","","","","","","","","","","","","",""
"1279","","image-button-response","175","1393710","0.0-170.0-0.0","A2ZSL0EDN3H4AT","img_art/25.jpg","3","","","","","","","","","","","","","","","","","","","","","","","","",""
"1139","","image-button-response","176","1398146","0.0-170.1-0.1","A2ZSL0EDN3H4AT","img_art/25.jpg","3","","","","","","","","","","","","","","","","","","","","","","","","",""
"1055","","image-button-response","177","1402101","0.0-170.2-0.2","A2ZSL0EDN3H4AT","img_art/25.jpg","5","","","","","","","","","","","","","","","","","","","","","","","","",""
"1785","","image-button-response","178","1403889","0.0-171.0-0.0","A2ZSL0EDN3H4AT","img_art/25.jpg","1","","","","","","","","","","","","","","","","","","","","","","","","",""
"null","","html-keyboard-response","179","1404892","0.0-172.0","A2ZSL0EDN3H4AT","<p style=""font-size: 48px;"">+</p>","","","","","null","allTrialResponses","1000","1","18","img_art/25.jpg","-34","creepy and scary","Angelica,Amber,Shannon,Mikayla,Megan,Miranda","This is strange and poorly done.,-2,280,20","Regal. Reminds me of Egyptian art.,11,200,20","I like the way the persons clothes look, there could be more color though.,10,220,20","I LOVE fhe scary skeleton.,28,300,20","Beautiful color with an interesting otherworldly figure,29,200,20","This looks cool but I don't really care for it. Some sort or religious figure?,16,320,20","Mikayla","I LOVE fhe scary skeleton.,28,300,20","Miranda","This looks cool but I don't really care for it. Some sort or religious figure?,16,320,20","Amber","Regal. Reminds me of Egyptian art.,11,200,20","14"
"73687","","survey-text","180","1478600","0.0-173.0-0.0","A2ZSL0EDN3H4AT","","","","{""Q0"":""exploring and adventure""}","","","","","","","","","","","","","","","","","","","","","","",""
"2629.5","","image-slider-response","181","1481231","0.0-174.0","A2ZSL0EDN3H4AT","","","","","-22","","","","","","","","","","","","","","","","","","","","","",""
"null","","image-button-response","182","1486242","0.0-175.0","A2ZSL0EDN3H4AT","img_art/14.jpg","null","","","","","","","","","","","","","","","","","","","","","","","","",""
"7009","","image-button-response","183","1493254","0.0-176.0","A2ZSL0EDN3H4AT","img_art/14.jpg","5","","","","","","","","","","","","","","","","","","","","","","","","",""
"1247","","image-button-response","184","1494503","0.0-177.0-0.0","A2ZSL0EDN3H4AT","img_art/14.jpg","0","","","","","","","","","","","","","","","","","","","","","","","","",""
"850","","image-button-response","185","1495356","0.0-178.0-0.0","A2ZSL0EDN3H4AT","img_art/14.jpg","1","","","","","","","","","","","","","","","","","","","","","","","","",""
"null","","html-keyboard-response","186","1496358","0.0-179.0","A2ZSL0EDN3H4AT","<p style=""font-size: 48px;"">+</p>","","","","","null","allTrialResponses","1000","1","19","img_art/14.jpg","-22","exploring and adventure","Taylor,Amber,Victoria,Mikayla,Heather,Miranda","Makes me think of my plants growing,11,340,20","Reminds me of the outdoors.,12,200,20","calming to look at,37,400,20","The red looks like blood and im not a huge fan,15,300,20","nice simple art piece,2,260,20","This just looks like a kids watercolor painting.,-30,320,20","Miranda","This just looks like a kids watercolor painting.,-30,320,20","Taylor","Makes me think of my plants growing,11,340,20","Amber","Reminds me of the outdoors.,12,200,20","14"
"23796","","survey-text","187","1520177","0.0-180.0-0.0","A2ZSL0EDN3H4AT","","","","{""Q0"":""ship adventure on water""}","","","","","","","","","","","","","","","","","","","","","","",""
"2482.699999988079","","image-slider-response","188","1522662","0.0-181.0","A2ZSL0EDN3H4AT","","","","","18","","","","","","","","","","","","","","","","","","","","","",""
"4545","","image-button-response","189","1527664","0.0-182.0","A2ZSL0EDN3H4AT","img_art/10.jpg","5","","","","","","","","","","","","","","","","","","","","","","","","",""
"1502","","image-button-response","190","1529170","0.0-183.0","A2ZSL0EDN3H4AT","img_art/10.jpg","0","","","","","","","","","","","","","","","","","","","","","","","","",""
"1022","","image-button-response","191","1530194","0.0-184.0-0.0","A2ZSL0EDN3H4AT","img_art/10.jpg","5","","","","","","","","","","","","","","","","","","","","","","","","",""
"1917","","image-button-response","192","1532114","0.0-185.0-0.0","A2ZSL0EDN3H4AT","img_art/10.jpg","4","","","","","","","","","","","","","","","","","","","","","","","","",""
"null","","html-keyboard-response","193","1533119","0.0-186.0","A2ZSL0EDN3H4AT","<p style=""font-size: 48px;"">+</p>","","","","","null","allTrialResponses","1000","1","20","img_art/10.jpg","18","ship adventure on water","Taylor,Amber,Alexa,Emily,Meghan,Miranda","Makes me think of the exhilaration of a roller coaster,31,340,20","This picture just seems depressing.,-26,200,20","Cute and has a vintage feel to it,45,40,20","Ugly and low skill. I wouldn't want it.,-50,40,20","kind of reminds me of a map,1,220,20","It reminds me of how my dog has to run all over the place just to poop in one specific location.,-20,320,20","Taylor","Makes me think of the exhilaration of a roller coaster,31,340,20","Miranda","It reminds me of how my dog has to run all over the place just to poop in one specific location.,-20,320,20","Meghan","kind of reminds me of a map,1,220,20","14"
"5812","","survey-text","194","1538981","0.0-187.0-0.0","A2ZSL0EDN3H4AT","","","","{""Q0"":""we""}","","","","","","","","","","","","","","","","","","","","","","",""
"27171","","survey-text","195","1566154","0.0-188.0-0.0","A2ZSL0EDN3H4AT","","","","{""Q0"":""colorful trees and shrubs""}","","","","","","","","","","","","","","","","","","","","","","",""
"3264.2000000476837","","image-slider-response","196","1569420","0.0-189.0","A2ZSL0EDN3H4AT","","","","","-11","","","","","","","","","","","","","","","","","","","","","",""
"null","","image-button-response","197","1574440","0.0-190.0","A2ZSL0EDN3H4AT","img_art/17.jpg","null","","","","","","","","","","","","","","","","","","","","","","","","",""
"1750","","image-button-response","198","1576193","0.0-191.0","A2ZSL0EDN3H4AT","img_art/17.jpg","5","","","","","","","","","","","","","","","","","","","","","","","","",""
"2824","","image-button-response","199","1579019","0.0-192.0-0.0","A2ZSL0EDN3H4AT","img_art/17.jpg","0","","","","","","","","","","","","","","","","","","","","","","","","",""
"678","","image-button-response","200","1579699","0.0-193.0-0.0","A2ZSL0EDN3H4AT","img_art/17.jpg","2","","","","","","","","","","","","","","","","","","","","","","","","",""
"null","","html-keyboard-response","201","1580202","0.0-194.0","A2ZSL0EDN3H4AT","<p style=""font-size: 48px;"">+</p>","","","","","null","allTrialResponses","500","1","21","img_art/17.jpg","-11","colorful trees and shrubs","Taylor,Diana,Samantha,Kaitlin,Meghan,Miranda","A very inspiring piece,41,340,20","I really enjoyed this piece, it's a play on bringing the outside indoors.,32,380,20","Nice colors, shapes, flow,31,140,20","i feel some sadness in this picture,25,60,20","pretty bland in coloring,1,220,20","It seems a little dark but it is very beautiful,28,320,20","Miranda","It seems a little dark but it is very beautiful,28,320,20","Taylor","A very inspiring piece,41,340,20","Samantha","Nice colors, shapes, flow,31,140,20","14"
"28214","","survey-text","202","1608446","0.0-195.0-0.0","A2ZSL0EDN3H4AT","","","","{""Q0"":""under the sea art""}","","","","","","","","","","","","","","","","","","","","","","",""
"2193","","image-slider-response","203","1610642","0.0-196.0","A2ZSL0EDN3H4AT","","","","","25","","","","","","","","","","","","","","","","","","","","","",""
"null","","image-button-response","204","1615645","0.0-197.0","A2ZSL0EDN3H4AT","img_art/13.jpg","null","","","","","","","","","","","","","","","","","","","","","","","","",""
"353","","image-button-response","205","1616000","0.0-198.0","A2ZSL0EDN3H4AT","img_art/13.jpg","2","","","","","","","","","","","","","","","","","","","","","","","","",""
"1496","","image-button-response","206","1617500","0.0-199.0-0.0","A2ZSL0EDN3H4AT","img_art/13.jpg","4","","","","","","","","","","","","","","","","","","","","","","","","",""
"2427","","image-button-response","207","1619930","0.0-200.0-0.0","A2ZSL0EDN3H4AT","img_art/13.jpg","3","","","","","","","","","","","","","","","","","","","","","","","","",""
"null","","html-keyboard-response","208","1620944","0.0-201.0","A2ZSL0EDN3H4AT","<p style=""font-size: 48px;"">+</p>","","","","","null","allTrialResponses","1000","1","22","img_art/13.jpg","25","under the sea art","Taylor,Stephanie,Samantha,Amy,Katherine,Miranda","It makes me think of sitting inside on a rainy day while drinking a warm coffee,32,340,20","Raindrops splashing on the window.,50,300,20","Nice colors. beautiful blue,50,140,20","I recognize the beauty of this but FOR ME its large degree of abstraction diminishes my emotional interaction.,-10,220,20","Best color combo. i love this.,50,120,20","This looks like something that could be made off of windows paint, not a huge fan.,-30,320,20","Samantha","Nice colors. beautiful blue,50,140,20","Katherine","Best color combo. i love this.,50,120,20","Amy","I recognize the beauty of this but FOR ME its large degree of abstraction diminishes my emotional interaction.,-10,220,20","14"
"22493","","survey-text","209","1643463","0.0-202.0-0.0","A2ZSL0EDN3H4AT","","","","{""Q0"":""unusual and funny activity""}","","","","","","","","","","","","","","","","","","","","","","",""
"2810.800000011921","","image-slider-response","210","1646276","0.0-203.0","A2ZSL0EDN3H4AT","","","","","-49","","","","","","","","","","","","","","","","","","","","","",""
"null","","image-button-response","211","1651290","0.0-204.0","A2ZSL0EDN3H4AT","img_art/28.jpg","null","","","","","","","","","","","","","","","","","","","","","","","","",""
"397","","image-button-response","212","1651690","0.0-205.0","A2ZSL0EDN3H4AT","img_art/28.jpg","1","","","","","","","","","","","","","","","","","","","","","","","","",""
"809","","image-button-response","213","1652502","0.0-206.0-0.0","A2ZSL0EDN3H4AT","img_art/28.jpg","2","","","","","","","","","","","","","","","","","","","","","","","","",""
"3482","","image-button-response","214","1655986","0.0-207.0-0.0","A2ZSL0EDN3H4AT","img_art/28.jpg","4","","","","","","","","","","","","","","","","","","","","","","","","",""
"null","","html-keyboard-response","215","1656988","0.0-208.0","A2ZSL0EDN3H4AT","<p style=""font-size: 48px;"">+</p>","","","","","null","allTrialResponses","1000","1","23","img_art/28.jpg","-49","unusual and funny activity","Olivia,Mary,Samantha,Amy,Katherine,Catherine","conversating means hope,15,40,20","The colors are really ugly. They do not compliment each other well.,-45,180,20","Interesting and weird. Perfect conversational piece,33,140,20","Contemplative and a little dark. The muted colors and subject create a sense of mystery.,15,220,20","Eh it's just kinda brown and muddy and not very nice looking,-18,120,20","A mom protecting her child because something scary, (perhaps imaginary) wants to take the child.,-10,160,20","Mary","The colors are really ugly. They do not compliment each other well.,-45,180,20","Samantha","Interesting and weird. Perfect conversational piece,33,140,20","Katherine","Eh it's just kinda brown and muddy and not very nice looking,-18,120,20","14"
"16666","","survey-text","216","1673687","0.0-209.0-0.0","A2ZSL0EDN3H4AT","","","","{""Q0"":""footprints in the sand""}","","","","","","","","","","","","","","","","","","","","","","",""
"2317.899999976158","","image-slider-response","217","1676008","0.0-210.0","A2ZSL0EDN3H4AT","","","","","21","","","","","","","","","","","","","","","","","","","","","",""
"null","","image-button-response","218","1681012","0.0-211.0","A2ZSL0EDN3H4AT","img_art/7.jpg","null","","","","","","","","","","","","","","","","","","","","","","","","",""
"5851","","image-button-response","219","1686866","0.0-212.0","A2ZSL0EDN3H4AT","img_art/7.jpg","1","","","","","","","","","","","","","","","","","","","","","","","","",""
"3189","","image-button-response","220","1690060","0.0-213.0-0.0","A2ZSL0EDN3H4AT","img_art/7.jpg","3","","","","","","","","","","","","","","","","","","","","","","","","",""
"3092","","image-button-response","221","1693153","0.0-214.0-0.0","A2ZSL0EDN3H4AT","img_art/7.jpg","5","","","","","","","","","","","","","","","","","","","","","","","","",""
"null","","html-keyboard-response","222","1694655","0.0-215.0","A2ZSL0EDN3H4AT","<p style=""font-size: 48px;"">+</p>","","","","","null","allTrialResponses","1500","1","24","img_art/7.jpg","21","footprints in the sand","Nicole,Mary,Samantha,Claire,Katherine,Kelly","Looks like the surface of mars,29,20,20","This reminds me of a close up photo of a stone wall.,-19,180,20","Makes me want to feel it,19,140,20","reminds me of a cave wall,-21,260,20","Reminds me of bugs, I hate bugs,-7,120,20","My firs thought was ""gross""...not sure what this is and I dont think i want to know.,-19,220,20","Mary","This reminds me of a close up photo of a stone wall.,-19,180,20","Claire","reminds me of a cave wall,-21,260,20","Kelly","My firs thought was ""gross""...not sure what this is and I dont think i want to know.,-19,220,20","14"
"430914","","survey-text","223","2125599","0.0-216.0-0.0","A2ZSL0EDN3H4AT","","","","{""Q0"":""looks like trains on a track""}","","","","","","","","","","","","","","","","","","","","","","",""
"2285.800000011921","","image-slider-response","224","2127887","0.0-217.0","A2ZSL0EDN3H4AT","","","","","20","","","","","","","","","","","","","","","","","","","","","",""
"null","","image-button-response","225","2132890","0.0-218.0","A2ZSL0EDN3H4AT","img_art/11.jpg","null","","","","","","","","","","","","","","","","","","","","","","","","",""
"775","","image-button-response","226","2133669","0.0-219.0","A2ZSL0EDN3H4AT","img_art/11.jpg","2","","","","","","","","","","","","","","","","","","","","","","","","",""
"1398","","image-button-response","227","2135069","0.0-220.0-0.0","A2ZSL0EDN3H4AT","img_art/11.jpg","0","","","","","","","","","","","","","","","","","","","","","","","","",""
"752","","image-button-response","228","2135825","0.0-221.0-0.0","A2ZSL0EDN3H4AT","img_art/11.jpg","1","","","","","","","","","","","","","","","","","","","","","","","","",""
"null","","html-keyboard-response","229","2136827","0.0-222.0","A2ZSL0EDN3H4AT","<p style=""font-size: 48px;"">+</p>","","","","","null","allTrialResponses","1000","1","25","img_art/11.jpg","20","looks like trains on a track","Isabella,Mary,Katelyn,Claire,Erica,Kelly","City on a hill, tranquility,42,280,20","I don't care for the color combo. The wavy lines give dimension though.,-13,180,20","I like the dark lines and it interests me,13,100,20","the wavy lines are nice and pleasing,13,260,20","a lot of dark colours,-8,80,20","Its a little psychedelic.,10,220,20","Katelyn","I like the dark lines and it interests me,13,100,20","Isabella","City on a hill, tranquility,42,280,20","Mary","I don't care for the color combo. The wavy lines give dimension though.,-13,180,20","14"
"4465","","survey-text","230","2141348","0.0-223.0-0.0","A2ZSL0EDN3H4AT","","","","{""Q0"":""table""}","","","","","","","","","","","","","","","","","","","","","","",""
"42295","","survey-text","231","2183646","0.0-224.0-0.0","A2ZSL0EDN3H4AT","","","","{""Q0"":""cool looking art statue""}","","","","","","","","","","","","","","","","","","","","","","",""
"3278.199999988079","","image-slider-response","232","2186926","0.0-225.0","A2ZSL0EDN3H4AT","","","","","20","","","","","","","","","","","","","","","","","","","","","",""
"null","","image-button-response","233","2191929","0.0-226.0","A2ZSL0EDN3H4AT","img_art/4.jpg","null","","","","","","","","","","","","","","","","","","","","","","","","",""
"2994","","image-button-response","234","2194926","0.0-227.0","A2ZSL0EDN3H4AT","img_art/4.jpg","2","","","","","","","","","","","","","","","","","","","","","","","","",""
"1708","","image-button-response","235","2196636","0.0-228.0-0.0","A2ZSL0EDN3H4AT","img_art/4.jpg","3","","","","","","","","","","","","","","","","","","","","","","","","",""
"1238","","image-button-response","236","2197878","0.0-229.0-0.0","A2ZSL0EDN3H4AT","img_art/4.jpg","1","","","","","","","","","","","","","","","","","","","","","","","","",""
"null","","html-keyboard-response","237","2199385","0.0-230.0","A2ZSL0EDN3H4AT","<p style=""font-size: 48px;"">+</p>","","","","","null","allTrialResponses","1500","1","26","img_art/4.jpg","20","cool looking art statue","Isabella,Mary,Katelyn,Sara,Sophia,Cynthia","Looks like a creative hand,45,280,20","This looks like a child got into his diaper.,-46,180,20","I like the warmth in the colors. Its reassuring.,9,100,20","Random swirls again,-30,160,20","This looks like what happens when someone steps on a mustard packet.,-7,280,20","creepy as it looks like fingernails,-23,320,20","Katelyn","I like the warmth in the colors. Its reassuring.,9,100,20","Sara","Random swirls again,-30,160,20","Mary","This looks like a child got into his diaper.,-46,180,20","14"
"163350","","survey-text","238","2362766","0.0-231.0-0.0","A2ZSL0EDN3H4AT","","","","{""Q0"":""pleasant indoor/outdoor view""}","","","","","","","","","","","","","","","","","","","","","","",""
"27634","","image-slider-response","239","2390401","0.0-232.0","A2ZSL0EDN3H4AT","","","","","24","","","","","","","","","","","","","","","","","","","","","",""
"2661","","image-button-response","240","2395404","0.0-233.0","A2ZSL0EDN3H4AT","img_art/26.jpg","0","","","","","","","","","","","","","","","","","","","","","","","","",""
"548","","image-button-response","241","2395956","0.0-234.0","A2ZSL0EDN3H4AT","img_art/26.jpg","5","","","","","","","","","","","","","","","","","","","","","","","","",""
"1084","","image-button-response","242","2397042","0.0-235.0-0.0","A2ZSL0EDN3H4AT","img_art/26.jpg","2","","","","","","","","","","","","","","","","","","","","","","","","",""
"644","","image-button-response","243","2397690","0.0-236.0-0.0","A2ZSL0EDN3H4AT","img_art/26.jpg","1","","","","","","","","","","","","","","","","","","","","","","","","",""
"null","","html-keyboard-response","244","2399196","0.0-237.0","A2ZSL0EDN3H4AT","<p style=""font-size: 48px;"">+</p>","","","","","null","allTrialResponses","1500","1","27","img_art/26.jpg","24","pleasant indoor/outdoor view","Kylie,Mary,Katelyn,Sara,Sierra,Leah","Picturesque little town,45,300,20","I can tell it's some sort of outdoor scene. It looks very amateurish.,-9,180,20","Looks bland and boring,-5,100,20","I can somewhat city a city in this drawing,11,160,20","soothing and subtle,1,260,20","Really like it, a very nice neighborhood scene to me,42,360,20","Leah","Really like it, a very nice neighborhood scene to me,42,360,20","Katelyn","Looks bland and boring,-5,100,20","Mary","I can tell it's some sort of outdoor scene. It looks very amateurish.,-9,180,20","14"
"67685","","survey-text","245","2466910","0.0-238.0-0.0","A2ZSL0EDN3H4AT","","","","{""Q0"":""unique objects""}","","","","","","","","","","","","","","","","","","","","","","",""
"2694.300000011921","","image-slider-response","246","2469607","0.0-239.0","A2ZSL0EDN3H4AT","","","","","7","","","","","","","","","","","","","","","","","","","","","",""
"2738","","image-button-response","247","2474612","0.0-240.0","A2ZSL0EDN3H4AT","img_art/15.jpg","0","","","","","","","","","","","","","","","","","","","","","","","","",""
"674","","image-button-response","248","2475295","0.0-241.0","A2ZSL0EDN3H4AT","img_art/15.jpg","4","","","","","","","","","","","","","","","","","","","","","","","","",""
"1412","","image-button-response","249","2476708","0.0-242.0-0.0","A2ZSL0EDN3H4AT","img_art/15.jpg","0","","","","","","","","","","","","","","","","","","","","","","","","",""
"489","","image-button-response","250","2477201","0.0-243.0-0.0","A2ZSL0EDN3H4AT","img_art/15.jpg","1","","","","","","","","","","","","","","","","","","","","","","","","",""
"null","","html-keyboard-response","251","2478716","0.0-244.0","A2ZSL0EDN3H4AT","<p style=""font-size: 48px;"">+</p>","","","","","null","allTrialResponses","1500","1","28","img_art/15.jpg","7","unique objects","Katie,Mary,Katelyn,Andrea,Gabrielle,Leah","Too much black. I see weeds or dead/dying flowers.,-40,160,20","This piece gave me no emotion. It's ugly to me.,-38,180,20","Doesnt trigger much of a reaction overall,-2,100,20","Chameleons on reeds. Nice but doesn't really make me feel anything.,11,240,20","dark and provoking,-50,160,20","Pretty, like in a field of poppies,19,360,20","Gabrielle","dark and provoking,-50,160,20","Katie","Too much black. I see weeds or dead/dying flowers.,-40,160,20","Mary","This piece gave me no emotion. It's ugly to me.,-38,180,20","14"
"25544","","survey-text","252","2504276","0.0-245.0-0.0","A2ZSL0EDN3H4AT","","","","{""Q0"":""shopping on the block""}","","","","","","","","","","","","","","","","","","","","","","",""
"2551.399999976158","","image-slider-response","253","2506830","0.0-246.0","A2ZSL0EDN3H4AT","","","","","12","","","","","","","","","","","","","","","","","","","","","",""
"2639","","image-button-response","254","2511833","0.0-247.0","A2ZSL0EDN3H4AT","img_art/19.jpg","1","","","","","","","","","","","","","","","","","","","","","","","","",""
"871","","image-button-response","255","2512706","0.0-248.0","A2ZSL0EDN3H4AT","img_art/19.jpg","0","","","","","","","","","","","","","","","","","","","","","","","","",""
"825","","image-button-response","256","2513534","0.0-249.0-0.0","A2ZSL0EDN3H4AT","img_art/19.jpg","2","","","","","","","","","","","","","","","","","","","","","","","","",""
"825","","image-button-response","257","2514362","0.0-250.0-0.0","A2ZSL0EDN3H4AT","img_art/19.jpg","4","","","","","","","","","","","","","","","","","","","","","","","","",""
"null","","html-keyboard-response","258","2515377","0.0-251.0","A2ZSL0EDN3H4AT","<p style=""font-size: 48px;"">+</p>","","","","","null","allTrialResponses","1000","1","29","img_art/19.jpg","12","shopping on the block","Katie,Mary,Courtney,Dominique,Gabrielle,Makayla","Too busy, makes me anxious and frustrated. Lots of movement in the brush strokes.,-9,160,20","I interpret an outdoor scene. It's good because it makes me want to look longer.,22,180,20","Thats a lazy town,-8,280,20","I really like the colors and feel of this one and alot of life,41,400,20","not professional looking but not bad either,13,160,20","Looks like hustle and bustle ,,3,80,20","Katie","Too busy, makes me anxious and frustrated. Lots of movement in the brush strokes.,-9,160,20","Courtney","Thats a lazy town,-8,280,20","Gabrielle","not professional looking but not bad either,13,160,20","14"
"13782","","survey-text","259","2529185","0.0-252.0-0.0","A2ZSL0EDN3H4AT","","","","{""Q0"":""serene and pretty waterfall""}","","","","","","","","","","","","","","","","","","","","","","",""
"3301.5","","image-slider-response","260","2532488","0.0-253.0","A2ZSL0EDN3H4AT","","","","","41","","","","","","","","","","","","","","","","","","","","","",""
"4350","","image-button-response","261","2537491","0.0-254.0","A2ZSL0EDN3H4AT","img_art/24.jpg","1","","","","","","","","","","","","","","","","","","","","","","","","",""
"1487","","image-button-response","262","2538980","0.0-255.0","A2ZSL0EDN3H4AT","img_art/24.jpg","1","","","","","","","","","","","","","","","","","","","","","","","","",""
"2317","","image-button-response","263","2541300","0.0-256.0-0.0","A2ZSL0EDN3H4AT","img_art/24.jpg","2","","","","","","","","","","","","","","","","","","","","","","","","",""
"3366","","image-button-response","264","2544668","0.0-257.0-0.0","A2ZSL0EDN3H4AT","img_art/24.jpg","0","","","","","","","","","","","","","","","","","","","","","","","","",""
"null","","html-keyboard-response","265","2545680","0.0-258.0","A2ZSL0EDN3H4AT","<p style=""font-size: 48px;"">+</p>","","","","","null","allTrialResponses","1000","1","30","img_art/24.jpg","41","serene and pretty waterfall","Katie,Marissa,Courtney,Laura,Gabrielle,Madeline","I see a waterfall, which is relaxing and peaceful!  I like the blue coloring,30,160,20","It feels very serene,19,160,20","What a nice refreshing waterfall.,39,280,20","chunky fresh color,27,320,20","flowing water part is good, some of the rest is ok but dark,14,160,20","colors are good but the style is iffy,12,40,20","Marissa","It feels very serene,19,160,20","Courtney","What a nice refreshing waterfall.,39,280,20","Katie","I see a waterfall, which is relaxing and peaceful!  I like the blue coloring,30,160,20","14"
"5273","","image-button-response_instructions","266","2550988","0.0-259.0","A2ZSL0EDN3H4AT","","0","instructions","","","","","","","","","","","","","","","","","","","","","","","",""
"1148","","image-button-response","267","2552152","0.0-260.0","A2ZSL0EDN3H4AT","","0","","","","","","","","","","","","","","","","","","","","","","","","",""
