"rt","url","trial_type","trial_index","time_elapsed","internal_node_id","participant_id","stimulus","button_pressed","Name","responses","response","key_press","variableName","fixationTime","condition","trial","photo","subjectRating","subjectResponse","agentsNames","agent_1_Response","agent_2_Response","agent_3_Response","agent_4_Response","agent_5_Response","agent_6_Response","kept_1_name","kept_1_response","kept_2_name","kept_2_response","kept_3_name","kept_3_response","errorCounter"
"27307","external_page_harvard.html","external-html","0","27398","0.0-0.0","A314XJY8V1YL12","","","","","","","","","","","","","","","","","","","","","","","","","","",""
"1480","","image-button-response","1","28880","0.0-1.0","A314XJY8V1YL12","","1","","","","","","","","","","","","","","","","","","","","","","","","",""
"1249","","image-button-response","2","30131","0.0-2.0-0.0","A314XJY8V1YL12","","1","phone","","","","","","","","","","","","","","","","","","","","","","","",""
"7637","","survey-text","3","37769","0.0-3.0-0.0","A314XJY8V1YL12","","","","{""Q0"":""A314XJY8V1YL12""}","","","","","","","","","","","","","","","","","","","","","","",""
"19476","","image-button-response_instructions","4","57246","0.0-4.0","A314XJY8V1YL12","","0","instructions","","","","","","","","","","","","","","","","","","","","","","","",""
"22042","","image-button-response_instructions","5","79288","0.0-5.0","A314XJY8V1YL12","img_art/ins/popularity/ins1.png","0","instructions","","","","","","","","","","","","","","","","","","","","","","","",""
"5906","","image-button-response_instructions","6","85194","0.0-6.0","A314XJY8V1YL12","img_art/ins/popularity/ins2.png","0","instructions","","","","","","","","","","","","","","","","","","","","","","","",""
"4352","","image-button-response_instructions","7","89546","0.0-7.0","A314XJY8V1YL12","img_art/ins/popularity/ins2Extreme.png","0","instructions","","","","","","","","","","","","","","","","","","","","","","","",""
"12771","","image-button-response_instructions","8","102317","0.0-8.0","A314XJY8V1YL12","img_art/ins/popularity/ins3KEEPpop.PNG","0","instructions","","","","","","","","","","","","","","","","","","","","","","","",""
"3425","","image-button-response_instructions","9","105743","0.0-9.0","A314XJY8V1YL12","img_art/ins/popularity/ins3ANamepop.PNG","0","instructions","","","","","","","","","","","","","","","","","","","","","","","",""
"2652","","image-button-response_instructions","10","108395","0.0-10.0","A314XJY8V1YL12","img_art/ins/popularity/ins3ARatingpop.png","0","instructions","","","","","","","","","","","","","","","","","","","","","","","",""
"2128","","image-button-response_instructions","11","110523","0.0-11.0","A314XJY8V1YL12","img_art/ins/popularity/ins3ATextpop.png","0","instructions","","","","","","","","","","","","","","","","","","","","","","","",""
"5004","","image-button-response_instructions","12","115527","0.0-12.0","A314XJY8V1YL12","img_art/ins/popularity/ins3ALikespop.png","0","instructions","","","","","","","","","","","","","","","","","","","","","","","",""
"22629","","image-button-response_instructions","13","138157","0.0-13.0","A314XJY8V1YL12","img_art/ins/popularity/ins3KEEPpop.PNG","0","instructions","","","","","","","","","","","","","","","","","","","","","","","",""
"9856","","image-button-response_instructions","14","148013","0.0-14.0","A314XJY8V1YL12","img_art/ins/popularity/ins3_5RED.png","0","instructions","","","","","","","","","","","","","","","","","","","","","","","",""
"3665","","image-button-response_instructions","15","151679","0.0-15.0","A314XJY8V1YL12","img_art/ins/popularity/ins3KEEPpop.PNG","0","instructions","","","","","","","","","","","","","","","","","","","","","","","",""
"8176","","image-button-response_instructions","16","159855","0.0-16.0","A314XJY8V1YL12","img_art/ins/popularity/ins4KEEPpop.PNG","0","instructions","","","","","","","","","","","","","","","","","","","","","","","",""
"4513","","image-button-response_instructions","17","164370","0.0-17.0","A314XJY8V1YL12","img_art/ins/popularity/ins5KEEPpop.PNG","0","instructions","","","","","","","","","","","","","","","","","","","","","","","",""
"1876","","image-button-response_instructions","18","166246","0.0-18.0","A314XJY8V1YL12","","0","instructions","","","","","","","","","","","","","","","","","","","","","","","",""
"9832","","survey-text","19","176092","0.0-19.0-0.0","A314XJY8V1YL12","","","","{""Q0"":""but""}","","","","","","","","","","","","","","","","","","","","","","",""
"17419","","survey-text","20","193512","0.0-20.0-0.0","A314XJY8V1YL12","","","","{""Q0"":""It reminds me of flowers in a meadow, I like it""}","","","","","","","","","","","","","","","","","","","","","","",""
"3786.199999809265","","image-slider-response","21","197300","0.0-21.0","A314XJY8V1YL12","","","","","22","","","","","","","","","","","","","","","","","","","","","",""
"null","","image-button-response","22","202302","0.0-22.0","A314XJY8V1YL12","img_art/ins/1.jpg","null","","","","","","","","","","","","","","","","","","","","","","","","",""
"213","","image-button-response","23","202516","0.0-23.0","A314XJY8V1YL12","img_art/ins/1.jpg","5","","","","","","","","","","","","","","","","","","","","","","","","",""
"2066","","image-button-response","24","204584","0.0-24.0-0.0","A314XJY8V1YL12","img_art/ins/1.jpg","4","","","","","","","","","","","","","","","","","","","","","","","","",""
"2292","","image-button-response","25","206878","0.0-25.0-0.0","A314XJY8V1YL12","img_art/ins/1.jpg","0","","","","","","","","","","","","","","","","","","","","","","","","",""
"null","","html-keyboard-response","26","208380","0.0-26.0","A314XJY8V1YL12","<p style=""font-size: 48px;"">+</p>","","","","","null","allTrialResponses","1500","1","-2","img_art/ins/1.jpg","22","It reminds me of flowers in a meadow, I like it","Allison,Ashley,Beth,Dora,Erika,Jen","looks like a lot of things going on in the mist,20,20,20","I just don't get why these type of art would be popular,-32,40,20","This color reminds me of poo,-46,60,20","looks like what my niece in 3rd grade did this afternoon,-50,80,20","I like the sophisticated brushwork,40,100,20","It reminds me of a candy land dream I had,36,120,20","Jen","It reminds me of a candy land dream I had,36,120,20","Erika","I like the sophisticated brushwork,40,100,20","Allison","looks like a lot of things going on in the mist,20,20,20","0"
"40789","","survey-text","27","249173","0.0-27.0-0.0","A314XJY8V1YL12","","","","{""Q0"":""This reminds me of a glowing hot furnace, it feels menacing to me.""}","","","","","","","","","","","","","","","","","","","","","","",""
"3041","","image-slider-response","28","252215","0.0-28.0","A314XJY8V1YL12","","","","","-12","","","","","","","","","","","","","","","","","","","","","",""
"null","","image-button-response","29","257217","0.0-29.0","A314XJY8V1YL12","img_art/ins/2.jpg","null","","","","","","","","","","","","","","","","","","","","","","","","",""
"3490","","image-button-response","30","260709","0.0-30.0","A314XJY8V1YL12","img_art/ins/2.jpg","5","","","","","","","","","","","","","","","","","","","","","","","","",""
"1421","","image-button-response","31","262131","0.0-31.0-0.0","A314XJY8V1YL12","img_art/ins/2.jpg","4","","","","","","","","","","","","","","","","","","","","","","","","",""
"4731","","image-button-response","32","266863","0.0-32.0-0.0","A314XJY8V1YL12","img_art/ins/2.jpg","0","","","","","","","","","","","","","","","","","","","","","","","","",""
"null","","html-keyboard-response","33","268364","0.0-33.0","A314XJY8V1YL12","<p style=""font-size: 48px;"">+</p>","","","","","null","allTrialResponses","1500","1","-1","img_art/ins/2.jpg","-12","This reminds me of a glowing hot furnace, it feels menacing to me.","Allison,Kara,Katie,Jenna,Erika,Jen","I don't have strong feelings about this,10,20,20","I like the blocks of color arrangements,30,160,20","too much color!,-28,180,20","One of my pet peevs,-48,140,20","I would never be able to compose a sophisticated pallete like this,48,100,20","It reminds me of a fireplace,36,120,20","Jen","It reminds me of a fireplace,36,120,20","Erika","I would never be able to compose a sophisticated pallete like this,48,100,20","Allison","I don't have strong feelings about this,10,20,20","0"
"35238","","survey-text","34","303605","0.0-34.0-0.0","A314XJY8V1YL12","","","","{""Q0"":""The dark blue areas look like birds in a flock, I like it.""}","","","","","","","","","","","","","","","","","","","","","","",""
"3455.5999999046326","","image-slider-response","35","307062","0.0-35.0","A314XJY8V1YL12","","","","","11","","","","","","","","","","","","","","","","","","","","","",""
"2186","","image-button-response","36","312063","0.0-36.0","A314XJY8V1YL12","img_art/ins/3.jpg","1","","","","","","","","","","","","","","","","","","","","","","","","",""
"3365","","image-button-response","37","315430","0.0-37.0","A314XJY8V1YL12","img_art/ins/3.jpg","1","","","","","","","","","","","","","","","","","","","","","","","","",""
"2711","","image-button-response","38","318141","0.0-38.0-0.0","A314XJY8V1YL12","img_art/ins/3.jpg","0","","","","","","","","","","","","","","","","","","","","","","","","",""
"4277","","image-button-response","39","322419","0.0-39.0-0.0","A314XJY8V1YL12","img_art/ins/3.jpg","0","","","","","","","","","","","","","","","","","","","","","","","","",""
"2077","","image-button-response","40","328209","0.0-39.1-0.1","A314XJY8V1YL12","img_art/ins/3.jpg","4","","","","","","","","","","","","","","","","","","","","","","","","",""
"null","","html-keyboard-response","41","328711","0.0-40.0","A314XJY8V1YL12","<p style=""font-size: 48px;"">+</p>","","","","","null","allTrialResponses","500","1","0","img_art/ins/3.jpg","11","The dark blue areas look like birds in a flock, I like it.","Allison,Mary,Rose,Leslie,Erika,Jen","enjoy the different shades of blue,22,20,20","I like the overlapping of brushes,41,220,20","My daily routine, it's depressing,-20,240,20","It's an alright work,15,200,20","I feel connected to the artist,40,100,20","I can feel a rainy day from this painting,18,120,20","Mary","I like the overlapping of brushes,41,220,20","Allison","enjoy the different shades of blue,22,20,20","Erika","I feel connected to the artist,40,100,20","2"
"5671","","image-button-response_instructions","42","334386","0.0-41.0","A314XJY8V1YL12","","0","instructions","","","","","","","","","","","","","","","","","","","","","","","",""
"9177","","survey-likert","43","343564","0.0-42.0-0.0","A314XJY8V1YL12","","","","{""Q0"":"""",""Q1"":0,""Q2"":1}","","","","","","","","","","","","","","","","","","","","","","",""
"3765","","survey-text","44","347331","0.0-43.0-0.0","A314XJY8V1YL12","","","","{""Q0"":""rock""}","","","","","","","","","","","","","","","","","","","","","","",""
"27993","","survey-text","45","375325","0.0-44.0-0.0","A314XJY8V1YL12","","","","{""Q0"":""It's creative, it looks like a monster is about to attack the city.""}","","","","","","","","","","","","","","","","","","","","","","",""
"3787","","image-slider-response","46","379113","0.0-45.0","A314XJY8V1YL12","","","","","10","","","","","","","","","","","","","","","","","","","","","",""
"1798","","image-button-response","47","384129","0.0-46.0","A314XJY8V1YL12","img_art/8.jpg","0","","","","","","","","","","","","","","","","","","","","","","","","",""
"3973","","image-button-response","48","388104","0.0-47.0","A314XJY8V1YL12","img_art/8.jpg","5","","","","","","","","","","","","","","","","","","","","","","","","",""
"2449","","image-button-response","49","390553","0.0-48.0-0.0","A314XJY8V1YL12","img_art/8.jpg","3","","","","","","","","","","","","","","","","","","","","","","","","",""
"2199","","image-button-response","50","392753","0.0-49.0-0.0","A314XJY8V1YL12","img_art/8.jpg","1","","","","","","","","","","","","","","","","","","","","","","","","",""
"null","","html-keyboard-response","51","393755","0.0-50.0","A314XJY8V1YL12","<p style=""font-size: 48px;"">+</p>","","","","","null","allTrialResponses","1000","1","1","img_art/8.jpg","10","It's creative, it looks like a monster is about to attack the city.","Briana,Nicole,Tiffany,Leslie,Abigail,Emma","Its abstract and interesting,24,400,20","It's very grand and ominous but I like it,25,20,20","It makes me feel nervous. I can't tell ifI'm looking at an apartment, or a hellscape.,-18,360,20","The stylized faces remind me of German expressionism in a very good way.,40,380,20","I did not like the face,-10,20,20","Love the colors & block-style,50,60,20","Emma","Love the colors & block-style,50,60,20","Leslie","The stylized faces remind me of German expressionism in a very good way.,40,380,20","Nicole","It's very grand and ominous but I like it,25,20,20","2"
"39502","","survey-text","52","433259","0.0-51.0-0.0","A314XJY8V1YL12","","","","{""Q0"":""It looks dark and moody, like birds perched on trees in the winter.""}","","","","","","","","","","","","","","","","","","","","","","",""
"3233.699999809265","","image-slider-response","53","436494","0.0-52.0","A314XJY8V1YL12","","","","","-4","","","","","","","","","","","","","","","","","","","","","",""
"3141","","image-button-response","54","441496","0.0-53.0","A314XJY8V1YL12","img_art/15.jpg","0","","","","","","","","","","","","","","","","","","","","","","","","",""
"5792","","image-button-response","55","447288","0.0-54.0","A314XJY8V1YL12","img_art/15.jpg","4","","","","","","","","","","","","","","","","","","","","","","","","",""
"7549","","image-button-response","56","454838","0.0-55.0-0.0","A314XJY8V1YL12","img_art/15.jpg","0","","","","","","","","","","","","","","","","","","","","","","","","",""
"5662","","image-button-response","57","460502","0.0-56.0-0.0","A314XJY8V1YL12","img_art/15.jpg","2","","","","","","","","","","","","","","","","","","","","","","","","",""
"null","","html-keyboard-response","58","461504","0.0-57.0","A314XJY8V1YL12","<p style=""font-size: 48px;"">+</p>","","","","","null","allTrialResponses","1000","1","2","img_art/15.jpg","-4","It looks dark and moody, like birds perched on trees in the winter.","Cassidy,Nicole,Michaela,Leslie,Claire,Emma","I like the random blue dabs to break up the black, but it looks unfinished.,4,140,20","Very cool, i want it in my living room,50,20,20","Reminds me of lilacs,26,260,20","This elicits no reaction in me.,0,380,20","it's alright but a little cluttered,14,260,20","Don't love it but it's cute,16,60,20","Claire","it's alright but a little cluttered,14,260,20","Cassidy","I like the random blue dabs to break up the black, but it looks unfinished.,4,140,20","Michaela","Reminds me of lilacs,26,260,20","2"
"28235","","survey-text","59","489741","0.0-58.0-0.0","A314XJY8V1YL12","","","","{""Q0"":""It's interesting, it looks like a child's science project""}","","","","","","","","","","","","","","","","","","","","","","",""
"2322.9000000953674","","image-slider-response","60","492065","0.0-59.0","A314XJY8V1YL12","","","","","-9","","","","","","","","","","","","","","","","","","","","","",""
"null","","image-button-response","61","497066","0.0-60.0","A314XJY8V1YL12","img_art/5.jpg","null","","","","","","","","","","","","","","","","","","","","","","","","",""
"1126","","image-button-response","62","498193","0.0-61.0","A314XJY8V1YL12","img_art/5.jpg","2","","","","","","","","","","","","","","","","","","","","","","","","",""
"4315","","image-button-response","63","502509","0.0-62.0-0.0","A314XJY8V1YL12","img_art/5.jpg","5","","","","","","","","","","","","","","","","","","","","","","","","",""
"2726","","image-button-response","64","505237","0.0-63.0-0.0","A314XJY8V1YL12","img_art/5.jpg","3","","","","","","","","","","","","","","","","","","","","","","","","",""
"null","","html-keyboard-response","65","506739","0.0-64.0","A314XJY8V1YL12","<p style=""font-size: 48px;"">+</p>","","","","","null","allTrialResponses","1500","1","3","img_art/5.jpg","-9","It's interesting, it looks like a child's science project","Cassidy,Mariah,Michaela,Jacqueline,Claire,Julia","I like these colors together and the tiny splatters, but what is this?,7,140,20","It feels very strong and open.,31,140,20","Pretty simple, I'm not sure what it's supposed to mean,14,260,20","Seems very basic and uninteresting.,-15,300,20","I like the strokes and colors used,20,260,20","I like this one but wish it had more context around it,18,40,20","Michaela","Pretty simple, I'm not sure what it's supposed to mean,14,260,20","Julia","I like this one but wish it had more context around it,18,40,20","Jacqueline","Seems very basic and uninteresting.,-15,300,20","2"
"34824","","survey-text","66","541565","0.0-65.0-0.0","A314XJY8V1YL12","","","","{""Q0"":""the technique is interesting, it looks like a cafe table near a park.""}","","","","","","","","","","","","","","","","","","","","","","",""
"3434.7999997138977","","image-slider-response","67","545001","0.0-66.0","A314XJY8V1YL12","","","","","8","","","","","","","","","","","","","","","","","","","","","",""
"3979","","image-button-response","68","550003","0.0-67.0","A314XJY8V1YL12","img_art/27.jpg","1","","","","","","","","","","","","","","","","","","","","","","","","",""
"4832","","image-button-response","69","554837","0.0-68.0","A314XJY8V1YL12","img_art/27.jpg","4","","","","","","","","","","","","","","","","","","","","","","","","",""
"2903","","image-button-response","70","557740","0.0-69.0-0.0","A314XJY8V1YL12","img_art/27.jpg","5","","","","","","","","","","","","","","","","","","","","","","","","",""
"3113","","image-button-response","71","560854","0.0-70.0-0.0","A314XJY8V1YL12","img_art/27.jpg","1","","","","","","","","","","","","","","","","","","","","","","","","",""
"null","","html-keyboard-response","72","562355","0.0-71.0","A314XJY8V1YL12","<p style=""font-size: 48px;"">+</p>","","","","","null","allTrialResponses","1500","1","4","img_art/27.jpg","8","the technique is interesting, it looks like a cafe table near a park.","Rebecca,Kaitlyn,Michaela,Jacqueline,Jordan,Julia","don't understand, the green induces confusion,1,100,20","The variation of orange is nice,9,80,20","It looks like a kid colored a picture and an adult added to it,19,260,20","I don't really see anything to this art.,-5,300,20","two warring cities, separated by a small desert,50,20,20","Colors could be more pleasing, but I really like the thinner lines superimposed over the background,25,40,20","Jordan","two warring cities, separated by a small desert,50,20,20","Julia","Colors could be more pleasing, but I really like the thinner lines superimposed over the background,25,40,20","Kaitlyn","The variation of orange is nice,9,80,20","2"
"35031","","survey-text","73","597388","0.0-72.0-0.0","A314XJY8V1YL12","","","","{""Q0"":""It feels bold, like snakes rising up to take over the world.""}","","","","","","","","","","","","","","","","","","","","","","",""
"5445.300000190735","","image-slider-response","74","602835","0.0-73.0","A314XJY8V1YL12","","","","","7","","","","","","","","","","","","","","","","","","","","","",""
"null","","image-button-response","75","607846","0.0-74.0","A314XJY8V1YL12","img_art/30.jpg","null","","","","","","","","","","","","","","","","","","","","","","","","",""
"5279","","image-button-response","76","613126","0.0-75.0","A314XJY8V1YL12","img_art/30.jpg","2","","","","","","","","","","","","","","","","","","","","","","","","",""
"1273","","image-button-response","77","614400","0.0-76.0-0.0","A314XJY8V1YL12","img_art/30.jpg","5","","","","","","","","","","","","","","","","","","","","","","","","",""
"2631","","image-button-response","78","617032","0.0-77.0-0.0","A314XJY8V1YL12","img_art/30.jpg","4","","","","","","","","","","","","","","","","","","","","","","","","",""
"null","","html-keyboard-response","79","618534","0.0-78.0","A314XJY8V1YL12","<p style=""font-size: 48px;"">+</p>","","","","","null","allTrialResponses","1500","1","5","img_art/30.jpg","7","It feels bold, like snakes rising up to take over the world.","Mary,Kaitlyn,Amber,Kelsey,Jordan,Julia","I hate this piece. It looks like a child created it. The colors are awful.,-46,180,20","Do not like the streaks,-14,80,20","fresh and bold. outgoing.,15,200,20","dont like this much at all,-30,240,20","cant see the meaning behind it,-20,20,20","this is probably part of a neat series, but the abstraction doesn't speak to me,-17,40,20","Amber","fresh and bold. outgoing.,15,200,20","Julia","this is probably part of a neat series, but the abstraction doesn't speak to me,-17,40,20","Jordan","cant see the meaning behind it,-20,20,20","2"
"4352","","survey-text","80","622892","0.0-79.0-0.0","A314XJY8V1YL12","","","","{""Q0"":""sky""}","","","","","","","","","","","","","","","","","","","","","","",""
"44224","","survey-text","81","667117","0.0-80.0-0.0","A314XJY8V1YL12","","","","{""Q0"":""It's interesting, it looks like intertwining branches of a tree""}","","","","","","","","","","","","","","","","","","","","","","",""
"3100.9000000953674","","image-slider-response","82","670219","0.0-81.0","A314XJY8V1YL12","","","","","4","","","","","","","","","","","","","","","","","","","","","",""
"3131","","image-button-response","83","675221","0.0-82.0","A314XJY8V1YL12","img_art/4.jpg","2","","","","","","","","","","","","","","","","","","","","","","","","",""
"4401","","image-button-response","84","679623","0.0-83.0","A314XJY8V1YL12","img_art/4.jpg","3","","","","","","","","","","","","","","","","","","","","","","","","",""
"3353","","image-button-response","85","682978","0.0-84.0-0.0","A314XJY8V1YL12","img_art/4.jpg","2","","","","","","","","","","","","","","","","","","","","","","","","",""
"6456","","image-button-response","86","689435","0.0-85.0-0.0","A314XJY8V1YL12","img_art/4.jpg","1","","","","","","","","","","","","","","","","","","","","","","","","",""
"null","","html-keyboard-response","87","690937","0.0-86.0","A314XJY8V1YL12","<p style=""font-size: 48px;"">+</p>","","","","","null","allTrialResponses","1500","1","6","img_art/4.jpg","4","It's interesting, it looks like intertwining branches of a tree","Alyssa,Sara,Amber,Amy,Jordan,Julia","Extremely simple and like not alot of time was put into it,-20,160,20","Random swirls again,-30,160,20","I like the bold style.,10,200,20","disturbing and uncomfortable.,10,220,20","The colors remind me of mcdonalds,-33,20,20","it reminds me of McDonalds, and not in a good way.,-34,40,20","Amy","disturbing and uncomfortable.,10,220,20","Amber","I like the bold style.,10,200,20","Sara","Random swirls again,-30,160,20","2"
"37047","","survey-text","88","727986","0.0-87.0-0.0","A314XJY8V1YL12","","","","{""Q0"":""It's complex, and looks like windows of an apartment building ""}","","","","","","","","","","","","","","","","","","","","","","",""
"1960.8000001907349","","image-slider-response","89","729948","0.0-88.0","A314XJY8V1YL12","","","","","14","","","","","","","","","","","","","","","","","","","","","",""
"null","","image-button-response","90","734949","0.0-89.0","A314XJY8V1YL12","img_art/12.jpg","null","","","","","","","","","","","","","","","","","","","","","","","","",""
"2588","","image-button-response","91","737538","0.0-90.0","A314XJY8V1YL12","img_art/12.jpg","3","","","","","","","","","","","","","","","","","","","","","","","","",""
"1037","","image-button-response","92","738576","0.0-91.0-0.0","A314XJY8V1YL12","img_art/12.jpg","5","","","","","","","","","","","","","","","","","","","","","","","","",""
"2587","","image-button-response","93","741164","0.0-92.0-0.0","A314XJY8V1YL12","img_art/12.jpg","0","","","","","","","","","","","","","","","","","","","","","","","","",""
"null","","html-keyboard-response","94","741665","0.0-93.0","A314XJY8V1YL12","<p style=""font-size: 48px;"">+</p>","","","","","null","allTrialResponses","500","1","7","img_art/12.jpg","14","It's complex, and looks like windows of an apartment building ","Jessica,Sara,Amber,Amy,Mackenzie,Amanda","I like this concept.,11,400,20","I don't like the blocking,-20,160,20","Like how all the colors seem to blend together.,15,200,20","Quite lovely with depth and possibility.,21,220,20","I like the color scheme.,10,20,20","The colors are beautiful and it has great composition,50,180,20","Amy","Quite lovely with depth and possibility.,21,220,20","Amanda","The colors are beautiful and it has great composition,50,180,20","Jessica","I like this concept.,11,400,20","2"
"22092","","survey-text","95","763760","0.0-94.0-0.0","A314XJY8V1YL12","","","","{""Q0"":""It looks sad, like a ship sinking on the ocean""}","","","","","","","","","","","","","","","","","","","","","","",""
"4397.5","","image-slider-response","96","768158","0.0-95.0","A314XJY8V1YL12","","","","","-8","","","","","","","","","","","","","","","","","","","","","",""
"null","","image-button-response","97","773160","0.0-96.0","A314XJY8V1YL12","img_art/14.jpg","null","","","","","","","","","","","","","","","","","","","","","","","","",""
"1725","","image-button-response","98","774886","0.0-97.0","A314XJY8V1YL12","img_art/14.jpg","3","","","","","","","","","","","","","","","","","","","","","","","","",""
"3627","","image-button-response","99","778514","0.0-98.0-0.0","A314XJY8V1YL12","img_art/14.jpg","5","","","","","","","","","","","","","","","","","","","","","","","","",""
"3296","","image-button-response","100","781812","0.0-99.0-0.0","A314XJY8V1YL12","img_art/14.jpg","1","","","","","","","","","","","","","","","","","","","","","","","","",""
"null","","html-keyboard-response","101","783318","0.0-100.0","A314XJY8V1YL12","<p style=""font-size: 48px;"">+</p>","","","","","null","allTrialResponses","1500","1","8","img_art/14.jpg","-8","It looks sad, like a ship sinking on the ocean","Jessica,Morgan,Madison,Amy,Christina,Amanda","I kind of like it!,6,400,20","Angled, colored, boxy.,10,380,20","No strong feelings either direction.,-4,60,20","In others I might say the colors are garish. Here it works perfectly. The balance is wondrous and unlimiting.,25,220,20","has a tree look to it and it's colors are happy,9,240,20","Gorgeous use of water color,50,180,20","Amy","In others I might say the colors are garish. Here it works perfectly. The balance is wondrous and unlimiting.,25,220,20","Amanda","Gorgeous use of water color,50,180,20","Morgan","Angled, colored, boxy.,10,380,20","2"
"18934","","survey-text","102","802254","0.0-101.0-0.0","A314XJY8V1YL12","","","","{""Q0"":""This looks like a chaotic city scene.""}","","","","","","","","","","","","","","","","","","","","","","",""
"3837.199999809265","","image-slider-response","103","806092","0.0-102.0","A314XJY8V1YL12","","","","","10","","","","","","","","","","","","","","","","","","","","","",""
"4921","","image-button-response","104","811096","0.0-103.0","A314XJY8V1YL12","img_art/19.jpg","3","","","","","","","","","","","","","","","","","","","","","","","","",""
"725","","image-button-response","105","811822","0.0-104.0","A314XJY8V1YL12","img_art/19.jpg","3","","","","","","","","","","","","","","","","","","","","","","","","",""
"3747","","image-button-response","106","815570","0.0-105.0-0.0","A314XJY8V1YL12","img_art/19.jpg","0","","","","","","","","","","","","","","","","","","","","","","","","",""
"6035","","image-button-response","107","821606","0.0-106.0-0.0","A314XJY8V1YL12","img_art/19.jpg","5","","","","","","","","","","","","","","","","","","","","","","","","",""
"null","","html-keyboard-response","108","823117","0.0-107.0","A314XJY8V1YL12","<p style=""font-size: 48px;"">+</p>","","","","","null","allTrialResponses","1500","1","9","img_art/19.jpg","10","This looks like a chaotic city scene.","Samantha,Morgan,Jennifer,Amy,Sophia,Amanda","Intersting but not for me,21,140,20","Messy pantry full of food.,5,380,20","Very, very ugly and sloppy,-31,380,20","Though provoking. Adventurous.,10,220,20","This looks like a child's piece. I appreciate the artistic value, but not for me.,-20,280,20","Its just a nice painting, nothing too special but nothing negative,25,180,20","Amy","Though provoking. Adventurous.,10,220,20","Samantha","Intersting but not for me,21,140,20","Amanda","Its just a nice painting, nothing too special but nothing negative,25,180,20","2"
"20379","","survey-text","109","843499","0.0-108.0-0.0","A314XJY8V1YL12","","","","{""Q0"":""It feels like a lost or dark childhood.""}","","","","","","","","","","","","","","","","","","","","","","",""
"2813.5999999046326","","image-slider-response","110","846314","0.0-109.0","A314XJY8V1YL12","","","","","-4","","","","","","","","","","","","","","","","","","","","","",""
"2494","","image-button-response","111","851315","0.0-110.0","A314XJY8V1YL12","img_art/16.jpg","2","","","","","","","","","","","","","","","","","","","","","","","","",""
"1308","","image-button-response","112","852624","0.0-111.0","A314XJY8V1YL12","img_art/16.jpg","3","","","","","","","","","","","","","","","","","","","","","","","","",""
"1486","","image-button-response","113","854112","0.0-112.0-0.0","A314XJY8V1YL12","img_art/16.jpg","4","","","","","","","","","","","","","","","","","","","","","","","","",""
"4670","","image-button-response","114","858784","0.0-113.0-0.0","A314XJY8V1YL12","img_art/16.jpg","2","","","","","","","","","","","","","","","","","","","","","","","","",""
"null","","html-keyboard-response","115","859285","0.0-114.0","A314XJY8V1YL12","<p style=""font-size: 48px;"">+</p>","","","","","null","allTrialResponses","500","1","10","img_art/16.jpg","-4","It feels like a lost or dark childhood.","Samantha,Brianna,Taylor,Amy,Natalie,Amanda","Creepy teddybear,-50,140,20","It is interesting to say the least,0,20,20","It just makes me feel uncomfortable,-25,340,20","visceral and a little disturbing.,10,220,20","my reaction is that the picture is creepy,-19,400,20","Very modern, reminds me of bansky,43,180,20","Amy","visceral and a little disturbing.,10,220,20","Natalie","my reaction is that the picture is creepy,-19,400,20","Taylor","It just makes me feel uncomfortable,-25,340,20","2"
"4513","","survey-text","116","863802","0.0-115.0-0.0","A314XJY8V1YL12","","","","{""Q0"":""our""}","","","","","","","","","","","","","","","","","","","","","","",""
"37141","","survey-text","117","900944","0.0-116.0-0.0","A314XJY8V1YL12","","","","{""Q0"":""it feels like two people are arguing with each other""}","","","","","","","","","","","","","","","","","","","","","","",""
"2324.6000003814697","","image-slider-response","118","903269","0.0-117.0","A314XJY8V1YL12","","","","","-6","","","","","","","","","","","","","","","","","","","","","",""
"null","","image-button-response","119","908271","0.0-118.0","A314XJY8V1YL12","img_art/28.jpg","null","","","","","","","","","","","","","","","","","","","","","","","","",""
"1590","","image-button-response","120","909862","0.0-119.0","A314XJY8V1YL12","img_art/28.jpg","3","","","","","","","","","","","","","","","","","","","","","","","","",""
"7920","","image-button-response","121","917784","0.0-120.0-0.0","A314XJY8V1YL12","img_art/28.jpg","2","","","","","","","","","","","","","","","","","","","","","","","","",""
"2753","","image-button-response","122","920538","0.0-121.0-0.0","A314XJY8V1YL12","img_art/28.jpg","1","","","","","","","","","","","","","","","","","","","","","","","","",""
"null","","html-keyboard-response","123","922039","0.0-122.0","A314XJY8V1YL12","<p style=""font-size: 48px;"">+</p>","","","","","null","allTrialResponses","1500","1","11","img_art/28.jpg","-6","it feels like two people are arguing with each other","Hannah,Savannah,Taylor,Amy,Natalie,Allison","The colors are drab and a little depressing.,-20,240,20","White and dark balance is way off- Seems dull.,-33,200,20","Doesn't give me an emotional response,0,340,20","Contemplative and a little dark. The muted colors and subject create a sense of mystery.,15,220,20","it looks alright,-1,400,20","Dislike the colors.,-20,140,20","Amy","Contemplative and a little dark. The muted colors and subject create a sense of mystery.,15,220,20","Taylor","Doesn't give me an emotional response,0,340,20","Savannah","White and dark balance is way off- Seems dull.,-33,200,20","2"
"16491","","survey-text","124","938533","0.0-123.0-0.0","A314XJY8V1YL12","","","","{""Q0"":""This feels intense and angry""}","","","","","","","","","","","","","","","","","","","","","","",""
"2108.9000000953674","","image-slider-response","125","940643","0.0-124.0","A314XJY8V1YL12","","","","","-10","","","","","","","","","","","","","","","","","","","","","",""
"4093","","image-button-response","126","945645","0.0-125.0","A314XJY8V1YL12","img_art/3.jpg","0","","","","","","","","","","","","","","","","","","","","","","","","",""
"3499","","image-button-response","127","949146","0.0-126.0","A314XJY8V1YL12","img_art/3.jpg","5","","","","","","","","","","","","","","","","","","","","","","","","",""
"2078","","image-button-response","128","951224","0.0-127.0-0.0","A314XJY8V1YL12","img_art/3.jpg","0","","","","","","","","","","","","","","","","","","","","","","","","",""
"9914","","image-button-response","129","961140","0.0-128.0-0.0","A314XJY8V1YL12","img_art/3.jpg","4","","","","","","","","","","","","","","","","","","","","","","","","",""
"null","","html-keyboard-response","130","962141","0.0-129.0","A314XJY8V1YL12","<p style=""font-size: 48px;"">+</p>","","","","","null","allTrialResponses","1000","1","12","img_art/3.jpg","-10","This feels intense and angry","Kathryn,Savannah,Taylor,Amy,Alicia,Margaret","This gives me a negative feeling, like someone trying to scratch out their flaws. I see low self-esteem.,-20,140,20","Completely incomprehensible.,-33,200,20","It doesn't make me think of art,-20,340,20","i like the colors particulairly the contrast of foreground to background. Exciting and thoughtful.,10,220,20","scribbles in red. 2 minute piece.,-30,120,20","seems distressing. a blood scene,-3,100,20","Margaret","seems distressing. a blood scene,-3,100,20","Kathryn","This gives me a negative feeling, like someone trying to scratch out their flaws. I see low self-esteem.,-20,140,20","Alicia","scribbles in red. 2 minute piece.,-30,120,20","2"
"25155","","survey-text","131","987298","0.0-130.0-0.0","A314XJY8V1YL12","","","","{""Q0"":""very bold, like an angry sea crashing on the shore""}","","","","","","","","","","","","","","","","","","","","","","",""
"2501","","image-slider-response","132","989800","0.0-131.0","A314XJY8V1YL12","","","","","7","","","","","","","","","","","","","","","","","","","","","",""
"3917","","image-button-response","133","994801","0.0-132.0","A314XJY8V1YL12","img_art/21.jpg","1","","","","","","","","","","","","","","","","","","","","","","","","",""
"1029","","image-button-response","134","995832","0.0-133.0","A314XJY8V1YL12","img_art/21.jpg","1","","","","","","","","","","","","","","","","","","","","","","","","",""
"5779","","image-button-response","135","1001612","0.0-134.0-0.0","A314XJY8V1YL12","img_art/21.jpg","0","","","","","","","","","","","","","","","","","","","","","","","","",""
"5815","","image-button-response","136","1007427","0.0-135.0-0.0","A314XJY8V1YL12","img_art/21.jpg","2","","","","","","","","","","","","","","","","","","","","","","","","",""
"null","","html-keyboard-response","137","1008428","0.0-136.0","A314XJY8V1YL12","<p style=""font-size: 48px;"">+</p>","","","","","null","allTrialResponses","1000","1","13","img_art/21.jpg","7","very bold, like an angry sea crashing on the shore","Kathryn,Danielle,Anna,Paige,Alicia,Margaret","This feels chaotic, like a battle or a storm.,-20,140,20","I like it. It's some of war-scene, bloodshed and battle on the left, field of dispair on the right, dark and rich,40,340,20","I love the colors and the differences between the left and right sides.,22,300,20","the picture is boring,1,60,20","Don't know why I like it, cant describe, maybe many landscapes?,47,120,20","i like the colors and the blending,17,100,20","Danielle","I like it. It's some of war-scene, bloodshed and battle on the left, field of dispair on the right, dark and rich,40,340,20","Kathryn","This feels chaotic, like a battle or a storm.,-20,140,20","Anna","I love the colors and the differences between the left and right sides.,22,300,20","2"
"19493","","survey-text","138","1027924","0.0-137.0-0.0","A314XJY8V1YL12","","","","{""Q0"":""It's soothing, reminds me of a city street.""}","","","","","","","","","","","","","","","","","","","","","","",""
"1761","","image-slider-response","139","1029686","0.0-138.0","A314XJY8V1YL12","","","","","13","","","","","","","","","","","","","","","","","","","","","",""
"2353","","image-button-response","140","1034697","0.0-139.0","A314XJY8V1YL12","img_art/26.jpg","0","","","","","","","","","","","","","","","","","","","","","","","","",""
"1508","","image-button-response","141","1036206","0.0-140.0","A314XJY8V1YL12","img_art/26.jpg","0","","","","","","","","","","","","","","","","","","","","","","","","",""
"3227","","image-button-response","142","1039434","0.0-141.0-0.0","A314XJY8V1YL12","img_art/26.jpg","4","","","","","","","","","","","","","","","","","","","","","","","","",""
"2809","","image-button-response","143","1042244","0.0-142.0-0.0","A314XJY8V1YL12","img_art/26.jpg","3","","","","","","","","","","","","","","","","","","","","","","","","",""
"null","","html-keyboard-response","144","1042746","0.0-143.0","A314XJY8V1YL12","<p style=""font-size: 48px;"">+</p>","","","","","null","allTrialResponses","500","1","14","img_art/26.jpg","13","It's soothing, reminds me of a city street.","Kathryn,Danielle,Anna,Kristen,Andrea,Cheyenne","This piece feels pretty chill like it's just a normal day in the city.,10,140,20","It's a little too yellow-y for me, I'm not a huge fan of the color schemes or setting it portrays.,-20,340,20","It looks like a watercolor I did when I was 6.,-30,300,20","happy, park, childhood,9,280,20","I get the feeling of a small old world street.,24,240,20","No strong reaction but the color scheme is nice,10,200,20","Kathryn","This piece feels pretty chill like it's just a normal day in the city.,10,140,20","Andrea","I get the feeling of a small old world street.,24,240,20","Kristen","happy, park, childhood,9,280,20","2"
"22499","","survey-text","145","1065248","0.0-144.0-0.0","A314XJY8V1YL12","","","","{""Q0"":""It looks like a tree is trying to grow out of a building.""}","","","","","","","","","","","","","","","","","","","","","","",""
"2656","","image-slider-response","146","1067905","0.0-145.0","A314XJY8V1YL12","","","","","19","","","","","","","","","","","","","","","","","","","","","",""
"null","","image-button-response","147","1072906","0.0-146.0","A314XJY8V1YL12","img_art/17.jpg","null","","","","","","","","","","","","","","","","","","","","","","","","",""
"4195","","image-button-response","148","1077102","0.0-147.0","A314XJY8V1YL12","img_art/17.jpg","5","","","","","","","","","","","","","","","","","","","","","","","","",""
"5229","","image-button-response","149","1082332","0.0-148.0-0.0","A314XJY8V1YL12","img_art/17.jpg","0","","","","","","","","","","","","","","","","","","","","","","","","",""
"8261","","image-button-response","150","1090594","0.0-149.0-0.0","A314XJY8V1YL12","img_art/17.jpg","3","","","","","","","","","","","","","","","","","","","","","","","","",""
"null","","html-keyboard-response","151","1092102","0.0-150.0","A314XJY8V1YL12","<p style=""font-size: 48px;"">+</p>","","","","","null","allTrialResponses","1500","1","15","img_art/17.jpg","19","It looks like a tree is trying to grow out of a building.","Kathryn,Autumn,Angelica,Kristen,Andrea,Gabriela","Reminds me of the modern art museum in Rome. I didn't ""get"" many pieces, but had a positive cultural experience overall.,20,140,20","Looks awesome .,33,340,20","This could have been good but was poorly done.,-5,280,20","calm, tranquil, happy,50,280,20","A coming storm but I think I would appreciate it more with more contrast.,-12,240,20","This makes me feel inspired and happy. I love everything about this portrait,45,140,20","Gabriela","This makes me feel inspired and happy. I love everything about this portrait,45,140,20","Kathryn","Reminds me of the modern art museum in Rome. I didn't ""get"" many pieces, but had a positive cultural experience overall.,20,140,20","Kristen","calm, tranquil, happy,50,280,20","2"
"5191","","survey-text","152","1097300","0.0-151.0-0.0","A314XJY8V1YL12","","","","{""Q0"":""course""}","","","","","","","","","","","","","","","","","","","","","","",""
"19151","","survey-text","153","1116452","0.0-152.0-0.0","A314XJY8V1YL12","","","","{""Q0"":""I feel calm looking at the stream of water flowing down the hill""}","","","","","","","","","","","","","","","","","","","","","","",""
"3114.3999996185303","","image-slider-response","154","1119568","0.0-153.0","A314XJY8V1YL12","","","","","28","","","","","","","","","","","","","","","","","","","","","",""
"null","","image-button-response","155","1124583","0.0-154.0","A314XJY8V1YL12","img_art/24.jpg","null","","","","","","","","","","","","","","","","","","","","","","","","",""
"9298","","image-button-response","156","1133882","0.0-155.0","A314XJY8V1YL12","img_art/24.jpg","4","","","","","","","","","","","","","","","","","","","","","","","","",""
"3942","","image-button-response","157","1137826","0.0-156.0-0.0","A314XJY8V1YL12","img_art/24.jpg","3","","","","","","","","","","","","","","","","","","","","","","","","",""
"4482","","image-button-response","158","1142308","0.0-157.0-0.0","A314XJY8V1YL12","img_art/24.jpg","1","","","","","","","","","","","","","","","","","","","","","","","","",""
"null","","html-keyboard-response","159","1143809","0.0-158.0","A314XJY8V1YL12","<p style=""font-size: 48px;"">+</p>","","","","","null","allTrialResponses","1500","1","16","img_art/24.jpg","28","I feel calm looking at the stream of water flowing down the hill","Kathryn,Grace,Chloe,Kristen,Marissa,Gabriela","This is clear and healthy. It makes me think of unspoiled nature.,20,140,20","Abstract falls & nature.,41,180,20","Pretty but cheesy,-15,220,20","calm, nature, safe, happy place,,50,280,20","It feels very serene,19,160,20","I love how bold and vibrant the colors are,40,140,20","Marissa","It feels very serene,19,160,20","Kristen","calm, nature, safe, happy place,,50,280,20","Grace","Abstract falls & nature.,41,180,20","2"
"18515","","survey-text","160","1162326","0.0-159.0-0.0","A314XJY8V1YL12","","","","{""Q0"":""This looks like a battle that's very intense""}","","","","","","","","","","","","","","","","","","","","","","",""
"2356.5","","image-slider-response","161","1164684","0.0-160.0","A314XJY8V1YL12","","","","","13","","","","","","","","","","","","","","","","","","","","","",""
"null","","image-button-response","162","1169686","0.0-161.0","A314XJY8V1YL12","img_art/1.jpg","null","","","","","","","","","","","","","","","","","","","","","","","","",""
"1933","","image-button-response","163","1171620","0.0-162.0","A314XJY8V1YL12","img_art/1.jpg","4","","","","","","","","","","","","","","","","","","","","","","","","",""
"3333","","image-button-response","164","1174954","0.0-163.0-0.0","A314XJY8V1YL12","img_art/1.jpg","1","","","","","","","","","","","","","","","","","","","","","","","","",""
"1901","","image-button-response","165","1176856","0.0-164.0-0.0","A314XJY8V1YL12","img_art/1.jpg","2","","","","","","","","","","","","","","","","","","","","","","","","",""
"null","","html-keyboard-response","166","1177858","0.0-165.0","A314XJY8V1YL12","<p style=""font-size: 48px;"">+</p>","","","","","null","allTrialResponses","1000","1","17","img_art/1.jpg","13","This looks like a battle that's very intense","Kelly,Grace,Sydney,Kristen,Marissa,Kayla","I love colorful photos and I like this one a lot.,25,220,20","Again, like the colors & abstractness.,29,180,20","I like the way that the colors blend.,35,320,20","river, fall, cozy, warm,12,280,20","It is beautiful, I really enjoy the colors,32,160,20","Happy! Reminds me of hiking in tennesee.,18,180,20","Marissa","It is beautiful, I really enjoy the colors,32,160,20","Grace","Again, like the colors & abstractness.,29,180,20","Sydney","I like the way that the colors blend.,35,320,20","2"
"23992","","survey-text","167","1201852","0.0-166.0-0.0","A314XJY8V1YL12","","","","{""Q0"":""This looks like someone's inner conflict""}","","","","","","","","","","","","","","","","","","","","","","",""
"3886.5999999046326","","image-slider-response","168","1205739","0.0-167.0","A314XJY8V1YL12","","","","","14","","","","","","","","","","","","","","","","","","","","","",""
"null","","image-button-response","169","1210741","0.0-168.0","A314XJY8V1YL12","img_art/18.jpg","null","","","","","","","","","","","","","","","","","","","","","","","","",""
"4654","","image-button-response","170","1215396","0.0-169.0","A314XJY8V1YL12","img_art/18.jpg","4","","","","","","","","","","","","","","","","","","","","","","","","",""
"2864","","image-button-response","171","1218262","0.0-170.0-0.0","A314XJY8V1YL12","img_art/18.jpg","3","","","","","","","","","","","","","","","","","","","","","","","","",""
"9192","","image-button-response","172","1227456","0.0-171.0-0.0","A314XJY8V1YL12","img_art/18.jpg","2","","","","","","","","","","","","","","","","","","","","","","","","",""
"null","","html-keyboard-response","173","1228472","0.0-172.0","A314XJY8V1YL12","<p style=""font-size: 48px;"">+</p>","","","","","null","allTrialResponses","1000","1","18","img_art/18.jpg","14","This looks like someone's inner conflict","Sierra,Grace,Sydney,Cynthia,Marissa,Hailey","it looks like people,9,260,20","First saw sailing ship in bad weather but then saw woman in upper left - not sure what I'm seeing.,21,180,20","I like the colors being used, but I don't like the chaos in the middle of it.,20,320,20","Imaginative, makes me feel creative.,42,320,20","This brings to mind the four horsemen of the apocalypse,8,160,20","i like the colors. outerspace,21,200,20","Marissa","This brings to mind the four horsemen of the apocalypse,8,160,20","Cynthia","Imaginative, makes me feel creative.,42,320,20","Sydney","I like the colors being used, but I don't like the chaos in the middle of it.,20,320,20","2"
"23579","","survey-text","174","1252054","0.0-173.0-0.0","A314XJY8V1YL12","","","","{""Q0"":""It looks like raindrops or snow hitting a window""}","","","","","","","","","","","","","","","","","","","","","","",""
"2360.800000190735","","image-slider-response","175","1254416","0.0-174.0","A314XJY8V1YL12","","","","","11","","","","","","","","","","","","","","","","","","","","","",""
"null","","image-button-response","176","1259418","0.0-175.0","A314XJY8V1YL12","img_art/13.jpg","null","","","","","","","","","","","","","","","","","","","","","","","","",""
"2814","","image-button-response","177","1262232","0.0-176.0","A314XJY8V1YL12","img_art/13.jpg","3","","","","","","","","","","","","","","","","","","","","","","","","",""
"2093","","image-button-response","178","1264326","0.0-177.0-0.0","A314XJY8V1YL12","img_art/13.jpg","4","","","","","","","","","","","","","","","","","","","","","","","","",""
"5281","","image-button-response","179","1269608","0.0-178.0-0.0","A314XJY8V1YL12","img_art/13.jpg","0","","","","","","","","","","","","","","","","","","","","","","","","",""
"null","","html-keyboard-response","180","1271116","0.0-179.0","A314XJY8V1YL12","<p style=""font-size: 48px;"">+</p>","","","","","null","allTrialResponses","1500","1","19","img_art/13.jpg","11","It looks like raindrops or snow hitting a window","Kaitlin,Caroline,Sydney,Cynthia,Marissa,Courtney","I like this picture. The choice of colors are good,31,60,20","Pretty but didnt cause a reaction,33,100,20","I love the style of this piece, but the color choice could've been more eye catching or calming.,40,320,20","It reminds me of rain,11,320,20","It reminds me of looking out the window on a stormy night at cars drive by,21,160,20","Debree on top of a calm pond.,18,280,20","Cynthia","It reminds me of rain,11,320,20","Marissa","It reminds me of looking out the window on a stormy night at cars drive by,21,160,20","Kaitlin","I like this picture. The choice of colors are good,31,60,20","2"
"25762","","survey-text","181","1296880","0.0-180.0-0.0","A314XJY8V1YL12","","","","{""Q0"":""It looks like a turbulent sea full of ships""}","","","","","","","","","","","","","","","","","","","","","","",""
"4320.900000095367","","image-slider-response","182","1301202","0.0-181.0","A314XJY8V1YL12","","","","","-9","","","","","","","","","","","","","","","","","","","","","",""
"null","","image-button-response","183","1306204","0.0-182.0","A314XJY8V1YL12","img_art/11.jpg","null","","","","","","","","","","","","","","","","","","","","","","","","",""
"1354","","image-button-response","184","1307558","0.0-183.0","A314XJY8V1YL12","img_art/11.jpg","5","","","","","","","","","","","","","","","","","","","","","","","","",""
"1592","","image-button-response","185","1309152","0.0-184.0-0.0","A314XJY8V1YL12","img_art/11.jpg","3","","","","","","","","","","","","","","","","","","","","","","","","",""
"2177","","image-button-response","186","1311330","0.0-185.0-0.0","A314XJY8V1YL12","img_art/11.jpg","2","","","","","","","","","","","","","","","","","","","","","","","","",""
"null","","html-keyboard-response","187","1312332","0.0-186.0","A314XJY8V1YL12","<p style=""font-size: 48px;"">+</p>","","","","","null","allTrialResponses","1000","1","20","img_art/11.jpg","-9","It looks like a turbulent sea full of ships","Kaitlin,Chelsea,Cassandra,Cynthia,Marissa,Bailey","a beautiful piece of art,33,60,20","I like the harsh black lines against a soft background.,27,180,20","I liked it it looked like an roller coasters at an amusment park.,16,120,20","Sad but hopeful,43,320,20","I dislike how dark this is,-21,160,20","Kind of bizzare in that I can imagine ships or something from it.,11,360,20","Bailey","Kind of bizzare in that I can imagine ships or something from it.,11,360,20","Cynthia","Sad but hopeful,43,320,20","Cassandra","I liked it it looked like an roller coasters at an amusment park.,16,120,20","2"
"3528","","survey-text","188","1315864","0.0-187.0-0.0","A314XJY8V1YL12","","","","{""Q0"":""we""}","","","","","","","","","","","","","","","","","","","","","","",""
"15675","","survey-text","189","1331540","0.0-188.0-0.0","A314XJY8V1YL12","","","","{""Q0"":""It almost looks like a racecourse""}","","","","","","","","","","","","","","","","","","","","","","",""
"2394.9000000953674","","image-slider-response","190","1333936","0.0-189.0","A314XJY8V1YL12","","","","","6","","","","","","","","","","","","","","","","","","","","","",""
"null","","image-button-response","191","1338937","0.0-190.0","A314XJY8V1YL12","img_art/10.jpg","null","","","","","","","","","","","","","","","","","","","","","","","","",""
"1933","","image-button-response","192","1340872","0.0-191.0","A314XJY8V1YL12","img_art/10.jpg","1","","","","","","","","","","","","","","","","","","","","","","","","",""
"478","","image-button-response","193","1341350","0.0-192.0-0.0","A314XJY8V1YL12","img_art/10.jpg","2","","","","","","","","","","","","","","","","","","","","","","","","",""
"4141","","image-button-response","194","1345492","0.0-193.0-0.0","A314XJY8V1YL12","img_art/10.jpg","0","","","","","","","","","","","","","","","","","","","","","","","","",""
"null","","html-keyboard-response","195","1345993","0.0-194.0","A314XJY8V1YL12","<p style=""font-size: 48px;"">+</p>","","","","","null","allTrialResponses","500","1","21","img_art/10.jpg","6","It almost looks like a racecourse","Heather,Megan,Cassandra,Cynthia,Alexa,Bailey","for some reason reminds me of music,2,260,20","Music visualized with subtle color,17,200,20","I liked it...it looked somewhat like a guitar.,32,120,20","cultural with a symphony,40,320,20","Cute and has a vintage feel to it,45,40,20","For black and white, this is pretty vibrant and cool. I like this.,39,360,20","Megan","Music visualized with subtle color,17,200,20","Cassandra","I liked it...it looked somewhat like a guitar.,32,120,20","Heather","for some reason reminds me of music,2,260,20","2"
"25843","","survey-text","196","1371840","0.0-195.0-0.0","A314XJY8V1YL12","","","","{""Q0"":""It looks like an old west abandoned town""}","","","","","","","","","","","","","","","","","","","","","","",""
"2203.3999996185303","","image-slider-response","197","1374044","0.0-196.0","A314XJY8V1YL12","","","","","7","","","","","","","","","","","","","","","","","","","","","",""
"null","","image-button-response","198","1379045","0.0-197.0","A314XJY8V1YL12","img_art/20.jpg","null","","","","","","","","","","","","","","","","","","","","","","","","",""
"2568","","image-button-response","199","1381614","0.0-198.0","A314XJY8V1YL12","img_art/20.jpg","4","","","","","","","","","","","","","","","","","","","","","","","","",""
"1381","","image-button-response","200","1382996","0.0-199.0-0.0","A314XJY8V1YL12","img_art/20.jpg","4","","","","","","","","","","","","","","","","","","","","","","","","",""
"5098","","image-button-response","201","1392286","0.0-199.1-0.1","A314XJY8V1YL12","img_art/20.jpg","2","","","","","","","","","","","","","","","","","","","","","","","","",""
"1629","","image-button-response","202","1393917","0.0-200.0-0.0","A314XJY8V1YL12","img_art/20.jpg","0","","","","","","","","","","","","","","","","","","","","","","","","",""
"null","","html-keyboard-response","203","1394918","0.0-201.0","A314XJY8V1YL12","<p style=""font-size: 48px;"">+</p>","","","","","null","allTrialResponses","1000","1","22","img_art/20.jpg","7","It looks like an old west abandoned town","Heather,Megan,Cassandra,Michelle,Katherine,Diana","make me feel like its a little country maybe a tractor and a skull head of a bull,1,260,20","Fails to capture what similar styles do,-12,200,20","I liked this...I liked the blue and the black and I liked the smoothness to it.,31,120,20","Reminds me of Dali for some reason, whom I don't like,-7,280,20","More dark colors and blurry objects.,13,120,20","I'm not sure why this reminds me of surrealism. It might be the colors used.,16,380,20","Katherine","More dark colors and blurry objects.,13,120,20","Cassandra","I liked this...I liked the blue and the black and I liked the smoothness to it.,31,120,20","Heather","make me feel like its a little country maybe a tractor and a skull head of a bull,1,260,20","4"
"30771","","survey-text","204","1425693","0.0-202.0-0.0","A314XJY8V1YL12","","","","{""Q0"":""It looks like high energy athletes competing.""}","","","","","","","","","","","","","","","","","","","","","","",""
"2932.9000000953674","","image-slider-response","205","1428627","0.0-203.0","A314XJY8V1YL12","","","","","13","","","","","","","","","","","","","","","","","","","","","",""
"null","","image-button-response","206","1433638","0.0-204.0","A314XJY8V1YL12","img_art/22.jpg","null","","","","","","","","","","","","","","","","","","","","","","","","",""
"1888","","image-button-response","207","1435527","0.0-205.0","A314XJY8V1YL12","img_art/22.jpg","3","","","","","","","","","","","","","","","","","","","","","","","","",""
"2346","","image-button-response","208","1437873","0.0-206.0-0.0","A314XJY8V1YL12","img_art/22.jpg","0","","","","","","","","","","","","","","","","","","","","","","","","",""
"867","","image-button-response","209","1438741","0.0-207.0-0.0","A314XJY8V1YL12","img_art/22.jpg","0","","","","","","","","","","","","","","","","","","","","","","","","",""
"741","","image-button-response","210","1444143","0.0-207.1-0.1","A314XJY8V1YL12","img_art/22.jpg","1","","","","","","","","","","","","","","","","","","","","","","","","",""
"null","","html-keyboard-response","211","1444645","0.0-208.0","A314XJY8V1YL12","<p style=""font-size: 48px;"">+</p>","","","","","null","allTrialResponses","500","1","23","img_art/22.jpg","13","It looks like high energy athletes competing.","Heather,Olivia,Cassandra,Jamie,Katherine,Makayla","i think its pretty but im not sure what i see,1,260,20","ball of light in 90s,8,40,20","Don't like it...too much red,-17,120,20","Like the mix of warm and cool colors,15,320,20","Cool squares but what's the circle?,38,120,20","Just neutral no feelings,2,80,20","Jamie","Like the mix of warm and cool colors,15,320,20","Heather","i think its pretty but im not sure what i see,1,260,20","Olivia","ball of light in 90s,8,40,20","6"
"16543","","survey-text","212","1461192","0.0-209.0-0.0","A314XJY8V1YL12","","","","{""Q0"":""This looks like a scary demon""}","","","","","","","","","","","","","","","","","","","","","","",""
"2816.800000190735","","image-slider-response","213","1464009","0.0-210.0","A314XJY8V1YL12","","","","","-13","","","","","","","","","","","","","","","","","","","","","",""
"null","","image-button-response","214","1469011","0.0-211.0","A314XJY8V1YL12","img_art/25.jpg","null","","","","","","","","","","","","","","","","","","","","","","","","",""
"898","","image-button-response","215","1469911","0.0-212.0","A314XJY8V1YL12","img_art/25.jpg","2","","","","","","","","","","","","","","","","","","","","","","","","",""
"3702","","image-button-response","216","1473613","0.0-213.0-0.0","A314XJY8V1YL12","img_art/25.jpg","5","","","","","","","","","","","","","","","","","","","","","","","","",""
"2355","","image-button-response","217","1475969","0.0-214.0-0.0","A314XJY8V1YL12","img_art/25.jpg","3","","","","","","","","","","","","","","","","","","","","","","","","",""
"null","","html-keyboard-response","218","1476971","0.0-215.0","A314XJY8V1YL12","<p style=""font-size: 48px;"">+</p>","","","","","null","allTrialResponses","1000","1","24","img_art/25.jpg","-13","This looks like a scary demon","Heather,Olivia,Laura,Jamie,Vanessa,Sarah","This reminds me of royalty and servants.,32,260,20","reminds me of burning man,18,40,20","I think of death,-28,320,20","Cool color scheme and appears to be a statue of some type of revered god,40,320,20","I don't like the color. I don't like the abstract-ness of it.,-22,380,20","green is really cool, and the pieces in black fit together and are interesting,20,180,20","Laura","I think of death,-28,320,20","Sarah","green is really cool, and the pieces in black fit together and are interesting,20,180,20","Jamie","Cool color scheme and appears to be a statue of some type of revered god,40,320,20","6"
"28715","","survey-text","219","1505689","0.0-216.0-0.0","A314XJY8V1YL12","","","","{""Q0"":""interesting mix of items here, feels empty""}","","","","","","","","","","","","","","","","","","","","","","",""
"5712.900000095367","","image-slider-response","220","1511403","0.0-217.0","A314XJY8V1YL12","","","","","-8","","","","","","","","","","","","","","","","","","","","","",""
"null","","image-button-response","221","1516405","0.0-218.0","A314XJY8V1YL12","img_art/29.jpg","null","","","","","","","","","","","","","","","","","","","","","","","","",""
"818","","image-button-response","222","1517223","0.0-219.0","A314XJY8V1YL12","img_art/29.jpg","0","","","","","","","","","","","","","","","","","","","","","","","","",""
"9891","","image-button-response","223","1527116","0.0-220.0-0.0","A314XJY8V1YL12","img_art/29.jpg","4","","","","","","","","","","","","","","","","","","","","","","","","",""
"4570","","image-button-response","224","1531688","0.0-221.0-0.0","A314XJY8V1YL12","img_art/29.jpg","3","","","","","","","","","","","","","","","","","","","","","","","","",""
"null","","html-keyboard-response","225","1532189","0.0-222.0","A314XJY8V1YL12","<p style=""font-size: 48px;"">+</p>","","","","","null","allTrialResponses","500","1","25","img_art/29.jpg","-8","interesting mix of items here, feels empty","Alexandria,Rachel,Laura,Jamie,Mikayla,Sarah","it is difficult to look at but you can't look away,-25,80,20","It looks like someone did not like their art and drew an x over it.,-32,80,20","this is not art to me - it's random collage,-45,320,20","3D looks is really cool,30,320,20","Its kinda scary,-35,300,20","it's interesting but not my style,9,180,20","Alexandria","it is difficult to look at but you can't look away,-25,80,20","Mikayla","Its kinda scary,-35,300,20","Jamie","3D looks is really cool,30,320,20","6"
"4271","","survey-text","226","1536468","0.0-223.0-0.0","A314XJY8V1YL12","","","","{""Q0"":""table""}","","","","","","","","","","","","","","","","","","","","","","",""
"13257","","survey-text","227","1549726","0.0-224.0-0.0","A314XJY8V1YL12","","","","{""Q0"":""This seems like a happy face""}","","","","","","","","","","","","","","","","","","","","","","",""
"2252.5","","image-slider-response","228","1551979","0.0-225.0","A314XJY8V1YL12","","","","","7","","","","","","","","","","","","","","","","","","","","","",""
"null","","image-button-response","229","1556980","0.0-226.0","A314XJY8V1YL12","img_art/2.jpg","null","","","","","","","","","","","","","","","","","","","","","","","","",""
"810","","image-button-response","230","1557791","0.0-227.0","A314XJY8V1YL12","img_art/2.jpg","1","","","","","","","","","","","","","","","","","","","","","","","","",""
"2258","","image-button-response","231","1560051","0.0-228.0-0.0","A314XJY8V1YL12","img_art/2.jpg","2","","","","","","","","","","","","","","","","","","","","","","","","",""
"2495","","image-button-response","232","1562547","0.0-229.0-0.0","A314XJY8V1YL12","img_art/2.jpg","5","","","","","","","","","","","","","","","","","","","","","","","","",""
"null","","html-keyboard-response","233","1563550","0.0-230.0","A314XJY8V1YL12","<p style=""font-size: 48px;"">+</p>","","","","","null","allTrialResponses","1000","1","26","img_art/2.jpg","7","This seems like a happy face","Alexandria,Stephanie,Destiny,Jamie,Mikayla,Erica","too abstract and confusing,-19,80,20","The colors are what I like. It looks like a smiling face too.,32,300,20","omg she's so cute look at that little smile those eyelashes ugh love it,30,360,20","Awful color coordination and design,-35,320,20","I love the colors in this.,29,300,20","positive, seems like someone really happy and colourful is looking at me,22,80,20","Stephanie","The colors are what I like. It looks like a smiling face too.,32,300,20","Destiny","omg she's so cute look at that little smile those eyelashes ugh love it,30,360,20","Erica","positive, seems like someone really happy and colourful is looking at me,22,80,20","6"
"24935","","survey-text","234","1588487","0.0-231.0-0.0","A314XJY8V1YL12","","","","{""Q0"":""looks like a lone bird on a prarie""}","","","","","","","","","","","","","","","","","","","","","","",""
"3741.2999997138977","","image-slider-response","235","1592229","0.0-232.0","A314XJY8V1YL12","","","","","5","","","","","","","","","","","","","","","","","","","","","",""
"null","","image-button-response","236","1597243","0.0-233.0","A314XJY8V1YL12","img_art/6.jpg","null","","","","","","","","","","","","","","","","","","","","","","","","",""
"8787","","image-button-response","237","1606030","0.0-234.0","A314XJY8V1YL12","img_art/6.jpg","4","","","","","","","","","","","","","","","","","","","","","","","","",""
"2935","","image-button-response","238","1608966","0.0-235.0-0.0","A314XJY8V1YL12","img_art/6.jpg","1","","","","","","","","","","","","","","","","","","","","","","","","",""
"7125","","image-button-response","239","1616092","0.0-236.0-0.0","A314XJY8V1YL12","img_art/6.jpg","3","","","","","","","","","","","","","","","","","","","","","","","","",""
"null","","html-keyboard-response","240","1617094","0.0-237.0","A314XJY8V1YL12","<p style=""font-size: 48px;"">+</p>","","","","","null","allTrialResponses","1000","1","27","img_art/6.jpg","5","looks like a lone bird on a prarie","Emily,Stephanie,Destiny,Caitlin,Brooke,Erica","Looks like a kid created it.,-50,40,20","Nevermore!  A black raven sitting on a pumpkin. Halloween,-35,300,20","boring. don't really like birds,1,360,20","A crow on one leg?,-10,80,20","Kind of neat, but then that's a weird looking bird. too weird.,0,60,20","positive because of bright colours and a bird,20,80,20","Brooke","Kind of neat, but then that's a weird looking bird. too weird.,0,60,20","Stephanie","Nevermore!  A black raven sitting on a pumpkin. Halloween,-35,300,20","Caitlin","A crow on one leg?,-10,80,20","6"
"17189","","survey-text","241","1634286","0.0-238.0-0.0","A314XJY8V1YL12","","","","{""Q0"":""This looks like plastering on a wall.""}","","","","","","","","","","","","","","","","","","","","","","",""
"3665","","image-slider-response","242","1637952","0.0-239.0","A314XJY8V1YL12","","","","","-10","","","","","","","","","","","","","","","","","","","","","",""
"null","","image-button-response","243","1642955","0.0-240.0","A314XJY8V1YL12","img_art/7.jpg","null","","","","","","","","","","","","","","","","","","","","","","","","",""
"6193","","image-button-response","244","1649148","0.0-241.0","A314XJY8V1YL12","img_art/7.jpg","1","","","","","","","","","","","","","","","","","","","","","","","","",""
"7481","","image-button-response","245","1656630","0.0-242.0-0.0","A314XJY8V1YL12","img_art/7.jpg","0","","","","","","","","","","","","","","","","","","","","","","","","",""
"4671","","image-button-response","246","1661302","0.0-243.0-0.0","A314XJY8V1YL12","img_art/7.jpg","5","","","","","","","","","","","","","","","","","","","","","","","","",""
"null","","html-keyboard-response","247","1661804","0.0-244.0","A314XJY8V1YL12","<p style=""font-size: 48px;"">+</p>","","","","","null","allTrialResponses","500","1","28","img_art/7.jpg","-10","This looks like plastering on a wall.","Gabrielle,Stephanie,Dominique,Caitlin,Brooke,Isabella","looks like wallpaper,-6,160,20","This looks muddy and stomped on. I think of destruction.,-50,300,20","One I would love to own . Calm relaxing spiritual and full of love,41,400,20","Looks like a photo taken from the moon.,-6,80,20","tracks in dirt?,-15,60,20","Dessert like almost like dry land,4,280,20","Stephanie","This looks muddy and stomped on. I think of destruction.,-50,300,20","Gabrielle","looks like wallpaper,-6,160,20","Isabella","Dessert like almost like dry land,4,280,20","6"
"33382","","survey-text","248","1695192","0.0-245.0-0.0","A314XJY8V1YL12","","","","{""Q0"":""This looks chaotic, like an angry creature is going to destroy the ship.""}","","","","","","","","","","","","","","","","","","","","","","",""
"3268.9000000953674","","image-slider-response","249","1698462","0.0-246.0","A314XJY8V1YL12","","","","","-5","","","","","","","","","","","","","","","","","","","","","",""
"null","","image-button-response","250","1703470","0.0-247.0","A314XJY8V1YL12","img_art/9.jpg","null","","","","","","","","","","","","","","","","","","","","","","","","",""
"1477","","image-button-response","251","1704948","0.0-248.0","A314XJY8V1YL12","img_art/9.jpg","1","","","","","","","","","","","","","","","","","","","","","","","","",""
"3389","","image-button-response","252","1708338","0.0-249.0-0.0","A314XJY8V1YL12","img_art/9.jpg","5","","","","","","","","","","","","","","","","","","","","","","","","",""
"1387","","image-button-response","253","1709726","0.0-250.0-0.0","A314XJY8V1YL12","img_art/9.jpg","2","","","","","","","","","","","","","","","","","","","","","","","","",""
"null","","html-keyboard-response","254","1710228","0.0-251.0","A314XJY8V1YL12","<p style=""font-size: 48px;"">+</p>","","","","","null","allTrialResponses","500","1","29","img_art/9.jpg","-5","This looks chaotic, like an angry creature is going to destroy the ship.","Gabrielle,Stephanie,Shelby,Alexandra,Shannon,Isabella","looks like an imitation of a real piece of art, reclining lady,-1,160,20","Someone sleeping in a cave. Dont like the scribble look.,-30,300,20","A little too weird for me,-30,240,20","This picture is too busy and ugly,-20,60,20","This looks like someone sleeping in a bed, and I think the colors make it look interesting.,20,220,20","Angry beast mouth,-37,280,20","Stephanie","Someone sleeping in a cave. Dont like the scribble look.,-30,300,20","Isabella","Angry beast mouth,-37,280,20","Shelby","A little too weird for me,-30,240,20","6"
"33201","","survey-text","255","1743433","0.0-252.0-0.0","A314XJY8V1YL12","","","","{""Q0"":""It looks like very sharp teeth on a dinosaur mouth""}","","","","","","","","","","","","","","","","","","","","","","",""
"5144.900000095367","","image-slider-response","256","1748579","0.0-253.0","A314XJY8V1YL12","","","","","4","","","","","","","","","","","","","","","","","","","","","",""
"null","","image-button-response","257","1753580","0.0-254.0","A314XJY8V1YL12","img_art/23.jpg","null","","","","","","","","","","","","","","","","","","","","","","","","",""
"5948","","image-button-response","258","1759529","0.0-255.0","A314XJY8V1YL12","img_art/23.jpg","5","","","","","","","","","","","","","","","","","","","","","","","","",""
"5768","","image-button-response","259","1765299","0.0-256.0-0.0","A314XJY8V1YL12","img_art/23.jpg","1","","","","","","","","","","","","","","","","","","","","","","","","",""
"843","","image-button-response","260","1766143","0.0-257.0-0.0","A314XJY8V1YL12","img_art/23.jpg","2","","","","","","","","","","","","","","","","","","","","","","","","",""
"null","","html-keyboard-response","261","1766644","0.0-258.0","A314XJY8V1YL12","<p style=""font-size: 48px;"">+</p>","","","","","null","allTrialResponses","500","1","30","img_art/23.jpg","4","It looks like very sharp teeth on a dinosaur mouth","Elizabeth,Stephanie,Shelby,Kylie,Ashley,Isabella","Fantastic blend of color and forms,43,20,20","This makes me think of an orchestra playing a forth of july song,12,300,20","This feels so energized, i love it,50,240,20","Universal celebration,40,300,20","A line dance, it's really strinkingly beautiful.,50,320,20","Love the line in the middle separating the two dark sides,50,280,20","Isabella","Love the line in the middle separating the two dark sides,50,280,20","Stephanie","This makes me think of an orchestra playing a forth of july song,12,300,20","Shelby","This feels so energized, i love it,50,240,20","6"
"5059","","image-button-response_instructions","262","1771709","0.0-259.0","A314XJY8V1YL12","","0","instructions","","","","","","","","","","","","","","","","","","","","","","","",""
"1186","","image-button-response","263","1772898","0.0-260.0","A314XJY8V1YL12","","0","","","","","","","","","","","","","","","","","","","","","","","","",""
