"rt","url","trial_type","trial_index","time_elapsed","internal_node_id","participant_id","stimulus","button_pressed","Name","responses","response","key_press","variableName","fixationTime","condition","trial","photo","subjectRating","subjectResponse","agentsNames","agent_1_Response","agent_2_Response","agent_3_Response","agent_4_Response","agent_5_Response","agent_6_Response","kept_1_name","kept_1_response","kept_2_name","kept_2_response","kept_3_name","kept_3_response","errorCounter"
"93671","external_page_harvard.html","external-html","0","93746","0.0-0.0","A31842X2M9HQ4O","","","","","","","","","","","","","","","","","","","","","","","","","","",""
"1961","","image-button-response","1","95711","0.0-1.0","A31842X2M9HQ4O","","1","","","","","","","","","","","","","","","","","","","","","","","","",""
"6106","","image-button-response","2","101823","0.0-2.0-0.0","A31842X2M9HQ4O","","1","phone","","","","","","","","","","","","","","","","","","","","","","","",""
"9880","","survey-text","3","111707","0.0-3.0-0.0","A31842X2M9HQ4O","","","","{""Q0"":""A31842X2M9HQ4O""}","","","","","","","","","","","","","","","","","","","","","","",""
"19305","","image-button-response_instructions","4","131015","0.0-4.0","A31842X2M9HQ4O","","0","instructions","","","","","","","","","","","","","","","","","","","","","","","",""
"21397","","image-button-response_instructions","5","152414","0.0-5.0","A31842X2M9HQ4O","img_art/ins/popularity/ins1.png","0","instructions","","","","","","","","","","","","","","","","","","","","","","","",""
"8448","","image-button-response_instructions","6","160864","0.0-6.0","A31842X2M9HQ4O","img_art/ins/popularity/ins2.png","0","instructions","","","","","","","","","","","","","","","","","","","","","","","",""
"5238","","image-button-response_instructions","7","166104","0.0-7.0","A31842X2M9HQ4O","img_art/ins/popularity/ins2Extreme.png","0","instructions","","","","","","","","","","","","","","","","","","","","","","","",""
"7458","","image-button-response_instructions","8","173564","0.0-8.0","A31842X2M9HQ4O","img_art/ins/popularity/ins3KEEPpop.PNG","0","instructions","","","","","","","","","","","","","","","","","","","","","","","",""
"5124","","image-button-response_instructions","9","178689","0.0-9.0","A31842X2M9HQ4O","img_art/ins/popularity/ins3ANamepop.PNG","0","instructions","","","","","","","","","","","","","","","","","","","","","","","",""
"7362","","image-button-response_instructions","10","186053","0.0-10.0","A31842X2M9HQ4O","img_art/ins/popularity/ins3ARatingpop.png","0","instructions","","","","","","","","","","","","","","","","","","","","","","","",""
"4054","","image-button-response_instructions","11","190109","0.0-11.0","A31842X2M9HQ4O","img_art/ins/popularity/ins3ATextpop.png","0","instructions","","","","","","","","","","","","","","","","","","","","","","","",""
"6544","","image-button-response_instructions","12","196655","0.0-12.0","A31842X2M9HQ4O","img_art/ins/popularity/ins3ALikespop.png","0","instructions","","","","","","","","","","","","","","","","","","","","","","","",""
"10026","","image-button-response_instructions","13","206683","0.0-13.0","A31842X2M9HQ4O","img_art/ins/popularity/ins3KEEPpop.PNG","0","instructions","","","","","","","","","","","","","","","","","","","","","","","",""
"7088","","image-button-response_instructions","14","213772","0.0-14.0","A31842X2M9HQ4O","img_art/ins/popularity/ins3_5RED.png","0","instructions","","","","","","","","","","","","","","","","","","","","","","","",""
"5485","","image-button-response_instructions","15","219260","0.0-15.0","A31842X2M9HQ4O","img_art/ins/popularity/ins3KEEPpop.PNG","0","instructions","","","","","","","","","","","","","","","","","","","","","","","",""
"10211","","image-button-response_instructions","16","229473","0.0-16.0","A31842X2M9HQ4O","img_art/ins/popularity/ins4KEEPpop.PNG","0","instructions","","","","","","","","","","","","","","","","","","","","","","","",""
"4293","","image-button-response_instructions","17","233768","0.0-17.0","A31842X2M9HQ4O","img_art/ins/popularity/ins5KEEPpop.PNG","0","instructions","","","","","","","","","","","","","","","","","","","","","","","",""
"8082","","image-button-response_instructions","18","241851","0.0-18.0","A31842X2M9HQ4O","","0","instructions","","","","","","","","","","","","","","","","","","","","","","","",""
"9620","","survey-text","19","251500","0.0-19.0-0.0","A31842X2M9HQ4O","","","","{""Q0"":""but""}","","","","","","","","","","","","","","","","","","","","","","",""
"25146","","survey-text","20","276650","0.0-20.0-0.0","A31842X2M9HQ4O","","","","{""Q0"":""beautiful ...I love the color palette on this ...it is very calming""}","","","","","","","","","","","","","","","","","","","","","","",""
"6095.9000000003725","","image-slider-response","21","282749","0.0-21.0","A31842X2M9HQ4O","","","","","39","","","","","","","","","","","","","","","","","","","","","",""
"null","","image-button-response","22","287757","0.0-22.0","A31842X2M9HQ4O","img_art/ins/1.jpg","null","","","","","","","","","","","","","","","","","","","","","","","","",""
"10857","","image-button-response","23","298618","0.0-23.0","A31842X2M9HQ4O","img_art/ins/1.jpg","4","","","","","","","","","","","","","","","","","","","","","","","","",""
"2864","","image-button-response","24","301486","0.0-24.0-0.0","A31842X2M9HQ4O","img_art/ins/1.jpg","5","","","","","","","","","","","","","","","","","","","","","","","","",""
"10065","","image-button-response","25","311555","0.0-25.0-0.0","A31842X2M9HQ4O","img_art/ins/1.jpg","0","","","","","","","","","","","","","","","","","","","","","","","","",""
"null","","html-keyboard-response","26","312564","0.0-26.0","A31842X2M9HQ4O","<p style=""font-size: 48px;"">+</p>","","","","","null","allTrialResponses","1000","1","-2","img_art/ins/1.jpg","39","beautiful ...I love the color palette on this ...it is very calming","Allison,Ashley,Beth,Dora,Erika,Jen","looks like a lot of things going on in the mist,20,20,20","I just don't get why these type of art would be popular,-32,40,20","This color reminds me of poo,-46,60,20","looks like what my niece in 3rd grade did this afternoon,-50,80,20","I like the sophisticated brushwork,40,100,20","It reminds me of a candy land dream I had,36,120,20","Erika","I like the sophisticated brushwork,40,100,20","Jen","It reminds me of a candy land dream I had,36,120,20","Allison","looks like a lot of things going on in the mist,20,20,20","0"
"25381","","survey-text","27","337952","0.0-27.0-0.0","A31842X2M9HQ4O","","","","{""Q0"":""This looks dark and depressing. The colors are disturbing.""}","","","","","","","","","","","","","","","","","","","","","","",""
"5874.5","","image-slider-response","28","343830","0.0-28.0","A31842X2M9HQ4O","","","","","-38","","","","","","","","","","","","","","","","","","","","","",""
"null","","image-button-response","29","348833","0.0-29.0","A31842X2M9HQ4O","img_art/ins/2.jpg","null","","","","","","","","","","","","","","","","","","","","","","","","",""
"18628","","image-button-response","30","367465","0.0-30.0","A31842X2M9HQ4O","img_art/ins/2.jpg","2","","","","","","","","","","","","","","","","","","","","","","","","",""
"3217","","image-button-response","31","370686","0.0-31.0-0.0","A31842X2M9HQ4O","img_art/ins/2.jpg","3","","","","","","","","","","","","","","","","","","","","","","","","",""
"5726","","image-button-response","32","376416","0.0-32.0-0.0","A31842X2M9HQ4O","img_art/ins/2.jpg","5","","","","","","","","","","","","","","","","","","","","","","","","",""
"null","","html-keyboard-response","33","376922","0.0-33.0","A31842X2M9HQ4O","<p style=""font-size: 48px;"">+</p>","","","","","null","allTrialResponses","500","1","-1","img_art/ins/2.jpg","-38","This looks dark and depressing. The colors are disturbing.","Allison,Kara,Katie,Jenna,Erika,Jen","I don't have strong feelings about this,10,20,20","I like the blocks of color arrangements,30,160,20","too much color!,-28,180,20","One of my pet peevs,-48,140,20","I would never be able to compose a sophisticated pallete like this,48,100,20","It reminds me of a fireplace,36,120,20","Katie","too much color!,-28,180,20","Jenna","One of my pet peevs,-48,140,20","Jen","It reminds me of a fireplace,36,120,20","0"
"36901","","survey-text","34","413829","0.0-34.0-0.0","A31842X2M9HQ4O","","","","{""Q0"":""The blue is calming and reminds me of the sky. I like the brush strokes and simplicity.""}","","","","","","","","","","","","","","","","","","","","","","",""
"5271.299999999814","","image-slider-response","35","419104","0.0-35.0","A31842X2M9HQ4O","","","","","18","","","","","","","","","","","","","","","","","","","","","",""
"null","","image-button-response","36","424109","0.0-36.0","A31842X2M9HQ4O","img_art/ins/3.jpg","null","","","","","","","","","","","","","","","","","","","","","","","","",""
"4754","","image-button-response","37","428867","0.0-37.0","A31842X2M9HQ4O","img_art/ins/3.jpg","4","","","","","","","","","","","","","","","","","","","","","","","","",""
"4533","","image-button-response","38","433404","0.0-38.0-0.0","A31842X2M9HQ4O","img_art/ins/3.jpg","5","","","","","","","","","","","","","","","","","","","","","","","","",""
"14647","","image-button-response","39","448055","0.0-39.0-0.0","A31842X2M9HQ4O","img_art/ins/3.jpg","1","","","","","","","","","","","","","","","","","","","","","","","","",""
"null","","html-keyboard-response","40","448558","0.0-40.0","A31842X2M9HQ4O","<p style=""font-size: 48px;"">+</p>","","","","","null","allTrialResponses","500","1","0","img_art/ins/3.jpg","18","The blue is calming and reminds me of the sky. I like the brush strokes and simplicity.","Rose,Leslie,Katie,Jenna,Mary,Jen","My daily routine, it's depressing,-20,240,20","It's an alright work,15,200,20","It looks depressing,-26,180,20","looks like a murder room,-35,140,20","I like the overlapping of brushes,41,220,20","I can feel a rainy day from this painting,18,120,20","Mary","I like the overlapping of brushes,41,220,20","Jen","I can feel a rainy day from this painting,18,120,20","Leslie","It's an alright work,15,200,20","0"
"13431","","image-button-response_instructions","41","461994","0.0-41.0","A31842X2M9HQ4O","","0","instructions","","","","","","","","","","","","","","","","","","","","","","","",""
"18562","","survey-likert","42","480559","0.0-42.0-0.0","A31842X2M9HQ4O","","","","{""Q0"":"""",""Q1"":0,""Q2"":1}","","","","","","","","","","","","","","","","","","","","","","",""
"5254","","survey-text","43","485820","0.0-43.0-0.0","A31842X2M9HQ4O","","","","{""Q0"":""rock""}","","","","","","","","","","","","","","","","","","","","","","",""
"103453","","survey-text","44","589276","0.0-44.0-0.0","A31842X2M9HQ4O","","","","{""Q0"":""This makes me fell lonely like I am in a desert alone. ""}","","","","","","","","","","","","","","","","","","","","","","",""
"4948.899999999441","","image-slider-response","45","594228","0.0-45.0","A31842X2M9HQ4O","","","","","-27","","","","","","","","","","","","","","","","","","","","","",""
"null","","image-button-response","46","599251","0.0-46.0","A31842X2M9HQ4O","img_art/6.jpg","null","","","","","","","","","","","","","","","","","","","","","","","","",""
"2362","","image-button-response","47","601617","0.0-47.0","A31842X2M9HQ4O","img_art/6.jpg","2","","","","","","","","","","","","","","","","","","","","","","","","",""
"2450","","image-button-response","48","604071","0.0-48.0-0.0","A31842X2M9HQ4O","img_art/6.jpg","3","","","","","","","","","","","","","","","","","","","","","","","","",""
"4404","","image-button-response","49","608479","0.0-49.0-0.0","A31842X2M9HQ4O","img_art/6.jpg","5","","","","","","","","","","","","","","","","","","","","","","","","",""
"null","","html-keyboard-response","50","609981","0.0-50.0","A31842X2M9HQ4O","<p style=""font-size: 48px;"">+</p>","","","","","null","allTrialResponses","1500","1","1","img_art/6.jpg","-27","This makes me fell lonely like I am in a desert alone. ","Angelica,Anna,Heather,Crystal,Sabrina,Kaitlyn","It feels sad but it's nice to look at.,4,280,20","It reminds me of a simplistic bird. I like the colors used.,40,300,20","it looks like a stick holding a wig on a cliff,21,260,20","Gives me a feeling of solitude and nothingness,11,300,20","I love the representation of death and life.,50,120,20","I like the simplicity of the picture,30,80,20","Heather","it looks like a stick holding a wig on a cliff,21,260,20","Crystal","Gives me a feeling of solitude and nothingness,11,300,20","Kaitlyn","I like the simplicity of the picture,30,80,20","0"
"97834","","survey-text","51","707818","0.0-51.0-0.0","A31842X2M9HQ4O","","","","{""Q0"":""Reminds me of a busy city but kind of dark depressing.""}","","","","","","","","","","","","","","","","","","","","","","",""
"117928.70000000019","","image-slider-response","52","825747","0.0-52.0","A31842X2M9HQ4O","","","","","-8","","","","","","","","","","","","","","","","","","","","","",""
"null","","image-button-response","53","830754","0.0-53.0","A31842X2M9HQ4O","img_art/11.jpg","null","","","","","","","","","","","","","","","","","","","","","","","","",""
"1900","","image-button-response","54","832657","0.0-54.0","A31842X2M9HQ4O","img_art/11.jpg","0","","","","","","","","","","","","","","","","","","","","","","","","",""
"9878","","image-button-response","55","842539","0.0-55.0-0.0","A31842X2M9HQ4O","img_art/11.jpg","2","","","","","","","","","","","","","","","","","","","","","","","","",""
"2794","","image-button-response","56","845337","0.0-56.0-0.0","A31842X2M9HQ4O","img_art/11.jpg","1","","","","","","","","","","","","","","","","","","","","","","","","",""
"null","","html-keyboard-response","57","845844","0.0-57.0","A31842X2M9HQ4O","<p style=""font-size: 48px;"">+</p>","","","","","null","allTrialResponses","500","1","2","img_art/11.jpg","-8","Reminds me of a busy city but kind of dark depressing.","Michaela,Alyssa,Heather,Crystal,Ashley,Kaitlyn","Reminds me of a city and how chaotic it can be,22,260,20","Its interesting.,20,160,20","looks like highways and homes and lives intertwining.,27,260,20","Enjoyed the lines representing different paths that encompass different entities,20,300,20","Dark but bright, city but ocean, musical scales.,50,320,20","Interesting use of color,9,80,20","Michaela","Reminds me of a city and how chaotic it can be,22,260,20","Heather","looks like highways and homes and lives intertwining.,27,260,20","Alyssa","Its interesting.,20,160,20","0"
"30747","","survey-text","58","876597","0.0-58.0-0.0","A31842X2M9HQ4O","","","","{""Q0"":""I like the use of colors but cannot figure out what it is.""}","","","","","","","","","","","","","","","","","","","","","","",""
"4902.5","","image-slider-response","59","881502","0.0-59.0","A31842X2M9HQ4O","","","","","-16","","","","","","","","","","","","","","","","","","","","","",""
"null","","image-button-response","60","886510","0.0-60.0","A31842X2M9HQ4O","img_art/28.jpg","null","","","","","","","","","","","","","","","","","","","","","","","","",""
"2717","","image-button-response","61","889231","0.0-61.0","A31842X2M9HQ4O","img_art/28.jpg","1","","","","","","","","","","","","","","","","","","","","","","","","",""
"2567","","image-button-response","62","891801","0.0-62.0-0.0","A31842X2M9HQ4O","img_art/28.jpg","2","","","","","","","","","","","","","","","","","","","","","","","","",""
"12170","","image-button-response","63","903975","0.0-63.0-0.0","A31842X2M9HQ4O","img_art/28.jpg","3","","","","","","","","","","","","","","","","","","","","","","","","",""
"null","","html-keyboard-response","64","904979","0.0-64.0","A31842X2M9HQ4O","<p style=""font-size: 48px;"">+</p>","","","","","null","allTrialResponses","1000","1","3","img_art/28.jpg","-16","I like the use of colors but cannot figure out what it is.","Michaela,Alyssa,Heather,Jordan,Chelsea,Sierra","Salvador Dali called and he thinks this looks pretty good,27,260,20","Not a fan of the bleak and dreary colors,-10,160,20","not sure what i feel but it makes me feel uncomfortable,1,260,20","It's a bike that was left abandoned by someone who doesnt care for it,1,20,20","It is too messy.,-38,180,20","i like the colors and the shapes look like people,20,260,20","Alyssa","Not a fan of the bleak and dreary colors,-10,160,20","Heather","not sure what i feel but it makes me feel uncomfortable,1,260,20","Jordan","It's a bike that was left abandoned by someone who doesnt care for it,1,20,20","0"
"22683","","survey-text","65","927669","0.0-65.0-0.0","A31842X2M9HQ4O","","","","{""Q0"":""I like the way it looks like a stream amidst fields of color.""}","","","","","","","","","","","","","","","","","","","","","","",""
"4060.899999999441","","image-slider-response","66","931733","0.0-66.0","A31842X2M9HQ4O","","","","","35","","","","","","","","","","","","","","","","","","","","","",""
"4772","","image-button-response","67","936740","0.0-67.0","A31842X2M9HQ4O","img_art/24.jpg","1","","","","","","","","","","","","","","","","","","","","","","","","",""
"768","","image-button-response","68","937512","0.0-68.0","A31842X2M9HQ4O","img_art/24.jpg","1","","","","","","","","","","","","","","","","","","","","","","","","",""
"1958","","image-button-response","69","939474","0.0-69.0-0.0","A31842X2M9HQ4O","img_art/24.jpg","2","","","","","","","","","","","","","","","","","","","","","","","","",""
"6038","","image-button-response","70","945515","0.0-70.0-0.0","A31842X2M9HQ4O","img_art/24.jpg","3","","","","","","","","","","","","","","","","","","","","","","","","",""
"null","","html-keyboard-response","71","947022","0.0-71.0","A31842X2M9HQ4O","<p style=""font-size: 48px;"">+</p>","","","","","null","allTrialResponses","1500","1","4","img_art/24.jpg","35","I like the way it looks like a stream amidst fields of color.","Kelsey,Alyssa,Heather,Jordan,Jasmine,Cynthia","this one is just a bit too harsh,-13,240,20","Beautiful.Nice use of colors and invokes feelings of serene and peace,40,160,20","i feel peace and wanting. i love waterfalls,50,260,20","It's beautiful! I love it! I see a waterfall, and they are my favorite things in the world,50,20,20","This one is nice because it reminds me of nature,18,340,20","Interested in visiting this place,18,320,20","Alyssa","Beautiful.Nice use of colors and invokes feelings of serene and peace,40,160,20","Heather","i feel peace and wanting. i love waterfalls,50,260,20","Jordan","It's beautiful! I love it! I see a waterfall, and they are my favorite things in the world,50,20,20","0"
"36273","","survey-text","72","983301","0.0-72.0-0.0","A31842X2M9HQ4O","","","","{""Q0"":""The colors are good in this but it seems to be dreamlike and not sure what it is.""}","","","","","","","","","","","","","","","","","","","","","","",""
"6687","","image-slider-response","73","989991","0.0-73.0","A31842X2M9HQ4O","","","","","-6","","","","","","","","","","","","","","","","","","","","","",""
"2885","","image-button-response","74","994994","0.0-74.0","A31842X2M9HQ4O","img_art/27.jpg","0","","","","","","","","","","","","","","","","","","","","","","","","",""
"1366","","image-button-response","75","996364","0.0-75.0","A31842X2M9HQ4O","img_art/27.jpg","5","","","","","","","","","","","","","","","","","","","","","","","","",""
"3860","","image-button-response","76","1000227","0.0-76.0-0.0","A31842X2M9HQ4O","img_art/27.jpg","0","","","","","","","","","","","","","","","","","","","","","","","","",""
"1771","","image-button-response","77","1002002","0.0-77.0-0.0","A31842X2M9HQ4O","img_art/27.jpg","0","","","","","","","","","","","","","","","","","","","","","","","","",""
"18850","","image-button-response","78","1024499","0.0-77.1-0.1","A31842X2M9HQ4O","img_art/27.jpg","1","","","","","","","","","","","","","","","","","","","","","","","","",""
"null","","html-keyboard-response","79","1026002","0.0-78.0","A31842X2M9HQ4O","<p style=""font-size: 48px;"">+</p>","","","","","null","allTrialResponses","1500","1","5","img_art/27.jpg","-6","The colors are good in this but it seems to be dreamlike and not sure what it is.","Courtney,Alyssa,Heather,Jordan,Hailey,Briana","A fall mess going on here,2,280,20","Looks as if a toddler painted it,-20,160,20","looks like a garden in between two storms.,33,260,20","two warring cities, separated by a small desert,50,20,20","fruity and sweet. warm and juicy,10,200,20","Unfinished something?,-30,400,20","Briana","Unfinished something?,-30,400,20","Courtney","A fall mess going on here,2,280,20","Alyssa","Looks as if a toddler painted it,-20,160,20","2"
"4233","","survey-text","80","1030244","0.0-79.0-0.0","A31842X2M9HQ4O","","","","{""Q0"":""sky""}","","","","","","","","","","","","","","","","","","","","","","",""
"42516","","survey-text","81","1072763","0.0-80.0-0.0","A31842X2M9HQ4O","","","","{""Q0"":""This reminds of a storm out in the ocean. There is a feeling of cold.""}","","","","","","","","","","","","","","","","","","","","","","",""
"3628.899999999441","","image-slider-response","82","1076395","0.0-81.0","A31842X2M9HQ4O","","","","","13","","","","","","","","","","","","","","","","","","","","","",""
"null","","image-button-response","83","1081402","0.0-82.0","A31842X2M9HQ4O","img_art/21.jpg","null","","","","","","","","","","","","","","","","","","","","","","","","",""
"3512","","image-button-response","84","1084917","0.0-83.0","A31842X2M9HQ4O","img_art/21.jpg","1","","","","","","","","","","","","","","","","","","","","","","","","",""
"1435","","image-button-response","85","1086355","0.0-84.0-0.0","A31842X2M9HQ4O","img_art/21.jpg","2","","","","","","","","","","","","","","","","","","","","","","","","",""
"3264","","image-button-response","86","1089623","0.0-85.0-0.0","A31842X2M9HQ4O","img_art/21.jpg","4","","","","","","","","","","","","","","","","","","","","","","","","",""
"null","","html-keyboard-response","87","1090630","0.0-86.0","A31842X2M9HQ4O","<p style=""font-size: 48px;"">+</p>","","","","","null","allTrialResponses","1000","1","6","img_art/21.jpg","13","This reminds of a storm out in the ocean. There is a feeling of cold.","Courtney,Alyssa,Sarah,Alexa,Grace,Briana","Another ship on fire.,-10,280,20","I like the colors that were used and the stark contrast between the two sides,25,160,20","I love the section of blues, the colors overall are really lovely,31,180,20","I love the colors in this painting,30,40,20","Like the colors, the cloudy, airy effects. Nice.,46,180,20","Unfinished. Confusing to look at,-12,400,20","Alyssa","I like the colors that were used and the stark contrast between the two sides,25,160,20","Sarah","I love the section of blues, the colors overall are really lovely,31,180,20","Grace","Like the colors, the cloudy, airy effects. Nice.,46,180,20","2"
"20701","","survey-text","88","1111337","0.0-87.0-0.0","A31842X2M9HQ4O","","","","{""Q0"":""Not a fan of this it looks like paint splatters for no reason. ""}","","","","","","","","","","","","","","","","","","","","","","",""
"4141.5","","image-slider-response","89","1115481","0.0-88.0","A31842X2M9HQ4O","","","","","-37","","","","","","","","","","","","","","","","","","","","","",""
"null","","image-button-response","90","1120487","0.0-89.0","A31842X2M9HQ4O","img_art/13.jpg","null","","","","","","","","","","","","","","","","","","","","","","","","",""
"5964","","image-button-response","91","1126454","0.0-90.0","A31842X2M9HQ4O","img_art/13.jpg","3","","","","","","","","","","","","","","","","","","","","","","","","",""
"5736","","image-button-response","92","1132194","0.0-91.0-0.0","A31842X2M9HQ4O","img_art/13.jpg","5","","","","","","","","","","","","","","","","","","","","","","","","",""
"7601","","image-button-response","93","1139798","0.0-92.0-0.0","A31842X2M9HQ4O","img_art/13.jpg","0","","","","","","","","","","","","","","","","","","","","","","","","",""
"null","","html-keyboard-response","94","1140301","0.0-93.0","A31842X2M9HQ4O","<p style=""font-size: 48px;"">+</p>","","","","","null","allTrialResponses","500","1","7","img_art/13.jpg","-37","Not a fan of this it looks like paint splatters for no reason. ","Allison,Alyssa,Sarah,Maria,Grace,Megan","Generic mix of colors. Cool and messy.,10,140,20","Pretty and it reminds me of rain droplets running down a window on a rainy day.,40,160,20","this is an appealing mix of textures to me and the color scheme is harmonious,36,180,20","evokes a dampening feeling,-9,120,20","Love the colors, love the abstractness, love this Jackson Pollock type painting.,48,180,20","Average overly symmetrical safe,-26,200,20","Maria","evokes a dampening feeling,-9,120,20","Megan","Average overly symmetrical safe,-26,200,20","Allison","Generic mix of colors. Cool and messy.,10,140,20","2"
"23518","","survey-text","95","1163826","0.0-94.0-0.0","A31842X2M9HQ4O","","","","{""Q0"":""feels like you in someones home..love the colors very warm feeling.""}","","","","","","","","","","","","","","","","","","","","","","",""
"6821.9000000003725","","image-slider-response","96","1170650","0.0-95.0","A31842X2M9HQ4O","","","","","33","","","","","","","","","","","","","","","","","","","","","",""
"null","","image-button-response","97","1175657","0.0-96.0","A31842X2M9HQ4O","img_art/2.jpg","null","","","","","","","","","","","","","","","","","","","","","","","","",""
"3667","","image-button-response","98","1179327","0.0-97.0","A31842X2M9HQ4O","img_art/2.jpg","2","","","","","","","","","","","","","","","","","","","","","","","","",""
"9642","","image-button-response","99","1188972","0.0-98.0-0.0","A31842X2M9HQ4O","img_art/2.jpg","4","","","","","","","","","","","","","","","","","","","","","","","","",""
"8890","","image-button-response","100","1197866","0.0-99.0-0.0","A31842X2M9HQ4O","img_art/2.jpg","5","","","","","","","","","","","","","","","","","","","","","","","","",""
"null","","html-keyboard-response","101","1198872","0.0-100.0","A31842X2M9HQ4O","<p style=""font-size: 48px;"">+</p>","","","","","null","allTrialResponses","1000","1","8","img_art/2.jpg","33","feels like you in someones home..love the colors very warm feeling.","Allison,Breanna,Molly,Maria,Stephanie,Megan","Hate the vomit green.,-31,140,20","It's just a splash of paint on a canvas,-31,380,20","Colorful, curious.,20,340,20","again, I struggle to see the art and I dislike the green in particular.,-31,120,20","The colors are what I like. It looks like a smiling face too.,32,300,20","Colors and space work but the top scribbled killed it.,11,200,20","Molly","Colorful, curious.,20,340,20","Stephanie","The colors are what I like. It looks like a smiling face too.,32,300,20","Megan","Colors and space work but the top scribbled killed it.,11,200,20","2"
"19307","","survey-text","102","1218186","0.0-101.0-0.0","A31842X2M9HQ4O","","","","{""Q0"":""Scary giant person overpowering all the small people ...""}","","","","","","","","","","","","","","","","","","","","","","",""
"5042.300000000745","","image-slider-response","103","1223231","0.0-102.0","A31842X2M9HQ4O","","","","","-35","","","","","","","","","","","","","","","","","","","","","",""
"null","","image-button-response","104","1228235","0.0-103.0","A31842X2M9HQ4O","img_art/25.jpg","null","","","","","","","","","","","","","","","","","","","","","","","","",""
"5908","","image-button-response","105","1234147","0.0-104.0","A31842X2M9HQ4O","img_art/25.jpg","0","","","","","","","","","","","","","","","","","","","","","","","","",""
"16784","","image-button-response","106","1250934","0.0-105.0-0.0","A31842X2M9HQ4O","img_art/25.jpg","1","","","","","","","","","","","","","","","","","","","","","","","","",""
"7582","","image-button-response","107","1258520","0.0-106.0-0.0","A31842X2M9HQ4O","img_art/25.jpg","3","","","","","","","","","","","","","","","","","","","","","","","","",""
"null","","html-keyboard-response","108","1259524","0.0-107.0","A31842X2M9HQ4O","<p style=""font-size: 48px;"">+</p>","","","","","null","allTrialResponses","1000","1","9","img_art/25.jpg","-35","Scary giant person overpowering all the small people ...","Nicole,Gabrielle,Molly,Leah,Stephanie,Megan","This painting is cool but it gives off an evil vibe,-10,20,20","interesting pattern and color choice, kind of unusual,2,160,20","Well-designed, interesting.,30,340,20","I really like it, very simple, very tribal,38,360,20","It made me think of healing.,22,300,20","Beautiful color with an interesting otherworldly figure,29,200,20","Nicole","This painting is cool but it gives off an evil vibe,-10,20,20","Gabrielle","interesting pattern and color choice, kind of unusual,2,160,20","Leah","I really like it, very simple, very tribal,38,360,20","2"
"23020","","survey-text","109","1282550","0.0-108.0-0.0","A31842X2M9HQ4O","","","","{""Q0"":""Too much going on. The colors are cold and forboding.""}","","","","","","","","","","","","","","","","","","","","","","",""
"4509.299999999814","","image-slider-response","110","1287062","0.0-109.0","A31842X2M9HQ4O","","","","","-15","","","","","","","","","","","","","","","","","","","","","",""
"2821","","image-button-response","111","1292070","0.0-110.0","A31842X2M9HQ4O","img_art/18.jpg","0","","","","","","","","","","","","","","","","","","","","","","","","",""
"3887","","image-button-response","112","1295961","0.0-111.0","A31842X2M9HQ4O","img_art/18.jpg","2","","","","","","","","","","","","","","","","","","","","","","","","",""
"5064","","image-button-response","113","1301029","0.0-112.0-0.0","A31842X2M9HQ4O","img_art/18.jpg","4","","","","","","","","","","","","","","","","","","","","","","","","",""
"11172","","image-button-response","114","1312204","0.0-113.0-0.0","A31842X2M9HQ4O","img_art/18.jpg","1","","","","","","","","","","","","","","","","","","","","","","","","",""
"null","","html-keyboard-response","115","1313708","0.0-114.0","A31842X2M9HQ4O","<p style=""font-size: 48px;"">+</p>","","","","","null","allTrialResponses","1500","1","10","img_art/18.jpg","-15","Too much going on. The colors are cold and forboding.","Nicole,Gabrielle,Bailey,Leah,Miranda,Mariah","There's danger in this painting and it's awesome,40,20,20","interesting piece, I like the horse and people inserted in spots,22,160,20","Looks like a jumbled mess. I prefer a clearer picture,-18,360,20","I really like it, like hells drivers,43,360,20","This one raises some questions, there could be some sort of fight or battle going on.,11,320,20","It is too busy, but the colors are pleasant.,15,140,20","Bailey","Looks like a jumbled mess. I prefer a clearer picture,-18,360,20","Miranda","This one raises some questions, there could be some sort of fight or battle going on.,11,320,20","Gabrielle","interesting piece, I like the horse and people inserted in spots,22,160,20","2"
"3970","","survey-text","116","1317687","0.0-115.0-0.0","A31842X2M9HQ4O","","","","{""Q0"":""our""}","","","","","","","","","","","","","","","","","","","","","","",""
"48672","","survey-text","117","1366362","0.0-116.0-0.0","A31842X2M9HQ4O","","","","{""Q0"":""dark and depressing I do not like the colors""}","","","","","","","","","","","","","","","","","","","","","","",""
"3769.7000000001863","","image-slider-response","118","1370134","0.0-117.0","A31842X2M9HQ4O","","","","","-19","","","","","","","","","","","","","","","","","","","","","",""
"2035","","image-button-response","119","1375138","0.0-118.0","A31842X2M9HQ4O","img_art/29.jpg","0","","","","","","","","","","","","","","","","","","","","","","","","",""
"295","","image-button-response","120","1375436","0.0-119.0","A31842X2M9HQ4O","img_art/29.jpg","0","","","","","","","","","","","","","","","","","","","","","","","","",""
"3865","","image-button-response","121","1379305","0.0-120.0-0.0","A31842X2M9HQ4O","img_art/29.jpg","2","","","","","","","","","","","","","","","","","","","","","","","","",""
"1626","","image-button-response","122","1380935","0.0-121.0-0.0","A31842X2M9HQ4O","img_art/29.jpg","5","","","","","","","","","","","","","","","","","","","","","","","","",""
"null","","html-keyboard-response","123","1381937","0.0-122.0","A31842X2M9HQ4O","<p style=""font-size: 48px;"">+</p>","","","","","null","allTrialResponses","1000","1","11","img_art/29.jpg","-19","dark and depressing I do not like the colors","Taylor,Gabrielle,Bailey,Sophia,Miranda,Elizabeth","It seems like there's anger in the painting.,-20,340,20","it's OK, no clue to what's going on but good use of light and dark,4,160,20","Giant messy blob. Looks like it tries to be edgy, but fails.,-40,360,20","It's creative. It's just not my thing.,-32,280,20","This feels chaotic and I like the energy that it gives off.,21,320,20","Has a haunting feel to it,22,20,20","Taylor","It seems like there's anger in the painting.,-20,340,20","Bailey","Giant messy blob. Looks like it tries to be edgy, but fails.,-40,360,20","Elizabeth","Has a haunting feel to it,22,20,20","2"
"25003","","survey-text","124","1406947","0.0-123.0-0.0","A31842X2M9HQ4O","","","","{""Q0"":""Yikes a scribbling mess looks haunting""}","","","","","","","","","","","","","","","","","","","","","","",""
"4719.200000000186","","image-slider-response","125","1411669","0.0-124.0","A31842X2M9HQ4O","","","","","-36","","","","","","","","","","","","","","","","","","","","","",""
"3732","","image-button-response","126","1416676","0.0-125.0","A31842X2M9HQ4O","img_art/3.jpg","1","","","","","","","","","","","","","","","","","","","","","","","","",""
"1619","","image-button-response","127","1418299","0.0-126.0","A31842X2M9HQ4O","img_art/3.jpg","2","","","","","","","","","","","","","","","","","","","","","","","","",""
"2424","","image-button-response","128","1420727","0.0-127.0-0.0","A31842X2M9HQ4O","img_art/3.jpg","4","","","","","","","","","","","","","","","","","","","","","","","","",""
"8824","","image-button-response","129","1429554","0.0-128.0-0.0","A31842X2M9HQ4O","img_art/3.jpg","0","","","","","","","","","","","","","","","","","","","","","","","","",""
"null","","html-keyboard-response","130","1430057","0.0-129.0","A31842X2M9HQ4O","<p style=""font-size: 48px;"">+</p>","","","","","null","allTrialResponses","500","1","12","img_art/3.jpg","-36","Yikes a scribbling mess looks haunting","Taylor,Erika,Bailey,Caroline,Lindsey,Elizabeth","It doesn't make me think of art,-20,340,20","Unaure what the artist  was doing, needs context,11,100,20","Just scribbles. People buy that?,-47,360,20","The red makes me think of blood which makes me think of pain,-50,100,20","Angry red crayons, like a child throwing a tantrum. No thanks.,-10,400,20","It doesn't invoke any excitement,-21,20,20","Bailey","Just scribbles. People buy that?,-47,360,20","Lindsey","Angry red crayons, like a child throwing a tantrum. No thanks.,-10,400,20","Taylor","It doesn't make me think of art,-20,340,20","2"
"27072","","survey-text","131","1457137","0.0-130.0-0.0","A31842X2M9HQ4O","","","","{""Q0"":""teddy bear amongst a bunch of darkness its a little frightening""}","","","","","","","","","","","","","","","","","","","","","","",""
"4685","","image-slider-response","132","1461825","0.0-131.0","A31842X2M9HQ4O","","","","","-33","","","","","","","","","","","","","","","","","","","","","",""
"3532","","image-button-response","133","1466831","0.0-132.0","A31842X2M9HQ4O","img_art/16.jpg","0","","","","","","","","","","","","","","","","","","","","","","","","",""
"503","","image-button-response","134","1467339","0.0-133.0","A31842X2M9HQ4O","img_art/16.jpg","0","","","","","","","","","","","","","","","","","","","","","","","","",""
"2011","","image-button-response","135","1469353","0.0-134.0-0.0","A31842X2M9HQ4O","img_art/16.jpg","1","","","","","","","","","","","","","","","","","","","","","","","","",""
"8429","","image-button-response","136","1477785","0.0-135.0-0.0","A31842X2M9HQ4O","img_art/16.jpg","2","","","","","","","","","","","","","","","","","","","","","","","","",""
"null","","html-keyboard-response","137","1478291","0.0-136.0","A31842X2M9HQ4O","<p style=""font-size: 48px;"">+</p>","","","","","null","allTrialResponses","500","1","13","img_art/16.jpg","-33","teddy bear amongst a bunch of darkness its a little frightening","Taylor,Hannah,Bailey,Caitlin,Lindsey,Alicia","It just makes me feel uncomfortable,-25,340,20","This is weird and a little creepy.,6,240,20","Creeps me out. Like..really creeps me out.,-48,360,20","It is sick to put a teddy bear and a gun on the same piece of canvas.,-40,80,20","It's depressing. Probably achieved its goal. But I wouldn't want it hanging in my home.,-31,400,20","Don't get it. Hate it. ugly.,-44,120,20","Taylor","It just makes me feel uncomfortable,-25,340,20","Hannah","This is weird and a little creepy.,6,240,20","Bailey","Creeps me out. Like..really creeps me out.,-48,360,20","2"
"24331","","survey-text","138","1502629","0.0-137.0-0.0","A31842X2M9HQ4O","","","","{""Q0"":""SImple and interesting. Not sure what the artist is trying to convey""}","","","","","","","","","","","","","","","","","","","","","","",""
"6203.299999999814","","image-slider-response","139","1508835","0.0-138.0","A31842X2M9HQ4O","","","","","10","","","","","","","","","","","","","","","","","","","","","",""
"4001","","image-button-response","140","1513844","0.0-139.0","A31842X2M9HQ4O","img_art/5.jpg","1","","","","","","","","","","","","","","","","","","","","","","","","",""
"710","","image-button-response","141","1514558","0.0-140.0","A31842X2M9HQ4O","img_art/5.jpg","1","","","","","","","","","","","","","","","","","","","","","","","","",""
"8805","","image-button-response","142","1523365","0.0-141.0-0.0","A31842X2M9HQ4O","img_art/5.jpg","0","","","","","","","","","","","","","","","","","","","","","","","","",""
"15808","","image-button-response","143","1539177","0.0-142.0-0.0","A31842X2M9HQ4O","img_art/5.jpg","2","","","","","","","","","","","","","","","","","","","","","","","","",""
"null","","html-keyboard-response","144","1540179","0.0-143.0","A31842X2M9HQ4O","<p style=""font-size: 48px;"">+</p>","","","","","null","allTrialResponses","1000","1","14","img_art/5.jpg","10","SImple and interesting. Not sure what the artist is trying to convey","Taylor,Hannah,Bailey,Kelly,Angela,Dominique","Doesn't make me think anything,-1,340,20","Very basic, but at least has some color to it.,-9,240,20","Not sure what that even is. Looks like a 2-year old drawing,-40,360,20","It looks like daffy duck's leg with a random trail of pink.,-22,220,20","I really dislike this. It's ugly and looks dirty.,-44,260,20","It speaks volumes to some. It's also a conversational piece. And very different ideas,34,400,20","Hannah","Very basic, but at least has some color to it.,-9,240,20","Taylor","Doesn't make me think anything,-1,340,20","Bailey","Not sure what that even is. Looks like a 2-year old drawing,-40,360,20","2"
"23366","","survey-text","145","1563553","0.0-144.0-0.0","A31842X2M9HQ4O","","","","{""Q0"":""Looks like a crime scene and has dark depressing colors""}","","","","","","","","","","","","","","","","","","","","","","",""
"3916.7000000001863","","image-slider-response","146","1567473","0.0-145.0","A31842X2M9HQ4O","","","","","-32","","","","","","","","","","","","","","","","","","","","","",""
"null","","image-button-response","147","1572476","0.0-146.0","A31842X2M9HQ4O","img_art/20.jpg","null","","","","","","","","","","","","","","","","","","","","","","","","",""
"849","","image-button-response","148","1573329","0.0-147.0","A31842X2M9HQ4O","img_art/20.jpg","3","","","","","","","","","","","","","","","","","","","","","","","","",""
"2645","","image-button-response","149","1575978","0.0-148.0-0.0","A31842X2M9HQ4O","img_art/20.jpg","5","","","","","","","","","","","","","","","","","","","","","","","","",""
"12652","","image-button-response","150","1588633","0.0-149.0-0.0","A31842X2M9HQ4O","img_art/20.jpg","1","","","","","","","","","","","","","","","","","","","","","","","","",""
"null","","html-keyboard-response","151","1590140","0.0-150.0","A31842X2M9HQ4O","<p style=""font-size: 48px;"">+</p>","","","","","null","allTrialResponses","1500","1","15","img_art/20.jpg","-32","Looks like a crime scene and has dark depressing colors","Taylor,Hannah,Bailey,Chloe,Mackenzie,Isabella","I just love this painting,47,340,20","Reminds me of the Southwest; i.e. New Mexico or Arizona. It's interesting.,12,240,20","A bit hectic, but it does have a bit of coolness to it,6,360,20","Mood setting if a little dreary,20,220,20","Shapes are fun to interpret,21,20,20","Feels like a town destroyed,-19,280,20","Chloe","Mood setting if a little dreary,20,220,20","Isabella","Feels like a town destroyed,-19,280,20","Hannah","Reminds me of the Southwest; i.e. New Mexico or Arizona. It's interesting.,12,240,20","2"
"4312","","survey-text","152","1594464","0.0-151.0-0.0","A31842X2M9HQ4O","","","","{""Q0"":""course""}","","","","","","","","","","","","","","","","","","","","","","",""
"21953","","survey-text","153","1616420","0.0-152.0-0.0","A31842X2M9HQ4O","","","","{""Q0"":""Interesting use of two basic colors but kind of depressing.""}","","","","","","","","","","","","","","","","","","","","","","",""
"2667.2999999998137","","image-slider-response","154","1619090","0.0-153.0","A31842X2M9HQ4O","","","","","-8","","","","","","","","","","","","","","","","","","","","","",""
"4789","","image-button-response","155","1624095","0.0-154.0","A31842X2M9HQ4O","img_art/15.jpg","2","","","","","","","","","","","","","","","","","","","","","","","","",""
"857","","image-button-response","156","1624956","0.0-155.0","A31842X2M9HQ4O","img_art/15.jpg","2","","","","","","","","","","","","","","","","","","","","","","","","",""
"3812","","image-button-response","157","1628772","0.0-156.0-0.0","A31842X2M9HQ4O","img_art/15.jpg","5","","","","","","","","","","","","","","","","","","","","","","","","",""
"3188","","image-button-response","158","1631964","0.0-157.0-0.0","A31842X2M9HQ4O","img_art/15.jpg","4","","","","","","","","","","","","","","","","","","","","","","","","",""
"null","","html-keyboard-response","159","1632966","0.0-158.0","A31842X2M9HQ4O","<p style=""font-size: 48px;"">+</p>","","","","","null","allTrialResponses","1000","1","16","img_art/15.jpg","-8","Interesting use of two basic colors but kind of depressing.","Tiffany,Hannah,Gabriela,Chloe,Madeline,Isabella","The painting is very relaxing, I'm reminded of sitting in a garden in the evening.,8,360,20","Like this for the colors and arrangement.,11,240,20","it is dark and gloomy,-9,140,20","Like the composition and lines,26,220,20","Simple but needs some more detail somehow,-3,40,20","Too intense with the black dotting,-22,280,20","Gabriela","it is dark and gloomy,-9,140,20","Isabella","Too intense with the black dotting,-22,280,20","Madeline","Simple but needs some more detail somehow,-3,40,20","2"
"33670","","survey-text","160","1666644","0.0-159.0-0.0","A31842X2M9HQ4O","","","","{""Q0"":""I like it looks like a town with water going thru it ""}","","","","","","","","","","","","","","","","","","","","","","",""
"3235.5999999996275","","image-slider-response","161","1669882","0.0-160.0","A31842X2M9HQ4O","","","","","11","","","","","","","","","","","","","","","","","","","","","",""
"null","","image-button-response","162","1674886","0.0-161.0","A31842X2M9HQ4O","img_art/19.jpg","null","","","","","","","","","","","","","","","","","","","","","","","","",""
"4091","","image-button-response","163","1678980","0.0-162.0","A31842X2M9HQ4O","img_art/19.jpg","0","","","","","","","","","","","","","","","","","","","","","","","","",""
"8740","","image-button-response","164","1687724","0.0-163.0-0.0","A31842X2M9HQ4O","img_art/19.jpg","3","","","","","","","","","","","","","","","","","","","","","","","","",""
"3371","","image-button-response","165","1691098","0.0-164.0-0.0","A31842X2M9HQ4O","img_art/19.jpg","3","","","","","","","","","","","","","","","","","","","","","","","","",""
"3031","","image-button-response","166","1697307","0.0-164.1-0.1","A31842X2M9HQ4O","img_art/19.jpg","1","","","","","","","","","","","","","","","","","","","","","","","","",""
"null","","html-keyboard-response","167","1698810","0.0-165.0","A31842X2M9HQ4O","<p style=""font-size: 48px;"">+</p>","","","","","null","allTrialResponses","1500","1","17","img_art/19.jpg","11","I like it looks like a town with water going thru it ","Brooke,Diana,Gabriela,Kaitlin,Madeline,Isabella","Snowy winter scene,25,60,20","I wasn't sure if I liked it or hated it. It oddly reminds me of a clothing store.,11,380,20","it looks messy and non-unique.,-9,140,20","this looks like a busy city lifestyle,24,60,20","Looks a bit too loose,-2,40,20","A day in a small city,45,280,20","Brooke","Snowy winter scene,25,60,20","Kaitlin","this looks like a busy city lifestyle,24,60,20","Diana","I wasn't sure if I liked it or hated it. It oddly reminds me of a clothing store.,11,380,20","4"
"18850","","survey-text","168","1717666","0.0-166.0-0.0","A31842X2M9HQ4O","","","","{""Q0"":""Looks like a moon landing ... I do not like it""}","","","","","","","","","","","","","","","","","","","","","","",""
"3550","","image-slider-response","169","1721218","0.0-167.0","A31842X2M9HQ4O","","","","","-29","","","","","","","","","","","","","","","","","","","","","",""
"2989","","image-button-response","170","1726222","0.0-168.0","A31842X2M9HQ4O","img_art/7.jpg","0","","","","","","","","","","","","","","","","","","","","","","","","",""
"1102","","image-button-response","171","1727329","0.0-169.0","A31842X2M9HQ4O","img_art/7.jpg","0","","","","","","","","","","","","","","","","","","","","","","","","",""
"1687","","image-button-response","172","1729019","0.0-170.0-0.0","A31842X2M9HQ4O","img_art/7.jpg","1","","","","","","","","","","","","","","","","","","","","","","","","",""
"5302","","image-button-response","173","1734325","0.0-171.0-0.0","A31842X2M9HQ4O","img_art/7.jpg","2","","","","","","","","","","","","","","","","","","","","","","","","",""
"null","","html-keyboard-response","174","1735329","0.0-172.0","A31842X2M9HQ4O","<p style=""font-size: 48px;"">+</p>","","","","","null","allTrialResponses","1000","1","18","img_art/7.jpg","-29","Looks like a moon landing ... I do not like it","Brooke,Diana,Jamie,Kaitlin,Kristen,Alexandra","tracks in dirt?,-15,60,20","This piece reminds me of ants and it makes my skin crawl.,-37,380,20","Looks like a battle raging on,20,320,20","I'm not too sure about this one,-10,60,20","sand, beach, tranquil,10,280,20","I do not like the boring colors in this.,-20,60,20","Brooke","tracks in dirt?,-15,60,20","Diana","This piece reminds me of ants and it makes my skin crawl.,-37,380,20","Jamie","Looks like a battle raging on,20,320,20","4"
"18128","","survey-text","175","1753463","0.0-173.0-0.0","A31842X2M9HQ4O","","","","{""Q0"":""Interesting use of color and what looks like a tree in a building""}","","","","","","","","","","","","","","","","","","","","","","",""
"3700.899999999441","","image-slider-response","176","1757167","0.0-174.0","A31842X2M9HQ4O","","","","","14","","","","","","","","","","","","","","","","","","","","","",""
"4694","","image-button-response","177","1762173","0.0-175.0","A31842X2M9HQ4O","img_art/17.jpg","0","","","","","","","","","","","","","","","","","","","","","","","","",""
"929","","image-button-response","178","1763106","0.0-176.0","A31842X2M9HQ4O","img_art/17.jpg","0","","","","","","","","","","","","","","","","","","","","","","","","",""
"2474","","image-button-response","179","1765584","0.0-177.0-0.0","A31842X2M9HQ4O","img_art/17.jpg","1","","","","","","","","","","","","","","","","","","","","","","","","",""
"5174","","image-button-response","180","1770762","0.0-178.0-0.0","A31842X2M9HQ4O","img_art/17.jpg","4","","","","","","","","","","","","","","","","","","","","","","","","",""
"null","","html-keyboard-response","181","1771769","0.0-179.0","A31842X2M9HQ4O","<p style=""font-size: 48px;"">+</p>","","","","","null","allTrialResponses","1000","1","19","img_art/17.jpg","14","Interesting use of color and what looks like a tree in a building","Brooke,Diana,Jamie,Cassidy,Shannon,Alexis","doorways and trees are pleasant,30,60,20","I really enjoyed this piece, it's a play on bringing the outside indoors.,32,380,20","Looks like some fantasy tree. Nice,30,320,20","cool. Sharp and blocky below, light and flowing on top. Overall pleasing to look at,32,140,20","I like the way the colors were used behind the tree. Makes the image colorful and interesting.,30,220,20","Love the color and nature motif,36,100,20","Brooke","doorways and trees are pleasant,30,60,20","Diana","I really enjoyed this piece, it's a play on bringing the outside indoors.,32,380,20","Shannon","I like the way the colors were used behind the tree. Makes the image colorful and interesting.,30,220,20","4"
"18678","","survey-text","182","1790452","0.0-180.0-0.0","A31842X2M9HQ4O","","","","{""Q0"":""kind of gross colors with white scribbled in..""}","","","","","","","","","","","","","","","","","","","","","","",""
"3557","","image-slider-response","183","1794012","0.0-181.0","A31842X2M9HQ4O","","","","","-33","","","","","","","","","","","","","","","","","","","","","",""
"null","","image-button-response","184","1799016","0.0-182.0","A31842X2M9HQ4O","img_art/23.jpg","null","","","","","","","","","","","","","","","","","","","","","","","","",""
"3675","","image-button-response","185","1802695","0.0-183.0","A31842X2M9HQ4O","img_art/23.jpg","5","","","","","","","","","","","","","","","","","","","","","","","","",""
"4770","","image-button-response","186","1807469","0.0-184.0-0.0","A31842X2M9HQ4O","img_art/23.jpg","3","","","","","","","","","","","","","","","","","","","","","","","","",""
"8818","","image-button-response","187","1816290","0.0-185.0-0.0","A31842X2M9HQ4O","img_art/23.jpg","0","","","","","","","","","","","","","","","","","","","","","","","","",""
"null","","html-keyboard-response","188","1817795","0.0-186.0","A31842X2M9HQ4O","<p style=""font-size: 48px;"">+</p>","","","","","null","allTrialResponses","1500","1","20","img_art/23.jpg","-33","kind of gross colors with white scribbled in..","Brooke,Diana,Monica,Cassandra,Shannon,Leslie","looks like those paper chain things.,0,60,20","I thought this art was exciting and it reminded me of dancing people.,12,380,20","I like the sharp contrast of the white on the colorful background,27,360,20","I had a very neutral feeling to this,no feelings at all.,1,120,20","I really like the way all the colors look, I think this is a pretty picture.,40,220,20","It reminds me of being in a crowded place.,-10,380,20","Leslie","It reminds me of being in a crowded place.,-10,380,20","Cassandra","I had a very neutral feeling to this,no feelings at all.,1,120,20","Brooke","looks like those paper chain things.,0,60,20","4"
"3161","","survey-text","189","1820967","0.0-187.0-0.0","A31842X2M9HQ4O","","","","{""Q0"":""we""}","","","","","","","","","","","","","","","","","","","","","","",""
"17571","","survey-text","190","1838541","0.0-188.0-0.0","A31842X2M9HQ4O","","","","{""Q0"":""Peaceful and serene. Colors are beautiful like in a dream""}","","","","","","","","","","","","","","","","","","","","","","",""
"3229.0999999996275","","image-slider-response","191","1841773","0.0-189.0","A31842X2M9HQ4O","","","","","16","","","","","","","","","","","","","","","","","","","","","",""
"null","","image-button-response","192","1846780","0.0-190.0","A31842X2M9HQ4O","img_art/1.jpg","null","","","","","","","","","","","","","","","","","","","","","","","","",""
"1082","","image-button-response","193","1847865","0.0-191.0","A31842X2M9HQ4O","img_art/1.jpg","2","","","","","","","","","","","","","","","","","","","","","","","","",""
"4030","","image-button-response","194","1851897","0.0-192.0-0.0","A31842X2M9HQ4O","img_art/1.jpg","0","","","","","","","","","","","","","","","","","","","","","","","","",""
"4518","","image-button-response","195","1856419","0.0-193.0-0.0","A31842X2M9HQ4O","img_art/1.jpg","1","","","","","","","","","","","","","","","","","","","","","","","","",""
"null","","html-keyboard-response","196","1857426","0.0-194.0","A31842X2M9HQ4O","<p style=""font-size: 48px;"">+</p>","","","","","null","allTrialResponses","1000","1","21","img_art/1.jpg","16","Peaceful and serene. Colors are beautiful like in a dream","Brooke,Samantha,Alexandria,Cassandra,Makayla,Leslie","It's okay, colors remind me of autumn.,10,60,20","Love the colors but it makes me feel like someone is looking at me through it,38,140,20","it is very colorful and makes me happy,44,80,20","I didn't like this too much...I didn't like the red and the jaggedness to it.,-29,120,20","Nothing whatsoever,2,80,20","The use of reds, blues, and yellows together reminds me of fire. Very interesting to look at.,40,380,20","Alexandria","it is very colorful and makes me happy,44,80,20","Brooke","It's okay, colors remind me of autumn.,10,60,20","Samantha","Love the colors but it makes me feel like someone is looking at me through it,38,140,20","4"
"25591","","survey-text","197","1883023","0.0-195.0-0.0","A31842X2M9HQ4O","","","","{""Q0"":""Looks very sci fi and the colors look other wordly""}","","","","","","","","","","","","","","","","","","","","","","",""
"5051.5","","image-slider-response","198","1888077","0.0-196.0","A31842X2M9HQ4O","","","","","-21","","","","","","","","","","","","","","","","","","","","","",""
"2976","","image-button-response","199","1893081","0.0-197.0","A31842X2M9HQ4O","img_art/22.jpg","1","","","","","","","","","","","","","","","","","","","","","","","","",""
"901","","image-button-response","200","1893986","0.0-198.0","A31842X2M9HQ4O","img_art/22.jpg","1","","","","","","","","","","","","","","","","","","","","","","","","",""
"4854","","image-button-response","201","1898844","0.0-199.0-0.0","A31842X2M9HQ4O","img_art/22.jpg","5","","","","","","","","","","","","","","","","","","","","","","","","",""
"9116","","image-button-response","202","1907963","0.0-200.0-0.0","A31842X2M9HQ4O","img_art/22.jpg","2","","","","","","","","","","","","","","","","","","","","","","","","",""
"null","","html-keyboard-response","203","1908469","0.0-201.0","A31842X2M9HQ4O","<p style=""font-size: 48px;"">+</p>","","","","","null","allTrialResponses","500","1","22","img_art/22.jpg","-21","Looks very sci fi and the colors look other wordly","Brooke,Samantha,Alexandria,Victoria,Brianna,Laura","Like this one, like a sunset,30,60,20","Pretty colors but something seems sinister about it,25,140,20","the colors and shapes makes me want to keep looking at it,22,80,20","love how the colors blend,42,400,20","Like the black key and the rainbow color theme.,31,20,20","muddy and rough,14,320,20","Samantha","Pretty colors but something seems sinister about it,25,140,20","Laura","muddy and rough,14,320,20","Alexandria","the colors and shapes makes me want to keep looking at it,22,80,20","4"
"162406","","survey-text","204","2070883","0.0-202.0-0.0","A31842X2M9HQ4O","","","","{""Q0"":""dark art looks like someone is in a nightmare""}","","","","","","","","","","","","","","","","","","","","","","",""
"5199.199999999255","","image-slider-response","205","2076085","0.0-203.0","A31842X2M9HQ4O","","","","","-35","","","","","","","","","","","","","","","","","","","","","",""
"null","","image-button-response","206","2081094","0.0-204.0","A31842X2M9HQ4O","img_art/10.jpg","null","","","","","","","","","","","","","","","","","","","","","","","","",""
"258","","image-button-response","207","2081355","0.0-205.0","A31842X2M9HQ4O","img_art/10.jpg","4","","","","","","","","","","","","","","","","","","","","","","","","",""
"2632","","image-button-response","208","2083991","0.0-206.0-0.0","A31842X2M9HQ4O","img_art/10.jpg","3","","","","","","","","","","","","","","","","","","","","","","","","",""
"4325","","image-button-response","209","2088321","0.0-207.0-0.0","A31842X2M9HQ4O","img_art/10.jpg","1","","","","","","","","","","","","","","","","","","","","","","","","",""
"null","","html-keyboard-response","210","2089828","0.0-208.0","A31842X2M9HQ4O","<p style=""font-size: 48px;"">+</p>","","","","","null","allTrialResponses","1500","1","23","img_art/10.jpg","-35","dark art looks like someone is in a nightmare","Cheyenne,Samantha,Alexandria,Savannah,Amber,Laura","Very nice painting, would like it more with different color choice.,6,200,20","I like it but do not love it. It is sort of depressing,13,140,20","it reminds me of a musical instrument,19,80,20","This is a scribble of a mad man. Appears low effort.,-33,200,20","This picture just seems depressing.,-26,200,20","I feel a state of readiness without anxiety.,24,320,20","Amber","This picture just seems depressing.,-26,200,20","Savannah","This is a scribble of a mad man. Appears low effort.,-33,200,20","Samantha","I like it but do not love it. It is sort of depressing,13,140,20","4"
"19164","","survey-text","211","2109000","0.0-209.0-0.0","A31842X2M9HQ4O","","","","{""Q0"":""I like the colors looks like a woman relaxing and dreaming""}","","","","","","","","","","","","","","","","","","","","","","",""
"5194.799999998882","","image-slider-response","212","2114197","0.0-210.0","A31842X2M9HQ4O","","","","","16","","","","","","","","","","","","","","","","","","","","","",""
"null","","image-button-response","213","2119205","0.0-211.0","A31842X2M9HQ4O","img_art/9.jpg","null","","","","","","","","","","","","","","","","","","","","","","","","",""
"96594","","image-button-response","214","2215803","0.0-212.0","A31842X2M9HQ4O","img_art/9.jpg","2","","","","","","","","","","","","","","","","","","","","","","","","",""
"3492","","image-button-response","215","2219299","0.0-213.0-0.0","A31842X2M9HQ4O","img_art/9.jpg","4","","","","","","","","","","","","","","","","","","","","","","","","",""
"1558","","image-button-response","216","2220861","0.0-214.0-0.0","A31842X2M9HQ4O","img_art/9.jpg","5","","","","","","","","","","","","","","","","","","","","","","","","",""
"null","","html-keyboard-response","217","2221365","0.0-215.0","A31842X2M9HQ4O","<p style=""font-size: 48px;"">+</p>","","","","","null","allTrialResponses","500","1","24","img_art/9.jpg","16","I like the colors looks like a woman relaxing and dreaming","Madison,Samantha,Katherine,Savannah,Amber,Kylie","No cohesive form whatsoever. Hard pass.,-31,60,20","Some nice colors but i do not like it,-18,140,20","Idk what is in the middle but the blurry image makes it seem like the subject is of the painters interest,22,120,20","Unfinished, weird composition.,-34,200,20","looks like sleeping beauty in a garden,10,200,20","Peaceful dreaming,40,300,20","Katherine","Idk what is in the middle but the blurry image makes it seem like the subject is of the painters interest,22,120,20","Amber","looks like sleeping beauty in a garden,10,200,20","Kylie","Peaceful dreaming,40,300,20","4"
"28326","","survey-text","218","2249699","0.0-216.0-0.0","A31842X2M9HQ4O","","","","{""Q0"":""Interesting lines and feel some movement but not excellent""}","","","","","","","","","","","","","","","","","","","","","","",""
"3028.5","","image-slider-response","219","2252731","0.0-217.0","A31842X2M9HQ4O","","","","","-15","","","","","","","","","","","","","","","","","","","","","",""
"4879","","image-button-response","220","2257738","0.0-218.0","A31842X2M9HQ4O","img_art/30.jpg","2","","","","","","","","","","","","","","","","","","","","","","","","",""
"1186","","image-button-response","221","2258927","0.0-219.0","A31842X2M9HQ4O","img_art/30.jpg","2","","","","","","","","","","","","","","","","","","","","","","","","",""
"5605","","image-button-response","222","2264535","0.0-220.0-0.0","A31842X2M9HQ4O","img_art/30.jpg","0","","","","","","","","","","","","","","","","","","","","","","","","",""
"4642","","image-button-response","223","2269181","0.0-221.0-0.0","A31842X2M9HQ4O","img_art/30.jpg","4","","","","","","","","","","","","","","","","","","","","","","","","",""
"null","","html-keyboard-response","224","2270185","0.0-222.0","A31842X2M9HQ4O","<p style=""font-size: 48px;"">+</p>","","","","","null","allTrialResponses","1000","1","25","img_art/30.jpg","-15","Interesting lines and feel some movement but not excellent","Marissa,Emily,Katherine,Kathryn,Amber,Kylie","I really like the broad and colorful strokes,21,160,20","It looks like a child did it. There is nothing talented or special about it.,-16,40,20","For some reason I like the red in this one. Maybe it's the style of lines/blurs,46,120,20","It's like a child's art piece: carefree and not trying to conform to anything.,10,140,20","fresh and bold. outgoing.,15,200,20","I can't figure this out,25,300,20","Katherine","For some reason I like the red in this one. Maybe it's the style of lines/blurs,46,120,20","Marissa","I really like the broad and colorful strokes,21,160,20","Amber","fresh and bold. outgoing.,15,200,20","4"
"5768","","survey-text","225","2275966","0.0-223.0-0.0","A31842X2M9HQ4O","","","","{""Q0"":""table ""}","","","","","","","","","","","","","","","","","","","","","","",""
"4761","","survey-text","226","2288284","0.0-223.1-0.1","A31842X2M9HQ4O","","","","{""Q0"":""table""}","","","","","","","","","","","","","","","","","","","","","","",""
"16775","","survey-text","227","2305061","0.0-224.0-0.0","A31842X2M9HQ4O","","","","{""Q0"":""This looks disgusting and awful color of brown""}","","","","","","","","","","","","","","","","","","","","","","",""
"3997.10000000149","","image-slider-response","228","2309061","0.0-225.0","A31842X2M9HQ4O","","","","","-36","","","","","","","","","","","","","","","","","","","","","",""
"null","","image-button-response","229","2314065","0.0-226.0","A31842X2M9HQ4O","img_art/4.jpg","null","","","","","","","","","","","","","","","","","","","","","","","","",""
"3876","","image-button-response","230","2317944","0.0-227.0","A31842X2M9HQ4O","img_art/4.jpg","5","","","","","","","","","","","","","","","","","","","","","","","","",""
"2164","","image-button-response","231","2320112","0.0-228.0-0.0","A31842X2M9HQ4O","img_art/4.jpg","1","","","","","","","","","","","","","","","","","","","","","","","","",""
"7392","","image-button-response","232","2327508","0.0-229.0-0.0","A31842X2M9HQ4O","img_art/4.jpg","3","","","","","","","","","","","","","","","","","","","","","","","","",""
"null","","html-keyboard-response","233","2329012","0.0-230.0","A31842X2M9HQ4O","<p style=""font-size: 48px;"">+</p>","","","","","null","allTrialResponses","1500","1","26","img_art/4.jpg","-36","This looks disgusting and awful color of brown","Marissa,Morgan,Katherine,Shelby,Amber,Jessica","I'm disappointed that such a simple piece, with very little effort spent, could be grouped with other detailed pieces,-31,160,20","Pretzel noodles.,7,380,20","I like how many different ways there are to interpret this.,27,120,20","The colors feel a bit off to me,-10,240,20","I like the bold style.,10,200,20","Looks like they just smothered on some paint and called it a day.,-17,400,20","Jessica","Looks like they just smothered on some paint and called it a day.,-17,400,20","Morgan","Pretzel noodles.,7,380,20","Shelby","The colors feel a bit off to me,-10,240,20","5"
"25040","","survey-text","234","2354060","0.0-231.0-0.0","A31842X2M9HQ4O","","","","{""Q0"":""interesting man looking down on a city and he looks horrified""}","","","","","","","","","","","","","","","","","","","","","","",""
"3529","","image-slider-response","235","2357592","0.0-232.0","A31842X2M9HQ4O","","","","","10","","","","","","","","","","","","","","","","","","","","","",""
"2293","","image-button-response","236","2362595","0.0-233.0","A31842X2M9HQ4O","img_art/8.jpg","0","","","","","","","","","","","","","","","","","","","","","","","","",""
"802","","image-button-response","237","2363400","0.0-234.0","A31842X2M9HQ4O","img_art/8.jpg","0","","","","","","","","","","","","","","","","","","","","","","","","",""
"1103","","image-button-response","238","2364506","0.0-235.0-0.0","A31842X2M9HQ4O","img_art/8.jpg","1","","","","","","","","","","","","","","","","","","","","","","","","",""
"5923","","image-button-response","239","2370432","0.0-236.0-0.0","A31842X2M9HQ4O","img_art/8.jpg","5","","","","","","","","","","","","","","","","","","","","","","","","",""
"null","","html-keyboard-response","240","2371940","0.0-237.0","A31842X2M9HQ4O","<p style=""font-size: 48px;"">+</p>","","","","","null","allTrialResponses","1500","1","27","img_art/8.jpg","10","interesting man looking down on a city and he looks horrified","Erin,Morgan,Kaylee,Shelby,Katelyn,Jessica","Lots of depth, faces, city, arch,3,120,20","Falling into a city's heart.,10,380,20","beautiful buildings,32,200,20","Too much going on, too many colors, makes me feel uneasy,-20,240,20","I like the definition and the strong lines. It makes me think of someone watching over the world,24,100,20","Very cool! I like this piece,9,400,20","Erin","Lots of depth, faces, city, arch,3,120,20","Morgan","Falling into a city's heart.,10,380,20","Jessica","Very cool! I like this piece,9,400,20","5"
"27798","","survey-text","241","2399746","0.0-238.0-0.0","A31842X2M9HQ4O","","","","{""Q0"":""simple and elegant I like this...especially the colors""}","","","","","","","","","","","","","","","","","","","","","","",""
"2915.0999999996275","","image-slider-response","242","2402665","0.0-239.0","A31842X2M9HQ4O","","","","","9","","","","","","","","","","","","","","","","","","","","","",""
"3669","","image-button-response","243","2407673","0.0-240.0","A31842X2M9HQ4O","img_art/14.jpg","2","","","","","","","","","","","","","","","","","","","","","","","","",""
"1174","","image-button-response","244","2408851","0.0-241.0","A31842X2M9HQ4O","img_art/14.jpg","2","","","","","","","","","","","","","","","","","","","","","","","","",""
"3526","","image-button-response","245","2412381","0.0-242.0-0.0","A31842X2M9HQ4O","img_art/14.jpg","3","","","","","","","","","","","","","","","","","","","","","","","","",""
"1730","","image-button-response","246","2414115","0.0-243.0-0.0","A31842X2M9HQ4O","img_art/14.jpg","5","","","","","","","","","","","","","","","","","","","","","","","","",""
"null","","html-keyboard-response","247","2414618","0.0-244.0","A31842X2M9HQ4O","<p style=""font-size: 48px;"">+</p>","","","","","null","allTrialResponses","500","1","28","img_art/14.jpg","9","simple and elegant I like this...especially the colors","Erin,Morgan,Christina,Sara,Haley,Jessica","Looks childish and basic,-42,120,20","Angled, colored, boxy.,10,380,20","has a tree look to it and it's colors are happy,9,240,20","It uplifts my mood due to the color scheme,32,160,20","I like the colors in the background, but not the bottom/center. It almost looks sloppy.,-20,220,20","I kind of like it!,6,400,20","Christina","has a tree look to it and it's colors are happy,9,240,20","Sara","It uplifts my mood due to the color scheme,32,160,20","Jessica","I kind of like it!,6,400,20","5"
"18700","","survey-text","248","2433325","0.0-245.0-0.0","A31842X2M9HQ4O","","","","{""Q0"":""I like this a mix of indoors and out very airy calming colors""}","","","","","","","","","","","","","","","","","","","","","","",""
"2653.10000000149","","image-slider-response","249","2435981","0.0-246.0","A31842X2M9HQ4O","","","","","14","","","","","","","","","","","","","","","","","","","","","",""
"2279","","image-button-response","250","2440986","0.0-247.0","A31842X2M9HQ4O","img_art/26.jpg","1","","","","","","","","","","","","","","","","","","","","","","","","",""
"7795","","image-button-response","251","2448786","0.0-248.0","A31842X2M9HQ4O","img_art/26.jpg","4","","","","","","","","","","","","","","","","","","","","","","","","",""
"2722","","image-button-response","252","2451512","0.0-249.0-0.0","A31842X2M9HQ4O","img_art/26.jpg","1","","","","","","","","","","","","","","","","","","","","","","","","",""
"7196","","image-button-response","253","2458712","0.0-250.0-0.0","A31842X2M9HQ4O","img_art/26.jpg","3","","","","","","","","","","","","","","","","","","","","","","","","",""
"null","","html-keyboard-response","254","2460214","0.0-251.0","A31842X2M9HQ4O","<p style=""font-size: 48px;"">+</p>","","","","","null","allTrialResponses","1500","1","29","img_art/26.jpg","14","I like this a mix of indoors and out very airy calming colors","Amy,Claire,Christina,Sara,Kimberly,Jessica","The feeling that I am looking at the world through a dingy filter makes this unpleasant for me.,-20,220,20","very impressionistic,11,260,20","looks like a little kids painting,-17,240,20","I can somewhat city a city in this drawing,11,160,20","It looks like I'm staring out of the window of a nice house, but the house is mine,20,260,20","It doesn't look so vibrant, I'm not sure what feelings they were trying to capture,-41,400,20","Kimberly","It looks like I'm staring out of the window of a nice house, but the house is mine,20,260,20","Claire","very impressionistic,11,260,20","Sara","I can somewhat city a city in this drawing,11,160,20","5"
"20181","","survey-text","255","2480402","0.0-252.0-0.0","A31842X2M9HQ4O","","","","{""Q0"":""good job with geometric shaped but the colors are depressing""}","","","","","","","","","","","","","","","","","","","","","","",""
"6681","","image-slider-response","256","2487086","0.0-253.0","A31842X2M9HQ4O","","","","","-11","","","","","","","","","","","","","","","","","","","","","",""
"null","","image-button-response","257","2492094","0.0-254.0","A31842X2M9HQ4O","img_art/12.jpg","null","","","","","","","","","","","","","","","","","","","","","","","","",""
"2575","","image-button-response","258","2494673","0.0-255.0","A31842X2M9HQ4O","img_art/12.jpg","4","","","","","","","","","","","","","","","","","","","","","","","","",""
"1931","","image-button-response","259","2496606","0.0-256.0-0.0","A31842X2M9HQ4O","img_art/12.jpg","3","","","","","","","","","","","","","","","","","","","","","","","","",""
"1247","","image-button-response","260","2497857","0.0-257.0-0.0","A31842X2M9HQ4O","img_art/12.jpg","5","","","","","","","","","","","","","","","","","","","","","","","","",""
"null","","html-keyboard-response","261","2498863","0.0-258.0","A31842X2M9HQ4O","<p style=""font-size: 48px;"">+</p>","","","","","null","allTrialResponses","1000","1","30","img_art/12.jpg","-11","good job with geometric shaped but the colors are depressing","Rebecca,Claire,Rachel,Sara,Kimberly,Jennifer","so many different available interpretations for this, would love to closer.,24,100,20","i like the repetition,30,260,20","I like how it's split into tiny squares, but otherwise, not very intriguing.,-18,80,20","I don't like the blocking,-20,160,20","Just not a fan, I can't figure out why,-17,260,20","This piece doesn't provoke any kind of reaction,0,380,20","Kimberly","Just not a fan, I can't figure out why,-17,260,20","Sara","I don't like the blocking,-20,160,20","Jennifer","This piece doesn't provoke any kind of reaction,0,380,20","5"
"3824","","image-button-response_instructions","262","2502695","0.0-259.0","A31842X2M9HQ4O","","0","instructions","","","","","","","","","","","","","","","","","","","","","","","",""
"2112","","image-button-response","263","2504815","0.0-260.0","A31842X2M9HQ4O","","0","","","","","","","","","","","","","","","","","","","","","","","","",""
