"rt","url","trial_type","trial_index","time_elapsed","internal_node_id","participant_id","stimulus","button_pressed","Name","responses","response","key_press","variableName","fixationTime","condition","trial","photo","subjectRating","subjectResponse","agentsNames","agent_1_Response","agent_2_Response","agent_3_Response","agent_4_Response","agent_5_Response","agent_6_Response","kept_1_name","kept_1_response","kept_2_name","kept_2_response","kept_3_name","kept_3_response","errorCounter"
"54840","external_page_harvard.html","external-html","0","54904","0.0-0.0","A336V7IY38Q2WN","","","","","","","","","","","","","","","","","","","","","","","","","","",""
"1455","","image-button-response","1","56362","0.0-1.0","A336V7IY38Q2WN","","0","","","","","","","","","","","","","","","","","","","","","","","","",""
"2146","","image-button-response","2","58518","0.0-2.0-0.0","A336V7IY38Q2WN","","1","phone","","","","","","","","","","","","","","","","","","","","","","","",""
"5793","","survey-text","3","64314","0.0-3.0-0.0","A336V7IY38Q2WN","","","","{""Q0"":""A336V7IY38Q2WN""}","","","","","","","","","","","","","","","","","","","","","","",""
"10419","","image-button-response_instructions","4","74738","0.0-4.0","A336V7IY38Q2WN","","0","instructions","","","","","","","","","","","","","","","","","","","","","","","",""
"14263","","image-button-response_instructions","5","89005","0.0-5.0","A336V7IY38Q2WN","img_art/ins/popularity/ins1.png","0","instructions","","","","","","","","","","","","","","","","","","","","","","","",""
"217261","","image-button-response_instructions","6","306268","0.0-6.0","A336V7IY38Q2WN","img_art/ins/popularity/ins2.png","0","instructions","","","","","","","","","","","","","","","","","","","","","","","",""
"1407689","","image-button-response_instructions","7","1713961","0.0-7.0","A336V7IY38Q2WN","img_art/ins/popularity/ins2Extreme.png","0","instructions","","","","","","","","","","","","","","","","","","","","","","","",""
"12838","","image-button-response_instructions","8","1726804","0.0-8.0","A336V7IY38Q2WN","img_art/ins/popularity/ins3KEEPpop.PNG","0","instructions","","","","","","","","","","","","","","","","","","","","","","","",""
"2049","","image-button-response_instructions","9","1728857","0.0-9.0","A336V7IY38Q2WN","img_art/ins/popularity/ins3ANamepop.PNG","0","instructions","","","","","","","","","","","","","","","","","","","","","","","",""
"4625","","image-button-response_instructions","10","1733484","0.0-10.0","A336V7IY38Q2WN","img_art/ins/popularity/ins3ARatingpop.png","0","instructions","","","","","","","","","","","","","","","","","","","","","","","",""
"3934","","image-button-response_instructions","11","1737419","0.0-11.0","A336V7IY38Q2WN","img_art/ins/popularity/ins3ATextpop.png","0","instructions","","","","","","","","","","","","","","","","","","","","","","","",""
"1455931","","image-button-response_instructions","12","3193352","0.0-12.0","A336V7IY38Q2WN","img_art/ins/popularity/ins3ALikespop.png","0","instructions","","","","","","","","","","","","","","","","","","","","","","","",""
"44008","","image-button-response_instructions","13","3237365","0.0-13.0","A336V7IY38Q2WN","img_art/ins/popularity/ins3KEEPpop.PNG","0","instructions","","","","","","","","","","","","","","","","","","","","","","","",""
"6812","","image-button-response_instructions","14","3244180","0.0-14.0","A336V7IY38Q2WN","img_art/ins/popularity/ins3_5RED.png","0","instructions","","","","","","","","","","","","","","","","","","","","","","","",""
"6237","","image-button-response_instructions","15","3250421","0.0-15.0","A336V7IY38Q2WN","img_art/ins/popularity/ins3KEEPpop.PNG","0","instructions","","","","","","","","","","","","","","","","","","","","","","","",""
"10021","","image-button-response_instructions","16","3260445","0.0-16.0","A336V7IY38Q2WN","img_art/ins/popularity/ins4KEEPpop.PNG","0","instructions","","","","","","","","","","","","","","","","","","","","","","","",""
"7625","","image-button-response_instructions","17","3268072","0.0-17.0","A336V7IY38Q2WN","img_art/ins/popularity/ins5KEEPpop.PNG","0","instructions","","","","","","","","","","","","","","","","","","","","","","","",""
"2258","","image-button-response_instructions","18","3270331","0.0-18.0","A336V7IY38Q2WN","","0","instructions","","","","","","","","","","","","","","","","","","","","","","","",""
"6029","","survey-text","19","3276400","0.0-19.0-0.0","A336V7IY38Q2WN","","","","{""Q0"":""but""}","","","","","","","","","","","","","","","","","","","","","","",""
"15359","","survey-text","20","3291762","0.0-20.0-0.0","A336V7IY38Q2WN","","","","{""Q0"":""this piece is frenetic and the colors clash""}","","","","","","","","","","","","","","","","","","","","","","",""
"3449","","image-slider-response","21","3295215","0.0-21.0","A336V7IY38Q2WN","","","","","-25","","","","","","","","","","","","","","","","","","","","","",""
"null","","image-button-response","22","3300227","0.0-22.0","A336V7IY38Q2WN","img_art/ins/1.jpg","null","","","","","","","","","","","","","","","","","","","","","","","","",""
"566","","image-button-response","23","3300795","0.0-23.0","A336V7IY38Q2WN","img_art/ins/1.jpg","4","","","","","","","","","","","","","","","","","","","","","","","","",""
"7437","","image-button-response","24","3308235","0.0-24.0-0.0","A336V7IY38Q2WN","img_art/ins/1.jpg","0","","","","","","","","","","","","","","","","","","","","","","","","",""
"1460","","image-button-response","25","3309699","0.0-25.0-0.0","A336V7IY38Q2WN","img_art/ins/1.jpg","5","","","","","","","","","","","","","","","","","","","","","","","","",""
"null","","html-keyboard-response","26","3310706","0.0-26.0","A336V7IY38Q2WN","<p style=""font-size: 48px;"">+</p>","","","","","null","allTrialResponses","1000","1","-2","img_art/ins/1.jpg","-25","this piece is frenetic and the colors clash","Adam,Alex,Ben,Carl,Daniel,Jack","Seems like doodles,-20,20,20","very creative work.,36,40,20","This color reminds me of poo,-46,60,20","very calming artwork,42,80,20","It looks like a murder scene.,-48,100,20","I like the sophisticated brushwork,40,120,20","Daniel","It looks like a murder scene.,-48,100,20","Adam","Seems like doodles,-20,20,20","Jack","I like the sophisticated brushwork,40,120,20","0"
"18199","","survey-text","27","3328914","0.0-27.0-0.0","A336V7IY38Q2WN","","","","{""Q0"":""this piece is structured ""}","","","","","","","","","","","","","","","","","","","","","","",""
"2795","","image-slider-response","28","3331713","0.0-28.0","A336V7IY38Q2WN","","","","","11","","","","","","","","","","","","","","","","","","","","","",""
"1857","","image-button-response","29","3336715","0.0-29.0","A336V7IY38Q2WN","img_art/ins/2.jpg","1","","","","","","","","","","","","","","","","","","","","","","","","",""
"2952","","image-button-response","30","3339669","0.0-30.0","A336V7IY38Q2WN","img_art/ins/2.jpg","1","","","","","","","","","","","","","","","","","","","","","","","","",""
"8128","","image-button-response","31","3347801","0.0-31.0-0.0","A336V7IY38Q2WN","img_art/ins/2.jpg","3","","","","","","","","","","","","","","","","","","","","","","","","",""
"997","","image-button-response","32","3348801","0.0-32.0-0.0","A336V7IY38Q2WN","img_art/ins/2.jpg","5","","","","","","","","","","","","","","","","","","","","","","","","",""
"null","","html-keyboard-response","33","3349305","0.0-33.0","A336V7IY38Q2WN","<p style=""font-size: 48px;"">+</p>","","","","","null","allTrialResponses","500","1","-1","img_art/ins/2.jpg","11","this piece is structured ","Adam,John,Kyle,James,Daniel,Jack","too much color,-18,20,20","love the texture of paint,48,160,20","Idk, it is just annoying,-32,180,20","looks too angry,-50,140,20","One of my pet peevs,-48,100,20","I would never be able to compose a sophisticated pallete like this,48,120,20","John","love the texture of paint,48,160,20","James","looks too angry,-50,140,20","Jack","I would never be able to compose a sophisticated pallete like this,48,120,20","0"
"23844","","survey-text","34","3373156","0.0-34.0-0.0","A336V7IY38Q2WN","","","","{""Q0"":""This piece is cold and seems like an attack""}","","","","","","","","","","","","","","","","","","","","","","",""
"7552","","image-slider-response","35","3380712","0.0-35.0","A336V7IY38Q2WN","","","","","0","","","","","","","","","","","","","","","","","","","","","",""
"4738","","image-button-response","36","3385716","0.0-36.0","A336V7IY38Q2WN","img_art/ins/3.jpg","2","","","","","","","","","","","","","","","","","","","","","","","","",""
"794","","image-button-response","37","3386512","0.0-37.0","A336V7IY38Q2WN","img_art/ins/3.jpg","2","","","","","","","","","","","","","","","","","","","","","","","","",""
"2953","","image-button-response","38","3389468","0.0-38.0-0.0","A336V7IY38Q2WN","img_art/ins/3.jpg","0","","","","","","","","","","","","","","","","","","","","","","","","",""
"1189","","image-button-response","39","3390660","0.0-39.0-0.0","A336V7IY38Q2WN","img_art/ins/3.jpg","0","","","","","","","","","","","","","","","","","","","","","","","","",""
"1227","","image-button-response","40","3397036","0.0-39.1-0.1","A336V7IY38Q2WN","img_art/ins/3.jpg","0","","","","","","","","","","","","","","","","","","","","","","","","",""
"5044","","image-button-response","41","3406139","0.0-39.2-0.2","A336V7IY38Q2WN","img_art/ins/3.jpg","4","","","","","","","","","","","","","","","","","","","","","","","","",""
"null","","html-keyboard-response","42","3407144","0.0-40.0","A336V7IY38Q2WN","<p style=""font-size: 48px;"">+</p>","","","","","null","allTrialResponses","1000","1","0","img_art/ins/3.jpg","0","This piece is cold and seems like an attack","Sam,John,Mike,James,Ron,Jack","I can feel a rainy day from this painting,18,240,20","I like the overlapping of brushes,41,160,20","enjoy the different shades of blue,22,200,20","My worst nightmare,-42,140,20","It looks depressing,-26,220,20","I feel connected to the artist,40,120,20","Mike","enjoy the different shades of blue,22,200,20","Sam","I can feel a rainy day from this painting,18,240,20","Ron","It looks depressing,-26,220,20","4"
"9103","","image-button-response_instructions","43","3416254","0.0-41.0","A336V7IY38Q2WN","","0","instructions","","","","","","","","","","","","","","","","","","","","","","","",""
"13418","","survey-likert","44","3429676","0.0-42.0-0.0","A336V7IY38Q2WN","","","","{""Q0"":"""",""Q1"":0,""Q2"":1}","","","","","","","","","","","","","","","","","","","","","","",""
"4186","","survey-text","45","3433870","0.0-43.0-0.0","A336V7IY38Q2WN","","","","{""Q0"":""rock""}","","","","","","","","","","","","","","","","","","","","","","",""
"11273","","survey-text","46","3445146","0.0-44.0-0.0","A336V7IY38Q2WN","","","","{""Q0"":""this piece is very busy""}","","","","","","","","","","","","","","","","","","","","","","",""
"4811","","image-slider-response","47","3449961","0.0-45.0","A336V7IY38Q2WN","","","","","10","","","","","","","","","","","","","","","","","","","","","",""
"3684","","image-button-response","48","3454990","0.0-46.0","A336V7IY38Q2WN","img_art/23.jpg","1","","","","","","","","","","","","","","","","","","","","","","","","",""
"1769","","image-button-response","49","3456761","0.0-47.0","A336V7IY38Q2WN","img_art/23.jpg","1","","","","","","","","","","","","","","","","","","","","","","","","",""
"3554","","image-button-response","50","3460317","0.0-48.0-0.0","A336V7IY38Q2WN","img_art/23.jpg","5","","","","","","","","","","","","","","","","","","","","","","","","",""
"2052","","image-button-response","51","3462373","0.0-49.0-0.0","A336V7IY38Q2WN","img_art/23.jpg","3","","","","","","","","","","","","","","","","","","","","","","","","",""
"null","","html-keyboard-response","52","3462880","0.0-50.0","A336V7IY38Q2WN","<p style=""font-size: 48px;"">+</p>","","","","","null","allTrialResponses","500","1","1","img_art/23.jpg","10","this piece is very busy","Cameron,Patrick,Travis,Bryce,Adrian,Jordan","looks like those paper chain things.,0,60,20","Beautiful color scheme,21,280,20","I had a very neutral feeling to this,no feelings at all.,1,260,20","So beautiful with the white accents.,50,20,20","Too much contrasting colors together. I hate it.,-50,60,20","I like the contrast,29,160,20","Patrick","Beautiful color scheme,21,280,20","Jordan","I like the contrast,29,160,20","Bryce","So beautiful with the white accents.,50,20,20","4"
"15191","","survey-text","53","3478077","0.0-51.0-0.0","A336V7IY38Q2WN","","","","{""Q0"":""this almost looks like a close photograph""}","","","","","","","","","","","","","","","","","","","","","","",""
"2145","","image-slider-response","54","3480225","0.0-52.0","A336V7IY38Q2WN","","","","","26","","","","","","","","","","","","","","","","","","","","","",""
"4893","","image-button-response","55","3485233","0.0-53.0","A336V7IY38Q2WN","img_art/7.jpg","0","","","","","","","","","","","","","","","","","","","","","","","","",""
"1142","","image-button-response","56","3486377","0.0-54.0","A336V7IY38Q2WN","img_art/7.jpg","0","","","","","","","","","","","","","","","","","","","","","","","","",""
"4157","","image-button-response","57","3490536","0.0-55.0-0.0","A336V7IY38Q2WN","img_art/7.jpg","4","","","","","","","","","","","","","","","","","","","","","","","","",""
"3629","","image-button-response","58","3494168","0.0-56.0-0.0","A336V7IY38Q2WN","img_art/7.jpg","3","","","","","","","","","","","","","","","","","","","","","","","","",""
"null","","html-keyboard-response","59","3495172","0.0-57.0","A336V7IY38Q2WN","<p style=""font-size: 48px;"">+</p>","","","","","null","allTrialResponses","1000","1","2","img_art/7.jpg","26","this almost looks like a close photograph","Cody,Patrick,Tristan,Bryce,Malik,Jordan","Cool, makes me think of archeology,15,180,20","It feels cold and hard,-40,280,20","Limited emotional reaction for me. No focus and highly abstract,-20,300,20","I love the texture.,20,20,20","Detail oriented, like cracked paint wall,15,40,20","Looks like a skin disease,-31,160,20","Cody","Cool, makes me think of archeology,15,180,20","Malik","Detail oriented, like cracked paint wall,15,40,20","Bryce","I love the texture.,20,20,20","4"
"13957","","survey-text","60","3509135","0.0-58.0-0.0","A336V7IY38Q2WN","","","","{""Q0"":""this piece makes me think of jazz""}","","","","","","","","","","","","","","","","","","","","","","",""
"1980","","image-slider-response","61","3511119","0.0-59.0","A336V7IY38Q2WN","","","","","20","","","","","","","","","","","","","","","","","","","","","",""
"2729","","image-button-response","62","3516122","0.0-60.0","A336V7IY38Q2WN","img_art/22.jpg","0","","","","","","","","","","","","","","","","","","","","","","","","",""
"923","","image-button-response","63","3517048","0.0-61.0","A336V7IY38Q2WN","img_art/22.jpg","0","","","","","","","","","","","","","","","","","","","","","","","","",""
"3218","","image-button-response","64","3520267","0.0-62.0-0.0","A336V7IY38Q2WN","img_art/22.jpg","4","","","","","","","","","","","","","","","","","","","","","","","","",""
"2530","","image-button-response","65","3522800","0.0-63.0-0.0","A336V7IY38Q2WN","img_art/22.jpg","5","","","","","","","","","","","","","","","","","","","","","","","","",""
"null","","html-keyboard-response","66","3524303","0.0-64.0","A336V7IY38Q2WN","<p style=""font-size: 48px;"">+</p>","","","","","null","allTrialResponses","1500","1","3","img_art/22.jpg","20","this piece makes me think of jazz","Cody,Noah,Nathaniel,Bryce,Malik,Charles","Love the use of color,50,180,20","displeasure - not a fan of the colour or the shapes,-18,260,20","Looks like a giant blob,-45,220,20","So colorful i love it!,22,20,20","Beautiful forms, using color to define shape,14,40,20","I like the key near the sphere in the center,19,100,20","Cody","Love the use of color,50,180,20","Malik","Beautiful forms, using color to define shape,14,40,20","Charles","I like the key near the sphere in the center,19,100,20","4"
"11333","","survey-text","67","3535643","0.0-65.0-0.0","A336V7IY38Q2WN","","","","{""Q0"":""this piece is talkative""}","","","","","","","","","","","","","","","","","","","","","","",""
"2337","","image-slider-response","68","3537983","0.0-66.0","A336V7IY38Q2WN","","","","","10","","","","","","","","","","","","","","","","","","","","","",""
"null","","image-button-response","69","3542993","0.0-67.0","A336V7IY38Q2WN","img_art/9.jpg","null","","","","","","","","","","","","","","","","","","","","","","","","",""
"1680","","image-button-response","70","3544674","0.0-68.0","A336V7IY38Q2WN","img_art/9.jpg","4","","","","","","","","","","","","","","","","","","","","","","","","",""
"4282","","image-button-response","71","3548958","0.0-69.0-0.0","A336V7IY38Q2WN","img_art/9.jpg","2","","","","","","","","","","","","","","","","","","","","","","","","",""
"1062","","image-button-response","72","3550023","0.0-70.0-0.0","A336V7IY38Q2WN","img_art/9.jpg","3","","","","","","","","","","","","","","","","","","","","","","","","",""
"null","","html-keyboard-response","73","3550531","0.0-71.0","A336V7IY38Q2WN","<p style=""font-size: 48px;"">+</p>","","","","","null","allTrialResponses","500","1","4","img_art/9.jpg","10","this piece is talkative","Cody,Nicholas,Blake,Jason,Malik,Charles","Feels angry .....,-40,180,20","Some nice colors but i do not like it,-18,240,20","looks like a woman in bed and its ok,8,280,20","Focal point is interesting,2,20,20","Colorful and expressive,15,40,20","It's too all over the place,-37,100,20","Malik","Colorful and expressive,15,40,20","Blake","looks like a woman in bed and its ok,8,280,20","Jason","Focal point is interesting,2,20,20","4"
"13520","","survey-text","74","3564058","0.0-72.0-0.0","A336V7IY38Q2WN","","","","{""Q0"":""this is child's play""}","","","","","","","","","","","","","","","","","","","","","","",""
"2988","","image-slider-response","75","3567050","0.0-73.0","A336V7IY38Q2WN","","","","","-16","","","","","","","","","","","","","","","","","","","","","",""
"4789","","image-button-response","76","3572062","0.0-74.0","A336V7IY38Q2WN","img_art/26.jpg","4","","","","","","","","","","","","","","","","","","","","","","","","",""
"726","","image-button-response","77","3572790","0.0-75.0","A336V7IY38Q2WN","img_art/26.jpg","4","","","","","","","","","","","","","","","","","","","","","","","","",""
"3145","","image-button-response","78","3575938","0.0-76.0-0.0","A336V7IY38Q2WN","img_art/26.jpg","0","","","","","","","","","","","","","","","","","","","","","","","","",""
"5148","","image-button-response","79","3581090","0.0-77.0-0.0","A336V7IY38Q2WN","img_art/26.jpg","1","","","","","","","","","","","","","","","","","","","","","","","","",""
"null","","html-keyboard-response","80","3581601","0.0-78.0","A336V7IY38Q2WN","<p style=""font-size: 48px;"">+</p>","","","","","null","allTrialResponses","500","1","5","img_art/26.jpg","-16","this is child's play","Anthony,Isaiah,Blake,Jason,Malik,Derek","This picture doesn't really stand out.,0,200,20","It is very relaxing to look at, almost a relief.,21,300,20","bedroom in the outdoors. warm,9,280,20","The colors look faded and blurry,2,20,20","Feels like still life,-13,40,20","Looks messy and like it was painted by a small child,-48,360,20","Malik","Feels like still life,-13,40,20","Anthony","This picture doesn't really stand out.,0,200,20","Isaiah","It is very relaxing to look at, almost a relief.,21,300,20","4"
"4570","","survey-text","81","3586186","0.0-79.0-0.0","A336V7IY38Q2WN","","","","{""Q0"":""sky""}","","","","","","","","","","","","","","","","","","","","","","",""
"20528","","survey-text","82","3606716","0.0-80.0-0.0","A336V7IY38Q2WN","","","","{""Q0"":""a drone's eye view. very creative""}","","","","","","","","","","","","","","","","","","","","","","",""
"2244","","image-slider-response","83","3608964","0.0-81.0","A336V7IY38Q2WN","","","","","23","","","","","","","","","","","","","","","","","","","","","",""
"2642","","image-button-response","84","3613973","0.0-82.0","A336V7IY38Q2WN","img_art/8.jpg","4","","","","","","","","","","","","","","","","","","","","","","","","",""
"964","","image-button-response","85","3614939","0.0-83.0","A336V7IY38Q2WN","img_art/8.jpg","4","","","","","","","","","","","","","","","","","","","","","","","","",""
"4026","","image-button-response","86","3618967","0.0-84.0-0.0","A336V7IY38Q2WN","img_art/8.jpg","2","","","","","","","","","","","","","","","","","","","","","","","","",""
"1202","","image-button-response","87","3620172","0.0-85.0-0.0","A336V7IY38Q2WN","img_art/8.jpg","0","","","","","","","","","","","","","","","","","","","","","","","","",""
"null","","html-keyboard-response","88","3620682","0.0-86.0","A336V7IY38Q2WN","<p style=""font-size: 48px;"">+</p>","","","","","null","allTrialResponses","500","1","6","img_art/8.jpg","23","a drone's eye view. very creative","Anthony,Isaiah,Jorge,Richard,Malik,Mitchell","Not my favorite but has an interesting concept,32,200,20","It makes me feel nervous. I can't tell ifI'm looking at an apartment, or a hellscape.,-18,300,20","New power in the community,22,180,20","lots going on with great use of lots of color and geometry,24,340,20","Striking, but not my taste,20,40,20","Lost in a big city confuse as to where to go to next. No matter if you live in a mansion or homeless. Being bigger than what is going on around you,30,180,20","Malik","Striking, but not my taste,20,40,20","Jorge","New power in the community,22,180,20","Anthony","Not my favorite but has an interesting concept,32,200,20","4"
"18626","","survey-text","89","3639314","0.0-87.0-0.0","A336V7IY38Q2WN","","","","{""Q0"":""this is barren solitude. ""}","","","","","","","","","","","","","","","","","","","","","","",""
"2073","","image-slider-response","90","3641391","0.0-88.0","A336V7IY38Q2WN","","","","","11","","","","","","","","","","","","","","","","","","","","","",""
"3897","","image-button-response","91","3646402","0.0-89.0","A336V7IY38Q2WN","img_art/14.jpg","4","","","","","","","","","","","","","","","","","","","","","","","","",""
"646","","image-button-response","92","3647050","0.0-90.0","A336V7IY38Q2WN","img_art/14.jpg","3","","","","","","","","","","","","","","","","","","","","","","","","",""
"917","","image-button-response","93","3647971","0.0-91.0-0.0","A336V7IY38Q2WN","img_art/14.jpg","4","","","","","","","","","","","","","","","","","","","","","","","","",""
"4034","","image-button-response","94","3652006","0.0-92.0-0.0","A336V7IY38Q2WN","img_art/14.jpg","2","","","","","","","","","","","","","","","","","","","","","","","","",""
"null","","html-keyboard-response","95","3652511","0.0-93.0","A336V7IY38Q2WN","<p style=""font-size: 48px;"">+</p>","","","","","null","allTrialResponses","500","1","7","img_art/14.jpg","11","this is barren solitude. ","Anthony,Joseph,Jorge,Benjamin,Malik,Cole","This piece is average compared to the others.,1,200,20","I like that it looks like plants on a table, which reminds me of life.,4,220,20","unsure and dull feeling,-1,180,20","Reminds me of the outdoors.,12,260,20","It's alright, something I'd see in a guest bedroom,10,40,20","Simplistic. Looks like a child did it,14,200,20","Benjamin","Reminds me of the outdoors.,12,260,20","Malik","It's alright, something I'd see in a guest bedroom,10,40,20","Jorge","unsure and dull feeling,-1,180,20","4"
"19717","","survey-text","96","3672233","0.0-94.0-0.0","A336V7IY38Q2WN","","","","{""Q0"":""I like the theme but not the color scheme""}","","","","","","","","","","","","","","","","","","","","","","",""
"3545","","image-slider-response","97","3675782","0.0-95.0","A336V7IY38Q2WN","","","","","6","","","","","","","","","","","","","","","","","","","","","",""
"2213","","image-button-response","98","3680791","0.0-96.0","A336V7IY38Q2WN","img_art/6.jpg","4","","","","","","","","","","","","","","","","","","","","","","","","",""
"1276","","image-button-response","99","3682069","0.0-97.0","A336V7IY38Q2WN","img_art/6.jpg","3","","","","","","","","","","","","","","","","","","","","","","","","",""
"733","","image-button-response","100","3682806","0.0-98.0-0.0","A336V7IY38Q2WN","img_art/6.jpg","4","","","","","","","","","","","","","","","","","","","","","","","","",""
"644","","image-button-response","101","3683453","0.0-99.0-0.0","A336V7IY38Q2WN","img_art/6.jpg","5","","","","","","","","","","","","","","","","","","","","","","","","",""
"null","","html-keyboard-response","102","3684461","0.0-100.0","A336V7IY38Q2WN","<p style=""font-size: 48px;"">+</p>","","","","","null","allTrialResponses","1000","1","8","img_art/6.jpg","6","I like the theme but not the color scheme","Tyler,Kyle,Jorge,Benjamin,Malik,Colton","Is this the villain from Despicable Me?,29,320,20","Simple and clean,11,340,20","seeds of change,11,180,20","Something very simplistic about it. The colors mesh well.,10,260,20","Lonesome in nature,13,40,20","very minimalistic,22,220,20","Benjamin","Something very simplistic about it. The colors mesh well.,10,260,20","Malik","Lonesome in nature,13,40,20","Colton","very minimalistic,22,220,20","4"
"17216","","survey-text","103","3701684","0.0-101.0-0.0","A336V7IY38Q2WN","","","","{""Q0"":""this piece is disorganized and uninspiring""}","","","","","","","","","","","","","","","","","","","","","","",""
"2149","","image-slider-response","104","3703836","0.0-102.0","A336V7IY38Q2WN","","","","","-15","","","","","","","","","","","","","","","","","","","","","",""
"null","","image-button-response","105","3708840","0.0-103.0","A336V7IY38Q2WN","img_art/15.jpg","null","","","","","","","","","","","","","","","","","","","","","","","","",""
"721","","image-button-response","106","3709561","0.0-104.0","A336V7IY38Q2WN","img_art/15.jpg","5","","","","","","","","","","","","","","","","","","","","","","","","",""
"1368","","image-button-response","107","3710932","0.0-105.0-0.0","A336V7IY38Q2WN","img_art/15.jpg","1","","","","","","","","","","","","","","","","","","","","","","","","",""
"1057","","image-button-response","108","3711992","0.0-106.0-0.0","A336V7IY38Q2WN","img_art/15.jpg","0","","","","","","","","","","","","","","","","","","","","","","","","",""
"null","","html-keyboard-response","109","3712502","0.0-107.0","A336V7IY38Q2WN","<p style=""font-size: 48px;"">+</p>","","","","","null","allTrialResponses","500","1","9","img_art/15.jpg","-15","this piece is disorganized and uninspiring","Devin,Marcus,Victor,Benjamin,Malik,Colton","Simple but needs some more detail somehow,-3,380,20","Interesting, but don't really like it. Gloomy.,-10,60,20","I like the random blue dabs to break up the black, but it looks unfinished.,4,340,20","Reminds me of blueberry bushes.,7,260,20","I like the dense patterns and the splashes  of blue,38,40,20","it's alright but a little cluttered,14,220,20","Colton","it's alright but a little cluttered,14,220,20","Marcus","Interesting, but don't really like it. Gloomy.,-10,60,20","Devin","Simple but needs some more detail somehow,-3,380,20","4"
"11643","","survey-text","110","3724152","0.0-108.0-0.0","A336V7IY38Q2WN","","","","{""Q0"":""this is passion""}","","","","","","","","","","","","","","","","","","","","","","",""
"1697","","image-slider-response","111","3725851","0.0-109.0","A336V7IY38Q2WN","","","","","33","","","","","","","","","","","","","","","","","","","","","",""
"null","","image-button-response","112","3730862","0.0-110.0","A336V7IY38Q2WN","img_art/4.jpg","null","","","","","","","","","","","","","","","","","","","","","","","","",""
"876","","image-button-response","113","3731740","0.0-111.0","A336V7IY38Q2WN","img_art/4.jpg","1","","","","","","","","","","","","","","","","","","","","","","","","",""
"2188","","image-button-response","114","3733932","0.0-112.0-0.0","A336V7IY38Q2WN","img_art/4.jpg","2","","","","","","","","","","","","","","","","","","","","","","","","",""
"6577","","image-button-response","115","3740512","0.0-113.0-0.0","A336V7IY38Q2WN","img_art/4.jpg","5","","","","","","","","","","","","","","","","","","","","","","","","",""
"null","","html-keyboard-response","116","3742021","0.0-114.0","A336V7IY38Q2WN","<p style=""font-size: 48px;"">+</p>","","","","","null","allTrialResponses","1500","1","10","img_art/4.jpg","33","this is passion","Devin,Marcus,Connor,Luis,Alejandro,Colton","Not impressed really,-20,380,20","Really like the colors, but don't like the object/squiggle in darker gold and black,4,60,20","Seems simplistic,-8,240,20","Its just not giving the vibe i should be finding,-31,400,20","Looks like finger nails from the Guinness world record book.,-30,80,20","I really don't like the colors,-26,220,20","Marcus","Really like the colors, but don't like the object/squiggle in darker gold and black,4,60,20","Connor","Seems simplistic,-8,240,20","Colton","I really don't like the colors,-26,220,20","4"
"6000","","survey-text","117","3748035","0.0-115.0-0.0","A336V7IY38Q2WN","","","","{""Q0"":""our""}","","","","","","","","","","","","","","","","","","","","","","",""
"46201","","survey-text","118","3794237","0.0-116.0-0.0","A336V7IY38Q2WN","","","","{""Q0"":""these are conversations in a crowded theater""}","","","","","","","","","","","","","","","","","","","","","","",""
"2755","","image-slider-response","119","3796997","0.0-117.0","A336V7IY38Q2WN","","","","","5","","","","","","","","","","","","","","","","","","","","","",""
"2729","","image-button-response","120","3802000","0.0-118.0","A336V7IY38Q2WN","img_art/16.jpg","4","","","","","","","","","","","","","","","","","","","","","","","","",""
"747","","image-button-response","121","3802749","0.0-119.0","A336V7IY38Q2WN","img_art/16.jpg","4","","","","","","","","","","","","","","","","","","","","","","","","",""
"814","","image-button-response","122","3803565","0.0-120.0-0.0","A336V7IY38Q2WN","img_art/16.jpg","0","","","","","","","","","","","","","","","","","","","","","","","","",""
"964","","image-button-response","123","3804533","0.0-121.0-0.0","A336V7IY38Q2WN","img_art/16.jpg","5","","","","","","","","","","","","","","","","","","","","","","","","",""
"null","","html-keyboard-response","124","3805540","0.0-122.0","A336V7IY38Q2WN","<p style=""font-size: 48px;"">+</p>","","","","","null","allTrialResponses","1000","1","11","img_art/16.jpg","5","these are conversations in a crowded theater","Aaron,Marcus,Connor,Trevor,Eric,Colton","It's edgy but cool,10,20,20","Hate this, especially the jarring contrast of the super realistic teddybear face.,-50,60,20","Not original. Bear is odd,-50,240,20","very creepy with a bear and a gun,-50,280,20","This piece is unusual but unique.,5,100,20","the materials used are interesting,30,220,20","Eric","This piece is unusual but unique.,5,100,20","Aaron","It's edgy but cool,10,20,20","Colton","the materials used are interesting,30,220,20","4"
"16017","","survey-text","125","3821564","0.0-123.0-0.0","A336V7IY38Q2WN","","","","{""Q0"":""this piece is overrated""}","","","","","","","","","","","","","","","","","","","","","","",""
"1704","","image-slider-response","126","3823272","0.0-124.0","A336V7IY38Q2WN","","","","","-21","","","","","","","","","","","","","","","","","","","","","",""
"null","","image-button-response","127","3828280","0.0-125.0","A336V7IY38Q2WN","img_art/13.jpg","null","","","","","","","","","","","","","","","","","","","","","","","","",""
"3886","","image-button-response","128","3832168","0.0-126.0","A336V7IY38Q2WN","img_art/13.jpg","1","","","","","","","","","","","","","","","","","","","","","","","","",""
"3313","","image-button-response","129","3835484","0.0-127.0-0.0","A336V7IY38Q2WN","img_art/13.jpg","2","","","","","","","","","","","","","","","","","","","","","","","","",""
"8175","","image-button-response","130","3843664","0.0-128.0-0.0","A336V7IY38Q2WN","img_art/13.jpg","0","","","","","","","","","","","","","","","","","","","","","","","","",""
"null","","html-keyboard-response","131","3844170","0.0-129.0","A336V7IY38Q2WN","<p style=""font-size: 48px;"">+</p>","","","","","null","allTrialResponses","500","1","12","img_art/13.jpg","-21","this piece is overrated","Aaron,Dustin,James,Matthew,Eric,Colton","It reminds me of a window on a rainy day.,40,20,20","Cool and calming colors. I like splatter art.,10,20,20","This is a very cool painting, something an art teacher or professor would own.,22,380,20","AWESOME! Pollack but with more direction.,32,120,20","I love the style of this piece, but the color choice could've been more eye catching or calming.,40,100,20","love the colors and splatters,44,220,20","Dustin","Cool and calming colors. I like splatter art.,10,20,20","James","This is a very cool painting, something an art teacher or professor would own.,22,380,20","Aaron","It reminds me of a window on a rainy day.,40,20,20","4"
"15050","","survey-text","132","3859227","0.0-130.0-0.0","A336V7IY38Q2WN","","","","{""Q0"":""this is a transformative work of art""}","","","","","","","","","","","","","","","","","","","","","","",""
"2376","","image-slider-response","133","3861606","0.0-131.0","A336V7IY38Q2WN","","","","","3","","","","","","","","","","","","","","","","","","","","","",""
"3658","","image-button-response","134","3866610","0.0-132.0","A336V7IY38Q2WN","img_art/11.jpg","2","","","","","","","","","","","","","","","","","","","","","","","","",""
"638","","image-button-response","135","3867250","0.0-133.0","A336V7IY38Q2WN","img_art/11.jpg","2","","","","","","","","","","","","","","","","","","","","","","","","",""
"2093","","image-button-response","136","3869347","0.0-134.0-0.0","A336V7IY38Q2WN","img_art/11.jpg","4","","","","","","","","","","","","","","","","","","","","","","","","",""
"1517","","image-button-response","137","3870867","0.0-135.0-0.0","A336V7IY38Q2WN","img_art/11.jpg","1","","","","","","","","","","","","","","","","","","","","","","","","",""
"null","","html-keyboard-response","138","3871879","0.0-136.0","A336V7IY38Q2WN","<p style=""font-size: 48px;"">+</p>","","","","","null","allTrialResponses","1000","1","13","img_art/11.jpg","3","this is a transformative work of art","Aaron,Dustin,James,Evan,Taylor,Mark","It makes me think of a coastal sea town.,50,20,20","Dark and dreary. Makes me think of rain/water. I see grey clouds and high waves. Looks unsettling.,-20,20,20","I like dark colors.,31,380,20","I dislike how dark this is,-21,140,20","Busy, busy oceanside city.,-10,200,20","My initial thought was roller coasters but I see ship masts on a cloudy day too.,35,80,20","James","I like dark colors.,31,380,20","Taylor","Busy, busy oceanside city.,-10,200,20","Dustin","Dark and dreary. Makes me think of rain/water. I see grey clouds and high waves. Looks unsettling.,-20,20,20","4"
"11400","","survey-text","139","3883287","0.0-137.0-0.0","A336V7IY38Q2WN","","","","{""Q0"":""Somebody is angry""}","","","","","","","","","","","","","","","","","","","","","","",""
"3024","","image-slider-response","140","3886314","0.0-138.0","A336V7IY38Q2WN","","","","","5","","","","","","","","","","","","","","","","","","","","","",""
"4214","","image-button-response","141","3891317","0.0-139.0","A336V7IY38Q2WN","img_art/3.jpg","5","","","","","","","","","","","","","","","","","","","","","","","","",""
"2034","","image-button-response","142","3893354","0.0-140.0","A336V7IY38Q2WN","img_art/3.jpg","5","","","","","","","","","","","","","","","","","","","","","","","","",""
"4645","","image-button-response","143","3898002","0.0-141.0-0.0","A336V7IY38Q2WN","img_art/3.jpg","4","","","","","","","","","","","","","","","","","","","","","","","","",""
"1065","","image-button-response","144","3899069","0.0-142.0-0.0","A336V7IY38Q2WN","img_art/3.jpg","0","","","","","","","","","","","","","","","","","","","","","","","","",""
"null","","html-keyboard-response","145","3900578","0.0-143.0","A336V7IY38Q2WN","<p style=""font-size: 48px;"">+</p>","","","","","null","allTrialResponses","1500","1","14","img_art/3.jpg","5","Somebody is angry","Elijah,Dustin,James,Antonio,Taylor,Lucas","Somebody scribbled on a piece of paper,-35,80,20","Messy. Looks like a children's drawing being passed off as expensive art. Too much red.,-50,20,20","It's very plain,-20,380,20","The red makes me think of blood which makes me think of pain,-50,220,20","Why kids with color crayons is called art is beyond me. People pay for this???,-40,200,20","Mysterious, remarkable.,30,380,20","Lucas","Mysterious, remarkable.,30,380,20","Taylor","Why kids with color crayons is called art is beyond me. People pay for this???,-40,200,20","Elijah","Somebody scribbled on a piece of paper,-35,80,20","4"
"19430","","survey-text","146","3920013","0.0-144.0-0.0","A336V7IY38Q2WN","","","","{""Q0"":""This is incomplete""}","","","","","","","","","","","","","","","","","","","","","","",""
"2748","","image-slider-response","147","3922764","0.0-145.0","A336V7IY38Q2WN","","","","","-35","","","","","","","","","","","","","","","","","","","","","",""
"2807","","image-button-response","148","3927769","0.0-146.0","A336V7IY38Q2WN","img_art/29.jpg","3","","","","","","","","","","","","","","","","","","","","","","","","",""
"202","","image-button-response","149","3927973","0.0-147.0","A336V7IY38Q2WN","img_art/29.jpg","3","","","","","","","","","","","","","","","","","","","","","","","","",""
"1101","","image-button-response","150","3929076","0.0-148.0-0.0","A336V7IY38Q2WN","img_art/29.jpg","2","","","","","","","","","","","","","","","","","","","","","","","","",""
"1213","","image-button-response","151","3930293","0.0-149.0-0.0","A336V7IY38Q2WN","img_art/29.jpg","1","","","","","","","","","","","","","","","","","","","","","","","","",""
"null","","html-keyboard-response","152","3930799","0.0-150.0","A336V7IY38Q2WN","<p style=""font-size: 48px;"">+</p>","","","","","null","allTrialResponses","500","1","15","img_art/29.jpg","-35","This is incomplete","Elijah,Alexander,Robert,Michael,Taylor,Lucas","Makes me feel untidy,-9,80,20","Tested and failed a lot of ideas.,-20,120,20","Looks like a murder,-50,360,20","Looks literally like garbage.,-45,140,20","I would give up and give it a red X too.,-5,200,20","Looks kinda scary.,25,380,20","Michael","Looks literally like garbage.,-45,140,20","Robert","Looks like a murder,-50,360,20","Alexander","Tested and failed a lot of ideas.,-20,120,20","4"
"6294","","survey-text","153","3937109","0.0-151.0-0.0","A336V7IY38Q2WN","","","","{""Q0"":""course""}","","","","","","","","","","","","","","","","","","","","","","",""
"17501","","survey-text","154","3954612","0.0-152.0-0.0","A336V7IY38Q2WN","","","","{""Q0"":""the piece is busy and hurried""}","","","","","","","","","","","","","","","","","","","","","","",""
"3487","","image-slider-response","155","3958104","0.0-153.0","A336V7IY38Q2WN","","","","","-1","","","","","","","","","","","","","","","","","","","","","",""
"2250","","image-button-response","156","3963108","0.0-154.0","A336V7IY38Q2WN","img_art/20.jpg","2","","","","","","","","","","","","","","","","","","","","","","","","",""
"681","","image-button-response","157","3963792","0.0-155.0","A336V7IY38Q2WN","img_art/20.jpg","2","","","","","","","","","","","","","","","","","","","","","","","","",""
"2503","","image-button-response","158","3966296","0.0-156.0-0.0","A336V7IY38Q2WN","img_art/20.jpg","5","","","","","","","","","","","","","","","","","","","","","","","","",""
"2369","","image-button-response","159","3968668","0.0-157.0-0.0","A336V7IY38Q2WN","img_art/20.jpg","3","","","","","","","","","","","","","","","","","","","","","","","","",""
"null","","html-keyboard-response","160","3970177","0.0-158.0","A336V7IY38Q2WN","<p style=""font-size: 48px;"">+</p>","","","","","null","allTrialResponses","1500","1","16","img_art/20.jpg","-1","the piece is busy and hurried","Ian,Alexander,Robert,Michael,Miguel,Jacob","A painting within a painting, the inner painting looks like a car crash with a semi truck.,21,260,20","The beach and industry.,12,120,20","Looks like an old gold mining down now deserted.,11,360,20","Brings about an emotion response of dspair. Loose lines but yet has a cohesion.,8,140,20","It's ok. Very abstract.,18,160,20","It looks painted really nicely.,5,340,20","Robert","Looks like an old gold mining down now deserted.,11,360,20","Jacob","It looks painted really nicely.,5,340,20","Michael","Brings about an emotion response of dspair. Loose lines but yet has a cohesion.,8,140,20","4"
"20333","","survey-text","161","3990519","0.0-159.0-0.0","A336V7IY38Q2WN","","","","{""Q0"":""This is peurile""}","","","","","","","","","","","","","","","","","","","","","","",""
"3239","","image-slider-response","162","3993763","0.0-160.0","A336V7IY38Q2WN","","","","","-22","","","","","","","","","","","","","","","","","","","","","",""
"2429","","image-button-response","163","3998767","0.0-161.0","A336V7IY38Q2WN","img_art/2.jpg","4","","","","","","","","","","","","","","","","","","","","","","","","",""
"2108","","image-button-response","164","4000878","0.0-162.0","A336V7IY38Q2WN","img_art/2.jpg","3","","","","","","","","","","","","","","","","","","","","","","","","",""
"2233","","image-button-response","165","4003114","0.0-163.0-0.0","A336V7IY38Q2WN","img_art/2.jpg","4","","","","","","","","","","","","","","","","","","","","","","","","",""
"1249","","image-button-response","166","4004366","0.0-164.0-0.0","A336V7IY38Q2WN","img_art/2.jpg","5","","","","","","","","","","","","","","","","","","","","","","","","",""
"null","","html-keyboard-response","167","4004877","0.0-165.0","A336V7IY38Q2WN","<p style=""font-size: 48px;"">+</p>","","","","","null","allTrialResponses","500","1","17","img_art/2.jpg","-22","This is peurile","Andrew,Shawn,Robert,Michael,Jesus,Jacob","Doesn't give me a reaction,10,160,20","The color choices and lines seem a bit sloppy?,-10,100,20","The colors are what I like. It looks like a smiling face too.,32,360,20","Random colors and shapes mashed together. Nothing artistic, but better than some of the other ones.,-37,140,20","Muted green is overpowering,-10,100,20","I don't get the meaning of this piece either.,-13,340,20","Michael","Random colors and shapes mashed together. Nothing artistic, but better than some of the other ones.,-37,140,20","Jesus","Muted green is overpowering,-10,100,20","Jacob","I don't get the meaning of this piece either.,-13,340,20","4"
"29953","","survey-text","168","4034837","0.0-166.0-0.0","A336V7IY38Q2WN","","","","{""Q0"":""A grounded and rounded piece. I do not appreciate the colors""}","","","","","","","","","","","","","","","","","","","","","","",""
"2764","","image-slider-response","169","4037605","0.0-167.0","A336V7IY38Q2WN","","","","","6","","","","","","","","","","","","","","","","","","","","","",""
"2629","","image-button-response","170","4042609","0.0-168.0","A336V7IY38Q2WN","img_art/19.jpg","5","","","","","","","","","","","","","","","","","","","","","","","","",""
"1514","","image-button-response","171","4044125","0.0-169.0","A336V7IY38Q2WN","img_art/19.jpg","5","","","","","","","","","","","","","","","","","","","","","","","","",""
"1157","","image-button-response","172","4045285","0.0-170.0-0.0","A336V7IY38Q2WN","img_art/19.jpg","2","","","","","","","","","","","","","","","","","","","","","","","","",""
"1102","","image-button-response","173","4046389","0.0-171.0-0.0","A336V7IY38Q2WN","img_art/19.jpg","1","","","","","","","","","","","","","","","","","","","","","","","","",""
"null","","html-keyboard-response","174","4047898","0.0-172.0","A336V7IY38Q2WN","<p style=""font-size: 48px;"">+</p>","","","","","null","allTrialResponses","1500","1","18","img_art/19.jpg","6","A grounded and rounded piece. I do not appreciate the colors","Zachary,Brandon,Scott,Michael,Jesus,Jacob","Reminds me of a busy town. Chaotic in nature.,-11,400,20","Not a fan of the blobbiness,-22,320,20","looks like a shopping center,20,20,20","Loks like an amature did it, Not pleasing.,-45,140,20","Shapes give it a feeling of being crowded,-18,100,20","Vibrant and colorful,13,340,20","Jacob","Vibrant and colorful,13,340,20","Scott","looks like a shopping center,20,20,20","Brandon","Not a fan of the blobbiness,-22,320,20","4"
"26425","","survey-text","175","4074332","0.0-173.0-0.0","A336V7IY38Q2WN","","","","{""Q0"":""Captivating and mysterious. This is a story""}","","","","","","","","","","","","","","","","","","","","","","",""
"3677","","image-slider-response","176","4078012","0.0-174.0","A336V7IY38Q2WN","","","","","23","","","","","","","","","","","","","","","","","","","","","",""
"3290","","image-button-response","177","4083019","0.0-175.0","A336V7IY38Q2WN","img_art/25.jpg","0","","","","","","","","","","","","","","","","","","","","","","","","",""
"903","","image-button-response","178","4083924","0.0-176.0","A336V7IY38Q2WN","img_art/25.jpg","0","","","","","","","","","","","","","","","","","","","","","","","","",""
"2213","","image-button-response","179","4086140","0.0-177.0-0.0","A336V7IY38Q2WN","img_art/25.jpg","1","","","","","","","","","","","","","","","","","","","","","","","","",""
"1020","","image-button-response","180","4087163","0.0-178.0-0.0","A336V7IY38Q2WN","img_art/25.jpg","5","","","","","","","","","","","","","","","","","","","","","","","","",""
"null","","html-keyboard-response","181","4088169","0.0-179.0","A336V7IY38Q2WN","<p style=""font-size: 48px;"">+</p>","","","","","null","allTrialResponses","1000","1","19","img_art/25.jpg","23","Captivating and mysterious. This is a story","Spencer,Brandon,Scott,John,William,Jacob","I really like it, very simple, very tribal,38,120,20","Reminds me of cave drawings,21,320,20","reminds me of a zombie,-36,20,20","Dark silhouette against the murky background Illicites an ominous feeling. Don't really like it.,-20,120,20","makes me think of a scary movie,-20,380,20","I really like how the lines form this piece.,8,340,20","Spencer","I really like it, very simple, very tribal,38,120,20","Brandon","Reminds me of cave drawings,21,320,20","Jacob","I really like how the lines form this piece.,8,340,20","4"
"24373","","survey-text","182","4112550","0.0-180.0-0.0","A336V7IY38Q2WN","","","","{""Q0"":""Mundane. The strokes argue with each other""}","","","","","","","","","","","","","","","","","","","","","","",""
"2572","","image-slider-response","183","4115126","0.0-181.0","A336V7IY38Q2WN","","","","","-18","","","","","","","","","","","","","","","","","","","","","",""
"2984","","image-button-response","184","4120138","0.0-182.0","A336V7IY38Q2WN","img_art/12.jpg","0","","","","","","","","","","","","","","","","","","","","","","","","",""
"1622","","image-button-response","185","4121763","0.0-183.0","A336V7IY38Q2WN","img_art/12.jpg","0","","","","","","","","","","","","","","","","","","","","","","","","",""
"1081","","image-button-response","186","4122845","0.0-184.0-0.0","A336V7IY38Q2WN","img_art/12.jpg","3","","","","","","","","","","","","","","","","","","","","","","","","",""
"3085","","image-button-response","187","4125934","0.0-185.0-0.0","A336V7IY38Q2WN","img_art/12.jpg","2","","","","","","","","","","","","","","","","","","","","","","","","",""
"null","","html-keyboard-response","188","4127437","0.0-186.0","A336V7IY38Q2WN","<p style=""font-size: 48px;"">+</p>","","","","","null","allTrialResponses","1500","1","20","img_art/12.jpg","-18","Mundane. The strokes argue with each other","Spencer,Brandon,Logan,Mason,Paul,Jacob","Looks like a puzzle I want to put together, but not hang in my den,2,120,20","I like the cubic feel.,11,320,20","giving me major endless summer vibes,26,360,20","it's ok, but blocky, looks old.,3,100,20","Reminds me of collages we made in elementary school. I like the contrast of the colors from top to bottom,43,300,20","I like this concept.,11,340,20","Spencer","Looks like a puzzle I want to put together, but not hang in my den,2,120,20","Mason","it's ok, but blocky, looks old.,3,100,20","Logan","giving me major endless summer vibes,26,360,20","4"
"2452","","survey-text","189","4129906","0.0-187.0-0.0","A336V7IY38Q2WN","","","","{""Q0"":""we""}","","","","","","","","","","","","","","","","","","","","","","",""
"32153","","survey-text","190","4162061","0.0-188.0-0.0","A336V7IY38Q2WN","","","","{""Q0"":""Art on the water. The wave nature of strings along the natural waves of the ocean""}","","","","","","","","","","","","","","","","","","","","","","",""
"2817","","image-slider-response","191","4164881","0.0-189.0","A336V7IY38Q2WN","","","","","40","","","","","","","","","","","","","","","","","","","","","",""
"null","","image-button-response","192","4169887","0.0-190.0","A336V7IY38Q2WN","img_art/10.jpg","null","","","","","","","","","","","","","","","","","","","","","","","","",""
"3204","","image-button-response","193","4173093","0.0-191.0","A336V7IY38Q2WN","img_art/10.jpg","5","","","","","","","","","","","","","","","","","","","","","","","","",""
"1325","","image-button-response","194","4174420","0.0-192.0-0.0","A336V7IY38Q2WN","img_art/10.jpg","1","","","","","","","","","","","","","","","","","","","","","","","","",""
"2225","","image-button-response","195","4176648","0.0-193.0-0.0","A336V7IY38Q2WN","img_art/10.jpg","4","","","","","","","","","","","","","","","","","","","","","","","","",""
"null","","html-keyboard-response","196","4177656","0.0-194.0","A336V7IY38Q2WN","<p style=""font-size: 48px;"">+</p>","","","","","null","allTrialResponses","1000","1","21","img_art/10.jpg","40","Art on the water. The wave nature of strings along the natural waves of the ocean","Spencer,Isaac,Logan,Mason,Gabriel,Brendan","Dark with no object, looks like experimentation, slightly like a storm on the ocean,-21,120,20","It looks intricate.,15,280,20","The more I look the more I like. Reminds me of a rollercoaster and a war scene. A lot going on which is unnerving, like a rollercoaster but still fun,22,360,20","It's art. (for some),7,100,20","reminds me of a violin,9,160,20","a blue whale on the sea,12,340,20","Brendan","a blue whale on the sea,12,340,20","Isaac","It looks intricate.,15,280,20","Gabriel","reminds me of a violin,9,160,20","4"
"29394","","survey-text","197","4207055","0.0-195.0-0.0","A336V7IY38Q2WN","","","","{""Q0"":""I like the concept. A tree trapped in a corner. its poetic""}","","","","","","","","","","","","","","","","","","","","","","",""
"3085","","image-slider-response","198","4210143","0.0-196.0","A336V7IY38Q2WN","","","","","32","","","","","","","","","","","","","","","","","","","","","",""
"2322","","image-button-response","199","4215156","0.0-197.0","A336V7IY38Q2WN","img_art/17.jpg","4","","","","","","","","","","","","","","","","","","","","","","","","",""
"1369","","image-button-response","200","4216527","0.0-198.0","A336V7IY38Q2WN","img_art/17.jpg","4","","","","","","","","","","","","","","","","","","","","","","","","",""
"1757","","image-button-response","201","4218287","0.0-199.0-0.0","A336V7IY38Q2WN","img_art/17.jpg","5","","","","","","","","","","","","","","","","","","","","","","","","",""
"4016","","image-button-response","202","4222307","0.0-200.0-0.0","A336V7IY38Q2WN","img_art/17.jpg","0","","","","","","","","","","","","","","","","","","","","","","","","",""
"null","","html-keyboard-response","203","4223815","0.0-201.0","A336V7IY38Q2WN","<p style=""font-size: 48px;"">+</p>","","","","","null","allTrialResponses","1500","1","22","img_art/17.jpg","32","I like the concept. A tree trapped in a corner. its poetic","Grant,Isaac,Vincent,Chase,Gabriel,Brendan","This makes me feel trapped.,5,200,20","The colors are soft.,32,280,20","Another favorite a relaxing day with nature a day to take it all In,34,360,20","It's okay, I just don't see much too it.,7,120,20","this ones alright,10,160,20","colorful tree really cool,27,340,20","Gabriel","this ones alright,10,160,20","Brendan","colorful tree really cool,27,340,20","Grant","This makes me feel trapped.,5,200,20","4"
"22267","","survey-text","204","4246093","0.0-202.0-0.0","A336V7IY38Q2WN","","","","{""Q0"":""pure chaos. there is no message here""}","","","","","","","","","","","","","","","","","","","","","","",""
"2074","","image-slider-response","205","4248170","0.0-203.0","A336V7IY38Q2WN","","","","","-37","","","","","","","","","","","","","","","","","","","","","",""
"2442","","image-button-response","206","4253175","0.0-204.0","A336V7IY38Q2WN","img_art/18.jpg","4","","","","","","","","","","","","","","","","","","","","","","","","",""
"1025","","image-button-response","207","4254202","0.0-205.0","A336V7IY38Q2WN","img_art/18.jpg","4","","","","","","","","","","","","","","","","","","","","","","","","",""
"937","","image-button-response","208","4255142","0.0-206.0-0.0","A336V7IY38Q2WN","img_art/18.jpg","3","","","","","","","","","","","","","","","","","","","","","","","","",""
"3008","","image-button-response","209","4258153","0.0-207.0-0.0","A336V7IY38Q2WN","img_art/18.jpg","2","","","","","","","","","","","","","","","","","","","","","","","","",""
"null","","html-keyboard-response","210","4259664","0.0-208.0","A336V7IY38Q2WN","<p style=""font-size: 48px;"">+</p>","","","","","null","allTrialResponses","1500","1","23","img_art/18.jpg","-37","pure chaos. there is no message here","Grant,Steven,Sean,Joshua,Gabriel,Brendan","This is a very energetic painting, and brings to mind scenes of battle.,50,200,20","Oh heck yes! I see two warriors riding down from valhalla, awesome painting,50,160,20","my response to the picture is a little bit of anxiety but I like the detail,16,40,20","Looks like ghost figures on a boat. It's okay.,7,240,20","its messy, it seems angry,-21,160,20","looks like a war,22,340,20","Gabriel","its messy, it seems angry,-21,160,20","Joshua","Looks like ghost figures on a boat. It's okay.,7,240,20","Sean","my response to the picture is a little bit of anxiety but I like the detail,16,40,20","4"
"10082","","survey-text","211","4269757","0.0-209.0-0.0","A336V7IY38Q2WN","","","","{""Q0"":""this is a hot mess""}","","","","","","","","","","","","","","","","","","","","","","",""
"2753","","image-slider-response","212","4272513","0.0-210.0","A336V7IY38Q2WN","","","","","-43","","","","","","","","","","","","","","","","","","","","","",""
"1710","","image-button-response","213","4277524","0.0-211.0","A336V7IY38Q2WN","img_art/27.jpg","1","","","","","","","","","","","","","","","","","","","","","","","","",""
"911","","image-button-response","214","4278437","0.0-212.0","A336V7IY38Q2WN","img_art/27.jpg","1","","","","","","","","","","","","","","","","","","","","","","","","",""
"1214","","image-button-response","215","4279653","0.0-213.0-0.0","A336V7IY38Q2WN","img_art/27.jpg","5","","","","","","","","","","","","","","","","","","","","","","","","",""
"1222","","image-button-response","216","4280877","0.0-214.0-0.0","A336V7IY38Q2WN","img_art/27.jpg","3","","","","","","","","","","","","","","","","","","","","","","","","",""
"null","","html-keyboard-response","217","4281884","0.0-215.0","A336V7IY38Q2WN","<p style=""font-size: 48px;"">+</p>","","","","","null","allTrialResponses","1000","1","24","img_art/27.jpg","-43","this is a hot mess","Christian,Jake,Sean,Joshua,Gabriel,Daniel","don't understand, the green induces confusion,1,140,20","This looks like a poor copy of Cy Twombly's style.,-3,360,20","also gives me anxiety,-21,40,20","Reminds me of something I'd see in a gold frame from the Eighties.,-9,240,20","too messy dont like the color choices either,-17,160,20","Nice back ground with childish scribble on top,-30,320,20","Jake","This looks like a poor copy of Cy Twombly's style.,-3,360,20","Daniel","Nice back ground with childish scribble on top,-30,320,20","Joshua","Reminds me of something I'd see in a gold frame from the Eighties.,-9,240,20","4"
"9435","","survey-text","218","4291329","0.0-216.0-0.0","A336V7IY38Q2WN","","","","{""Q0"":""A dream or a fantasy""}","","","","","","","","","","","","","","","","","","","","","","",""
"3420","","image-slider-response","219","4294753","0.0-217.0","A336V7IY38Q2WN","","","","","23","","","","","","","","","","","","","","","","","","","","","",""
"2508","","image-button-response","220","4299763","0.0-218.0","A336V7IY38Q2WN","img_art/24.jpg","4","","","","","","","","","","","","","","","","","","","","","","","","",""
"640","","image-button-response","221","4300404","0.0-219.0","A336V7IY38Q2WN","img_art/24.jpg","2","","","","","","","","","","","","","","","","","","","","","","","","",""
"897","","image-button-response","222","4301304","0.0-220.0-0.0","A336V7IY38Q2WN","img_art/24.jpg","4","","","","","","","","","","","","","","","","","","","","","","","","",""
"7246","","image-button-response","223","4308552","0.0-221.0-0.0","A336V7IY38Q2WN","img_art/24.jpg","5","","","","","","","","","","","","","","","","","","","","","","","","",""
"null","","html-keyboard-response","224","4309063","0.0-222.0","A336V7IY38Q2WN","<p style=""font-size: 48px;"">+</p>","","","","","null","allTrialResponses","500","1","25","img_art/24.jpg","23","A dream or a fantasy","Ethan,Jake,Jonathan,Joshua,Kenneth,Daniel","This is sort of interesting. I think it's a bit busy. Less is more.,3,120,20","This looks ugly and simple, as if done by a young person.,-2,360,20","The colors and brush strokes make it feel adventurous,20,140,20","It's okay but don't love it.,7,240,20","Cute; I like what the image itself & the colors.,25,300,20","Classic palette lacks real world 3d construction,19,320,20","Jonathan","The colors and brush strokes make it feel adventurous,20,140,20","Kenneth","Cute; I like what the image itself & the colors.,25,300,20","Daniel","Classic palette lacks real world 3d construction,19,320,20","4"
"4521","","survey-text","225","4313604","0.0-223.0-0.0","A336V7IY38Q2WN","","","","{""Q0"":""table""}","","","","","","","","","","","","","","","","","","","","","","",""
"31521","","survey-text","226","4345127","0.0-224.0-0.0","A336V7IY38Q2WN","","","","{""Q0"":""I don't disagree with this. It is an adventure that is not sure if it wants to be discovered""}","","","","","","","","","","","","","","","","","","","","","","",""
"2981","","image-slider-response","227","4348110","0.0-225.0","A336V7IY38Q2WN","","","","","18","","","","","","","","","","","","","","","","","","","","","",""
"null","","image-button-response","228","4353122","0.0-226.0","A336V7IY38Q2WN","img_art/21.jpg","null","","","","","","","","","","","","","","","","","","","","","","","","",""
"2323","","image-button-response","229","4355446","0.0-227.0","A336V7IY38Q2WN","img_art/21.jpg","5","","","","","","","","","","","","","","","","","","","","","","","","",""
"3318","","image-button-response","230","4358767","0.0-228.0-0.0","A336V7IY38Q2WN","img_art/21.jpg","2","","","","","","","","","","","","","","","","","","","","","","","","",""
"3572","","image-button-response","231","4362342","0.0-229.0-0.0","A336V7IY38Q2WN","img_art/21.jpg","1","","","","","","","","","","","","","","","","","","","","","","","","",""
"null","","html-keyboard-response","232","4363351","0.0-230.0","A336V7IY38Q2WN","<p style=""font-size: 48px;"">+</p>","","","","","null","allTrialResponses","1000","1","26","img_art/21.jpg","18","I don't disagree with this. It is an adventure that is not sure if it wants to be discovered","Bryan,Alexis,Jonathan,Justin,Kenneth,Daniel","Like the colors, the cloudy, airy effects. Nice.,46,400,20","It makes me feel mellow or ""chill"". It makes me have a positive and calm mood,42,140,20","Makes me think of a natural disaster but I love how it looks. Makes you think,30,140,20","Alright. I like the colors.,5,280,20","It actually reminded me of a place I've been to. So I had a positive reaction to it.,22,300,20","Nice asymmetry with maritime colors city meets the sea,34,320,20","Daniel","Nice asymmetry with maritime colors city meets the sea,34,320,20","Jonathan","Makes me think of a natural disaster but I love how it looks. Makes you think,30,140,20","Alexis","It makes me feel mellow or ""chill"". It makes me have a positive and calm mood,42,140,20","4"
"33183","","survey-text","233","4396545","0.0-231.0-0.0","A336V7IY38Q2WN","","","","{""Q0"":""This painting is sick. This what cancer or drug addiction would paint if they were persons""}","","","","","","","","","","","","","","","","","","","","","","",""
"3443","","image-slider-response","234","4399992","0.0-232.0","A336V7IY38Q2WN","","","","","-17","","","","","","","","","","","","","","","","","","","","","",""
"null","","image-button-response","235","4405000","0.0-233.0","A336V7IY38Q2WN","img_art/28.jpg","null","","","","","","","","","","","","","","","","","","","","","","","","",""
"690","","image-button-response","236","4405693","0.0-234.0","A336V7IY38Q2WN","img_art/28.jpg","1","","","","","","","","","","","","","","","","","","","","","","","","",""
"1029","","image-button-response","237","4406725","0.0-235.0-0.0","A336V7IY38Q2WN","img_art/28.jpg","5","","","","","","","","","","","","","","","","","","","","","","","","",""
"1329","","image-button-response","238","4408056","0.0-236.0-0.0","A336V7IY38Q2WN","img_art/28.jpg","2","","","","","","","","","","","","","","","","","","","","","","","","",""
"null","","html-keyboard-response","239","4409560","0.0-237.0","A336V7IY38Q2WN","<p style=""font-size: 48px;"">+</p>","","","","","null","allTrialResponses","1500","1","27","img_art/28.jpg","-17","This painting is sick. This what cancer or drug addiction would paint if they were persons","Jared,Alexis,Jonathan,Devon,Brian,Daniel","i like the colors and the shapes look like people,20,400,20","The brown and green colors used look dull and unappealing,-30,140,20","The lack of color variance leaves it looking ugly even if I like the brush strokes,-10,140,20","i'm not too impressed with this one.,-10,400,20","the people kind of scare me in this one,-15,380,20","Compact grey mess lack negative space,-10,320,20","Alexis","The brown and green colors used look dull and unappealing,-30,140,20","Daniel","Compact grey mess lack negative space,-10,320,20","Jonathan","The lack of color variance leaves it looking ugly even if I like the brush strokes,-10,140,20","4"
"9824","","survey-text","240","4419396","0.0-238.0-0.0","A336V7IY38Q2WN","","","","{""Q0"":""This is an effortless mess""}","","","","","","","","","","","","","","","","","","","","","","",""
"4332","","image-slider-response","241","4423731","0.0-239.0","A336V7IY38Q2WN","","","","","-33","","","","","","","","","","","","","","","","","","","","","",""
"3741","","image-button-response","242","4428741","0.0-240.0","A336V7IY38Q2WN","img_art/30.jpg","5","","","","","","","","","","","","","","","","","","","","","","","","",""
"585","","image-button-response","243","4429328","0.0-241.0","A336V7IY38Q2WN","img_art/30.jpg","5","","","","","","","","","","","","","","","","","","","","","","","","",""
"970","","image-button-response","244","4430300","0.0-242.0-0.0","A336V7IY38Q2WN","img_art/30.jpg","2","","","","","","","","","","","","","","","","","","","","","","","","",""
"4180","","image-button-response","245","4434484","0.0-243.0-0.0","A336V7IY38Q2WN","img_art/30.jpg","1","","","","","","","","","","","","","","","","","","","","","","","","",""
"null","","html-keyboard-response","246","4435489","0.0-244.0","A336V7IY38Q2WN","<p style=""font-size: 48px;"">+</p>","","","","","null","allTrialResponses","1000","1","28","img_art/30.jpg","-33","This is an effortless mess","Samuel,Alexis,Jonathan,Thomas,Gregory,Daniel","perceiving greatness,20,400,20","I like the strong lines or brush strokes. It looks modern and bold,21,140,20","I like the softness of this but it doesn't make me feel that nice,5,140,20","I like the colors,18,220,20","Cool design and contrast of colors,30,220,20","10 year old 10 minute project ""Fun with Painting"",-42,320,20","Daniel","10 year old 10 minute project ""Fun with Painting"",-42,320,20","Jonathan","I like the softness of this but it doesn't make me feel that nice,5,140,20","Alexis","I like the strong lines or brush strokes. It looks modern and bold,21,140,20","4"
"17710","","survey-text","247","4453211","0.0-245.0-0.0","A336V7IY38Q2WN","","","","{""Q0"":""A transition from one medium to another. I like it""}","","","","","","","","","","","","","","","","","","","","","","",""
"2157","","image-slider-response","248","4455371","0.0-246.0","A336V7IY38Q2WN","","","","","19","","","","","","","","","","","","","","","","","","","","","",""
"4326","","image-button-response","249","4460379","0.0-247.0","A336V7IY38Q2WN","img_art/5.jpg","3","","","","","","","","","","","","","","","","","","","","","","","","",""
"685","","image-button-response","250","4461067","0.0-248.0","A336V7IY38Q2WN","img_art/5.jpg","3","","","","","","","","","","","","","","","","","","","","","","","","",""
"1477","","image-button-response","251","4462547","0.0-249.0-0.0","A336V7IY38Q2WN","img_art/5.jpg","0","","","","","","","","","","","","","","","","","","","","","","","","",""
"1579","","image-button-response","252","4464130","0.0-250.0-0.0","A336V7IY38Q2WN","img_art/5.jpg","1","","","","","","","","","","","","","","","","","","","","","","","","",""
"null","","html-keyboard-response","253","4465139","0.0-251.0","A336V7IY38Q2WN","<p style=""font-size: 48px;"">+</p>","","","","","null","allTrialResponses","1000","1","29","img_art/5.jpg","19","A transition from one medium to another. I like it","Jack,Alexis,Jonathan,Ryan,Garrett,Daniel","it's okay. the colors are eye catching, but that's about it.,3,320,20","I am confused as to what this is supposed to be,6,140,20","I hate the shapes,-30,140,20","Very good color coordination,41,380,20","I don't know what it's supposed to be and it looks ugly the way the colors are on the yellow cube.,-50,180,20","Cop out, easy money for artist for a 4 min piece,-29,320,20","Ryan","Very good color coordination,41,380,20","Jack","it's okay. the colors are eye catching, but that's about it.,3,320,20","Alexis","I am confused as to what this is supposed to be,6,140,20","4"
"17639","","survey-text","254","4482789","0.0-252.0-0.0","A336V7IY38Q2WN","","","","{""Q0"":""This is not a painting. There is nothing here but paint""}","","","","","","","","","","","","","","","","","","","","","","",""
"1858","","image-slider-response","255","4484650","0.0-253.0","A336V7IY38Q2WN","","","","","-32","","","","","","","","","","","","","","","","","","","","","",""
"3178","","image-button-response","256","4489659","0.0-254.0","A336V7IY38Q2WN","img_art/1.jpg","4","","","","","","","","","","","","","","","","","","","","","","","","",""
"573","","image-button-response","257","4490234","0.0-255.0","A336V7IY38Q2WN","img_art/1.jpg","4","","","","","","","","","","","","","","","","","","","","","","","","",""
"1193","","image-button-response","258","4491430","0.0-256.0-0.0","A336V7IY38Q2WN","img_art/1.jpg","5","","","","","","","","","","","","","","","","","","","","","","","","",""
"8124","","image-button-response","259","4499557","0.0-257.0-0.0","A336V7IY38Q2WN","img_art/1.jpg","3","","","","","","","","","","","","","","","","","","","","","","","","",""
"null","","html-keyboard-response","260","4500560","0.0-258.0","A336V7IY38Q2WN","<p style=""font-size: 48px;"">+</p>","","","","","null","allTrialResponses","1000","1","30","img_art/1.jpg","-32","This is not a painting. There is nothing here but paint","Jack,Alexis,Dalton,Ryan,Jeremy,Hunter","beautiful colors and brush strokes,47,320,20","This photo reminds me of a fall afternoon, serene,11,140,20","the colors are vibrant and beautiful,1,300,20","Seems like one i previously saw in this survey,27,380,20","fearful. Makes me think of fire,-10,60,20","muddy and uninteresting,-16,240,20","Jeremy","fearful. Makes me think of fire,-10,60,20","Hunter","muddy and uninteresting,-16,240,20","Ryan","Seems like one i previously saw in this survey,27,380,20","4"
"8797","","image-button-response_instructions","261","4509365","0.0-259.0","A336V7IY38Q2WN","","0","instructions","","","","","","","","","","","","","","","","","","","","","","","",""
