"rt","url","trial_type","trial_index","time_elapsed","internal_node_id","participant_id","stimulus","button_pressed","Name","responses","response","key_press","variableName","fixationTime","condition","trial","photo","subjectRating","subjectResponse","agentsNames","agent_1_Response","agent_2_Response","agent_3_Response","agent_4_Response","agent_5_Response","agent_6_Response","kept_1_name","kept_1_response","kept_2_name","kept_2_response","kept_3_name","kept_3_response","errorCounter"
"28194","external_page_harvard.html","external-html","0","28347","0.0-0.0","A337Y4X67PY4QI","","","","","","","","","","","","","","","","","","","","","","","","","","",""
"2283","","image-button-response","1","30638","0.0-1.0","A337Y4X67PY4QI","","1","","","","","","","","","","","","","","","","","","","","","","","","",""
"3191","","image-button-response","2","33852","0.0-2.0-0.0","A337Y4X67PY4QI","","1","phone","","","","","","","","","","","","","","","","","","","","","","","",""
"4154","","survey-text","3","38016","0.0-3.0-0.0","A337Y4X67PY4QI","","","","{""Q0"":""A337Y4X67PY4QI""}","","","","","","","","","","","","","","","","","","","","","","",""
"4476","","image-button-response_instructions","4","42499","0.0-4.0","A337Y4X67PY4QI","","0","instructions","","","","","","","","","","","","","","","","","","","","","","","",""
"9916","","image-button-response_instructions","5","52419","0.0-5.0","A337Y4X67PY4QI","img_art/ins/popularity/ins1.png","0","instructions","","","","","","","","","","","","","","","","","","","","","","","",""
"4502","","image-button-response_instructions","6","56925","0.0-6.0","A337Y4X67PY4QI","img_art/ins/popularity/ins2.png","0","instructions","","","","","","","","","","","","","","","","","","","","","","","",""
"4737","","image-button-response_instructions","7","61669","0.0-7.0","A337Y4X67PY4QI","img_art/ins/popularity/ins2Extreme.png","0","instructions","","","","","","","","","","","","","","","","","","","","","","","",""
"5248","","image-button-response_instructions","8","66921","0.0-8.0","A337Y4X67PY4QI","img_art/ins/popularity/ins3KEEPpop.PNG","0","instructions","","","","","","","","","","","","","","","","","","","","","","","",""
"4195","","image-button-response_instructions","9","71121","0.0-9.0","A337Y4X67PY4QI","img_art/ins/popularity/ins3ANamepop.PNG","0","instructions","","","","","","","","","","","","","","","","","","","","","","","",""
"2137","","image-button-response_instructions","10","73263","0.0-10.0","A337Y4X67PY4QI","img_art/ins/popularity/ins3ARatingpop.png","0","instructions","","","","","","","","","","","","","","","","","","","","","","","",""
"2145","","image-button-response_instructions","11","75413","0.0-11.0","A337Y4X67PY4QI","img_art/ins/popularity/ins3ATextpop.png","0","instructions","","","","","","","","","","","","","","","","","","","","","","","",""
"2682","","image-button-response_instructions","12","78099","0.0-12.0","A337Y4X67PY4QI","img_art/ins/popularity/ins3ALikespop.png","0","instructions","","","","","","","","","","","","","","","","","","","","","","","",""
"9953","","image-button-response_instructions","13","88057","0.0-13.0","A337Y4X67PY4QI","img_art/ins/popularity/ins3KEEPpop.PNG","0","instructions","","","","","","","","","","","","","","","","","","","","","","","",""
"12857","","image-button-response_instructions","14","100920","0.0-14.0","A337Y4X67PY4QI","img_art/ins/popularity/ins3_5RED.png","0","instructions","","","","","","","","","","","","","","","","","","","","","","","",""
"5144","","image-button-response_instructions","15","106068","0.0-15.0","A337Y4X67PY4QI","img_art/ins/popularity/ins3KEEPpop.PNG","0","instructions","","","","","","","","","","","","","","","","","","","","","","","",""
"5830","","image-button-response_instructions","16","111904","0.0-16.0","A337Y4X67PY4QI","img_art/ins/popularity/ins4KEEPpop.PNG","0","instructions","","","","","","","","","","","","","","","","","","","","","","","",""
"4380","","image-button-response_instructions","17","116288","0.0-17.0","A337Y4X67PY4QI","img_art/ins/popularity/ins5KEEPpop.PNG","0","instructions","","","","","","","","","","","","","","","","","","","","","","","",""
"2591","","image-button-response_instructions","18","118884","0.0-18.0","A337Y4X67PY4QI","","0","instructions","","","","","","","","","","","","","","","","","","","","","","","",""
"9109","","survey-text","19","128084","0.0-19.0-0.0","A337Y4X67PY4QI","","","","{""Q0"":""but""}","","","","","","","","","","","","","","","","","","","","","","",""
"23785","","survey-text","20","151878","0.0-20.0-0.0","A337Y4X67PY4QI","","","","{""Q0"":""faded child like scribbles""}","","","","","","","","","","","","","","","","","","","","","","",""
"4600.9000000059605","","image-slider-response","21","156490","0.0-21.0","A337Y4X67PY4QI","","","","","-19","","","","","","","","","","","","","","","","","","","","","",""
"null","","image-button-response","22","161505","0.0-22.0","A337Y4X67PY4QI","img_art/ins/1.jpg","null","","","","","","","","","","","","","","","","","","","","","","","","",""
"2018","","image-button-response","23","163531","0.0-23.0","A337Y4X67PY4QI","img_art/ins/1.jpg","3","","","","","","","","","","","","","","","","","","","","","","","","",""
"12073","","image-button-response","24","175617","0.0-24.0-0.0","A337Y4X67PY4QI","img_art/ins/1.jpg","5","","","","","","","","","","","","","","","","","","","","","","","","",""
"5244","","image-button-response","25","180876","0.0-25.0-0.0","A337Y4X67PY4QI","img_art/ins/1.jpg","1","","","","","","","","","","","","","","","","","","","","","","","","",""
"null","","html-keyboard-response","26","181385","0.0-26.0","A337Y4X67PY4QI","<p style=""font-size: 48px;"">+</p>","","","","","null","allTrialResponses","500","1","-2","img_art/ins/1.jpg","-19","faded child like scribbles","Allison,Ashley,Beth,Dora,Erika,Jen","looks like a lot of things going on in the mist,20,20,20","I just don't get why these type of art would be popular,-32,40,20","This color reminds me of poo,-46,60,20","looks like what my niece in 3rd grade did this afternoon,-50,80,20","I like the sophisticated brushwork,40,100,20","It reminds me of a candy land dream I had,36,120,20","Dora","looks like what my niece in 3rd grade did this afternoon,-50,80,20","Jen","It reminds me of a candy land dream I had,36,120,20","Ashley","I just don't get why these type of art would be popular,-32,40,20","0"
"14660","","survey-text","27","196063","0.0-27.0-0.0","A337Y4X67PY4QI","","","","{""Q0"":""texture with drama""}","","","","","","","","","","","","","","","","","","","","","","",""
"4037.7999999821186","","image-slider-response","28","200110","0.0-28.0","A337Y4X67PY4QI","","","","","10","","","","","","","","","","","","","","","","","","","","","",""
"3880","","image-button-response","29","205124","0.0-29.0","A337Y4X67PY4QI","img_art/ins/2.jpg","5","","","","","","","","","","","","","","","","","","","","","","","","",""
"494","","image-button-response","30","205629","0.0-30.0","A337Y4X67PY4QI","img_art/ins/2.jpg","4","","","","","","","","","","","","","","","","","","","","","","","","",""
"5838","","image-button-response","31","211482","0.0-31.0-0.0","A337Y4X67PY4QI","img_art/ins/2.jpg","5","","","","","","","","","","","","","","","","","","","","","","","","",""
"4035","","image-button-response","32","215529","0.0-32.0-0.0","A337Y4X67PY4QI","img_art/ins/2.jpg","5","","","","","","","","","","","","","","","","","","","","","","","","",""
"905","","image-button-response","33","220480","0.0-32.1-0.1","A337Y4X67PY4QI","img_art/ins/2.jpg","3","","","","","","","","","","","","","","","","","","","","","","","","",""
"null","","html-keyboard-response","34","221484","0.0-33.0","A337Y4X67PY4QI","<p style=""font-size: 48px;"">+</p>","","","","","null","allTrialResponses","1000","1","-1","img_art/ins/2.jpg","10","texture with drama","Jenna,Ashley,Katie,Dora,Kara,Jen","One of my pet peevs,-48,140,20","Idk, it is just annoying,-32,40,20","too much color!,-28,180,20","looks too angry,-50,80,20","I like the blocks of color arrangements,30,160,20","It reminds me of a fireplace,36,120,20","Kara","I like the blocks of color arrangements,30,160,20","Jen","It reminds me of a fireplace,36,120,20","Dora","looks too angry,-50,80,20","2"
"12605","","survey-text","35","234116","0.0-34.0-0.0","A337Y4X67PY4QI","","","","{""Q0"":""too blue""}","","","","","","","","","","","","","","","","","","","","","","",""
"3358.699999988079","","image-slider-response","36","237483","0.0-35.0","A337Y4X67PY4QI","","","","","5","","","","","","","","","","","","","","","","","","","","","",""
"2915","","image-button-response","37","242491","0.0-36.0","A337Y4X67PY4QI","img_art/ins/3.jpg","4","","","","","","","","","","","","","","","","","","","","","","","","",""
"936","","image-button-response","38","243435","0.0-37.0","A337Y4X67PY4QI","img_art/ins/3.jpg","4","","","","","","","","","","","","","","","","","","","","","","","","",""
"1148","","image-button-response","39","244590","0.0-38.0-0.0","A337Y4X67PY4QI","img_art/ins/3.jpg","4","","","","","","","","","","","","","","","","","","","","","","","","",""
"1274","","image-button-response","40","249566","0.0-38.1-0.1","A337Y4X67PY4QI","img_art/ins/3.jpg","5","","","","","","","","","","","","","","","","","","","","","","","","",""
"3274","","image-button-response","41","252852","0.0-39.0-0.0","A337Y4X67PY4QI","img_art/ins/3.jpg","2","","","","","","","","","","","","","","","","","","","","","","","","",""
"null","","html-keyboard-response","42","253856","0.0-40.0","A337Y4X67PY4QI","<p style=""font-size: 48px;"">+</p>","","","","","null","allTrialResponses","1000","1","0","img_art/ins/3.jpg","5","too blue","Leslie,Rose,Mary,Dora,Kara,Jen","It's an alright work,15,200,20","My daily routine, it's depressing,-20,240,20","I like the overlapping of brushes,41,220,20","My worst nightmare,-42,80,20","calming blue is very nice,36,160,20","I can feel a rainy day from this painting,18,120,20","Kara","calming blue is very nice,36,160,20","Jen","I can feel a rainy day from this painting,18,120,20","Mary","I like the overlapping of brushes,41,220,20","4"
"3599","","image-button-response_instructions","43","257471","0.0-41.0","A337Y4X67PY4QI","","0","instructions","","","","","","","","","","","","","","","","","","","","","","","",""
"63657","","survey-likert","44","321139","0.0-42.0-0.0","A337Y4X67PY4QI","","","","{""Q0"":"""",""Q1"":0,""Q2"":1}","","","","","","","","","","","","","","","","","","","","","","",""
"4769","","survey-text","45","325933","0.0-43.0-0.0","A337Y4X67PY4QI","","","","{""Q0"":""rock""}","","","","","","","","","","","","","","","","","","","","","","",""
"628801","","survey-text","46","954743","0.0-44.0-0.0","A337Y4X67PY4QI","","","","{""Q0"":""geology project""}","","","","","","","","","","","","","","","","","","","","","","",""
"3298.2999999821186","","image-slider-response","47","958052","0.0-45.0","A337Y4X67PY4QI","","","","","-18","","","","","","","","","","","","","","","","","","","","","",""
"null","","image-button-response","48","963134","0.0-46.0","A337Y4X67PY4QI","img_art/7.jpg","null","","","","","","","","","","","","","","","","","","","","","","","","",""
"3440","","image-button-response","49","966586","0.0-47.0","A337Y4X67PY4QI","img_art/7.jpg","3","","","","","","","","","","","","","","","","","","","","","","","","",""
"656","","image-button-response","50","967261","0.0-48.0-0.0","A337Y4X67PY4QI","img_art/7.jpg","4","","","","","","","","","","","","","","","","","","","","","","","","",""
"2895","","image-button-response","51","970171","0.0-49.0-0.0","A337Y4X67PY4QI","img_art/7.jpg","5","","","","","","","","","","","","","","","","","","","","","","","","",""
"null","","html-keyboard-response","52","971184","0.0-50.0","A337Y4X67PY4QI","<p style=""font-size: 48px;"">+</p>","","","","","null","allTrialResponses","1000","1","1","img_art/7.jpg","-18","geology project","Allison,Erika,Emma,Cynthia,Kelly,Madison","I like the earth tones here,5,140,20","Detail oriented, like cracked paint wall,15,100,20","Cool, makes me think of archeology,15,60,20","time and change,1,320,20","My firs thought was ""gross""...not sure what this is and I dont think i want to know.,-19,220,20","Is this a painting, really? Very compelling if so, the texture work is incredible.,15,60,20","Cynthia","time and change,1,320,20","Kelly","My firs thought was ""gross""...not sure what this is and I dont think i want to know.,-19,220,20","Madison","Is this a painting, really? Very compelling if so, the texture work is incredible.,15,60,20","4"
"19248","","survey-text","53","990489","0.0-51.0-0.0","A337Y4X67PY4QI","","","","{""Q0"":""not a good use of space around the edges""}","","","","","","","","","","","","","","","","","","","","","","",""
"2470.0999999940395","","image-slider-response","54","992969","0.0-52.0","A337Y4X67PY4QI","","","","","1","","","","","","","","","","","","","","","","","","","","","",""
"2900","","image-button-response","55","997978","0.0-53.0","A337Y4X67PY4QI","img_art/15.jpg","0","","","","","","","","","","","","","","","","","","","","","","","","",""
"3647","","image-button-response","56","1001634","0.0-54.0","A337Y4X67PY4QI","img_art/15.jpg","0","","","","","","","","","","","","","","","","","","","","","","","","",""
"688","","image-button-response","57","1002332","0.0-55.0-0.0","A337Y4X67PY4QI","img_art/15.jpg","1","","","","","","","","","","","","","","","","","","","","","","","","",""
"748","","image-button-response","58","1003090","0.0-56.0-0.0","A337Y4X67PY4QI","img_art/15.jpg","2","","","","","","","","","","","","","","","","","","","","","","","","",""
"null","","html-keyboard-response","59","1004094","0.0-57.0","A337Y4X67PY4QI","<p style=""font-size: 48px;"">+</p>","","","","","null","allTrialResponses","1000","1","2","img_art/15.jpg","1","not a good use of space around the edges","Michaela,Sophia,Katherine,Cynthia,Kelly,Madison","Reminds me of lilacs,26,260,20","I feel like there's ski jumping going on here.,2,280,20","black dots too ant-like,-25,120,20","interested in this transformation,20,320,20","I can't really make out what this is supposed to be.,-8,220,20","I am starting to feel description fatigue. This would be pleasant enough in a doctor's office waiting room.,15,60,20","Michaela","Reminds me of lilacs,26,260,20","Sophia","I feel like there's ski jumping going on here.,2,280,20","Katherine","black dots too ant-like,-25,120,20","4"
"9022","","survey-text","60","1013128","0.0-58.0-0.0","A337Y4X67PY4QI","","","","{""Q0"":""smear of paint""}","","","","","","","","","","","","","","","","","","","","","","",""
"2841.2000000178814","","image-slider-response","61","1015979","0.0-59.0","A337Y4X67PY4QI","","","","","-18","","","","","","","","","","","","","","","","","","","","","",""
"null","","image-button-response","62","1020989","0.0-60.0","A337Y4X67PY4QI","img_art/1.jpg","null","","","","","","","","","","","","","","","","","","","","","","","","",""
"587","","image-button-response","63","1021586","0.0-61.0","A337Y4X67PY4QI","img_art/1.jpg","3","","","","","","","","","","","","","","","","","","","","","","","","",""
"2674","","image-button-response","64","1024270","0.0-62.0-0.0","A337Y4X67PY4QI","img_art/1.jpg","0","","","","","","","","","","","","","","","","","","","","","","","","",""
"977","","image-button-response","65","1025257","0.0-63.0-0.0","A337Y4X67PY4QI","img_art/1.jpg","4","","","","","","","","","","","","","","","","","","","","","","","","",""
"null","","html-keyboard-response","66","1025763","0.0-64.0","A337Y4X67PY4QI","<p style=""font-size: 48px;"">+</p>","","","","","null","allTrialResponses","500","1","3","img_art/1.jpg","-18","smear of paint","Michaela,Sophia,Katherine,Madeline,Shannon,Jenna","That one piece in the middle gives it depth and it's really neat,21,260,20","This is a great piece that has a lot more going on the longer you look at it. I like it!,30,280,20","Blurry but that's how emotions are a lot of the time.,27,120,20","Quite messy looking,-22,40,20","I think that this picture has nice colors and its pleasing to the eyes.,20,220,20","beautiful colors and brush strokes,47,360,20","Madeline","Quite messy looking,-22,40,20","Michaela","That one piece in the middle gives it depth and it's really neat,21,260,20","Shannon","I think that this picture has nice colors and its pleasing to the eyes.,20,220,20","4"
"6535","","survey-text","67","1032319","0.0-65.0-0.0","A337Y4X67PY4QI","","","","{""Q0"":""a grey mess""}","","","","","","","","","","","","","","","","","","","","","","",""
"2540.800000011921","","image-slider-response","68","1034872","0.0-66.0","A337Y4X67PY4QI","","","","","-20","","","","","","","","","","","","","","","","","","","","","",""
"3721","","image-button-response","69","1039886","0.0-67.0","A337Y4X67PY4QI","img_art/27.jpg","5","","","","","","","","","","","","","","","","","","","","","","","","",""
"1619","","image-button-response","70","1041514","0.0-68.0","A337Y4X67PY4QI","img_art/27.jpg","4","","","","","","","","","","","","","","","","","","","","","","","","",""
"1335","","image-button-response","71","1042858","0.0-69.0-0.0","A337Y4X67PY4QI","img_art/27.jpg","5","","","","","","","","","","","","","","","","","","","","","","","","",""
"3324","","image-button-response","72","1046201","0.0-70.0-0.0","A337Y4X67PY4QI","img_art/27.jpg","3","","","","","","","","","","","","","","","","","","","","","","","","",""
"null","","html-keyboard-response","73","1046706","0.0-71.0","A337Y4X67PY4QI","<p style=""font-size: 48px;"">+</p>","","","","","null","allTrialResponses","500","1","4","img_art/27.jpg","-20","a grey mess","Michaela,Leslie,Anna,Madeline,Shannon,Crystal","It looks like a kid colored a picture and an adult added to it,19,260,20","This feels like I'm looking at a child's scribbles.,-27,380,20","It looks like when my little sister took magic markers to the wall.,-11,300,20","Looks like the green bits were added on later,-1,40,20","This image could do a better job of showing what is going on and it could use more colors.,-42,220,20","Muddied and directionless. Like someone dragged a brush across the paper for the sake of doing something.,-50,300,20","Shannon","This image could do a better job of showing what is going on and it could use more colors.,-42,220,20","Crystal","Muddied and directionless. Like someone dragged a brush across the paper for the sake of doing something.,-50,300,20","Madeline","Looks like the green bits were added on later,-1,40,20","4"
"11300","","survey-text","74","1058050","0.0-72.0-0.0","A337Y4X67PY4QI","","","","{""Q0"":""very surreal""}","","","","","","","","","","","","","","","","","","","","","","",""
"2056.800000011921","","image-slider-response","75","1060116","0.0-73.0","A337Y4X67PY4QI","","","","","1","","","","","","","","","","","","","","","","","","","","","",""
"4524","","image-button-response","76","1065122","0.0-74.0","A337Y4X67PY4QI","img_art/18.jpg","1","","","","","","","","","","","","","","","","","","","","","","","","",""
"2122","","image-button-response","77","1067250","0.0-75.0","A337Y4X67PY4QI","img_art/18.jpg","4","","","","","","","","","","","","","","","","","","","","","","","","",""
"928","","image-button-response","78","1068185","0.0-76.0-0.0","A337Y4X67PY4QI","img_art/18.jpg","1","","","","","","","","","","","","","","","","","","","","","","","","",""
"1715","","image-button-response","79","1069909","0.0-77.0-0.0","A337Y4X67PY4QI","img_art/18.jpg","2","","","","","","","","","","","","","","","","","","","","","","","","",""
"null","","html-keyboard-response","80","1070414","0.0-78.0","A337Y4X67PY4QI","<p style=""font-size: 48px;"">+</p>","","","","","null","allTrialResponses","500","1","5","img_art/18.jpg","1","very surreal","Shelby,Makayla,Rachel,Madeline,Shannon,Crystal","This gives a very ominous feeling,-30,240,20","I'm not partial to the design, unsettling,2,80,20","This one seems rather ghoulish to me.,-41,80,20","Good concept but then scribbled on a bit?,15,40,20","I think its supposed to be a boat and the boat looks kind of interesting to me.,10,220,20","I love this because abstractly depicts the apocalypse. The white horse and its rider as Death, described in religious texts and pop culture. ""He rode a pale horse and his name was death."",50,300,20","Shannon","I think its supposed to be a boat and the boat looks kind of interesting to me.,10,220,20","Makayla","I'm not partial to the design, unsettling,2,80,20","Rachel","This one seems rather ghoulish to me.,-41,80,20","4"
"3776","","survey-text","81","1074218","0.0-79.0-0.0","A337Y4X67PY4QI","","","","{""Q0"":""sky""}","","","","","","","","","","","","","","","","","","","","","","",""
"14308","","survey-text","82","1088532","0.0-80.0-0.0","A337Y4X67PY4QI","","","","{""Q0"":""another grey mess""}","","","","","","","","","","","","","","","","","","","","","","",""
"2450.5","","image-slider-response","83","1090990","0.0-81.0","A337Y4X67PY4QI","","","","","-5","","","","","","","","","","","","","","","","","","","","","",""
"3361","","image-button-response","84","1096000","0.0-82.0","A337Y4X67PY4QI","img_art/29.jpg","3","","","","","","","","","","","","","","","","","","","","","","","","",""
"994","","image-button-response","85","1097004","0.0-83.0","A337Y4X67PY4QI","img_art/29.jpg","4","","","","","","","","","","","","","","","","","","","","","","","","",""
"1090","","image-button-response","86","1098104","0.0-84.0-0.0","A337Y4X67PY4QI","img_art/29.jpg","3","","","","","","","","","","","","","","","","","","","","","","","","",""
"1973","","image-button-response","87","1100086","0.0-85.0-0.0","A337Y4X67PY4QI","img_art/29.jpg","1","","","","","","","","","","","","","","","","","","","","","","","","",""
"null","","html-keyboard-response","88","1100592","0.0-86.0","A337Y4X67PY4QI","<p style=""font-size: 48px;"">+</p>","","","","","null","allTrialResponses","500","1","6","img_art/29.jpg","-5","another grey mess","Katie,Makayla,Rachel,Brittany,Shannon,Gabrielle","Don't get it! Too dark and random. Perhaps it was the start of something but the artist stopped and cancelled out the work.,-50,160,20","Looks like a jail cell,-15,80,20","It looks like someone did not like their art and drew an x over it.,-32,80,20","It looks likes there's a lot going on, but they don't fit together.,2,40,20","I think this image looks ugly and needs more colors so it looks nicer.,-30,220,20","it's OK, no clue to what's going on but good use of light and dark,4,160,20","Shannon","I think this image looks ugly and needs more colors so it looks nicer.,-30,220,20","Brittany","It looks likes there's a lot going on, but they don't fit together.,2,40,20","Makayla","Looks like a jail cell,-15,80,20","4"
"64312","","survey-text","89","1164924","0.0-87.0-0.0","A337Y4X67PY4QI","","","","{""Q0"":""puts in dramatic mood""}","","","","","","","","","","","","","","","","","","","","","","",""
"2983.2999999821186","","image-slider-response","90","1167914","0.0-88.0","A337Y4X67PY4QI","","","","","12","","","","","","","","","","","","","","","","","","","","","",""
"3621","","image-button-response","91","1172922","0.0-89.0","A337Y4X67PY4QI","img_art/20.jpg","3","","","","","","","","","","","","","","","","","","","","","","","","",""
"25","","image-button-response","92","1172955","0.0-90.0","A337Y4X67PY4QI","img_art/20.jpg","0","","","","","","","","","","","","","","","","","","","","","","","","",""
"1510","","image-button-response","93","1174472","0.0-91.0-0.0","A337Y4X67PY4QI","img_art/20.jpg","3","","","","","","","","","","","","","","","","","","","","","","","","",""
"1894","","image-button-response","94","1176379","0.0-92.0-0.0","A337Y4X67PY4QI","img_art/20.jpg","1","","","","","","","","","","","","","","","","","","","","","","","","",""
"null","","html-keyboard-response","95","1177886","0.0-93.0","A337Y4X67PY4QI","<p style=""font-size: 48px;"">+</p>","","","","","null","allTrialResponses","1500","1","7","img_art/20.jpg","12","puts in dramatic mood","Angela,Makayla,Alexandra,Brittany,Shannon,Autumn","I like the blues, and the sense of foreboding it makes me feel.,20,260,20","Little picturesque town that I would like to visit,19,80,20","The white blob looks like a face and it's creepy,-30,60,20","The colors and the scene depicted is interesting.,13,40,20","I really like this. There are lots of objects the artist wanted to show and the colors are good.,38,220,20","It's ok. Very abstract.,18,340,20","Angela","I like the blues, and the sense of foreboding it makes me feel.,20,260,20","Brittany","The colors and the scene depicted is interesting.,13,40,20","Makayla","Little picturesque town that I would like to visit,19,80,20","4"
"15933","","survey-text","96","1193847","0.0-94.0-0.0","A337Y4X67PY4QI","","","","{""Q0"":""nice contrast that's subtle""}","","","","","","","","","","","","","","","","","","","","","","",""
"3027.800000011921","","image-slider-response","97","1196884","0.0-95.0","A337Y4X67PY4QI","","","","","14","","","","","","","","","","","","","","","","","","","","","",""
"4894","","image-button-response","98","1201897","0.0-96.0","A337Y4X67PY4QI","img_art/21.jpg","3","","","","","","","","","","","","","","","","","","","","","","","","",""
"836","","image-button-response","99","1202741","0.0-97.0","A337Y4X67PY4QI","img_art/21.jpg","0","","","","","","","","","","","","","","","","","","","","","","","","",""
"1588","","image-button-response","100","1204337","0.0-98.0-0.0","A337Y4X67PY4QI","img_art/21.jpg","3","","","","","","","","","","","","","","","","","","","","","","","","",""
"1754","","image-button-response","101","1206101","0.0-99.0-0.0","A337Y4X67PY4QI","img_art/21.jpg","5","","","","","","","","","","","","","","","","","","","","","","","","",""
"null","","html-keyboard-response","102","1206607","0.0-100.0","A337Y4X67PY4QI","<p style=""font-size: 48px;"">+</p>","","","","","null","allTrialResponses","500","1","8","img_art/21.jpg","14","nice contrast that's subtle","Angela,Makayla,Kaitlyn,Brittany,Miranda,Olivia","I feel like I'm looking at two different paintings mashed together in the middle.,20,260,20","I like the two sides meeting, like a movie scene,15,80,20","The division in the picture is pleasing but the random white dots are distracting,12,80,20","Alright. I like the colors.,5,40,20","This looks very interesting because something is happening but I can't tell what.,28,320,20","feels like a wave coming into light,9,40,20","Angela","I feel like I'm looking at two different paintings mashed together in the middle.,20,260,20","Brittany","Alright. I like the colors.,5,40,20","Olivia","feels like a wave coming into light,9,40,20","4"
"14927","","survey-text","103","1221563","0.0-101.0-0.0","A337Y4X67PY4QI","","","","{""Q0"":""bunch of scribles""}","","","","","","","","","","","","","","","","","","","","","","",""
"2312.5","","image-slider-response","104","1223882","0.0-102.0","A337Y4X67PY4QI","","","","","-5","","","","","","","","","","","","","","","","","","","","","",""
"null","","image-button-response","105","1228890","0.0-103.0","A337Y4X67PY4QI","img_art/10.jpg","null","","","","","","","","","","","","","","","","","","","","","","","","",""
"954","","image-button-response","106","1229852","0.0-104.0","A337Y4X67PY4QI","img_art/10.jpg","2","","","","","","","","","","","","","","","","","","","","","","","","",""
"2186","","image-button-response","107","1232048","0.0-105.0-0.0","A337Y4X67PY4QI","img_art/10.jpg","3","","","","","","","","","","","","","","","","","","","","","","","","",""
"817","","image-button-response","108","1232881","0.0-106.0-0.0","A337Y4X67PY4QI","img_art/10.jpg","5","","","","","","","","","","","","","","","","","","","","","","","","",""
"null","","html-keyboard-response","109","1233886","0.0-107.0","A337Y4X67PY4QI","<p style=""font-size: 48px;"">+</p>","","","","","null","allTrialResponses","1000","1","9","img_art/10.jpg","-5","bunch of scribles","Angela,Caroline,Monica,Brittany,Jacqueline,Olivia","This makes me think of a city, specifically London.,20,260,20","This painting made me think of a guitar which made me think of music which envoked happy feelings.,28,100,20","It doesn't look pleasing to the eye, it kind of looks like an animal but a dirty one,-38,360,20","The design is dynamic and interesting.,14,40,20","Seems more harmonic with the strokes and colors.,31,300,20","feeling the turmoil and ride,12,40,20","Monica","It doesn't look pleasing to the eye, it kind of looks like an animal but a dirty one,-38,360,20","Brittany","The design is dynamic and interesting.,14,40,20","Olivia","feeling the turmoil and ride,12,40,20","4"
"16831","","survey-text","110","1250743","0.0-108.0-0.0","A337Y4X67PY4QI","","","","{""Q0"":""nice use of color blocks""}","","","","","","","","","","","","","","","","","","","","","","",""
"1908.699999988079","","image-slider-response","111","1252658","0.0-109.0","A337Y4X67PY4QI","","","","","14","","","","","","","","","","","","","","","","","","","","","",""
"3819","","image-button-response","112","1257666","0.0-110.0","A337Y4X67PY4QI","img_art/8.jpg","5","","","","","","","","","","","","","","","","","","","","","","","","",""
"311","","image-button-response","113","1257986","0.0-111.0","A337Y4X67PY4QI","img_art/8.jpg","1","","","","","","","","","","","","","","","","","","","","","","","","",""
"856","","image-button-response","114","1258851","0.0-112.0-0.0","A337Y4X67PY4QI","img_art/8.jpg","5","","","","","","","","","","","","","","","","","","","","","","","","",""
"1047","","image-button-response","115","1259908","0.0-113.0-0.0","A337Y4X67PY4QI","img_art/8.jpg","3","","","","","","","","","","","","","","","","","","","","","","","","",""
"null","","html-keyboard-response","116","1260916","0.0-114.0","A337Y4X67PY4QI","<p style=""font-size: 48px;"">+</p>","","","","","null","allTrialResponses","1000","1","10","img_art/8.jpg","14","nice use of color blocks","Haley,Kelsey,Monica,Brittany,Brooke,Olivia","Gorgeous! I love the colors and the details.,50,220,20","i like all the different faces,19,240,20","The faces in the upper left show agony and contrast with the geometric shapes too much,-31,360,20","Interesting to look at, there are many things happening in the painting.,32,40,20","what's going on here. looks like scary town.,-25,60,20","being watched over,17,40,20","Kelsey","i like all the different faces,19,240,20","Olivia","being watched over,17,40,20","Brittany","Interesting to look at, there are many things happening in the painting.,32,40,20","4"
"5228","","survey-text","117","1266200","0.0-115.0-0.0","A337Y4X67PY4QI","","","","{""Q0"":""our""}","","","","","","","","","","","","","","","","","","","","","","",""
"6982","","survey-text","118","1273190","0.0-116.0-0.0","A337Y4X67PY4QI","","","","{""Q0"":""bloody mess""}","","","","","","","","","","","","","","","","","","","","","","",""
"3180.300000011921","","image-slider-response","119","1276381","0.0-117.0","A337Y4X67PY4QI","","","","","-18","","","","","","","","","","","","","","","","","","","","","",""
"4417","","image-button-response","120","1281392","0.0-118.0","A337Y4X67PY4QI","img_art/3.jpg","0","","","","","","","","","","","","","","","","","","","","","","","","",""
"328","","image-button-response","121","1281731","0.0-119.0","A337Y4X67PY4QI","img_art/3.jpg","1","","","","","","","","","","","","","","","","","","","","","","","","",""
"878","","image-button-response","122","1282618","0.0-120.0-0.0","A337Y4X67PY4QI","img_art/3.jpg","0","","","","","","","","","","","","","","","","","","","","","","","","",""
"798","","image-button-response","123","1283426","0.0-121.0-0.0","A337Y4X67PY4QI","img_art/3.jpg","2","","","","","","","","","","","","","","","","","","","","","","","","",""
"null","","html-keyboard-response","124","1283931","0.0-122.0","A337Y4X67PY4QI","<p style=""font-size: 48px;"">+</p>","","","","","null","allTrialResponses","500","1","11","img_art/3.jpg","-18","bloody mess","Destiny,Kelsey,Isabella,Brittany,Jasmine,Olivia","im just getting more agitated and less appreciative of art. I have absolutely no scale to base on,-34,360,20","just scribbles, not pleasing,-30,240,20","Too much red or blood,-28,280,20","I don't care for art that looks like it was just scribbled.,-19,40,20","I don't really have a strong reaction to this one,0,340,20","confusing taking over,-15,40,20","Kelsey","just scribbles, not pleasing,-30,240,20","Destiny","im just getting more agitated and less appreciative of art. I have absolutely no scale to base on,-34,360,20","Isabella","Too much red or blood,-28,280,20","4"
"14364","","survey-text","125","1298320","0.0-123.0-0.0","A337Y4X67PY4QI","","","","{""Q0"":""something my child put together in a violent way""}","","","","","","","","","","","","","","","","","","","","","","",""
"6582.299999982119","","image-slider-response","126","1304913","0.0-124.0","A337Y4X67PY4QI","","","","","-28","","","","","","","","","","","","","","","","","","","","","",""
"4197","","image-button-response","127","1309922","0.0-125.0","A337Y4X67PY4QI","img_art/16.jpg","5","","","","","","","","","","","","","","","","","","","","","","","","",""
"374","","image-button-response","128","1310318","0.0-126.0","A337Y4X67PY4QI","img_art/16.jpg","0","","","","","","","","","","","","","","","","","","","","","","","","",""
"1071","","image-button-response","129","1311401","0.0-127.0-0.0","A337Y4X67PY4QI","img_art/16.jpg","5","","","","","","","","","","","","","","","","","","","","","","","","",""
"1232","","image-button-response","130","1312642","0.0-128.0-0.0","A337Y4X67PY4QI","img_art/16.jpg","2","","","","","","","","","","","","","","","","","","","","","","","","",""
"null","","html-keyboard-response","131","1314148","0.0-129.0","A337Y4X67PY4QI","<p style=""font-size: 48px;"">+</p>","","","","","null","allTrialResponses","1500","1","12","img_art/16.jpg","-28","something my child put together in a violent way","Destiny,Kelsey,Isabella,Taylor,Kaitlin,Emily","what is this doing for anyone. If you connect with this you're literally lying to yourself. pretentious,-50,360,20","its disturbing! what the heck,-27,240,20","This looks chaotic,-25,280,20","It just makes me feel uncomfortable,-25,340,20","The teddy bear looks really scared,-30,60,20","Looks like a kid did itt and ti looks disturbing.,-45,40,20","Destiny","what is this doing for anyone. If you connect with this you're literally lying to yourself. pretentious,-50,360,20","Emily","Looks like a kid did itt and ti looks disturbing.,-45,40,20","Isabella","This looks chaotic,-25,280,20","4"
"10256","","survey-text","132","1324431","0.0-130.0-0.0","A337Y4X67PY4QI","","","","{""Q0"":""nice geometric shapes""}","","","","","","","","","","","","","","","","","","","","","","",""
"7501.5999999940395","","image-slider-response","133","1331943","0.0-131.0","A337Y4X67PY4QI","","","","","1","","","","","","","","","","","","","","","","","","","","","",""
"null","","image-button-response","134","1336953","0.0-132.0","A337Y4X67PY4QI","img_art/12.jpg","null","","","","","","","","","","","","","","","","","","","","","","","","",""
"2472","","image-button-response","135","1339432","0.0-133.0","A337Y4X67PY4QI","img_art/12.jpg","2","","","","","","","","","","","","","","","","","","","","","","","","",""
"1016","","image-button-response","136","1340457","0.0-134.0-0.0","A337Y4X67PY4QI","img_art/12.jpg","1","","","","","","","","","","","","","","","","","","","","","","","","",""
"969","","image-button-response","137","1341437","0.0-135.0-0.0","A337Y4X67PY4QI","img_art/12.jpg","4","","","","","","","","","","","","","","","","","","","","","","","","",""
"null","","html-keyboard-response","138","1341943","0.0-136.0","A337Y4X67PY4QI","<p style=""font-size: 48px;"">+</p>","","","","","null","allTrialResponses","500","1","13","img_art/12.jpg","1","nice geometric shapes","Destiny,Kimberly,Isabella,Samantha,Michelle,Emily","giving me major endless summer vibes,26,360,20","Just not a fan, I can't figure out why,-17,260,20","Something you would see in a government building hallway,3,280,20","It is interesting but seems like some cheap painting from like walmart,24,140,20","eww hate everything about this, looks like it belongs in a dentist's office,-14,280,20","Not quite my style but there more of a pattern and it is interesting to look at.,15,40,20","Isabella","Something you would see in a government building hallway,3,280,20","Kimberly","Just not a fan, I can't figure out why,-17,260,20","Michelle","eww hate everything about this, looks like it belongs in a dentist's office,-14,280,20","4"
"18279","","survey-text","139","1360266","0.0-137.0-0.0","A337Y4X67PY4QI","","","","{""Q0"":""nice dimensions and contrast of paint textures""}","","","","","","","","","","","","","","","","","","","","","","",""
"4412.799999982119","","image-slider-response","140","1364687","0.0-138.0","A337Y4X67PY4QI","","","","","20","","","","","","","","","","","","","","","","","","","","","",""
"3952","","image-button-response","141","1369697","0.0-139.0","A337Y4X67PY4QI","img_art/13.jpg","3","","","","","","","","","","","","","","","","","","","","","","","","",""
"76","","image-button-response","142","1369780","0.0-140.0","A337Y4X67PY4QI","img_art/13.jpg","0","","","","","","","","","","","","","","","","","","","","","","","","",""
"1209","","image-button-response","143","1370999","0.0-141.0-0.0","A337Y4X67PY4QI","img_art/13.jpg","3","","","","","","","","","","","","","","","","","","","","","","","","",""
"930","","image-button-response","144","1371940","0.0-142.0-0.0","A337Y4X67PY4QI","img_art/13.jpg","5","","","","","","","","","","","","","","","","","","","","","","","","",""
"null","","html-keyboard-response","145","1372444","0.0-143.0","A337Y4X67PY4QI","<p style=""font-size: 48px;"">+</p>","","","","","null","allTrialResponses","500","1","14","img_art/13.jpg","20","nice dimensions and contrast of paint textures","Grace,Kimberly,Isabella,Jamie,Michelle,Ashley","Love the colors, love the abstractness, love this Jackson Pollock type painting.,48,180,20","It's like a pattern on a bus seat,10,260,20","Rain drops on a window,35,280,20","Cool colors and looks like rain on a window,45,320,20","I like the blue colors and the symmetry and paint splatters but I would not hang it in my house,8,280,20","AWESOME! Pollack but with more direction.,32,320,20","Grace","Love the colors, love the abstractness, love this Jackson Pollock type painting.,48,180,20","Jamie","Cool colors and looks like rain on a window,45,320,20","Ashley","AWESOME! Pollack but with more direction.,32,320,20","4"
"9900","","survey-text","146","1382372","0.0-144.0-0.0","A337Y4X67PY4QI","","","","{""Q0"":""can't figure this out""}","","","","","","","","","","","","","","","","","","","","","","",""
"3060.199999988079","","image-slider-response","147","1385445","0.0-145.0","A337Y4X67PY4QI","","","","","-23","","","","","","","","","","","","","","","","","","","","","",""
"4562","","image-button-response","148","1390452","0.0-146.0","A337Y4X67PY4QI","img_art/23.jpg","1","","","","","","","","","","","","","","","","","","","","","","","","",""
"717","","image-button-response","149","1391175","0.0-147.0","A337Y4X67PY4QI","img_art/23.jpg","1","","","","","","","","","","","","","","","","","","","","","","","","",""
"1963","","image-button-response","150","1393150","0.0-148.0-0.0","A337Y4X67PY4QI","img_art/23.jpg","4","","","","","","","","","","","","","","","","","","","","","","","","",""
"4880","","image-button-response","151","1398038","0.0-149.0-0.0","A337Y4X67PY4QI","img_art/23.jpg","3","","","","","","","","","","","","","","","","","","","","","","","","",""
"null","","html-keyboard-response","152","1398544","0.0-150.0","A337Y4X67PY4QI","<p style=""font-size: 48px;"">+</p>","","","","","null","allTrialResponses","500","1","15","img_art/23.jpg","-23","can't figure this out","Grace,Melissa,Jessica,Jamie,Breanna,Ashley","Looks like fireworks.,21,180,20","do not like color splatters or sharp silhouettes, feels tacky,-34,240,20","This is very cool!,24,400,20","Reminds me of outer space and the stars,30,320,20","Makes me worried,10,380,20","A line dance, it's really strinkingly beautiful.,50,320,20","Melissa","do not like color splatters or sharp silhouettes, feels tacky,-34,240,20","Breanna","Makes me worried,10,380,20","Jamie","Reminds me of outer space and the stars,30,320,20","4"
"4004","","survey-text","153","1402605","0.0-151.0-0.0","A337Y4X67PY4QI","","","","{""Q0"":""course""}","","","","","","","","","","","","","","","","","","","","","","",""
"3702","","survey-text","154","1406315","0.0-152.0-0.0","A337Y4X67PY4QI","","","","{""Q0"":""not art""}","","","","","","","","","","","","","","","","","","","","","","",""
"3082","","image-slider-response","155","1409426","0.0-153.0","A337Y4X67PY4QI","","","","","-24","","","","","","","","","","","","","","","","","","","","","",""
"2165","","image-button-response","156","1414436","0.0-154.0","A337Y4X67PY4QI","img_art/30.jpg","0","","","","","","","","","","","","","","","","","","","","","","","","",""
"27","","image-button-response","157","1414470","0.0-155.0","A337Y4X67PY4QI","img_art/30.jpg","1","","","","","","","","","","","","","","","","","","","","","","","","",""
"1131","","image-button-response","158","1415612","0.0-156.0-0.0","A337Y4X67PY4QI","img_art/30.jpg","4","","","","","","","","","","","","","","","","","","","","","","","","",""
"4050","","image-button-response","159","1419671","0.0-157.0-0.0","A337Y4X67PY4QI","img_art/30.jpg","0","","","","","","","","","","","","","","","","","","","","","","","","",""
"null","","html-keyboard-response","160","1420178","0.0-158.0","A337Y4X67PY4QI","<p style=""font-size: 48px;"">+</p>","","","","","null","allTrialResponses","500","1","16","img_art/30.jpg","-24","not art","Jennifer,Melissa,Erin,Jamie,Breanna,Hannah","The color scheme used in this piece is very ugly.,-50,380,20","muddy, feels unintentional,-50,240,20","Layers are interesting,22,120,20","Cool design and contrast of colors,30,320,20","Paint scribbled on canvas,-25,380,20","It's just all right.,5,240,20","Melissa","muddy, feels unintentional,-50,240,20","Breanna","Paint scribbled on canvas,-25,380,20","Jennifer","The color scheme used in this piece is very ugly.,-50,380,20","4"
"11152","","survey-text","161","1431356","0.0-159.0-0.0","A337Y4X67PY4QI","","","","{""Q0"":""abstract something""}","","","","","","","","","","","","","","","","","","","","","","",""
"2339","","image-slider-response","162","1433701","0.0-160.0","A337Y4X67PY4QI","","","","","1","","","","","","","","","","","","","","","","","","","","","",""
"2765","","image-button-response","163","1438723","0.0-161.0","A337Y4X67PY4QI","img_art/6.jpg","0","","","","","","","","","","","","","","","","","","","","","","","","",""
"1369","","image-button-response","164","1440102","0.0-162.0","A337Y4X67PY4QI","img_art/6.jpg","0","","","","","","","","","","","","","","","","","","","","","","","","",""
"1012","","image-button-response","165","1441123","0.0-163.0-0.0","A337Y4X67PY4QI","img_art/6.jpg","3","","","","","","","","","","","","","","","","","","","","","","","","",""
"5438","","image-button-response","166","1446569","0.0-164.0-0.0","A337Y4X67PY4QI","img_art/6.jpg","2","","","","","","","","","","","","","","","","","","","","","","","","",""
"null","","html-keyboard-response","167","1447573","0.0-165.0","A337Y4X67PY4QI","<p style=""font-size: 48px;"">+</p>","","","","","null","allTrialResponses","1000","1","17","img_art/6.jpg","1","abstract something","Jennifer,Melissa,Amy,Chloe,Breanna,Gabriela","I am neutral towards this piece.,0,380,20","composition is engaging,28,240,20","Lack of context makes this painting 1-d for me. The headless bird is mysterious and indecipherable.,-10,220,20","Cute and evocative,11,220,20","Not impressed, just very plain,-10,380,20","This looks like a crow, sort of bleak,-26,140,20","Jennifer","I am neutral towards this piece.,0,380,20","Chloe","Cute and evocative,11,220,20","Amy","Lack of context makes this painting 1-d for me. The headless bird is mysterious and indecipherable.,-10,220,20","4"
"17777","","survey-text","168","1465375","0.0-166.0-0.0","A337Y4X67PY4QI","","","","{""Q0"":""would go with someones decor maybe but not really art""}","","","","","","","","","","","","","","","","","","","","","","",""
"2924.5","","image-slider-response","169","1468308","0.0-167.0","A337Y4X67PY4QI","","","","","-12","","","","","","","","","","","","","","","","","","","","","",""
"4427","","image-button-response","170","1473317","0.0-168.0","A337Y4X67PY4QI","img_art/22.jpg","4","","","","","","","","","","","","","","","","","","","","","","","","",""
"510","","image-button-response","171","1473834","0.0-169.0","A337Y4X67PY4QI","img_art/22.jpg","5","","","","","","","","","","","","","","","","","","","","","","","","",""
"690","","image-button-response","172","1474535","0.0-170.0-0.0","A337Y4X67PY4QI","img_art/22.jpg","4","","","","","","","","","","","","","","","","","","","","","","","","",""
"861","","image-button-response","173","1475406","0.0-171.0-0.0","A337Y4X67PY4QI","img_art/22.jpg","2","","","","","","","","","","","","","","","","","","","","","","","","",""
"null","","html-keyboard-response","174","1475912","0.0-172.0","A337Y4X67PY4QI","<p style=""font-size: 48px;"">+</p>","","","","","null","allTrialResponses","500","1","18","img_art/22.jpg","-12","would go with someones decor maybe but not really art","Jennifer,Tiffany,Amy,Chloe,Amanda,Alexis","Colors are subdued yet vibrant,30,380,20","The painting makes me feel a little sad.,12,360,20","I appreciate the shapes but the abundance of primary colors make it seem garrish.,-10,220,20","Still like the colors but not the most interesting composition,17,220,20","Very generic, seen many times before,-43,180,20","Don't like this type of abstract work,-39,100,20","Alexis","Don't like this type of abstract work,-39,100,20","Amanda","Very generic, seen many times before,-43,180,20","Amy","I appreciate the shapes but the abundance of primary colors make it seem garrish.,-10,220,20","4"
"12850","","survey-text","175","1488789","0.0-173.0-0.0","A337Y4X67PY4QI","","","","{""Q0"":""something i would see in my dentist office""}","","","","","","","","","","","","","","","","","","","","","","",""
"3105.4000000059605","","image-slider-response","176","1491907","0.0-174.0","A337Y4X67PY4QI","","","","","-11","","","","","","","","","","","","","","","","","","","","","",""
"4827","","image-button-response","177","1496923","0.0-175.0","A337Y4X67PY4QI","img_art/17.jpg","4","","","","","","","","","","","","","","","","","","","","","","","","",""
"1856","","image-button-response","178","1498790","0.0-176.0","A337Y4X67PY4QI","img_art/17.jpg","4","","","","","","","","","","","","","","","","","","","","","","","","",""
"1735","","image-button-response","179","1500534","0.0-177.0-0.0","A337Y4X67PY4QI","img_art/17.jpg","0","","","","","","","","","","","","","","","","","","","","","","","","",""
"4310","","image-button-response","180","1504855","0.0-178.0-0.0","A337Y4X67PY4QI","img_art/17.jpg","3","","","","","","","","","","","","","","","","","","","","","","","","",""
"null","","html-keyboard-response","181","1505862","0.0-179.0","A337Y4X67PY4QI","<p style=""font-size: 48px;"">+</p>","","","","","null","allTrialResponses","1000","1","19","img_art/17.jpg","-11","something i would see in my dentist office","Megan,Cheyenne,Amy,Rebecca,Amanda,Alexis","2 paintings in 1 with shared colors,5,200,20","I like the colorfulness.,17,200,20","peaceful. contemplative. balanced. old,10,220,20","tree sprouting out of a box (house) the invasion of nature?,39,100,20","Feels supernatural and scary,-16,180,20","Love the color and nature motif,36,100,20","Amanda","Feels supernatural and scary,-16,180,20","Megan","2 paintings in 1 with shared colors,5,200,20","Rebecca","tree sprouting out of a box (house) the invasion of nature?,39,100,20","4"
"7212","","survey-text","182","1513097","0.0-180.0-0.0","A337Y4X67PY4QI","","","","{""Q0"":""really not sure what this is""}","","","","","","","","","","","","","","","","","","","","","","",""
"3099.9000000059605","","image-slider-response","183","1516208","0.0-181.0","A337Y4X67PY4QI","","","","","-15","","","","","","","","","","","","","","","","","","","","","",""
"null","","image-button-response","184","1521216","0.0-182.0","A337Y4X67PY4QI","img_art/5.jpg","null","","","","","","","","","","","","","","","","","","","","","","","","",""
"125","","image-button-response","185","1521348","0.0-183.0","A337Y4X67PY4QI","img_art/5.jpg","5","","","","","","","","","","","","","","","","","","","","","","","","",""
"1186","","image-button-response","186","1522543","0.0-184.0-0.0","A337Y4X67PY4QI","img_art/5.jpg","2","","","","","","","","","","","","","","","","","","","","","","","","",""
"1085","","image-button-response","187","1523639","0.0-185.0-0.0","A337Y4X67PY4QI","img_art/5.jpg","0","","","","","","","","","","","","","","","","","","","","","","","","",""
"null","","html-keyboard-response","188","1524651","0.0-186.0","A337Y4X67PY4QI","<p style=""font-size: 48px;"">+</p>","","","","","null","allTrialResponses","1000","1","20","img_art/5.jpg","-15","really not sure what this is","Megan,Kristen,Hailey,Rebecca,Amanda,Danielle","Cop out, easy money for artist for a 4 min piece,-29,200,20","sharp, painful yet playful,-5,280,20","puke yellow with nothing but sadness,-35,200,20","sorry not my style,-37,100,20","Very good color coordination,41,180,20","Not a fan of the themes,-30,340,20","Danielle","Not a fan of the themes,-30,340,20","Hailey","puke yellow with nothing but sadness,-35,200,20","Megan","Cop out, easy money for artist for a 4 min piece,-29,200,20","4"
"3248","","survey-text","189","1527930","0.0-187.0-0.0","A337Y4X67PY4QI","","","","{""Q0"":""we""}","","","","","","","","","","","","","","","","","","","","","","",""
"12466","","survey-text","190","1540401","0.0-188.0-0.0","A337Y4X67PY4QI","","","","{""Q0"":""this looks like it is telling a story""}","","","","","","","","","","","","","","","","","","","","","","",""
"5361.200000017881","","image-slider-response","191","1545770","0.0-189.0","A337Y4X67PY4QI","","","","","11","","","","","","","","","","","","","","","","","","","","","",""
"3592","","image-button-response","192","1550781","0.0-190.0","A337Y4X67PY4QI","img_art/19.jpg","4","","","","","","","","","","","","","","","","","","","","","","","","",""
"894","","image-button-response","193","1551708","0.0-191.0","A337Y4X67PY4QI","img_art/19.jpg","2","","","","","","","","","","","","","","","","","","","","","","","","",""
"845","","image-button-response","194","1552569","0.0-192.0-0.0","A337Y4X67PY4QI","img_art/19.jpg","4","","","","","","","","","","","","","","","","","","","","","","","","",""
"801","","image-button-response","195","1553383","0.0-193.0-0.0","A337Y4X67PY4QI","img_art/19.jpg","3","","","","","","","","","","","","","","","","","","","","","","","","",""
"null","","html-keyboard-response","196","1554887","0.0-194.0","A337Y4X67PY4QI","<p style=""font-size: 48px;"">+</p>","","","","","null","allTrialResponses","1500","1","21","img_art/19.jpg","11","this looks like it is telling a story","Megan,Caitlin,Hailey,Molly,Catherine,Danielle","Simple, scratchy lack of negative space.,-10,200,20","Looks like a homeless man and this painting should be too.,-5,80,20","an old cityfrom many years ago. its ok,6,200,20","I can see kind of beach and sea full of people and buildings.,25,340,20","Higher power looking down at its creation with a half smile and some hurt.,45,160,20","It looks like as if it were portraying a village that was polluted? I don't like the theme anyway,-21,340,20","Hailey","an old cityfrom many years ago. its ok,6,200,20","Catherine","Higher power looking down at its creation with a half smile and some hurt.,45,160,20","Molly","I can see kind of beach and sea full of people and buildings.,25,340,20","4"
"14669","","survey-text","197","1569583","0.0-195.0-0.0","A337Y4X67PY4QI","","","","{""Q0"":""nice bold lines""}","","","","","","","","","","","","","","","","","","","","","","",""
"2177.4000000059605","","image-slider-response","198","1571770","0.0-196.0","A337Y4X67PY4QI","","","","","9","","","","","","","","","","","","","","","","","","","","","",""
"3260","","image-button-response","199","1576779","0.0-197.0","A337Y4X67PY4QI","img_art/11.jpg","4","","","","","","","","","","","","","","","","","","","","","","","","",""
"2477","","image-button-response","200","1579262","0.0-198.0","A337Y4X67PY4QI","img_art/11.jpg","2","","","","","","","","","","","","","","","","","","","","","","","","",""
"1251","","image-button-response","201","1580521","0.0-199.0-0.0","A337Y4X67PY4QI","img_art/11.jpg","3","","","","","","","","","","","","","","","","","","","","","","","","",""
"737","","image-button-response","202","1581269","0.0-200.0-0.0","A337Y4X67PY4QI","img_art/11.jpg","4","","","","","","","","","","","","","","","","","","","","","","","","",""
"null","","html-keyboard-response","203","1582775","0.0-201.0","A337Y4X67PY4QI","<p style=""font-size: 48px;"">+</p>","","","","","null","allTrialResponses","1500","1","22","img_art/11.jpg","9","nice bold lines","Lindsey,Sydney,Hailey,Molly,Catherine,Courtney","Not a fan of the colors but it looks interesting.,-31,400,20","I don't like the gloomy color, but it reminds me of a city which I like.,35,320,20","a train going around the country,14,200,20","Astounding, extraordinary.,25,340,20","Busy city life. transportation, anxiety.,10,160,20","Thats a creepy old rollercoasters abandoned,-2,280,20","Hailey","a train going around the country,14,200,20","Molly","Astounding, extraordinary.,25,340,20","Catherine","Busy city life. transportation, anxiety.,10,160,20","4"
"13419","","survey-text","204","1596232","0.0-202.0-0.0","A337Y4X67PY4QI","","","","{""Q0"":""too much beige overlay""}","","","","","","","","","","","","","","","","","","","","","","",""
"2633.699999988079","","image-slider-response","205","1598872","0.0-203.0","A337Y4X67PY4QI","","","","","-6","","","","","","","","","","","","","","","","","","","","","",""
"4236","","image-button-response","206","1603879","0.0-204.0","A337Y4X67PY4QI","img_art/14.jpg","4","","","","","","","","","","","","","","","","","","","","","","","","",""
"2198","","image-button-response","207","1606088","0.0-205.0","A337Y4X67PY4QI","img_art/14.jpg","5","","","","","","","","","","","","","","","","","","","","","","","","",""
"679","","image-button-response","208","1606775","0.0-206.0-0.0","A337Y4X67PY4QI","img_art/14.jpg","4","","","","","","","","","","","","","","","","","","","","","","","","",""
"1507","","image-button-response","209","1608302","0.0-207.0-0.0","A337Y4X67PY4QI","img_art/14.jpg","2","","","","","","","","","","","","","","","","","","","","","","","","",""
"null","","html-keyboard-response","210","1608808","0.0-208.0","A337Y4X67PY4QI","<p style=""font-size: 48px;"">+</p>","","","","","null","allTrialResponses","500","1","23","img_art/14.jpg","-6","too much beige overlay","Sabrina,Diana,Hailey,Molly,Catherine,Paige","Love the assortment of colors and flowers, expressing gentle and caring,50,120,20","This piece feels inviting. It's like opening up the pages of your favorite book for the first time.,26,380,20","fuzzy and confused. ok then well,16,200,20","In my opinion it's spectacular.,35,340,20","Tornado, nature. trees falling and displaced creatures. Love the colors though.,1,160,20","It didn't really do anything to excite me.,21,60,20","Paige","It didn't really do anything to excite me.,21,60,20","Catherine","Tornado, nature. trees falling and displaced creatures. Love the colors though.,1,160,20","Hailey","fuzzy and confused. ok then well,16,200,20","4"
"10353","","survey-text","211","1619184","0.0-209.0-0.0","A337Y4X67PY4QI","","","","{""Q0"":""another artwork from my dentist office""}","","","","","","","","","","","","","","","","","","","","","","",""
"2920","","image-slider-response","212","1622112","0.0-210.0","A337Y4X67PY4QI","","","","","-17","","","","","","","","","","","","","","","","","","","","","",""
"null","","image-button-response","213","1627119","0.0-211.0","A337Y4X67PY4QI","img_art/26.jpg","null","","","","","","","","","","","","","","","","","","","","","","","","",""
"97","","image-button-response","214","1627222","0.0-212.0","A337Y4X67PY4QI","img_art/26.jpg","4","","","","","","","","","","","","","","","","","","","","","","","","",""
"4178","","image-button-response","215","1631407","0.0-213.0-0.0","A337Y4X67PY4QI","img_art/26.jpg","2","","","","","","","","","","","","","","","","","","","","","","","","",""
"1631","","image-button-response","216","1633049","0.0-214.0-0.0","A337Y4X67PY4QI","img_art/26.jpg","3","","","","","","","","","","","","","","","","","","","","","","","","",""
"null","","html-keyboard-response","217","1634555","0.0-215.0","A337Y4X67PY4QI","<p style=""font-size: 48px;"">+</p>","","","","","null","allTrialResponses","1500","1","24","img_art/26.jpg","-17","another artwork from my dentist office","Marissa,Victoria,Hailey,Kathryn,Catherine,Paige","It feels simple and pretty,12,160,20","feels a tad old,30,400,20","bedroom in the outdoors. warm,9,200,20","This piece feels pretty chill like it's just a normal day in the city.,10,140,20","Incomplete, The artist painted his impression of somthing he was thinking of,0,160,20","somewhat happy, like being outside on a nice day,30,60,20","Catherine","Incomplete, The artist painted his impression of somthing he was thinking of,0,160,20","Hailey","bedroom in the outdoors. warm,9,200,20","Kathryn","This piece feels pretty chill like it's just a normal day in the city.,10,140,20","4"
"182737","","survey-text","218","1817316","0.0-216.0-0.0","A337Y4X67PY4QI","","","","{""Q0"":""just a blobby art""}","","","","","","","","","","","","","","","","","","","","","","",""
"3268.100000023842","","image-slider-response","219","1820594","0.0-217.0","A337Y4X67PY4QI","","","","","-18","","","","","","","","","","","","","","","","","","","","","",""
"4178","","image-button-response","220","1825603","0.0-218.0","A337Y4X67PY4QI","img_art/2.jpg","2","","","","","","","","","","","","","","","","","","","","","","","","",""
"638","","image-button-response","221","1826250","0.0-219.0","A337Y4X67PY4QI","img_art/2.jpg","2","","","","","","","","","","","","","","","","","","","","","","","","",""
"983","","image-button-response","222","1827247","0.0-220.0-0.0","A337Y4X67PY4QI","img_art/2.jpg","4","","","","","","","","","","","","","","","","","","","","","","","","",""
"886","","image-button-response","223","1828144","0.0-221.0-0.0","A337Y4X67PY4QI","img_art/2.jpg","3","","","","","","","","","","","","","","","","","","","","","","","","",""
"null","","html-keyboard-response","224","1828648","0.0-222.0","A337Y4X67PY4QI","<p style=""font-size: 48px;"">+</p>","","","","","null","allTrialResponses","500","1","25","img_art/2.jpg","-18","just a blobby art","Brianna,Briana,Hailey,Kathryn,Catherine,Stephanie","The only parts I like is the light blue, red and black. The green color isn't very flattering.,11,20,20","Childish smiley face,-19,400,20","ugly green color and makes me sick,-29,200,20","I think I'm put off by the clashing colors here. It feels discombobulated and sick.,-10,140,20","Dependence. Things relying on each other. Caring,-4,160,20","The colors are what I like. It looks like a smiling face too.,32,300,20","Hailey","ugly green color and makes me sick,-29,200,20","Catherine","Dependence. Things relying on each other. Caring,-4,160,20","Kathryn","I think I'm put off by the clashing colors here. It feels discombobulated and sick.,-10,140,20","4"
"2548","","survey-text","225","1831277","0.0-223.0-0.0","A337Y4X67PY4QI","","","","{""Q0"":""table""}","","","","","","","","","","","","","","","","","","","","","","",""
"7540","","survey-text","226","1838825","0.0-224.0-0.0","A337Y4X67PY4QI","","","","{""Q0"":""not really art""}","","","","","","","","","","","","","","","","","","","","","","",""
"3331.199999988079","","image-slider-response","227","1842163","0.0-225.0","A337Y4X67PY4QI","","","","","-24","","","","","","","","","","","","","","","","","","","","","",""
"4625","","image-button-response","228","1847173","0.0-226.0","A337Y4X67PY4QI","img_art/4.jpg","2","","","","","","","","","","","","","","","","","","","","","","","","",""
"1143","","image-button-response","229","1848325","0.0-227.0","A337Y4X67PY4QI","img_art/4.jpg","2","","","","","","","","","","","","","","","","","","","","","","","","",""
"1082","","image-button-response","230","1849416","0.0-228.0-0.0","A337Y4X67PY4QI","img_art/4.jpg","3","","","","","","","","","","","","","","","","","","","","","","","","",""
"1009","","image-button-response","231","1850437","0.0-229.0-0.0","A337Y4X67PY4QI","img_art/4.jpg","5","","","","","","","","","","","","","","","","","","","","","","","","",""
"null","","html-keyboard-response","232","1850947","0.0-230.0","A337Y4X67PY4QI","<p style=""font-size: 48px;"">+</p>","","","","","null","allTrialResponses","500","1","26","img_art/4.jpg","-24","not really art","Lauren,Kylie,Hailey,Kathryn,Catherine,Savannah","I like the design. It can be interpreted in various ways, such as a hand of horror or still piece.,15,340,20","I just have no clue,26,300,20","ugly puke yellow is cold and dark,-29,200,20","I feel kind of guilty looking at this, like I'm receiving a reward I don't I deserve.,-10,140,20","Hearts, family connected. They are standing on a narrow base and could fall to pieces at anytime.,40,160,20","Colors are horrendous, look like bodily fluids have been smeared.,-50,200,20","Hailey","ugly puke yellow is cold and dark,-29,200,20","Kathryn","I feel kind of guilty looking at this, like I'm receiving a reward I don't I deserve.,-10,140,20","Savannah","Colors are horrendous, look like bodily fluids have been smeared.,-50,200,20","4"
"10222","","survey-text","233","1861191","0.0-231.0-0.0","A337Y4X67PY4QI","","","","{""Q0"":""a great monster""}","","","","","","","","","","","","","","","","","","","","","","",""
"2038.1000000238419","","image-slider-response","234","1863237","0.0-232.0","A337Y4X67PY4QI","","","","","-9","","","","","","","","","","","","","","","","","","","","","",""
"3878","","image-button-response","235","1868245","0.0-233.0","A337Y4X67PY4QI","img_art/9.jpg","5","","","","","","","","","","","","","","","","","","","","","","","","",""
"207","","image-button-response","236","1868461","0.0-234.0","A337Y4X67PY4QI","img_art/9.jpg","5","","","","","","","","","","","","","","","","","","","","","","","","",""
"2606","","image-button-response","237","1871075","0.0-235.0-0.0","A337Y4X67PY4QI","img_art/9.jpg","1","","","","","","","","","","","","","","","","","","","","","","","","",""
"2165","","image-button-response","238","1873250","0.0-236.0-0.0","A337Y4X67PY4QI","img_art/9.jpg","2","","","","","","","","","","","","","","","","","","","","","","","","",""
"null","","html-keyboard-response","239","1874255","0.0-237.0","A337Y4X67PY4QI","<p style=""font-size: 48px;"">+</p>","","","","","null","allTrialResponses","1000","1","27","img_art/9.jpg","-9","a great monster","Andrea,Katelyn,Hailey,Kathryn,Alexandria,Savannah","Sleeping woman in a cave. Makes me feel safe.,20,240,20","The lack of concrete form kind of turns me off,-2,100,20","looks like a woman in bed and its ok,8,200,20","This feels dreamy. Like I'm seeing inside someone's head while they're sleeping.,20,140,20","it makes me feel excited and draws my eye around,24,80,20","Unfinished, weird composition.,-34,200,20","Savannah","Unfinished, weird composition.,-34,200,20","Katelyn","The lack of concrete form kind of turns me off,-2,100,20","Hailey","looks like a woman in bed and its ok,8,200,20","4"
"10943","","survey-text","240","1885237","0.0-238.0-0.0","A337Y4X67PY4QI","","","","{""Q0"":""browns and greys kind of depressing""}","","","","","","","","","","","","","","","","","","","","","","",""
"3218.4000000059605","","image-slider-response","241","1888465","0.0-239.0","A337Y4X67PY4QI","","","","","-15","","","","","","","","","","","","","","","","","","","","","",""
"4494","","image-button-response","242","1893478","0.0-240.0","A337Y4X67PY4QI","img_art/28.jpg","1","","","","","","","","","","","","","","","","","","","","","","","","",""
"197","","image-button-response","243","1893684","0.0-241.0","A337Y4X67PY4QI","img_art/28.jpg","0","","","","","","","","","","","","","","","","","","","","","","","","",""
"910","","image-button-response","244","1894602","0.0-242.0-0.0","A337Y4X67PY4QI","img_art/28.jpg","1","","","","","","","","","","","","","","","","","","","","","","","","",""
"726","","image-button-response","245","1895342","0.0-243.0-0.0","A337Y4X67PY4QI","img_art/28.jpg","2","","","","","","","","","","","","","","","","","","","","","","","","",""
"null","","html-keyboard-response","246","1896847","0.0-244.0","A337Y4X67PY4QI","<p style=""font-size: 48px;"">+</p>","","","","","null","allTrialResponses","1500","1","28","img_art/28.jpg","-15","browns and greys kind of depressing","Meghan,Katelyn,Hailey,Christina,Natalie,Savannah","I don't like the color choice,-30,220,20","Just all blurs together for me. No substance.,-23,100,20","an old woman in a wheelchair. sad,-35,200,20","very blah colors and it's not fun,-27,240,20","it looks alright,-1,400,20","White and dark balance is way off- Seems dull.,-33,200,20","Meghan","I don't like the color choice,-30,220,20","Katelyn","Just all blurs together for me. No substance.,-23,100,20","Hailey","an old woman in a wheelchair. sad,-35,200,20","4"
"4337","","survey-text","247","1901205","0.0-245.0-0.0","A337Y4X67PY4QI","","","","{""Q0"":""scary""}","","","","","","","","","","","","","","","","","","","","","","",""
"8432","","survey-text","248","1909670","0.0-245.1-0.1","A337Y4X67PY4QI","","","","{""Q0"":""scary and creepy""}","","","","","","","","","","","","","","","","","","","","","","",""
"2449.699999988079","","image-slider-response","249","1912126","0.0-246.0","A337Y4X67PY4QI","","","","","-8","","","","","","","","","","","","","","","","","","","","","",""
"2534","","image-button-response","250","1917134","0.0-247.0","A337Y4X67PY4QI","img_art/25.jpg","0","","","","","","","","","","","","","","","","","","","","","","","","",""
"383","","image-button-response","251","1917535","0.0-248.0","A337Y4X67PY4QI","img_art/25.jpg","0","","","","","","","","","","","","","","","","","","","","","","","","",""
"1791","","image-button-response","252","1919336","0.0-249.0-0.0","A337Y4X67PY4QI","img_art/25.jpg","3","","","","","","","","","","","","","","","","","","","","","","","","",""
"1316","","image-button-response","253","1920665","0.0-250.0-0.0","A337Y4X67PY4QI","img_art/25.jpg","2","","","","","","","","","","","","","","","","","","","","","","","","",""
"null","","html-keyboard-response","254","1921669","0.0-251.0","A337Y4X67PY4QI","<p style=""font-size: 48px;"">+</p>","","","","","null","allTrialResponses","1000","1","29","img_art/25.jpg","-8","scary and creepy","Meghan,Katelyn,Hailey,Cassandra,Alexa,Mary","reminds me of a zombie,-36,220,20","Creates a bit of fear in me for some reason,-26,100,20","ugly color and very sad old lady,-45,200,20","I hate the colors and the scene,-46,120,20","It's really neat and cool looking,20,40,20","The artist was daring to create this. Don't love the green and black combo though.,9,180,20","Meghan","reminds me of a zombie,-36,220,20","Cassandra","I hate the colors and the scene,-46,120,20","Hailey","ugly color and very sad old lady,-45,200,20","4"
"5474","","survey-text","255","1927169","0.0-252.0-0.0","A337Y4X67PY4QI","","","","{""Q0"":""nice waterfall""}","","","","","","","","","","","","","","","","","","","","","","",""
"1989.4000000059605","","image-slider-response","256","1929167","0.0-253.0","A337Y4X67PY4QI","","","","","3","","","","","","","","","","","","","","","","","","","","","",""
"4603","","image-button-response","257","1934182","0.0-254.0","A337Y4X67PY4QI","img_art/24.jpg","2","","","","","","","","","","","","","","","","","","","","","","","","",""
"591","","image-button-response","258","1934785","0.0-255.0","A337Y4X67PY4QI","img_art/24.jpg","2","","","","","","","","","","","","","","","","","","","","","","","","",""
"915","","image-button-response","259","1935706","0.0-256.0-0.0","A337Y4X67PY4QI","img_art/24.jpg","0","","","","","","","","","","","","","","","","","","","","","","","","",""
"1742","","image-button-response","260","1937457","0.0-257.0-0.0","A337Y4X67PY4QI","img_art/24.jpg","3","","","","","","","","","","","","","","","","","","","","","","","","",""
"null","","html-keyboard-response","261","1938962","0.0-258.0","A337Y4X67PY4QI","<p style=""font-size: 48px;"">+</p>","","","","","null","allTrialResponses","1500","1","30","img_art/24.jpg","3","nice waterfall","Meghan,Julia,Hailey,Cassandra,Bailey,Kaylee","pretty like a waterfall,22,220,20","it's a nice stream, but I don't care for plain nature,-15,40,20","warm spring day after a rain. soft,20,200,20","I like it...looks like a waterfall.,11,120,20","Feels surreal, in a way, and vibrant,37,360,20","lovely forest vibes,36,200,20","Hailey","warm spring day after a rain. soft,20,200,20","Meghan","pretty like a waterfall,22,220,20","Cassandra","I like it...looks like a waterfall.,11,120,20","4"
"4352","","image-button-response_instructions","262","1943340","0.0-259.0","A337Y4X67PY4QI","","0","instructions","","","","","","","","","","","","","","","","","","","","","","","",""
"1574","","image-button-response","263","1944937","0.0-260.0","A337Y4X67PY4QI","","0","","","","","","","","","","","","","","","","","","","","","","","","",""
