"rt","url","trial_type","trial_index","time_elapsed","internal_node_id","participant_id","stimulus","button_pressed","Name","responses","response","key_press","variableName","fixationTime","condition","trial","photo","subjectRating","subjectResponse","agentsNames","agent_1_Response","agent_2_Response","agent_3_Response","agent_4_Response","agent_5_Response","agent_6_Response","kept_1_name","kept_1_response","kept_2_name","kept_2_response","kept_3_name","kept_3_response","errorCounter"
"4583","external_page_harvard.html","external-html","0","4589","0.0-0.0","A337ZAE3L0QE4V","","","","","","","","","","","","","","","","","","","","","","","","","","",""
"1653","","image-button-response","1","6243","0.0-1.0","A337ZAE3L0QE4V","","1","","","","","","","","","","","","","","","","","","","","","","","","",""
"1513","","image-button-response","2","7763","0.0-2.0-0.0","A337ZAE3L0QE4V","","1","phone","","","","","","","","","","","","","","","","","","","","","","","",""
"3087","","survey-text","3","10851","0.0-3.0-0.0","A337ZAE3L0QE4V","","","","{""Q0"":""A337ZAE3L0QE4V""}","","","","","","","","","","","","","","","","","","","","","","",""
"4319","","image-button-response_instructions","4","15171","0.0-4.0","A337ZAE3L0QE4V","","0","instructions","","","","","","","","","","","","","","","","","","","","","","","",""
"8215","","image-button-response_instructions","5","23387","0.0-5.0","A337ZAE3L0QE4V","img_art/ins/popularity/ins1.png","0","instructions","","","","","","","","","","","","","","","","","","","","","","","",""
"4903","","image-button-response_instructions","6","28291","0.0-6.0","A337ZAE3L0QE4V","img_art/ins/popularity/ins2.png","0","instructions","","","","","","","","","","","","","","","","","","","","","","","",""
"6839","","image-button-response_instructions","7","35131","0.0-7.0","A337ZAE3L0QE4V","img_art/ins/popularity/ins2Extreme.png","0","instructions","","","","","","","","","","","","","","","","","","","","","","","",""
"20623","","image-button-response_instructions","8","55755","0.0-8.0","A337ZAE3L0QE4V","img_art/ins/popularity/ins3KEEPpop.PNG","0","instructions","","","","","","","","","","","","","","","","","","","","","","","",""
"4774","","image-button-response_instructions","9","60531","0.0-9.0","A337ZAE3L0QE4V","img_art/ins/popularity/ins3ANamepop.PNG","0","instructions","","","","","","","","","","","","","","","","","","","","","","","",""
"4790","","image-button-response_instructions","10","65323","0.0-10.0","A337ZAE3L0QE4V","img_art/ins/popularity/ins3ARatingpop.png","0","instructions","","","","","","","","","","","","","","","","","","","","","","","",""
"3456","","image-button-response_instructions","11","68779","0.0-11.0","A337ZAE3L0QE4V","img_art/ins/popularity/ins3ATextpop.png","0","instructions","","","","","","","","","","","","","","","","","","","","","","","",""
"13991","","image-button-response_instructions","12","82771","0.0-12.0","A337ZAE3L0QE4V","img_art/ins/popularity/ins3ALikespop.png","0","instructions","","","","","","","","","","","","","","","","","","","","","","","",""
"15016","","image-button-response_instructions","13","97787","0.0-13.0","A337ZAE3L0QE4V","img_art/ins/popularity/ins3KEEPpop.PNG","0","instructions","","","","","","","","","","","","","","","","","","","","","","","",""
"15623","","image-button-response_instructions","14","113411","0.0-14.0","A337ZAE3L0QE4V","img_art/ins/popularity/ins3_5RED.png","0","instructions","","","","","","","","","","","","","","","","","","","","","","","",""
"9527","","image-button-response_instructions","15","122939","0.0-15.0","A337ZAE3L0QE4V","img_art/ins/popularity/ins3KEEPpop.PNG","0","instructions","","","","","","","","","","","","","","","","","","","","","","","",""
"18943","","image-button-response_instructions","16","141883","0.0-16.0","A337ZAE3L0QE4V","img_art/ins/popularity/ins4KEEPpop.PNG","0","instructions","","","","","","","","","","","","","","","","","","","","","","","",""
"5831","","image-button-response_instructions","17","147715","0.0-17.0","A337ZAE3L0QE4V","img_art/ins/popularity/ins5KEEPpop.PNG","0","instructions","","","","","","","","","","","","","","","","","","","","","","","",""
"2295","","image-button-response_instructions","18","150011","0.0-18.0","A337ZAE3L0QE4V","","0","instructions","","","","","","","","","","","","","","","","","","","","","","","",""
"8173","","survey-text","19","158203","0.0-19.0-0.0","A337ZAE3L0QE4V","","","","{""Q0"":""but""}","","","","","","","","","","","","","","","","","","","","","","",""
"20646","","survey-text","20","178851","0.0-20.0-0.0","A337ZAE3L0QE4V","","","","{""Q0"":""It makes me think of bright colored rain.""}","","","","","","","","","","","","","","","","","","","","","","",""
"21190.19999998808","","image-slider-response","21","200043","0.0-21.0","A337ZAE3L0QE4V","","","","","0","","","","","","","","","","","","","","","","","","","","","",""
"null","","image-button-response","22","205054","0.0-22.0","A337ZAE3L0QE4V","img_art/ins/1.jpg","null","","","","","","","","","","","","","","","","","","","","","","","","",""
"3676","","image-button-response","23","208731","0.0-23.0","A337ZAE3L0QE4V","img_art/ins/1.jpg","5","","","","","","","","","","","","","","","","","","","","","","","","",""
"2982","","image-button-response","24","211715","0.0-24.0-0.0","A337ZAE3L0QE4V","img_art/ins/1.jpg","4","","","","","","","","","","","","","","","","","","","","","","","","",""
"1942","","image-button-response","25","213659","0.0-25.0-0.0","A337ZAE3L0QE4V","img_art/ins/1.jpg","0","","","","","","","","","","","","","","","","","","","","","","","","",""
"null","","html-keyboard-response","26","214661","0.0-26.0","A337ZAE3L0QE4V","<p style=""font-size: 48px;"">+</p>","","","","","null","allTrialResponses","1000","1","-2","img_art/ins/1.jpg","0","It makes me think of bright colored rain.","Allison,Ashley,Beth,Dora,Erika,Jen","looks like a lot of things going on in the mist,20,20,20","I just don't get why these type of art would be popular,-32,40,20","This color reminds me of poo,-46,60,20","looks like what my niece in 3rd grade did this afternoon,-50,80,20","I like the sophisticated brushwork,40,100,20","It reminds me of a candy land dream I had,36,120,20","Jen","It reminds me of a candy land dream I had,36,120,20","Erika","I like the sophisticated brushwork,40,100,20","Allison","looks like a lot of things going on in the mist,20,20,20","0"
"26338","","survey-text","27","241003","0.0-27.0-0.0","A337ZAE3L0QE4V","","","","{""Q0"":""I feel like I can see architecture in the red. ""}","","","","","","","","","","","","","","","","","","","","","","",""
"5821.899999976158","","image-slider-response","28","246827","0.0-28.0","A337ZAE3L0QE4V","","","","","10","","","","","","","","","","","","","","","","","","","","","",""
"4853","","image-button-response","29","251835","0.0-29.0","A337ZAE3L0QE4V","img_art/ins/2.jpg","1","","","","","","","","","","","","","","","","","","","","","","","","",""
"3446","","image-button-response","30","255283","0.0-30.0","A337ZAE3L0QE4V","img_art/ins/2.jpg","1","","","","","","","","","","","","","","","","","","","","","","","","",""
"10886","","image-button-response","31","266171","0.0-31.0-0.0","A337ZAE3L0QE4V","img_art/ins/2.jpg","0","","","","","","","","","","","","","","","","","","","","","","","","",""
"1877","","image-button-response","32","268051","0.0-32.0-0.0","A337ZAE3L0QE4V","img_art/ins/2.jpg","0","","","","","","","","","","","","","","","","","","","","","","","","",""
"3791","","image-button-response","33","278068","0.0-32.1-0.1","A337ZAE3L0QE4V","img_art/ins/2.jpg","4","","","","","","","","","","","","","","","","","","","","","","","","",""
"null","","html-keyboard-response","34","279570","0.0-33.0","A337ZAE3L0QE4V","<p style=""font-size: 48px;"">+</p>","","","","","null","allTrialResponses","1500","1","-1","img_art/ins/2.jpg","10","I feel like I can see architecture in the red. ","Allison,Kara,Katie,Jenna,Erika,Jen","I don't have strong feelings about this,10,20,20","I like the blocks of color arrangements,30,160,20","too much color!,-28,180,20","One of my pet peevs,-48,140,20","I would never be able to compose a sophisticated pallete like this,48,100,20","It reminds me of a fireplace,36,120,20","Kara","I like the blocks of color arrangements,30,160,20","Allison","I don't have strong feelings about this,10,20,20","Erika","I would never be able to compose a sophisticated pallete like this,48,100,20","2"
"11997","","survey-text","35","291571","0.0-34.0-0.0","A337ZAE3L0QE4V","","","","{""Q0"":""It feels cold like icy water.""}","","","","","","","","","","","","","","","","","","","","","","",""
"6630.200000047684","","image-slider-response","36","298203","0.0-35.0","A337ZAE3L0QE4V","","","","","14","","","","","","","","","","","","","","","","","","","","","",""
"4751","","image-button-response","37","303215","0.0-36.0","A337ZAE3L0QE4V","img_art/ins/3.jpg","1","","","","","","","","","","","","","","","","","","","","","","","","",""
"2579","","image-button-response","38","305796","0.0-37.0","A337ZAE3L0QE4V","img_art/ins/3.jpg","2","","","","","","","","","","","","","","","","","","","","","","","","",""
"1350","","image-button-response","39","307148","0.0-38.0-0.0","A337ZAE3L0QE4V","img_art/ins/3.jpg","1","","","","","","","","","","","","","","","","","","","","","","","","",""
"7310","","image-button-response","40","314460","0.0-39.0-0.0","A337ZAE3L0QE4V","img_art/ins/3.jpg","3","","","","","","","","","","","","","","","","","","","","","","","","",""
"null","","html-keyboard-response","41","315973","0.0-40.0","A337ZAE3L0QE4V","<p style=""font-size: 48px;"">+</p>","","","","","null","allTrialResponses","1500","1","0","img_art/ins/3.jpg","14","It feels cold like icy water.","Allison,Kara,Mary,Leslie,Erika,Rose","enjoy the different shades of blue,22,20,20","calming blue is very nice,36,160,20","I like the overlapping of brushes,41,220,20","It's an alright work,15,200,20","I feel connected to the artist,40,100,20","My daily routine, it's depressing,-20,240,20","Mary","I like the overlapping of brushes,41,220,20","Kara","calming blue is very nice,36,160,20","Leslie","It's an alright work,15,200,20","2"
"5683","","image-button-response_instructions","42","321660","0.0-41.0","A337ZAE3L0QE4V","","0","instructions","","","","","","","","","","","","","","","","","","","","","","","",""
"12574","","survey-likert","43","334236","0.0-42.0-0.0","A337ZAE3L0QE4V","","","","{""Q0"":"""",""Q1"":0,""Q2"":1}","","","","","","","","","","","","","","","","","","","","","","",""
"4640","","survey-text","44","338883","0.0-43.0-0.0","A337ZAE3L0QE4V","","","","{""Q0"":""rock""}","","","","","","","","","","","","","","","","","","","","","","",""
"15511","","survey-text","45","354396","0.0-44.0-0.0","A337ZAE3L0QE4V","","","","{""Q0"":""Wow! Makes me think of the West!""}","","","","","","","","","","","","","","","","","","","","","","",""
"6902.800000011921","","image-slider-response","46","361299","0.0-45.0","A337ZAE3L0QE4V","","","","","30","","","","","","","","","","","","","","","","","","","","","",""
"null","","image-button-response","47","366319","0.0-46.0","A337ZAE3L0QE4V","img_art/20.jpg","null","","","","","","","","","","","","","","","","","","","","","","","","",""
"8780","","image-button-response","48","375099","0.0-47.0","A337ZAE3L0QE4V","img_art/20.jpg","4","","","","","","","","","","","","","","","","","","","","","","","","",""
"2047","","image-button-response","49","377148","0.0-48.0-0.0","A337ZAE3L0QE4V","img_art/20.jpg","5","","","","","","","","","","","","","","","","","","","","","","","","",""
"2294","","image-button-response","50","379443","0.0-49.0-0.0","A337ZAE3L0QE4V","img_art/20.jpg","2","","","","","","","","","","","","","","","","","","","","","","","","",""
"null","","html-keyboard-response","51","380446","0.0-50.0","A337ZAE3L0QE4V","<p style=""font-size: 48px;"">+</p>","","","","","null","allTrialResponses","1000","1","1","img_art/20.jpg","30","Wow! Makes me think of the West!","Gabrielle,Maria,Kelly,Meghan,Cassandra,Sophia","The white blob on the left seems out of place,-34,160,20","just feels generic,-18,120,20","I want to like this more, but i wish it was more detailed. It's hard for me to see what it is.,5,220,20","feels distorted and uncomfortable,-41,220,20","I liked this...I liked the blue and the black and I liked the smoothness to it.,31,120,20","A truck rolled over?  I do like the pictures and the technique though.,25,280,20","Cassandra","I liked this...I liked the blue and the black and I liked the smoothness to it.,31,120,20","Sophia","A truck rolled over?  I do like the pictures and the technique though.,25,280,20","Kelly","I want to like this more, but i wish it was more detailed. It's hard for me to see what it is.,5,220,20","2"
"16730","","survey-text","52","397179","0.0-51.0-0.0","A337ZAE3L0QE4V","","","","{""Q0"":""Beautiful. Very relaxing.""}","","","","","","","","","","","","","","","","","","","","","","",""
"8430.600000023842","","image-slider-response","53","405611","0.0-52.0","A337ZAE3L0QE4V","","","","","45","","","","","","","","","","","","","","","","","","","","","",""
"3591","","image-button-response","54","410614","0.0-53.0","A337ZAE3L0QE4V","img_art/24.jpg","0","","","","","","","","","","","","","","","","","","","","","","","","",""
"8292","","image-button-response","55","418907","0.0-54.0","A337ZAE3L0QE4V","img_art/24.jpg","3","","","","","","","","","","","","","","","","","","","","","","","","",""
"5463","","image-button-response","56","424372","0.0-55.0-0.0","A337ZAE3L0QE4V","img_art/24.jpg","1","","","","","","","","","","","","","","","","","","","","","","","","",""
"2334","","image-button-response","57","426708","0.0-56.0-0.0","A337ZAE3L0QE4V","img_art/24.jpg","0","","","","","","","","","","","","","","","","","","","","","","","","",""
"null","","html-keyboard-response","58","428210","0.0-57.0","A337ZAE3L0QE4V","<p style=""font-size: 48px;"">+</p>","","","","","null","allTrialResponses","1500","1","2","img_art/24.jpg","45","Beautiful. Very relaxing.","Breanna,Mackenzie,Kelly,Lauren,Cassandra,Sophia","Like it, nice attention to details,31,380,20","I like the vivid colors and different textures,32,20,20","Cute; I like what the image itself & the colors.,25,220,20","Invokes a strong sense of nature, since the piece can interpreted as a stream or an abstracted bird.,40,340,20","I like it...looks like a waterfall.,11,120,20","Hmm. Don't know what to make of this one.,1,280,20","Lauren","Invokes a strong sense of nature, since the piece can interpreted as a stream or an abstracted bird.,40,340,20","Mackenzie","I like the vivid colors and different textures,32,20,20","Breanna","Like it, nice attention to details,31,380,20","2"
"22759","","survey-text","59","450971","0.0-58.0-0.0","A337ZAE3L0QE4V","","","","{""Q0"":""Makes me think of a violin turned on the side?""}","","","","","","","","","","","","","","","","","","","","","","",""
"8150.900000035763","","image-slider-response","60","459123","0.0-59.0","A337ZAE3L0QE4V","","","","","-20","","","","","","","","","","","","","","","","","","","","","",""
"null","","image-button-response","61","464129","0.0-60.0","A337ZAE3L0QE4V","img_art/10.jpg","null","","","","","","","","","","","","","","","","","","","","","","","","",""
"2682","","image-button-response","62","466811","0.0-61.0","A337ZAE3L0QE4V","img_art/10.jpg","3","","","","","","","","","","","","","","","","","","","","","","","","",""
"3343","","image-button-response","63","470155","0.0-62.0-0.0","A337ZAE3L0QE4V","img_art/10.jpg","5","","","","","","","","","","","","","","","","","","","","","","","","",""
"2566","","image-button-response","64","472724","0.0-63.0-0.0","A337ZAE3L0QE4V","img_art/10.jpg","1","","","","","","","","","","","","","","","","","","","","","","","","",""
"null","","html-keyboard-response","65","473726","0.0-64.0","A337ZAE3L0QE4V","<p style=""font-size: 48px;"">+</p>","","","","","null","allTrialResponses","1000","1","3","img_art/10.jpg","-20","Makes me think of a violin turned on the side?","Breanna,Mackenzie,Paige,Lauren,Haley,Alexandria","Makes me feel amazed,23,380,20","The design is very fluid and fun to interpret,35,20,20","kind of happy. it is intriguing,23,60,20","I can't really tell what this is suppose to represent, but overall I don't like the design.,-20,340,20","Makes me want to know more about it, and potentially the artist.,20,220,20","it reminds me of a musical instrument,19,80,20","Lauren","I can't really tell what this is suppose to represent, but overall I don't like the design.,-20,340,20","Alexandria","it reminds me of a musical instrument,19,80,20","Mackenzie","The design is very fluid and fun to interpret,35,20,20","2"
"17497","","survey-text","66","491227","0.0-65.0-0.0","A337ZAE3L0QE4V","","","","{""Q0"":""Makes me think of the classic Chinese blossom. ""}","","","","","","","","","","","","","","","","","","","","","","",""
"5742.299999952316","","image-slider-response","67","496971","0.0-66.0","A337ZAE3L0QE4V","","","","","10","","","","","","","","","","","","","","","","","","","","","",""
"null","","image-button-response","68","501973","0.0-67.0","A337ZAE3L0QE4V","img_art/1.jpg","null","","","","","","","","","","","","","","","","","","","","","","","","",""
"3165","","image-button-response","69","505139","0.0-68.0","A337ZAE3L0QE4V","img_art/1.jpg","0","","","","","","","","","","","","","","","","","","","","","","","","",""
"1263","","image-button-response","70","506403","0.0-69.0-0.0","A337ZAE3L0QE4V","img_art/1.jpg","0","","","","","","","","","","","","","","","","","","","","","","","","",""
"879","","image-button-response","71","510003","0.0-69.1-0.1","A337ZAE3L0QE4V","img_art/1.jpg","3","","","","","","","","","","","","","","","","","","","","","","","","",""
"2573","","image-button-response","72","512579","0.0-70.0-0.0","A337ZAE3L0QE4V","img_art/1.jpg","5","","","","","","","","","","","","","","","","","","","","","","","","",""
"null","","html-keyboard-response","73","514094","0.0-71.0","A337ZAE3L0QE4V","<p style=""font-size: 48px;"">+</p>","","","","","null","allTrialResponses","1500","1","4","img_art/1.jpg","10","Makes me think of the classic Chinese blossom. ","Amy,Mackenzie,Molly,Lauren,Brianna,Alexandria","Unpleasing palette. I see a figure but it seems incongrous to the highly abstract background.,-20,220,20","I like the simple aspect to the design,21,20,20","The colors match and create a nice artistic disorder.,20,340,20","This image doesn't invoke much in me.,0,340,20","It's very colorful, and I like it,11,20,20","it is very colorful and makes me happy,44,80,20","Amy","Unpleasing palette. I see a figure but it seems incongrous to the highly abstract background.,-20,220,20","Lauren","This image doesn't invoke much in me.,0,340,20","Alexandria","it is very colorful and makes me happy,44,80,20","4"
"12105","","survey-text","74","526203","0.0-72.0-0.0","A337ZAE3L0QE4V","","","","{""Q0"":""Confusing but exciting. ""}","","","","","","","","","","","","","","","","","","","","","","",""
"4663.099999964237","","image-slider-response","75","530868","0.0-73.0","A337ZAE3L0QE4V","","","","","11","","","","","","","","","","","","","","","","","","","","","",""
"2654","","image-button-response","76","535870","0.0-74.0","A337ZAE3L0QE4V","img_art/19.jpg","0","","","","","","","","","","","","","","","","","","","","","","","","",""
"2180","","image-button-response","77","538051","0.0-75.0","A337ZAE3L0QE4V","img_art/19.jpg","1","","","","","","","","","","","","","","","","","","","","","","","","",""
"6535","","image-button-response","78","544587","0.0-76.0-0.0","A337ZAE3L0QE4V","img_art/19.jpg","4","","","","","","","","","","","","","","","","","","","","","","","","",""
"1030","","image-button-response","79","545619","0.0-77.0-0.0","A337ZAE3L0QE4V","img_art/19.jpg","0","","","","","","","","","","","","","","","","","","","","","","","","",""
"null","","html-keyboard-response","80","546121","0.0-78.0","A337ZAE3L0QE4V","<p style=""font-size: 48px;"">+</p>","","","","","null","allTrialResponses","500","1","5","img_art/19.jpg","11","Confusing but exciting. ","Amy,Jordan,Catherine,Lauren,Monica,Alexandria","Though provoking. Adventurous.,10,220,20","I like it, I see someone walking his dog in the early morning time,23,20,20","Higher power looking down at its creation with a half smile and some hurt.,45,160,20","The image doesn't really invoke any emotions strongly.,0,340,20","The shapes make me recall a city scene but it looks dirty,-22,360,20","it draws my eye and my mind fills in the spaces,14,80,20","Jordan","I like it, I see someone walking his dog in the early morning time,23,20,20","Monica","The shapes make me recall a city scene but it looks dirty,-22,360,20","Amy","Though provoking. Adventurous.,10,220,20","4"
"3748","","survey-text","81","549875","0.0-79.0-0.0","A337ZAE3L0QE4V","","","","{""Q0"":""sky""}","","","","","","","","","","","","","","","","","","","","","","",""
"17543","","survey-text","82","567419","0.0-80.0-0.0","A337ZAE3L0QE4V","","","","{""Q0"":""It just looks like scribbles... ""}","","","","","","","","","","","","","","","","","","","","","","",""
"5326.699999988079","","image-slider-response","83","572747","0.0-81.0","A337ZAE3L0QE4V","","","","","-40","","","","","","","","","","","","","","","","","","","","","",""
"4479","","image-button-response","84","577763","0.0-82.0","A337ZAE3L0QE4V","img_art/3.jpg","1","","","","","","","","","","","","","","","","","","","","","","","","",""
"2055","","image-button-response","85","579819","0.0-83.0","A337ZAE3L0QE4V","img_art/3.jpg","1","","","","","","","","","","","","","","","","","","","","","","","","",""
"4111","","image-button-response","86","583931","0.0-84.0-0.0","A337ZAE3L0QE4V","img_art/3.jpg","4","","","","","","","","","","","","","","","","","","","","","","","","",""
"1646","","image-button-response","87","585579","0.0-85.0-0.0","A337ZAE3L0QE4V","img_art/3.jpg","5","","","","","","","","","","","","","","","","","","","","","","","","",""
"null","","html-keyboard-response","88","586081","0.0-86.0","A337ZAE3L0QE4V","<p style=""font-size: 48px;"">+</p>","","","","","null","allTrialResponses","500","1","6","img_art/3.jpg","-40","It just looks like scribbles... ","Amy,Jordan,Victoria,Dominique,Monica,Courtney","i like the colors particulairly the contrast of foreground to background. Exciting and thoughtful.,10,220,20","i don't like this, just looks like scribbles,-50,20,20","makes me think of anger,-33,400,20","Iike this one it's a piece that I need to spend more time with to understand how i feel about it,20,400,20","It looks like random scribbles by a child and not appealing,-38,360,20","That just looks like a mess..,-18,280,20","Jordan","i don't like this, just looks like scribbles,-50,20,20","Monica","It looks like random scribbles by a child and not appealing,-38,360,20","Courtney","That just looks like a mess..,-18,280,20","4"
"29407","","survey-text","89","615491","0.0-87.0-0.0","A337ZAE3L0QE4V","","","","{""Q0"":""Interesting. Makes me think of kayaking on a lake.""}","","","","","","","","","","","","","","","","","","","","","","",""
"6150.699999988079","","image-slider-response","90","621644","0.0-88.0","A337ZAE3L0QE4V","","","","","1","","","","","","","","","","","","","","","","","","","","","",""
"null","","image-button-response","91","626650","0.0-89.0","A337ZAE3L0QE4V","img_art/9.jpg","null","","","","","","","","","","","","","","","","","","","","","","","","",""
"2217","","image-button-response","92","628868","0.0-90.0","A337ZAE3L0QE4V","img_art/9.jpg","1","","","","","","","","","","","","","","","","","","","","","","","","",""
"4493","","image-button-response","93","633364","0.0-91.0-0.0","A337ZAE3L0QE4V","img_art/9.jpg","2","","","","","","","","","","","","","","","","","","","","","","","","",""
"2374","","image-button-response","94","635740","0.0-92.0-0.0","A337ZAE3L0QE4V","img_art/9.jpg","3","","","","","","","","","","","","","","","","","","","","","","","","",""
"null","","html-keyboard-response","95","637241","0.0-93.0","A337ZAE3L0QE4V","<p style=""font-size: 48px;"">+</p>","","","","","null","allTrialResponses","1500","1","7","img_art/9.jpg","1","Interesting. Makes me think of kayaking on a lake.","Bailey,Jordan,Hannah,Kaylee,Monica,Courtney","Not very enticing. No real substance other than a lady laying down,-35,360,20","I just dont like it, no reaction from me at all,-50,20,20","Someone lying in bed?  Don't care for it.,-14,240,20","not my type of art,-33,200,20","I like the greens and blues around the sides and the person reclining in the center makes me feel relaxed,24,360,20","This is a picture of a scary mans head sideways.,-24,280,20","Jordan","I just dont like it, no reaction from me at all,-50,20,20","Hannah","Someone lying in bed?  Don't care for it.,-14,240,20","Kaylee","not my type of art,-33,200,20","4"
"19215","","survey-text","96","656460","0.0-94.0-0.0","A337ZAE3L0QE4V","","","","{""Q0"":""Brings out a strange amount of emotion for the simplicity. ""}","","","","","","","","","","","","","","","","","","","","","","",""
"6150.399999976158","","image-slider-response","97","662612","0.0-95.0","A337ZAE3L0QE4V","","","","","30","","","","","","","","","","","","","","","","","","","","","",""
"4287","","image-button-response","98","667621","0.0-96.0","A337ZAE3L0QE4V","img_art/6.jpg","0","","","","","","","","","","","","","","","","","","","","","","","","",""
"4486","","image-button-response","99","672109","0.0-97.0","A337ZAE3L0QE4V","img_art/6.jpg","0","","","","","","","","","","","","","","","","","","","","","","","","",""
"3093","","image-button-response","100","675204","0.0-98.0-0.0","A337ZAE3L0QE4V","img_art/6.jpg","1","","","","","","","","","","","","","","","","","","","","","","","","",""
"2143","","image-button-response","101","677348","0.0-99.0-0.0","A337ZAE3L0QE4V","img_art/6.jpg","3","","","","","","","","","","","","","","","","","","","","","","","","",""
"null","","html-keyboard-response","102","678350","0.0-100.0","A337ZAE3L0QE4V","<p style=""font-size: 48px;"">+</p>","","","","","null","allTrialResponses","1000","1","8","img_art/6.jpg","30","Brings out a strange amount of emotion for the simplicity. ","Angelica,Jordan,Hannah,Kaylee,Ashley,Lindsey","It feels sad but it's nice to look at.,4,280,20","This is interesting, I feel solitude, and loneliness from this.,13,20,20","Looks like a bird. It's fine.,7,240,20","just an another tree on a desert?,9,200,20","A lot of people will lvoe this, I do not.,1,320,20","Simple, warm, hopeful.,12,400,20","Angelica","It feels sad but it's nice to look at.,4,280,20","Jordan","This is interesting, I feel solitude, and loneliness from this.,13,20,20","Kaylee","just an another tree on a desert?,9,200,20","4"
"23995","","survey-text","103","702348","0.0-101.0-0.0","A337ZAE3L0QE4V","","","","{""Q0"":""I have no idea what this is... Not my type of art.""}","","","","","","","","","","","","","","","","","","","","","","",""
"3245.900000035763","","image-slider-response","104","705596","0.0-102.0","A337ZAE3L0QE4V","","","","","-24","","","","","","","","","","","","","","","","","","","","","",""
"2158","","image-button-response","105","710599","0.0-103.0","A337ZAE3L0QE4V","img_art/5.jpg","1","","","","","","","","","","","","","","","","","","","","","","","","",""
"2795","","image-button-response","106","713396","0.0-104.0","A337ZAE3L0QE4V","img_art/5.jpg","5","","","","","","","","","","","","","","","","","","","","","","","","",""
"1951","","image-button-response","107","715349","0.0-105.0-0.0","A337ZAE3L0QE4V","img_art/5.jpg","3","","","","","","","","","","","","","","","","","","","","","","","","",""
"1773","","image-button-response","108","717124","0.0-106.0-0.0","A337ZAE3L0QE4V","img_art/5.jpg","1","","","","","","","","","","","","","","","","","","","","","","","","",""
"null","","html-keyboard-response","109","718126","0.0-107.0","A337ZAE3L0QE4V","<p style=""font-size: 48px;"">+</p>","","","","","null","allTrialResponses","1000","1","9","img_art/5.jpg","-24","I have no idea what this is... Not my type of art.","Angelica,Jordan,Claire,Kaylee,Shelby,Kathryn","This is interesting and nice.,16,280,20","I dont really get anything from this,-25,20,20","I like the strokes and colors used,20,260,20","a volcano erruption,21,200,20","This feels joyful,39,240,20","I see a sign advising me to be cautious.,-20,140,20","Kathryn","I see a sign advising me to be cautious.,-20,140,20","Kaylee","a volcano erruption,21,200,20","Jordan","I dont really get anything from this,-25,20,20","4"
"9226","","survey-text","110","727356","0.0-108.0-0.0","A337ZAE3L0QE4V","","","","{""Q0"":""looks like a rocky ground.""}","","","","","","","","","","","","","","","","","","","","","","",""
"4078.600000023842","","image-slider-response","111","731436","0.0-109.0","A337ZAE3L0QE4V","","","","","1","","","","","","","","","","","","","","","","","","","","","",""
"null","","image-button-response","112","736439","0.0-110.0","A337ZAE3L0QE4V","img_art/7.jpg","null","","","","","","","","","","","","","","","","","","","","","","","","",""
"3061","","image-button-response","113","739500","0.0-111.0","A337ZAE3L0QE4V","img_art/7.jpg","1","","","","","","","","","","","","","","","","","","","","","","","","",""
"1022","","image-button-response","114","740524","0.0-112.0-0.0","A337ZAE3L0QE4V","img_art/7.jpg","3","","","","","","","","","","","","","","","","","","","","","","","","",""
"10030","","image-button-response","115","750556","0.0-113.0-0.0","A337ZAE3L0QE4V","img_art/7.jpg","0","","","","","","","","","","","","","","","","","","","","","","","","",""
"null","","html-keyboard-response","116","751067","0.0-114.0","A337ZAE3L0QE4V","<p style=""font-size: 48px;"">+</p>","","","","","null","allTrialResponses","500","1","10","img_art/7.jpg","1","looks like a rocky ground.","Alexis,Jordan,Abigail,Kaylee,Briana,Kathryn","Looks like bad wallpaper,-29,100,20","looks like the surface of the moon.,1,20,20","Looks like a skin disease,-31,20,20","some rocks on a mars?,7,200,20","Are these ancient cave paintings?,-7,400,20","It's off-putting because it reminds me of walking over rough sand/rocks or having scabs on my skin.,-10,140,20","Jordan","looks like the surface of the moon.,1,20,20","Kaylee","some rocks on a mars?,7,200,20","Alexis","Looks like bad wallpaper,-29,100,20","4"
"4628","","survey-text","117","755700","0.0-115.0-0.0","A337ZAE3L0QE4V","","","","{""Q0"":""our""}","","","","","","","","","","","","","","","","","","","","","","",""
"14942","","survey-text","118","770644","0.0-116.0-0.0","A337ZAE3L0QE4V","","","","{""Q0"":""Peaceful. Looks like city life. ""}","","","","","","","","","","","","","","","","","","","","","","",""
"4335","","image-slider-response","119","774980","0.0-117.0","A337ZAE3L0QE4V","","","","","31","","","","","","","","","","","","","","","","","","","","","",""
"4511","","image-button-response","120","779982","0.0-118.0","A337ZAE3L0QE4V","img_art/26.jpg","3","","","","","","","","","","","","","","","","","","","","","","","","",""
"1164","","image-button-response","121","781148","0.0-119.0","A337ZAE3L0QE4V","img_art/26.jpg","3","","","","","","","","","","","","","","","","","","","","","","","","",""
"622","","image-button-response","122","781771","0.0-120.0-0.0","A337ZAE3L0QE4V","img_art/26.jpg","4","","","","","","","","","","","","","","","","","","","","","","","","",""
"3727","","image-button-response","123","785499","0.0-121.0-0.0","A337ZAE3L0QE4V","img_art/26.jpg","1","","","","","","","","","","","","","","","","","","","","","","","","",""
"null","","html-keyboard-response","124","787001","0.0-122.0","A337ZAE3L0QE4V","<p style=""font-size: 48px;"">+</p>","","","","","null","allTrialResponses","1500","1","11","img_art/26.jpg","31","Peaceful. Looks like city life. ","Alexis,Jordan,Natalie,Kaylee,Rachel,Emily","Much too simple and without color for my taste,-33,100,20","This one is nicer, looks like a walk in a small, dreamy city,20,20,20","picture looks alright,1,400,20","cool cozy town vibes,50,200,20","Pretty trees and bushes around fancy brown stones. I like the soft nature.,20,80,20","Not much skil went into this one either.,-41,40,20","Kaylee","cool cozy town vibes,50,200,20","Rachel","Pretty trees and bushes around fancy brown stones. I like the soft nature.,20,80,20","Jordan","This one is nicer, looks like a walk in a small, dreamy city,20,20,20","4"
"16319","","survey-text","125","803323","0.0-123.0-0.0","A337ZAE3L0QE4V","","","","{""Q0"":""What on earth? Looks like a bit of a mess.""}","","","","","","","","","","","","","","","","","","","","","","",""
"3695","","image-slider-response","126","807019","0.0-124.0","A337ZAE3L0QE4V","","","","","-24","","","","","","","","","","","","","","","","","","","","","",""
"1903","","image-button-response","127","812022","0.0-125.0","A337ZAE3L0QE4V","img_art/2.jpg","3","","","","","","","","","","","","","","","","","","","","","","","","",""
"764","","image-button-response","128","812788","0.0-126.0","A337ZAE3L0QE4V","img_art/2.jpg","0","","","","","","","","","","","","","","","","","","","","","","","","",""
"1030","","image-button-response","129","813820","0.0-127.0-0.0","A337ZAE3L0QE4V","img_art/2.jpg","3","","","","","","","","","","","","","","","","","","","","","","","","",""
"9166","","image-button-response","130","822988","0.0-128.0-0.0","A337ZAE3L0QE4V","img_art/2.jpg","5","","","","","","","","","","","","","","","","","","","","","","","","",""
"null","","html-keyboard-response","131","824490","0.0-129.0","A337ZAE3L0QE4V","<p style=""font-size: 48px;"">+</p>","","","","","null","allTrialResponses","1500","1","12","img_art/2.jpg","-24","What on earth? Looks like a bit of a mess.","Kaitlyn,Jordan,Katelyn,Kaylee,Rachel,Morgan","Too jumbled and disorienting,-13,80,20","I can't get past the fact that it looks like someone wearing a mask,-46,20,20","Looks childish and i dont like the texture,-25,100,20","its ugly af to be honest,-50,200,20","I am not a fan of the color story. I am confused by the piece and therefore do not like it.,-21,80,20","Old, dull, messy.,-10,380,20","Kaitlyn","Too jumbled and disorienting,-13,80,20","Kaylee","its ugly af to be honest,-50,200,20","Morgan","Old, dull, messy.,-10,380,20","4"
"15557","","survey-text","132","840051","0.0-130.0-0.0","A337ZAE3L0QE4V","","","","{""Q0"":""This looks kinda ugly, honestly.""}","","","","","","","","","","","","","","","","","","","","","","",""
"4326.699999988079","","image-slider-response","133","844380","0.0-131.0","A337ZAE3L0QE4V","","","","","-50","","","","","","","","","","","","","","","","","","","","","",""
"3734","","image-button-response","134","849382","0.0-132.0","A337ZAE3L0QE4V","img_art/4.jpg","1","","","","","","","","","","","","","","","","","","","","","","","","",""
"5501","","image-button-response","135","854884","0.0-133.0","A337ZAE3L0QE4V","img_art/4.jpg","2","","","","","","","","","","","","","","","","","","","","","","","","",""
"6255","","image-button-response","136","861140","0.0-134.0-0.0","A337ZAE3L0QE4V","img_art/4.jpg","4","","","","","","","","","","","","","","","","","","","","","","","","",""
"879","","image-button-response","137","862020","0.0-135.0-0.0","A337ZAE3L0QE4V","img_art/4.jpg","1","","","","","","","","","","","","","","","","","","","","","","","","",""
"null","","html-keyboard-response","138","863022","0.0-136.0","A337ZAE3L0QE4V","<p style=""font-size: 48px;"">+</p>","","","","","null","allTrialResponses","1000","1","13","img_art/4.jpg","-50","This looks kinda ugly, honestly.","Kaitlyn,Rebecca,Madison,Kaylee,Mikayla,Morgan","I don't understand this at all,3,80,20","no sorry i can't really understand,-18,100,20","This is what makes suburban dads say, ""my 4-year-old can do that."",-49,60,20","just a scuffed hand,-15,200,20","Not very interesting to look at.,-34,300,20","Pretzel noodles.,7,380,20","Madison","This is what makes suburban dads say, ""my 4-year-old can do that."",-49,60,20","Mikayla","Not very interesting to look at.,-34,300,20","Rebecca","no sorry i can't really understand,-18,100,20","4"
"19442","","survey-text","139","882468","0.0-137.0-0.0","A337ZAE3L0QE4V","","","","{""Q0"":""Expressive... Intersting to look at.""}","","","","","","","","","","","","","","","","","","","","","","",""
"4118.599999964237","","image-slider-response","140","886588","0.0-138.0","A337ZAE3L0QE4V","","","","","23","","","","","","","","","","","","","","","","","","","","","",""
"2638","","image-button-response","141","891596","0.0-139.0","A337ZAE3L0QE4V","img_art/11.jpg","3","","","","","","","","","","","","","","","","","","","","","","","","",""
"831","","image-button-response","142","892428","0.0-140.0","A337ZAE3L0QE4V","img_art/11.jpg","0","","","","","","","","","","","","","","","","","","","","","","","","",""
"1022","","image-button-response","143","893452","0.0-141.0-0.0","A337ZAE3L0QE4V","img_art/11.jpg","3","","","","","","","","","","","","","","","","","","","","","","","","",""
"5278","","image-button-response","144","898732","0.0-142.0-0.0","A337ZAE3L0QE4V","img_art/11.jpg","2","","","","","","","","","","","","","","","","","","","","","","","","",""
"null","","html-keyboard-response","145","899234","0.0-143.0","A337ZAE3L0QE4V","<p style=""font-size: 48px;"">+</p>","","","","","null","allTrialResponses","500","1","14","img_art/11.jpg","23","Expressive... Intersting to look at.","Jenna,Rebecca,Madison,Amber,Mikayla,Jessica","makes me think of city highways & bridges on a rainy, foggy day. I like the melancholy it evokes.,43,360,20","to me, perfect reflection of the modern commute,32,100,20","Rainy day at an urban sea port. Portugal?,30,60,20","Look like it's in constant movement.,10,200,20","Scary again. Not a fan.,-23,300,20","This looks cool, and definitely comes to life in a way,36,400,20","Jenna","makes me think of city highways & bridges on a rainy, foggy day. I like the melancholy it evokes.,43,360,20","Amber","Look like it's in constant movement.,10,200,20","Madison","Rainy day at an urban sea port. Portugal?,30,60,20","4"
"11525","","survey-text","146","910763","0.0-144.0-0.0","A337ZAE3L0QE4V","","","","{""Q0"":""Pretty and a little scary. ""}","","","","","","","","","","","","","","","","","","","","","","",""
"2983","","image-slider-response","147","913748","0.0-145.0","A337ZAE3L0QE4V","","","","","4","","","","","","","","","","","","","","","","","","","","","",""
"2110","","image-button-response","148","918751","0.0-146.0","A337ZAE3L0QE4V","img_art/8.jpg","3","","","","","","","","","","","","","","","","","","","","","","","","",""
"2131","","image-button-response","149","920883","0.0-147.0","A337ZAE3L0QE4V","img_art/8.jpg","3","","","","","","","","","","","","","","","","","","","","","","","","",""
"2295","","image-button-response","150","923180","0.0-148.0-0.0","A337ZAE3L0QE4V","img_art/8.jpg","1","","","","","","","","","","","","","","","","","","","","","","","","",""
"1486","","image-button-response","151","924668","0.0-149.0-0.0","A337ZAE3L0QE4V","img_art/8.jpg","2","","","","","","","","","","","","","","","","","","","","","","","","",""
"null","","html-keyboard-response","152","925169","0.0-150.0","A337ZAE3L0QE4V","<p style=""font-size: 48px;"">+</p>","","","","","null","allTrialResponses","500","1","15","img_art/8.jpg","4","Pretty and a little scary. ","Jenna,Samantha,Madison,Amber,Danielle,Mariah","beautiful colors & details. love the surrealism & strange angle. the faces are interesting.,50,360,20","The face bothers me,-25,140,20","The composition is striking, and some of the images are quite dramatic,11,60,20","Very colorful. Looks like the hustle and bustle of a city.,11,200,20","Enjoy this, it looks like a rushing water pool, surrounded by mountains and buildings, hiding details such as faces.,30,340,20","Clean and stark. The colors are pleasant.,15,140,20","Amber","Very colorful. Looks like the hustle and bustle of a city.,11,200,20","Samantha","The face bothers me,-25,140,20","Madison","The composition is striking, and some of the images are quite dramatic,11,60,20","4"
"4179","","survey-text","153","929355","0.0-151.0-0.0","A337ZAE3L0QE4V","","","","{""Q0"":""course""}","","","","","","","","","","","","","","","","","","","","","","",""
"12503","","survey-text","154","941859","0.0-152.0-0.0","A337ZAE3L0QE4V","","","","{""Q0"":""Unattractive to me. ""}","","","","","","","","","","","","","","","","","","","","","","",""
"4782.5","","image-slider-response","155","946643","0.0-153.0","A337ZAE3L0QE4V","","","","","-25","","","","","","","","","","","","","","","","","","","","","",""
"1599","","image-button-response","156","951646","0.0-154.0","A337ZAE3L0QE4V","img_art/15.jpg","0","","","","","","","","","","","","","","","","","","","","","","","","",""
"6283","","image-button-response","157","957932","0.0-155.0","A337ZAE3L0QE4V","img_art/15.jpg","5","","","","","","","","","","","","","","","","","","","","","","","","",""
"1158","","image-button-response","158","959091","0.0-156.0-0.0","A337ZAE3L0QE4V","img_art/15.jpg","0","","","","","","","","","","","","","","","","","","","","","","","","",""
"1543","","image-button-response","159","960635","0.0-157.0-0.0","A337ZAE3L0QE4V","img_art/15.jpg","4","","","","","","","","","","","","","","","","","","","","","","","","",""
"null","","html-keyboard-response","160","962137","0.0-158.0","A337ZAE3L0QE4V","<p style=""font-size: 48px;"">+</p>","","","","","null","allTrialResponses","1500","1","16","img_art/15.jpg","-25","Unattractive to me. ","Katie,Samantha,Madison,Amber,Leslie,Stephanie","Too much black. I see weeds or dead/dying flowers.,-40,160,20","Not interesting enough. Boring,-37,140,20","I am starting to feel description fatigue. This would be pleasant enough in a doctor's office waiting room.,15,60,20","Reminds me of blueberry bushes.,7,200,20","This elicits no reaction in me.,0,380,20","This piece is too dark,-42,300,20","Stephanie","This piece is too dark,-42,300,20","Katie","Too much black. I see weeds or dead/dying flowers.,-40,160,20","Leslie","This elicits no reaction in me.,0,380,20","4"
"7718","","survey-text","161","969859","0.0-159.0-0.0","A337ZAE3L0QE4V","","","","{""Q0"":""Pretty and simple.""}","","","","","","","","","","","","","","","","","","","","","","",""
"2398.899999976158","","image-slider-response","162","972260","0.0-160.0","A337ZAE3L0QE4V","","","","","9","","","","","","","","","","","","","","","","","","","","","",""
"2030","","image-button-response","163","977262","0.0-161.0","A337ZAE3L0QE4V","img_art/14.jpg","0","","","","","","","","","","","","","","","","","","","","","","","","",""
"620","","image-button-response","164","977884","0.0-162.0","A337ZAE3L0QE4V","img_art/14.jpg","1","","","","","","","","","","","","","","","","","","","","","","","","",""
"1143","","image-button-response","165","979028","0.0-163.0-0.0","A337ZAE3L0QE4V","img_art/14.jpg","0","","","","","","","","","","","","","","","","","","","","","","","","",""
"4646","","image-button-response","166","983676","0.0-164.0-0.0","A337ZAE3L0QE4V","img_art/14.jpg","5","","","","","","","","","","","","","","","","","","","","","","","","",""
"null","","html-keyboard-response","167","985178","0.0-165.0","A337ZAE3L0QE4V","<p style=""font-size: 48px;"">+</p>","","","","","null","allTrialResponses","1500","1","17","img_art/14.jpg","9","Pretty and simple.","Katie,Sara,Mary,Brittany,Leslie,Stephanie","It represents growth. I see a plant/tree growing out of the ground. I like the rainbow of color in the painting.,31,160,20","It uplifts my mood due to the color scheme,32,160,20","I like the layers of color in this piece. The circles and lines are interesting.,29,180,20","The colors are good and the design is intriguing.,15,40,20","This elicits no reaction in me.,0,380,20","Late Winter when things are just starting to bloom.,21,300,20","Sara","It uplifts my mood due to the color scheme,32,160,20","Katie","It represents growth. I see a plant/tree growing out of the ground. I like the rainbow of color in the painting.,31,160,20","Stephanie","Late Winter when things are just starting to bloom.,21,300,20","4"
"12662","","survey-text","168","997843","0.0-166.0-0.0","A337ZAE3L0QE4V","","","","{""Q0"":""looks a bit like water.""}","","","","","","","","","","","","","","","","","","","","","","",""
"3774.900000035763","","image-slider-response","169","1001620","0.0-167.0","A337ZAE3L0QE4V","","","","","-10","","","","","","","","","","","","","","","","","","","","","",""
"4647","","image-button-response","170","1006631","0.0-168.0","A337ZAE3L0QE4V","img_art/13.jpg","2","","","","","","","","","","","","","","","","","","","","","","","","",""
"1147","","image-button-response","171","1007780","0.0-169.0","A337ZAE3L0QE4V","img_art/13.jpg","2","","","","","","","","","","","","","","","","","","","","","","","","",""
"6127","","image-button-response","172","1013908","0.0-170.0-0.0","A337ZAE3L0QE4V","img_art/13.jpg","0","","","","","","","","","","","","","","","","","","","","","","","","",""
"3821","","image-button-response","173","1017732","0.0-171.0-0.0","A337ZAE3L0QE4V","img_art/13.jpg","5","","","","","","","","","","","","","","","","","","","","","","","","",""
"null","","html-keyboard-response","174","1019233","0.0-172.0","A337ZAE3L0QE4V","<p style=""font-size: 48px;"">+</p>","","","","","null","allTrialResponses","1500","1","18","img_art/13.jpg","-10","looks a bit like water.","Katie,Sara,Sierra,Sarah,Christina,Stephanie","Cool and calming colors. I like splatter art.,10,160,20","I love the different blue shades,31,160,20","the blues are soothing but the splatters are too much,-3,260,20","this is an appealing mix of textures to me and the color scheme is harmonious,36,180,20","i like the colors but it looks like something that would hang in a hotel,18,240,20","Raindrops splashing on the window.,50,300,20","Sierra","the blues are soothing but the splatters are too much,-3,260,20","Katie","Cool and calming colors. I like splatter art.,10,160,20","Stephanie","Raindrops splashing on the window.,50,300,20","4"
"18472","","survey-text","175","1037709","0.0-173.0-0.0","A337ZAE3L0QE4V","","","","{""Q0"":""Looks like a creepy man with an upside down face.""}","","","","","","","","","","","","","","","","","","","","","","",""
"3517.5","","image-slider-response","176","1041229","0.0-174.0","A337ZAE3L0QE4V","","","","","-15","","","","","","","","","","","","","","","","","","","","","",""
"3189","","image-button-response","177","1046232","0.0-175.0","A337ZAE3L0QE4V","img_art/28.jpg","0","","","","","","","","","","","","","","","","","","","","","","","","",""
"763","","image-button-response","178","1046996","0.0-176.0","A337ZAE3L0QE4V","img_art/28.jpg","0","","","","","","","","","","","","","","","","","","","","","","","","",""
"2719","","image-button-response","179","1049716","0.0-177.0-0.0","A337ZAE3L0QE4V","img_art/28.jpg","4","","","","","","","","","","","","","","","","","","","","","","","","",""
"4423","","image-button-response","180","1054140","0.0-178.0-0.0","A337ZAE3L0QE4V","img_art/28.jpg","3","","","","","","","","","","","","","","","","","","","","","","","","",""
"null","","html-keyboard-response","181","1055142","0.0-179.0","A337ZAE3L0QE4V","<p style=""font-size: 48px;"">+</p>","","","","","null","allTrialResponses","1000","1","19","img_art/28.jpg","-15","Looks like a creepy man with an upside down face.","Katie,Jennifer,Sierra,Andrea,Alicia,Stephanie","Like the muted pink colors. However, the mood is sad because of the blurriness,22,160,20","This picture doesn't really stand out to me,1,380,20","i like the colors and the shapes look like people,20,260,20","It reminds me of the cantina in Star Wars.,37,240,20","bland busy ugly,-31,120,20","The colors are neutral but I see a mother helping her child,31,300,20","Katie","Like the muted pink colors. However, the mood is sad because of the blurriness,22,160,20","Alicia","bland busy ugly,-31,120,20","Andrea","It reminds me of the cantina in Star Wars.,37,240,20","4"
"9851","","survey-text","182","1064996","0.0-180.0-0.0","A337ZAE3L0QE4V","","","","{""Q0"":""Blocky, maybe a bit retro.""}","","","","","","","","","","","","","","","","","","","","","","",""
"3286.5","","image-slider-response","183","1068284","0.0-181.0","A337ZAE3L0QE4V","","","","","-36","","","","","","","","","","","","","","","","","","","","","",""
"null","","image-button-response","184","1073286","0.0-182.0","A337ZAE3L0QE4V","img_art/12.jpg","null","","","","","","","","","","","","","","","","","","","","","","","","",""
"1813","","image-button-response","185","1075101","0.0-183.0","A337ZAE3L0QE4V","img_art/12.jpg","2","","","","","","","","","","","","","","","","","","","","","","","","",""
"2927","","image-button-response","186","1078029","0.0-184.0-0.0","A337ZAE3L0QE4V","img_art/12.jpg","4","","","","","","","","","","","","","","","","","","","","","","","","",""
"3485","","image-button-response","187","1081516","0.0-185.0-0.0","A337ZAE3L0QE4V","img_art/12.jpg","5","","","","","","","","","","","","","","","","","","","","","","","","",""
"null","","html-keyboard-response","188","1082020","0.0-186.0","A337ZAE3L0QE4V","<p style=""font-size: 48px;"">+</p>","","","","","null","allTrialResponses","500","1","20","img_art/12.jpg","-36","Blocky, maybe a bit retro.","Katie,Heather,Tiffany,Andrea,Alicia,Michelle","Squares are rigid. I'm ambivalent.,1,160,20","beautiful also reminds me of a quilt,1,260,20","The painting makes me uncomfortable. The smears in the boxes feel like a giant mess.,-16,360,20","It just feels like a jigsaw puzzle,-4,240,20","it's ok, but blocky, looks old.,3,120,20","eww hate everything about this, looks like it belongs in a dentist's office,-14,280,20","Tiffany","The painting makes me uncomfortable. The smears in the boxes feel like a giant mess.,-16,360,20","Alicia","it's ok, but blocky, looks old.,3,120,20","Michelle","eww hate everything about this, looks like it belongs in a dentist's office,-14,280,20","4"
"2354","","survey-text","189","1084380","0.0-187.0-0.0","A337ZAE3L0QE4V","","","","{""Q0"":""we""}","","","","","","","","","","","","","","","","","","","","","","",""
"16039","","survey-text","190","1100420","0.0-188.0-0.0","A337ZAE3L0QE4V","","","","{""Q0"":""Not sure what it is, but amazing, anyway. ""}","","","","","","","","","","","","","","","","","","","","","","",""
"4094.699999988079","","image-slider-response","191","1104516","0.0-189.0","A337ZAE3L0QE4V","","","","","24","","","","","","","","","","","","","","","","","","","","","",""
"null","","image-button-response","192","1109530","0.0-190.0","A337ZAE3L0QE4V","img_art/18.jpg","null","","","","","","","","","","","","","","","","","","","","","","","","",""
"11417","","image-button-response","193","1120949","0.0-191.0","A337ZAE3L0QE4V","img_art/18.jpg","0","","","","","","","","","","","","","","","","","","","","","","","","",""
"5510","","image-button-response","194","1126460","0.0-192.0-0.0","A337ZAE3L0QE4V","img_art/18.jpg","2","","","","","","","","","","","","","","","","","","","","","","","","",""
"1087","","image-button-response","195","1127549","0.0-193.0-0.0","A337ZAE3L0QE4V","img_art/18.jpg","1","","","","","","","","","","","","","","","","","","","","","","","","",""
"null","","html-keyboard-response","196","1129050","0.0-194.0","A337ZAE3L0QE4V","<p style=""font-size: 48px;"">+</p>","","","","","null","allTrialResponses","1500","1","21","img_art/18.jpg","24","Not sure what it is, but amazing, anyway. ","Katherine,Olivia,Tiffany,Alexandra,Alicia,Michelle","Ok this is really badass. Like a warrior come to the last battle,50,120,20","death rides in life,-25,40,20","I'm mildly disgusted by the colors, and can't piece together the story the figures are trying to tell.,-10,360,20","Ugly, too much is going on,-40,60,20","Skeletons, death, bleak colors, still kinda like it.,16,120,20","The small lines elicit a very nauseating response for some reason, too Dali like for me,-19,280,20","Katherine","Ok this is really badass. Like a warrior come to the last battle,50,120,20","Tiffany","I'm mildly disgusted by the colors, and can't piece together the story the figures are trying to tell.,-10,360,20","Olivia","death rides in life,-25,40,20","4"
"13526","","survey-text","197","1142580","0.0-195.0-0.0","A337ZAE3L0QE4V","","","","{""Q0"":""This just makes me feel uncomfortable. ""}","","","","","","","","","","","","","","","","","","","","","","",""
"2598.399999976158","","image-slider-response","198","1145180","0.0-196.0","A337ZAE3L0QE4V","","","","","-50","","","","","","","","","","","","","","","","","","","","","",""
"null","","image-button-response","199","1150194","0.0-197.0","A337ZAE3L0QE4V","img_art/25.jpg","null","","","","","","","","","","","","","","","","","","","","","","","","",""
"5321","","image-button-response","200","1155516","0.0-198.0","A337ZAE3L0QE4V","img_art/25.jpg","4","","","","","","","","","","","","","","","","","","","","","","","","",""
"1159","","image-button-response","201","1156676","0.0-199.0-0.0","A337ZAE3L0QE4V","img_art/25.jpg","5","","","","","","","","","","","","","","","","","","","","","","","","",""
"2710","","image-button-response","202","1159389","0.0-200.0-0.0","A337ZAE3L0QE4V","img_art/25.jpg","3","","","","","","","","","","","","","","","","","","","","","","","","",""
"null","","html-keyboard-response","203","1159890","0.0-201.0","A337ZAE3L0QE4V","<p style=""font-size: 48px;"">+</p>","","","","","null","allTrialResponses","500","1","22","img_art/25.jpg","-50","This just makes me feel uncomfortable. ","Katherine,Olivia,Tiffany,Taylor,Nicole,Vanessa","That's pretty awesome. I love the green and black combo, reminds me of one of those cartoon creepy movies,47,120,20","reminds me of burning man,18,40,20","I feel little to no emotion looking at this painting.,0,360,20","It makes me feel a little uneasy, but I like the painting,11,340,20","This painting is cool but it gives off an evil vibe,-10,20,20","I don't like the color. I don't like the abstract-ness of it.,-22,380,20","Nicole","This painting is cool but it gives off an evil vibe,-10,20,20","Vanessa","I don't like the color. I don't like the abstract-ness of it.,-22,380,20","Taylor","It makes me feel a little uneasy, but I like the painting,11,340,20","4"
"16134","","survey-text","204","1176029","0.0-202.0-0.0","A337ZAE3L0QE4V","","","","{""Q0"":""Looks like a toddler drew over it with green marker.""}","","","","","","","","","","","","","","","","","","","","","","",""
"4799","","image-slider-response","205","1180829","0.0-203.0","A337ZAE3L0QE4V","","","","","-2","","","","","","","","","","","","","","","","","","","","","",""
"3542","","image-button-response","206","1185831","0.0-204.0","A337ZAE3L0QE4V","img_art/27.jpg","1","","","","","","","","","","","","","","","","","","","","","","","","",""
"1644","","image-button-response","207","1187476","0.0-205.0","A337ZAE3L0QE4V","img_art/27.jpg","1","","","","","","","","","","","","","","","","","","","","","","","","",""
"3495","","image-button-response","208","1190972","0.0-206.0-0.0","A337ZAE3L0QE4V","img_art/27.jpg","2","","","","","","","","","","","","","","","","","","","","","","","","",""
"7983","","image-button-response","209","1198956","0.0-207.0-0.0","A337ZAE3L0QE4V","img_art/27.jpg","5","","","","","","","","","","","","","","","","","","","","","","","","",""
"null","","html-keyboard-response","210","1200458","0.0-208.0","A337ZAE3L0QE4V","<p style=""font-size: 48px;"">+</p>","","","","","null","allTrialResponses","1500","1","23","img_art/27.jpg","-2","Looks like a toddler drew over it with green marker.","Erika,Michaela,Kylie,Taylor,Nicole,Vanessa","Nice color, but too vague,-12,100,20","It looks like a kid colored a picture and an adult added to it,19,260,20","Soothing in the middle of some confusion,40,300,20","Reminds me of a town on fire,-15,340,20","Very cool colors and I like the contrast of lights and darks,30,20,20","Colors make me think of fall, but I don't like how the picture was done or the weird lines across the background,6,380,20","Michaela","It looks like a kid colored a picture and an adult added to it,19,260,20","Kylie","Soothing in the middle of some confusion,40,300,20","Vanessa","Colors make me think of fall, but I don't like how the picture was done or the weird lines across the background,6,380,20","4"
"18319","","survey-text","211","1218781","0.0-209.0-0.0","A337ZAE3L0QE4V","","","","{""Q0"":""Really weird. I don't like this one.""}","","","","","","","","","","","","","","","","","","","","","","",""
"4917.700000047684","","image-slider-response","212","1223700","0.0-210.0","A337ZAE3L0QE4V","","","","","-23","","","","","","","","","","","","","","","","","","","","","",""
"null","","image-button-response","213","1228702","0.0-211.0","A337ZAE3L0QE4V","img_art/16.jpg","null","","","","","","","","","","","","","","","","","","","","","","","","",""
"3037","","image-button-response","214","1231741","0.0-212.0","A337ZAE3L0QE4V","img_art/16.jpg","4","","","","","","","","","","","","","","","","","","","","","","","","",""
"1054","","image-button-response","215","1232796","0.0-213.0-0.0","A337ZAE3L0QE4V","img_art/16.jpg","5","","","","","","","","","","","","","","","","","","","","","","","","",""
"2910","","image-button-response","216","1235709","0.0-214.0-0.0","A337ZAE3L0QE4V","img_art/16.jpg","1","","","","","","","","","","","","","","","","","","","","","","","","",""
"null","","html-keyboard-response","217","1236711","0.0-215.0","A337ZAE3L0QE4V","<p style=""font-size: 48px;"">+</p>","","","","","null","allTrialResponses","1000","1","24","img_art/16.jpg","-23","Really weird. I don't like this one.","Leah,Michaela,Kylie,Julia,Isabella,Vanessa","Know it is a piece relating to children and gun violence. Sad,-30,360,20","It feels lazily done,-9,260,20","Mixed feelings. Warm and comfy yet somewhat violent. A stark contrast,0,300,20","I love the teddy bear,50,40,20","This looks chaotic,-25,280,20","This is too bizarre.,-39,380,20","Isabella","This looks chaotic,-25,280,20","Vanessa","This is too bizarre.,-39,380,20","Michaela","It feels lazily done,-9,260,20","4"
"12865","","survey-text","218","1249580","0.0-216.0-0.0","A337ZAE3L0QE4V","","","","{""Q0"":""Beautiful and emotional.""}","","","","","","","","","","","","","","","","","","","","","","",""
"3150.5","","image-slider-response","219","1252732","0.0-217.0","A337ZAE3L0QE4V","","","","","33","","","","","","","","","","","","","","","","","","","","","",""
"1983","","image-button-response","220","1257734","0.0-218.0","A337ZAE3L0QE4V","img_art/21.jpg","0","","","","","","","","","","","","","","","","","","","","","","","","",""
"5525","","image-button-response","221","1263261","0.0-219.0","A337ZAE3L0QE4V","img_art/21.jpg","5","","","","","","","","","","","","","","","","","","","","","","","","",""
"910","","image-button-response","222","1264173","0.0-220.0-0.0","A337ZAE3L0QE4V","img_art/21.jpg","2","","","","","","","","","","","","","","","","","","","","","","","","",""
"518","","image-button-response","223","1264693","0.0-221.0-0.0","A337ZAE3L0QE4V","img_art/21.jpg","0","","","","","","","","","","","","","","","","","","","","","","","","",""
"null","","html-keyboard-response","224","1265694","0.0-222.0","A337ZAE3L0QE4V","<p style=""font-size: 48px;"">+</p>","","","","","null","allTrialResponses","1000","1","25","img_art/21.jpg","33","Beautiful and emotional.","Megan,Michaela,Shannon,Cheyenne,Isabella,Vanessa","Nice asymmetry with maritime colors city meets the sea,34,200,20","I love how vague it is but how you can imagine a story anyway, like clouds,45,260,20","I like the sky a little bit the way the colors look for the sky, the cliff side looks a little weird though.,10,220,20","Don't see anything special about it,-21,200,20","It reminds me of war, red blood and dark blue reminds me of an army,-20,280,20","The colors and softness work together to make something that's lovely.,42,380,20","Vanessa","The colors and softness work together to make something that's lovely.,42,380,20","Shannon","I like the sky a little bit the way the colors look for the sky, the cliff side looks a little weird though.,10,220,20","Megan","Nice asymmetry with maritime colors city meets the sea,34,200,20","4"
"5590","","survey-text","225","1271293","0.0-223.0-0.0","A337ZAE3L0QE4V","","","","{""Q0"":""table""}","","","","","","","","","","","","","","","","","","","","","","",""
"8190","","survey-text","226","1279485","0.0-224.0-0.0","A337ZAE3L0QE4V","","","","{""Q0"":""ugly and boring. ""}","","","","","","","","","","","","","","","","","","","","","","",""
"2478.600000023842","","image-slider-response","227","1281964","0.0-225.0","A337ZAE3L0QE4V","","","","","-24","","","","","","","","","","","","","","","","","","","","","",""
"null","","image-button-response","228","1286967","0.0-226.0","A337ZAE3L0QE4V","img_art/22.jpg","null","","","","","","","","","","","","","","","","","","","","","","","","",""
"947","","image-button-response","229","1287917","0.0-227.0","A337ZAE3L0QE4V","img_art/22.jpg","1","","","","","","","","","","","","","","","","","","","","","","","","",""
"3903","","image-button-response","230","1291821","0.0-228.0-0.0","A337ZAE3L0QE4V","img_art/22.jpg","3","","","","","","","","","","","","","","","","","","","","","","","","",""
"3414","","image-button-response","231","1295237","0.0-229.0-0.0","A337ZAE3L0QE4V","img_art/22.jpg","5","","","","","","","","","","","","","","","","","","","","","","","","",""
"null","","html-keyboard-response","232","1296738","0.0-230.0","A337ZAE3L0QE4V","<p style=""font-size: 48px;"">+</p>","","","","","null","allTrialResponses","1500","1","26","img_art/22.jpg","-24","ugly and boring. ","Megan,Allison,Shannon,Chelsea,Savannah,Vanessa","Organic sun spot on a flexible grid,18,200,20","Very generic mix of primary colors and shapes. Not a huge fan.,-10,140,20","I think this picture looks interesting because of the way the colors work together.,20,220,20","The colors clash, and I don't know what is happening.,-23,180,20","Seems too simple.,-19,200,20","I don't like the colors or the way they've been arranged.,-20,380,20","Allison","Very generic mix of primary colors and shapes. Not a huge fan.,-10,140,20","Chelsea","The colors clash, and I don't know what is happening.,-23,180,20","Vanessa","I don't like the colors or the way they've been arranged.,-20,380,20","4"
"8938","","survey-text","233","1305685","0.0-231.0-0.0","A337ZAE3L0QE4V","","","","{""Q0"":""Confusing and messy. ""}","","","","","","","","","","","","","","","","","","","","","","",""
"2718.800000011921","","image-slider-response","234","1308405","0.0-232.0","A337ZAE3L0QE4V","","","","","-38","","","","","","","","","","","","","","","","","","","","","",""
"4198","","image-button-response","235","1313406","0.0-233.0","A337ZAE3L0QE4V","img_art/29.jpg","1","","","","","","","","","","","","","","","","","","","","","","","","",""
"462","","image-button-response","236","1313869","0.0-234.0","A337ZAE3L0QE4V","img_art/29.jpg","1","","","","","","","","","","","","","","","","","","","","","","","","",""
"822","","image-button-response","237","1314693","0.0-235.0-0.0","A337ZAE3L0QE4V","img_art/29.jpg","2","","","","","","","","","","","","","","","","","","","","","","","","",""
"1558","","image-button-response","238","1316253","0.0-236.0-0.0","A337ZAE3L0QE4V","img_art/29.jpg","2","","","","","","","","","","","","","","","","","","","","","","","","",""
"774","","image-button-response","239","1325636","0.0-236.1-0.1","A337ZAE3L0QE4V","img_art/29.jpg","4","","","","","","","","","","","","","","","","","","","","","","","","",""
"null","","html-keyboard-response","240","1326639","0.0-237.0","A337ZAE3L0QE4V","<p style=""font-size: 48px;"">+</p>","","","","","null","allTrialResponses","1000","1","27","img_art/29.jpg","-38","Confusing and messy. ","Kaitlin,Allison,Jasmine,Chelsea,Margaret,Vanessa","seems fun, looks like a battle zone,22,60,20","Flash is too strong. Dislike the colors,-5,140,20","I like the usage of blacks and greys in this,8,340,20","It is intriguing but I don't like the red X.,6,180,20","this does nothing for me. hate the colors. hate the design,-50,100,20","I hate the red x over everything, hate the black hate how hopeless this is.,-50,380,20","Allison","Flash is too strong. Dislike the colors,-5,140,20","Jasmine","I like the usage of blacks and greys in this,8,340,20","Margaret","this does nothing for me. hate the colors. hate the design,-50,100,20","6"
"189642","","survey-text","241","1516284","0.0-238.0-0.0","A337ZAE3L0QE4V","","","","{""Q0"":""Looks like an abstract tree.""}","","","","","","","","","","","","","","","","","","","","","","",""
"4166.399999976158","","image-slider-response","242","1520452","0.0-239.0","A337ZAE3L0QE4V","","","","","1","","","","","","","","","","","","","","","","","","","","","",""
"2119","","image-button-response","243","1525454","0.0-240.0","A337ZAE3L0QE4V","img_art/17.jpg","0","","","","","","","","","","","","","","","","","","","","","","","","",""
"501","","image-button-response","244","1525956","0.0-241.0","A337ZAE3L0QE4V","img_art/17.jpg","2","","","","","","","","","","","","","","","","","","","","","","","","",""
"1198","","image-button-response","245","1527156","0.0-242.0-0.0","A337ZAE3L0QE4V","img_art/17.jpg","3","","","","","","","","","","","","","","","","","","","","","","","","",""
"1143","","image-button-response","246","1528301","0.0-243.0-0.0","A337ZAE3L0QE4V","img_art/17.jpg","0","","","","","","","","","","","","","","","","","","","","","","","","",""
"null","","html-keyboard-response","247","1529302","0.0-244.0","A337ZAE3L0QE4V","<p style=""font-size: 48px;"">+</p>","","","","","null","allTrialResponses","1000","1","28","img_art/17.jpg","1","Looks like an abstract tree.","Caroline,Allison,Jasmine,Hailey,Margaret,Laura","Beautiful colors. Made me feel soft and feminine,50,100,20","Very washed out.,-10,140,20","I like the use of color in this and how you can actually see shapes form. Seems thoughtful,22,340,20","soft and warm light colors are relaxing,12,200,20","gentle watercolor vibes,12,100,20","home - reminds me of fond memories of the Barnes Museum courtyard (looks just like it),30,320,20","Jasmine","I like the use of color in this and how you can actually see shapes form. Seems thoughtful,22,340,20","Hailey","soft and warm light colors are relaxing,12,200,20","Caroline","Beautiful colors. Made me feel soft and feminine,50,100,20","6"
"14065","","survey-text","248","1543372","0.0-245.0-0.0","A337ZAE3L0QE4V","","","","{""Q0"":""Ugly and looks a little lazy.""}","","","","","","","","","","","","","","","","","","","","","","",""
"4838.600000023842","","image-slider-response","249","1548212","0.0-246.0","A337ZAE3L0QE4V","","","","","-26","","","","","","","","","","","","","","","","","","","","","",""
"null","","image-button-response","250","1553214","0.0-247.0","A337ZAE3L0QE4V","img_art/30.jpg","null","","","","","","","","","","","","","","","","","","","","","","","","",""
"205","","image-button-response","251","1553421","0.0-248.0","A337ZAE3L0QE4V","img_art/30.jpg","3","","","","","","","","","","","","","","","","","","","","","","","","",""
"3663","","image-button-response","252","1557084","0.0-249.0-0.0","A337ZAE3L0QE4V","img_art/30.jpg","2","","","","","","","","","","","","","","","","","","","","","","","","",""
"623","","image-button-response","253","1557709","0.0-250.0-0.0","A337ZAE3L0QE4V","img_art/30.jpg","0","","","","","","","","","","","","","","","","","","","","","","","","",""
"null","","html-keyboard-response","254","1559211","0.0-251.0","A337ZAE3L0QE4V","<p style=""font-size: 48px;"">+</p>","","","","","null","allTrialResponses","1500","1","29","img_art/30.jpg","-26","Ugly and looks a little lazy.","Caroline,Emma,Jasmine,Hailey,Elizabeth,Erica","Fear. It looks like snakes in the picture,13,100,20","Like the design, not a big fan of the colors,20,60,20","Pretty neutral about this one,0,340,20","snakes in the grass, I don't like it,-17,200,20","Love the bold brush strokes and the illusion it creates,50,20,20","calming and relaxing,14,80,20","Hailey","snakes in the grass, I don't like it,-17,200,20","Jasmine","Pretty neutral about this one,0,340,20","Caroline","Fear. It looks like snakes in the picture,13,100,20","6"
"9221","","survey-text","255","1568437","0.0-252.0-0.0","A337ZAE3L0QE4V","","","","{""Q0"":""Looks like a mess of buttons.""}","","","","","","","","","","","","","","","","","","","","","","",""
"3106.400000035763","","image-slider-response","256","1571549","0.0-253.0","A337ZAE3L0QE4V","","","","","-39","","","","","","","","","","","","","","","","","","","","","",""
"null","","image-button-response","257","1576550","0.0-254.0","A337ZAE3L0QE4V","img_art/23.jpg","null","","","","","","","","","","","","","","","","","","","","","","","","",""
"293","","image-button-response","258","1576845","0.0-255.0","A337ZAE3L0QE4V","img_art/23.jpg","4","","","","","","","","","","","","","","","","","","","","","","","","",""
"1982","","image-button-response","259","1578829","0.0-256.0-0.0","A337ZAE3L0QE4V","img_art/23.jpg","3","","","","","","","","","","","","","","","","","","","","","","","","",""
"4430","","image-button-response","260","1583261","0.0-257.0-0.0","A337ZAE3L0QE4V","img_art/23.jpg","2","","","","","","","","","","","","","","","","","","","","","","","","",""
"null","","html-keyboard-response","261","1583763","0.0-258.0","A337ZAE3L0QE4V","<p style=""font-size: 48px;"">+</p>","","","","","null","allTrialResponses","500","1","30","img_art/23.jpg","-39","Looks like a mess of buttons.","Caroline,Brooke,Jasmine,Hailey,Angela,Gabriela","Like the colors and made me feel happy,23,100,20","looks like those paper chain things.,0,60,20","Mostly neutral but a bit too guady with the brash colors,-6,340,20","cold and dark feeling,-27,200,20","Like the background colors and the energy, but the white bits ruin it for me,-7,260,20","It looks like a parade of musicians full of excitement. Makes me feel upbeat,33,140,20","Angela","Like the background colors and the energy, but the white bits ruin it for me,-7,260,20","Hailey","cold and dark feeling,-27,200,20","Jasmine","Mostly neutral but a bit too guady with the brash colors,-6,340,20","6"
"5709","","image-button-response_instructions","262","1589477","0.0-259.0","A337ZAE3L0QE4V","","0","instructions","","","","","","","","","","","","","","","","","","","","","","","",""
"1202","","image-button-response","263","1590685","0.0-260.0","A337ZAE3L0QE4V","","0","","","","","","","","","","","","","","","","","","","","","","","","",""
