"rt","url","trial_type","trial_index","time_elapsed","internal_node_id","participant_id","stimulus","button_pressed","Name","responses","response","key_press","variableName","fixationTime","condition","trial","photo","subjectRating","subjectResponse","agentsNames","agent_1_Response","agent_2_Response","agent_3_Response","agent_4_Response","agent_5_Response","agent_6_Response","kept_1_name","kept_1_response","kept_2_name","kept_2_response","kept_3_name","kept_3_response","errorCounter"
"1774132","external_page_harvard.html","external-html","0","1774241","0.0-0.0","A3388HIWAKD3DV","","","","","","","","","","","","","","","","","","","","","","","","","","",""
"1469","","image-button-response","1","1775711","0.0-1.0","A3388HIWAKD3DV","","0","","","","","","","","","","","","","","","","","","","","","","","","",""
"9542","","image-button-response","2","1785256","0.0-2.0-0.0","A3388HIWAKD3DV","","1","phone","","","","","","","","","","","","","","","","","","","","","","","",""
"2533","","survey-text","3","1787790","0.0-3.0-0.0","A3388HIWAKD3DV","","","","{""Q0"":""A3388HIWAKD3DV""}","","","","","","","","","","","","","","","","","","","","","","",""
"1591","","image-button-response_instructions","4","1789382","0.0-4.0","A3388HIWAKD3DV","","0","instructions","","","","","","","","","","","","","","","","","","","","","","","",""
"3943","","image-button-response_instructions","5","1793325","0.0-5.0","A3388HIWAKD3DV","img_art/ins/popularity/ins1.png","0","instructions","","","","","","","","","","","","","","","","","","","","","","","",""
"2265","","image-button-response_instructions","6","1795590","0.0-6.0","A3388HIWAKD3DV","img_art/ins/popularity/ins2.png","0","instructions","","","","","","","","","","","","","","","","","","","","","","","",""
"1614","","image-button-response_instructions","7","1797204","0.0-7.0","A3388HIWAKD3DV","img_art/ins/popularity/ins2Extreme.png","0","instructions","","","","","","","","","","","","","","","","","","","","","","","",""
"2278","","image-button-response_instructions","8","1799482","0.0-8.0","A3388HIWAKD3DV","img_art/ins/popularity/ins3KEEPpop.PNG","0","instructions","","","","","","","","","","","","","","","","","","","","","","","",""
"990","","image-button-response_instructions","9","1800473","0.0-9.0","A3388HIWAKD3DV","img_art/ins/popularity/ins3ANamepop.PNG","0","instructions","","","","","","","","","","","","","","","","","","","","","","","",""
"778","","image-button-response_instructions","10","1801252","0.0-10.0","A3388HIWAKD3DV","img_art/ins/popularity/ins3ARatingpop.png","0","instructions","","","","","","","","","","","","","","","","","","","","","","","",""
"731","","image-button-response_instructions","11","1801984","0.0-11.0","A3388HIWAKD3DV","img_art/ins/popularity/ins3ATextpop.png","0","instructions","","","","","","","","","","","","","","","","","","","","","","","",""
"510","","image-button-response_instructions","12","1802495","0.0-12.0","A3388HIWAKD3DV","img_art/ins/popularity/ins3ALikespop.png","0","instructions","","","","","","","","","","","","","","","","","","","","","","","",""
"420","","image-button-response_instructions","13","1802915","0.0-13.0","A3388HIWAKD3DV","img_art/ins/popularity/ins3KEEPpop.PNG","0","instructions","","","","","","","","","","","","","","","","","","","","","","","",""
"217","","image-button-response_instructions","14","1803133","0.0-14.0","A3388HIWAKD3DV","img_art/ins/popularity/ins3_5RED.png","0","instructions","","","","","","","","","","","","","","","","","","","","","","","",""
"187","","image-button-response_instructions","15","1803321","0.0-15.0","A3388HIWAKD3DV","img_art/ins/popularity/ins3KEEPpop.PNG","0","instructions","","","","","","","","","","","","","","","","","","","","","","","",""
"185","","image-button-response_instructions","16","1803507","0.0-16.0","A3388HIWAKD3DV","img_art/ins/popularity/ins4KEEPpop.PNG","0","instructions","","","","","","","","","","","","","","","","","","","","","","","",""
"163","","image-button-response_instructions","17","1803670","0.0-17.0","A3388HIWAKD3DV","img_art/ins/popularity/ins5KEEPpop.PNG","0","instructions","","","","","","","","","","","","","","","","","","","","","","","",""
"174","","image-button-response_instructions","18","1803844","0.0-18.0","A3388HIWAKD3DV","","0","instructions","","","","","","","","","","","","","","","","","","","","","","","",""
"4624","","survey-text","19","1808485","0.0-19.0-0.0","A3388HIWAKD3DV","","","","{""Q0"":""but""}","","","","","","","","","","","","","","","","","","","","","","",""
"5202","","survey-text","20","1813687","0.0-20.0-0.0","A3388HIWAKD3DV","","","","{""Q0"":""abstract""}","","","","","","","","","","","","","","","","","","","","","","",""
"1735.5","","image-slider-response","21","1815424","0.0-21.0","A3388HIWAKD3DV","","","","","20","","","","","","","","","","","","","","","","","","","","","",""
"2417","","image-button-response","22","1820429","0.0-22.0","A3388HIWAKD3DV","img_art/ins/1.jpg","3","","","","","","","","","","","","","","","","","","","","","","","","",""
"2030","","image-button-response","23","1822460","0.0-23.0","A3388HIWAKD3DV","img_art/ins/1.jpg","1","","","","","","","","","","","","","","","","","","","","","","","","",""
"409","","image-button-response","24","1822871","0.0-24.0-0.0","A3388HIWAKD3DV","img_art/ins/1.jpg","0","","","","","","","","","","","","","","","","","","","","","","","","",""
"662","","image-button-response","25","1823535","0.0-25.0-0.0","A3388HIWAKD3DV","img_art/ins/1.jpg","4","","","","","","","","","","","","","","","","","","","","","","","","",""
"null","","html-keyboard-response","26","1824036","0.0-26.0","A3388HIWAKD3DV","<p style=""font-size: 48px;"">+</p>","","","","","null","allTrialResponses","500","1","-2","img_art/ins/1.jpg","20","abstract","Adam,Alex,Ben,Carl,Daniel,Jack","Seems like doodles,-20,20,20","very creative work.,36,40,20","This color reminds me of poo,-46,60,20","very calming artwork,42,80,20","It looks like a murder scene.,-48,100,20","I like the sophisticated brushwork,40,120,20","Alex","very creative work.,36,40,20","Adam","Seems like doodles,-20,20,20","Daniel","It looks like a murder scene.,-48,100,20","0"
"4061","","survey-text","27","1828100","0.0-27.0-0.0","A3388HIWAKD3DV","","","","{""Q0"":""Dark""}","","","","","","","","","","","","","","","","","","","","","","",""
"3176","","survey-text","28","1832985","0.0-27.1-0.1","A3388HIWAKD3DV","","","","{""Q0"":""Darkest""}","","","","","","","","","","","","","","","","","","","","","","",""
"2327.2999999970198","","image-slider-response","29","1835313","0.0-28.0","A3388HIWAKD3DV","","","","","-17","","","","","","","","","","","","","","","","","","","","","",""
"2894","","image-button-response","30","1840318","0.0-29.0","A3388HIWAKD3DV","img_art/ins/2.jpg","0","","","","","","","","","","","","","","","","","","","","","","","","",""
"71072","","image-button-response","31","1911393","0.0-30.0","A3388HIWAKD3DV","img_art/ins/2.jpg","0","","","","","","","","","","","","","","","","","","","","","","","","",""
"785","","image-button-response","32","1912178","0.0-31.0-0.0","A3388HIWAKD3DV","img_art/ins/2.jpg","4","","","","","","","","","","","","","","","","","","","","","","","","",""
"704","","image-button-response","33","1912884","0.0-32.0-0.0","A3388HIWAKD3DV","img_art/ins/2.jpg","5","","","","","","","","","","","","","","","","","","","","","","","","",""
"null","","html-keyboard-response","34","1913885","0.0-33.0","A3388HIWAKD3DV","<p style=""font-size: 48px;"">+</p>","","","","","null","allTrialResponses","1000","1","-1","img_art/ins/2.jpg","-17","Darkest","Adam,Alex,John,James,Daniel,Kyle","too much color,-18,20,20","I like the blocks of color arrangements,30,40,20","love the texture of paint,48,160,20","looks too angry,-50,140,20","One of my pet peevs,-48,100,20","Idk, it is just annoying,-32,180,20","Adam","too much color,-18,20,20","Daniel","One of my pet peevs,-48,100,20","Kyle","Idk, it is just annoying,-32,180,20","0"
"9518","","survey-text","35","1923405","0.0-34.0-0.0","A3388HIWAKD3DV","","","","{""Q0"":""The ocean and seas""}","","","","","","","","","","","","","","","","","","","","","","",""
"1224.7999999970198","","image-slider-response","36","1924631","0.0-35.0","A3388HIWAKD3DV","","","","","20","","","","","","","","","","","","","","","","","","","","","",""
"1287","","image-button-response","37","1929645","0.0-36.0","A3388HIWAKD3DV","img_art/ins/3.jpg","4","","","","","","","","","","","","","","","","","","","","","","","","",""
"1474","","image-button-response","38","1931120","0.0-37.0","A3388HIWAKD3DV","img_art/ins/3.jpg","5","","","","","","","","","","","","","","","","","","","","","","","","",""
"3710","","image-button-response","39","1934832","0.0-38.0-0.0","A3388HIWAKD3DV","img_art/ins/3.jpg","4","","","","","","","","","","","","","","","","","","","","","","","","",""
"410","","image-button-response","40","1935243","0.0-39.0-0.0","A3388HIWAKD3DV","img_art/ins/3.jpg","3","","","","","","","","","","","","","","","","","","","","","","","","",""
"null","","html-keyboard-response","41","1936246","0.0-40.0","A3388HIWAKD3DV","<p style=""font-size: 48px;"">+</p>","","","","","null","allTrialResponses","1000","1","0","img_art/ins/3.jpg","20","The ocean and seas","Adam,Ron,Sam,Mike,Daniel,Kyle","My daily routine, it's depressing,-20,20,20","It looks depressing,-26,220,20","I can feel a rainy day from this painting,18,240,20","enjoy the different shades of blue,22,200,20","looks like a murder room,-35,100,20","It looks like a playground for bats,-36,180,20","Kyle","It looks like a playground for bats,-36,180,20","Daniel","looks like a murder room,-35,100,20","Mike","enjoy the different shades of blue,22,200,20","0"
"4406","","image-button-response_instructions","42","1940655","0.0-41.0","A3388HIWAKD3DV","","0","instructions","","","","","","","","","","","","","","","","","","","","","","","",""
"7330","","survey-likert","43","1947987","0.0-42.0-0.0","A3388HIWAKD3DV","","","","{""Q0"":"""",""Q1"":1,""Q2"":1}","","","","","","","","","","","","","","","","","","","","","","",""
"2494","","survey-likert","44","1953228","0.0-42.1-0.1","A3388HIWAKD3DV","","","","{""Q0"":"""",""Q1"":0,""Q2"":1}","","","","","","","","","","","","","","","","","","","","","","",""
"3372","","survey-text","45","1956605","0.0-43.0-0.0","A3388HIWAKD3DV","","","","{""Q0"":""rock""}","","","","","","","","","","","","","","","","","","","","","","",""
"4663","","survey-text","46","1961269","0.0-44.0-0.0","A3388HIWAKD3DV","","","","{""Q0"":""looks like a city""}","","","","","","","","","","","","","","","","","","","","","","",""
"1961.2999999970198","","image-slider-response","47","1963231","0.0-45.0","A3388HIWAKD3DV","","","","","13","","","","","","","","","","","","","","","","","","","","","",""
"1508","","image-button-response","48","1968258","0.0-46.0","A3388HIWAKD3DV","img_art/20.jpg","1","","","","","","","","","","","","","","","","","","","","","","","","",""
"16657","","image-button-response","49","1984916","0.0-47.0","A3388HIWAKD3DV","img_art/20.jpg","4","","","","","","","","","","","","","","","","","","","","","","","","",""
"308","","image-button-response","50","1985226","0.0-48.0-0.0","A3388HIWAKD3DV","img_art/20.jpg","3","","","","","","","","","","","","","","","","","","","","","","","","",""
"334","","image-button-response","51","1985561","0.0-49.0-0.0","A3388HIWAKD3DV","img_art/20.jpg","5","","","","","","","","","","","","","","","","","","","","","","","","",""
"null","","html-keyboard-response","52","1987062","0.0-50.0","A3388HIWAKD3DV","<p style=""font-size: 48px;"">+</p>","","","","","null","allTrialResponses","1500","1","1","img_art/20.jpg","13","looks like a city","Jeffrey,Cole,Stephen,Derek,Daniel,Victor","looks like an auto accident,-30,40,20","Someone trying to be dali,-15,200,20","Liked the background,15,140,20","I like the calming mood of this painting,35,360,20","Fails to capture what similar styles do,-12,320,20","sort of pleasant to look at, but can't tell if it's supposed to be something,13,340,20","Daniel","Fails to capture what similar styles do,-12,320,20","Derek","I like the calming mood of this painting,35,360,20","Victor","sort of pleasant to look at, but can't tell if it's supposed to be something,13,340,20","1"
"4904","","survey-text","53","1991968","0.0-51.0-0.0","A3388HIWAKD3DV","","","","{""Q0"":""looks like faces""}","","","","","","","","","","","","","","","","","","","","","","",""
"1378.2999999970198","","image-slider-response","54","1993350","0.0-52.0","A3388HIWAKD3DV","","","","","20","","","","","","","","","","","","","","","","","","","","","",""
"null","","image-button-response","55","1998355","0.0-53.0","A3388HIWAKD3DV","img_art/8.jpg","null","","","","","","","","","","","","","","","","","","","","","","","","",""
"780","","image-button-response","56","1999136","0.0-54.0","A3388HIWAKD3DV","img_art/8.jpg","0","","","","","","","","","","","","","","","","","","","","","","","","",""
"318","","image-button-response","57","1999456","0.0-55.0-0.0","A3388HIWAKD3DV","img_art/8.jpg","1","","","","","","","","","","","","","","","","","","","","","","","","",""
"534","","image-button-response","58","1999991","0.0-56.0-0.0","A3388HIWAKD3DV","img_art/8.jpg","4","","","","","","","","","","","","","","","","","","","","","","","","",""
"null","","html-keyboard-response","59","2001499","0.0-57.0","A3388HIWAKD3DV","<p style=""font-size: 48px;"">+</p>","","","","","null","allTrialResponses","1500","1","2","img_art/8.jpg","20","looks like faces","Michael,Nathaniel,Steven,Derek,Daniel,Victor","It is interesting to look at. Abstract but ordered.,9,140,20","Not a fan of abstract looking pieces with too many focal points. The tunnel and face, for example,-31,220,20","very nice, i love what's going on here,21,160,20","It's simply gorgeous. This artist is very talented,50,360,20","Cortez's influence with fair color choices,10,320,20","I like the colors,10,340,20","Michael","It is interesting to look at. Abstract but ordered.,9,140,20","Nathaniel","Not a fan of abstract looking pieces with too many focal points. The tunnel and face, for example,-31,220,20","Daniel","Cortez's influence with fair color choices,10,320,20","1"
"8548","","survey-text","60","2010052","0.0-58.0-0.0","A3388HIWAKD3DV","","","","{""Q0"":""a workout machine?""}","","","","","","","","","","","","","","","","","","","","","","",""
"1889.0999999940395","","image-slider-response","61","2011942","0.0-59.0","A3388HIWAKD3DV","","","","","-13","","","","","","","","","","","","","","","","","","","","","",""
"null","","image-button-response","62","2016944","0.0-60.0","A3388HIWAKD3DV","img_art/28.jpg","null","","","","","","","","","","","","","","","","","","","","","","","","",""
"339","","image-button-response","63","2017285","0.0-61.0","A3388HIWAKD3DV","img_art/28.jpg","0","","","","","","","","","","","","","","","","","","","","","","","","",""
"324","","image-button-response","64","2017609","0.0-62.0-0.0","A3388HIWAKD3DV","img_art/28.jpg","1","","","","","","","","","","","","","","","","","","","","","","","","",""
"538","","image-button-response","65","2018149","0.0-63.0-0.0","A3388HIWAKD3DV","img_art/28.jpg","5","","","","","","","","","","","","","","","","","","","","","","","","",""
"null","","html-keyboard-response","66","2018660","0.0-64.0","A3388HIWAKD3DV","<p style=""font-size: 48px;"">+</p>","","","","","null","allTrialResponses","500","1","3","img_art/28.jpg","-13","a workout machine?","Michael,Nathaniel,Jonathan,Evan,Daniel,Alejandro","Incoherent ugly mess.,-50,140,20","Has an air of darkness to it, but no real substance besides the mouse-like thing.,-38,220,20","The lack of color variance leaves it looking ugly even if I like the brush strokes,-10,140,20","It feels very blah,-10,140,20","Compact grey mess lack negative space,-10,320,20","I like the flow and abstract nature of what seems to be humans,40,80,20","Michael","Incoherent ugly mess.,-50,140,20","Nathaniel","Has an air of darkness to it, but no real substance besides the mouse-like thing.,-38,220,20","Alejandro","I like the flow and abstract nature of what seems to be humans,40,80,20","1"
"8524","","survey-text","67","2027187","0.0-65.0-0.0","A3388HIWAKD3DV","","","","{""Q0"":""a white tree or vines?""}","","","","","","","","","","","","","","","","","","","","","","",""
"1576.7000000029802","","image-slider-response","68","2028767","0.0-66.0","A3388HIWAKD3DV","","","","","13","","","","","","","","","","","","","","","","","","","","","",""
"4901","","image-button-response","69","2033768","0.0-67.0","A3388HIWAKD3DV","img_art/17.jpg","4","","","","","","","","","","","","","","","","","","","","","","","","",""
"423","","image-button-response","70","2034191","0.0-68.0","A3388HIWAKD3DV","img_art/17.jpg","3","","","","","","","","","","","","","","","","","","","","","","","","",""
"243","","image-button-response","71","2034436","0.0-69.0-0.0","A3388HIWAKD3DV","img_art/17.jpg","4","","","","","","","","","","","","","","","","","","","","","","","","",""
"424","","image-button-response","72","2034861","0.0-70.0-0.0","A3388HIWAKD3DV","img_art/17.jpg","2","","","","","","","","","","","","","","","","","","","","","","","","",""
"null","","html-keyboard-response","73","2036370","0.0-71.0","A3388HIWAKD3DV","<p style=""font-size: 48px;"">+</p>","","","","","null","allTrialResponses","1500","1","4","img_art/17.jpg","13","a white tree or vines?","Michael,Nathaniel,Kevin,Trevor,Samuel,Alejandro","There is better structure and direction in this one.,19,140,20","I like the artistic sketching pattern.,24,220,20","Some new perm we got there.,12,320,20","I like how it looks like a tree. The colors are too muted though,12,280,20","muted tones brings me down,-13,400,20","Embodies beauty and complexity and in simplicity as well,50,80,20","Trevor","I like how it looks like a tree. The colors are too muted though,12,280,20","Samuel","muted tones brings me down,-13,400,20","Kevin","Some new perm we got there.,12,320,20","1"
"6357","","survey-text","74","2042735","0.0-72.0-0.0","A3388HIWAKD3DV","","","","{""Q0"":""looks like wind waves""}","","","","","","","","","","","","","","","","","","","","","","",""
"1715.9000000059605","","image-slider-response","75","2044451","0.0-73.0","A3388HIWAKD3DV","","","","","9","","","","","","","","","","","","","","","","","","","","","",""
"3479","","image-button-response","76","2049464","0.0-74.0","A3388HIWAKD3DV","img_art/11.jpg","0","","","","","","","","","","","","","","","","","","","","","","","","",""
"859","","image-button-response","77","2050324","0.0-75.0","A3388HIWAKD3DV","img_art/11.jpg","0","","","","","","","","","","","","","","","","","","","","","","","","",""
"259","","image-button-response","78","2050583","0.0-76.0-0.0","A3388HIWAKD3DV","img_art/11.jpg","1","","","","","","","","","","","","","","","","","","","","","","","","",""
"258","","image-button-response","79","2050842","0.0-77.0-0.0","A3388HIWAKD3DV","img_art/11.jpg","2","","","","","","","","","","","","","","","","","","","","","","","","",""
"null","","html-keyboard-response","80","2051843","0.0-78.0","A3388HIWAKD3DV","<p style=""font-size: 48px;"">+</p>","","","","","null","allTrialResponses","1000","1","5","img_art/11.jpg","9","looks like wind waves","Timothy,Alexis,Kevin,Trevor,Samuel,Garrett","The movement in this one is extremely pleasent,40,240,20","This photo makes me feel bleak,-16,140,20","Thats a creepy old rollercoasters abandoned,-2,320,20","I like how it looks like buildings but i'm not a fan of colors,20,280,20","business of traffic,10,400,20","This looks like a bridge that has plenty of color.,10,180,20","Timothy","The movement in this one is extremely pleasent,40,240,20","Alexis","This photo makes me feel bleak,-16,140,20","Kevin","Thats a creepy old rollercoasters abandoned,-2,320,20","1"
"3031","","survey-text","81","2054887","0.0-79.0-0.0","A3388HIWAKD3DV","","","","{""Q0"":""sky""}","","","","","","","","","","","","","","","","","","","","","","",""
"5141","","survey-text","82","2060028","0.0-80.0-0.0","A3388HIWAKD3DV","","","","{""Q0"":""looks like the clouds""}","","","","","","","","","","","","","","","","","","","","","","",""
"1502","","image-slider-response","83","2061531","0.0-81.0","A3388HIWAKD3DV","","","","","-13","","","","","","","","","","","","","","","","","","","","","",""
"972","","image-button-response","84","2066538","0.0-82.0","A3388HIWAKD3DV","img_art/18.jpg","2","","","","","","","","","","","","","","","","","","","","","","","","",""
"7657","","image-button-response","85","2074196","0.0-83.0","A3388HIWAKD3DV","img_art/18.jpg","0","","","","","","","","","","","","","","","","","","","","","","","","",""
"311","","image-button-response","86","2074508","0.0-84.0-0.0","A3388HIWAKD3DV","img_art/18.jpg","1","","","","","","","","","","","","","","","","","","","","","","","","",""
"265","","image-button-response","87","2074774","0.0-85.0-0.0","A3388HIWAKD3DV","img_art/18.jpg","2","","","","","","","","","","","","","","","","","","","","","","","","",""
"null","","html-keyboard-response","88","2075282","0.0-86.0","A3388HIWAKD3DV","<p style=""font-size: 48px;"">+</p>","","","","","null","allTrialResponses","500","1","6","img_art/18.jpg","-13","looks like the clouds","Timothy,Alexis,Kevin,Jorge,Zachary,Edward","This gives a very ominous feeling,-30,240,20","It's possibly of a mermaid luring in a ship,15,140,20","Pirate ship in stormy seas before it sank.,11,320,20","Imaginative, makes me feel creative.,42,180,20","This one seems rather ghoulish to me.,-41,400,20","Reminds me of the four horsemen of the apocalypse,29,60,20","Timothy","This gives a very ominous feeling,-30,240,20","Alexis","It's possibly of a mermaid luring in a ship,15,140,20","Kevin","Pirate ship in stormy seas before it sank.,11,320,20","1"
"6193","","survey-text","89","2081483","0.0-87.0-0.0","A3388HIWAKD3DV","","","","{""Q0"":""looks like a human figure?""}","","","","","","","","","","","","","","","","","","","","","","",""
"1889.2000000029802","","image-slider-response","90","2083375","0.0-88.0","A3388HIWAKD3DV","","","","","-36","","","","","","","","","","","","","","","","","","","","","",""
"null","","image-button-response","91","2088383","0.0-89.0","A3388HIWAKD3DV","img_art/25.jpg","null","","","","","","","","","","","","","","","","","","","","","","","","",""
"1069","","image-button-response","92","2089454","0.0-90.0","A3388HIWAKD3DV","img_art/25.jpg","3","","","","","","","","","","","","","","","","","","","","","","","","",""
"617","","image-button-response","93","2090071","0.0-91.0-0.0","A3388HIWAKD3DV","img_art/25.jpg","5","","","","","","","","","","","","","","","","","","","","","","","","",""
"543","","image-button-response","94","2090615","0.0-92.0-0.0","A3388HIWAKD3DV","img_art/25.jpg","0","","","","","","","","","","","","","","","","","","","","","","","","",""
"null","","html-keyboard-response","95","2091124","0.0-93.0","A3388HIWAKD3DV","<p style=""font-size: 48px;"">+</p>","","","","","null","allTrialResponses","500","1","7","img_art/25.jpg","-36","looks like a human figure?","Timothy,Alexis,Kevin,Andrew,Brandon,Tyler","This makes me feel uneasy,-20,240,20","It looks like a person at a graveyard,18,140,20","That on i find a bit creapy.,-19,320,20","It makes me feel a little uneasy, but I like the painting,11,160,20","Reminds me of cave drawings,21,320,20","Meh. Hardly abstract, though.,-40,320,20","Andrew","It makes me feel a little uneasy, but I like the painting,11,160,20","Tyler","Meh. Hardly abstract, though.,-40,320,20","Timothy","This makes me feel uneasy,-20,240,20","1"
"8736","","survey-text","96","2099866","0.0-94.0-0.0","A3388HIWAKD3DV","","","","{""Q0"":""white and orange clouds?""}","","","","","","","","","","","","","","","","","","","","","","",""
"1533.9000000059605","","image-slider-response","97","2101401","0.0-95.0","A3388HIWAKD3DV","","","","","-19","","","","","","","","","","","","","","","","","","","","","",""
"1576","","image-button-response","98","2106406","0.0-96.0","A3388HIWAKD3DV","img_art/27.jpg","5","","","","","","","","","","","","","","","","","","","","","","","","",""
"2730","","image-button-response","99","2109138","0.0-97.0","A3388HIWAKD3DV","img_art/27.jpg","5","","","","","","","","","","","","","","","","","","","","","","","","",""
"513","","image-button-response","100","2109653","0.0-98.0-0.0","A3388HIWAKD3DV","img_art/27.jpg","2","","","","","","","","","","","","","","","","","","","","","","","","",""
"254","","image-button-response","101","2109908","0.0-99.0-0.0","A3388HIWAKD3DV","img_art/27.jpg","1","","","","","","","","","","","","","","","","","","","","","","","","",""
"null","","html-keyboard-response","102","2110909","0.0-100.0","A3388HIWAKD3DV","<p style=""font-size: 48px;"">+</p>","","","","","null","allTrialResponses","1000","1","8","img_art/27.jpg","-19","white and orange clouds?","Timothy,Jacob,Travis,Andrew,Scott,Tyler","The colors in this one are wonderful,20,240,20","Don't get the point of this piece that much, but it doesn't bug me,1,340,20","I don't like any of it...just scibbles.,-37,260,20","Reminds me of a town on fire,-15,160,20","again looks like childrens artwork,-40,20,20","The photographing is horribly distracting. I would feel more favorable toward the original colors/ brightness,1,320,20","Tyler","The photographing is horribly distracting. I would feel more favorable toward the original colors/ brightness,1,320,20","Travis","I don't like any of it...just scibbles.,-37,260,20","Jacob","Don't get the point of this piece that much, but it doesn't bug me,1,340,20","1"
"4393","","survey-text","103","2115304","0.0-101.0-0.0","A3388HIWAKD3DV","","","","{""Q0"":""red scribbles""}","","","","","","","","","","","","","","","","","","","","","","",""
"1899.5999999940395","","image-slider-response","104","2117207","0.0-102.0","A3388HIWAKD3DV","","","","","-47","","","","","","","","","","","","","","","","","","","","","",""
"null","","image-button-response","105","2122217","0.0-103.0","A3388HIWAKD3DV","img_art/3.jpg","null","","","","","","","","","","","","","","","","","","","","","","","","",""
"12079","","image-button-response","106","2134296","0.0-104.0","A3388HIWAKD3DV","img_art/3.jpg","3","","","","","","","","","","","","","","","","","","","","","","","","",""
"227","","image-button-response","107","2134525","0.0-105.0-0.0","A3388HIWAKD3DV","img_art/3.jpg","4","","","","","","","","","","","","","","","","","","","","","","","","",""
"308","","image-button-response","108","2134835","0.0-106.0-0.0","A3388HIWAKD3DV","img_art/3.jpg","5","","","","","","","","","","","","","","","","","","","","","","","","",""
"null","","html-keyboard-response","109","2136347","0.0-107.0","A3388HIWAKD3DV","<p style=""font-size: 48px;"">+</p>","","","","","null","allTrialResponses","1500","1","9","img_art/3.jpg","-47","red scribbles","Carlos,Jacob,Travis,Juan,Jose,Tyler","The composition keeps the eye moving, the colors are satisfying.,31,80,20","Don't get the scribbles.,-13,340,20","I hate this...just a scribble of red.,-50,260,20","It makes me think of just an angry scribble. There's no beauty to it for me.,-50,260,20","Too much red! Reminds me of blood. I hate blood.,-34,200,20","This doesn't grab me. Perhaps the red is meant to be provocative; I find it gimmicky.,-9,320,20","Juan","It makes me think of just an angry scribble. There's no beauty to it for me.,-50,260,20","Jose","Too much red! Reminds me of blood. I hate blood.,-34,200,20","Tyler","This doesn't grab me. Perhaps the red is meant to be provocative; I find it gimmicky.,-9,320,20","1"
"6680","","survey-text","110","2143029","0.0-108.0-0.0","A3388HIWAKD3DV","","","","{""Q0"":""an abstract teddy bear""}","","","","","","","","","","","","","","","","","","","","","","",""
"1610.2000000029802","","image-slider-response","111","2144641","0.0-109.0","A3388HIWAKD3DV","","","","","-30","","","","","","","","","","","","","","","","","","","","","",""
"1069","","image-button-response","112","2149652","0.0-110.0","A3388HIWAKD3DV","img_art/16.jpg","2","","","","","","","","","","","","","","","","","","","","","","","","",""
"2255","","image-button-response","113","2151908","0.0-111.0","A3388HIWAKD3DV","img_art/16.jpg","1","","","","","","","","","","","","","","","","","","","","","","","","",""
"224","","image-button-response","114","2152134","0.0-112.0-0.0","A3388HIWAKD3DV","img_art/16.jpg","2","","","","","","","","","","","","","","","","","","","","","","","","",""
"290","","image-button-response","115","2152425","0.0-113.0-0.0","A3388HIWAKD3DV","img_art/16.jpg","0","","","","","","","","","","","","","","","","","","","","","","","","",""
"null","","html-keyboard-response","116","2153434","0.0-114.0","A3388HIWAKD3DV","<p style=""font-size: 48px;"">+</p>","","","","","null","allTrialResponses","1000","1","10","img_art/16.jpg","-30","an abstract teddy bear","Antonio,Benjamin,Vincent,Juan,Jose,Tyler","Did not like at all. I think something sinister going on in the background and the bear a diversion,-50,220,20","Don't like the teddy bear. It takes away from the painting.,-39,260,20","Toys toys toys. Happy playful free spirit,30,360,20","This is too bizarre.,-39,260,20","Super weird. Id like to know more about it,24,200,20","Pop art, Tate Modern horse dung.,-50,320,20","Benjamin","Don't like the teddy bear. It takes away from the painting.,-39,260,20","Vincent","Toys toys toys. Happy playful free spirit,30,360,20","Antonio","Did not like at all. I think something sinister going on in the background and the bear a diversion,-50,220,20","1"
"2206","","survey-text","117","2155649","0.0-115.0-0.0","A3388HIWAKD3DV","","","","{""Q0"":""our""}","","","","","","","","","","","","","","","","","","","","","","",""
"3405","","survey-text","118","2159054","0.0-116.0-0.0","A3388HIWAKD3DV","","","","{""Q0"":""yellow bag""}","","","","","","","","","","","","","","","","","","","","","","",""
"1664.2999999970198","","image-slider-response","119","2160719","0.0-117.0","A3388HIWAKD3DV","","","","","-28","","","","","","","","","","","","","","","","","","","","","",""
"4710","","image-button-response","120","2165721","0.0-118.0","A3388HIWAKD3DV","img_art/5.jpg","1","","","","","","","","","","","","","","","","","","","","","","","","",""
"284","","image-button-response","121","2166005","0.0-119.0","A3388HIWAKD3DV","img_art/5.jpg","0","","","","","","","","","","","","","","","","","","","","","","","","",""
"285","","image-button-response","122","2166291","0.0-120.0-0.0","A3388HIWAKD3DV","img_art/5.jpg","1","","","","","","","","","","","","","","","","","","","","","","","","",""
"259","","image-button-response","123","2166551","0.0-121.0-0.0","A3388HIWAKD3DV","img_art/5.jpg","2","","","","","","","","","","","","","","","","","","","","","","","","",""
"null","","html-keyboard-response","124","2168064","0.0-122.0","A3388HIWAKD3DV","<p style=""font-size: 48px;"">+</p>","","","","","null","allTrialResponses","1500","1","11","img_art/5.jpg","-28","yellow bag","Antonio,Benjamin,Vincent,Gabriel,Adam,Jack","Too much angular things happening, makes me think of stabbing something which makes me uncomfortable,-50,220,20","Missing something,-5,260,20","It speaks volumes to some. It's also a conversational piece. And very different ideas,34,360,20","too abstract, looks like a pyramid,-22,160,20","Too loud. Dislike the bright yellow.,-5,40,20","it's okay. the colors are eye catching, but that's about it.,3,320,20","Antonio","Too much angular things happening, makes me think of stabbing something which makes me uncomfortable,-50,220,20","Benjamin","Missing something,-5,260,20","Vincent","It speaks volumes to some. It's also a conversational piece. And very different ideas,34,360,20","1"
"5289","","survey-text","125","2173363","0.0-123.0-0.0","A3388HIWAKD3DV","","","","{""Q0"":""red and green painting""}","","","","","","","","","","","","","","","","","","","","","","",""
"1947.7999999970198","","image-slider-response","126","2175312","0.0-124.0","A3388HIWAKD3DV","","","","","-28","","","","","","","","","","","","","","","","","","","","","",""
"517","","image-button-response","127","2180396","0.0-125.0","A3388HIWAKD3DV","img_art/9.jpg","0","","","","","","","","","","","","","","","","","","","","","","","","",""
"32509","","image-button-response","128","2212907","0.0-126.0","A3388HIWAKD3DV","img_art/9.jpg","3","","","","","","","","","","","","","","","","","","","","","","","","",""
"247","","image-button-response","129","2213155","0.0-127.0-0.0","A3388HIWAKD3DV","img_art/9.jpg","4","","","","","","","","","","","","","","","","","","","","","","","","",""
"482","","image-button-response","130","2213639","0.0-128.0-0.0","A3388HIWAKD3DV","img_art/9.jpg","2","","","","","","","","","","","","","","","","","","","","","","","","",""
"null","","html-keyboard-response","131","2214150","0.0-129.0","A3388HIWAKD3DV","<p style=""font-size: 48px;"">+</p>","","","","","null","allTrialResponses","500","1","12","img_art/9.jpg","-28","red and green painting","Antonio,Benjamin,Vincent,Taylor,Spencer,Elijah","Stirs up emotions of watching someone sleep which is relaxing,11,220,20","looks like sleeping beauty in a garden,10,260,20","This speaks to me like a personalities and sides and not all are nice,19,360,20","Caveman. Not for my walls.,-5,200,20","Depressing to me, like a dark dream,-11,120,20","It's a mix of paint splash and scribbling,-33,80,20","Taylor","Caveman. Not for my walls.,-5,200,20","Spencer","Depressing to me, like a dark dream,-11,120,20","Vincent","This speaks to me like a personalities and sides and not all are nice,19,360,20","1"
"5368","","survey-text","132","2219521","0.0-130.0-0.0","A3388HIWAKD3DV","","","","{""Q0"":""looks like a city""}","","","","","","","","","","","","","","","","","","","","","","",""
"1777.5999999940395","","image-slider-response","133","2221300","0.0-131.0","A3388HIWAKD3DV","","","","","-27","","","","","","","","","","","","","","","","","","","","","",""
"3710","","image-button-response","134","2226306","0.0-132.0","A3388HIWAKD3DV","img_art/19.jpg","1","","","","","","","","","","","","","","","","","","","","","","","","",""
"550","","image-button-response","135","2226857","0.0-133.0","A3388HIWAKD3DV","img_art/19.jpg","0","","","","","","","","","","","","","","","","","","","","","","","","",""
"730","","image-button-response","136","2227589","0.0-134.0-0.0","A3388HIWAKD3DV","img_art/19.jpg","1","","","","","","","","","","","","","","","","","","","","","","","","",""
"868","","image-button-response","137","2228459","0.0-135.0-0.0","A3388HIWAKD3DV","img_art/19.jpg","4","","","","","","","","","","","","","","","","","","","","","","","","",""
"null","","html-keyboard-response","138","2229466","0.0-136.0","A3388HIWAKD3DV","<p style=""font-size: 48px;"">+</p>","","","","","null","allTrialResponses","1000","1","13","img_art/19.jpg","-27","looks like a city","Mason,Chase,Vincent,Taylor,Spencer,Isaiah","calming, like the drips,25,100,20","This is just a mess.,-30,120,20","I really like the colors and feel of this one and alot of life,41,360,20","Looks like a homeless man and this painting should be too.,-5,200,20","Very abstract but I like it, it's busy, lots of colors,43,120,20","I feel a little anxious and happy. I'm about to walk into a market and any number of treasures could be found,14,300,20","Mason","calming, like the drips,25,100,20","Chase","This is just a mess.,-30,120,20","Spencer","Very abstract but I like it, it's busy, lots of colors,43,120,20","1"
"3468","","survey-text","139","2232937","0.0-137.0-0.0","A3388HIWAKD3DV","","","","{""Q0"":""the skies""}","","","","","","","","","","","","","","","","","","","","","","",""
"1994.3999999910593","","image-slider-response","140","2234934","0.0-138.0","A3388HIWAKD3DV","","","","","-3","","","","","","","","","","","","","","","","","","","","","",""
"4779","","image-button-response","141","2239935","0.0-139.0","A3388HIWAKD3DV","img_art/21.jpg","3","","","","","","","","","","","","","","","","","","","","","","","","",""
"26","","image-button-response","142","2239962","0.0-140.0","A3388HIWAKD3DV","img_art/21.jpg","4","","","","","","","","","","","","","","","","","","","","","","","","",""
"59","","image-button-response","143","2240022","0.0-141.0-0.0","A3388HIWAKD3DV","img_art/21.jpg","4","","","","","","","","","","","","","","","","","","","","","","","","",""
"638","","image-button-response","144","2243185","0.0-141.1-0.1","A3388HIWAKD3DV","img_art/21.jpg","3","","","","","","","","","","","","","","","","","","","","","","","","",""
"379","","image-button-response","145","2243566","0.0-142.0-0.0","A3388HIWAKD3DV","img_art/21.jpg","5","","","","","","","","","","","","","","","","","","","","","","","","",""
"null","","html-keyboard-response","146","2244067","0.0-143.0","A3388HIWAKD3DV","<p style=""font-size: 48px;"">+</p>","","","","","null","allTrialResponses","500","1","14","img_art/21.jpg","-3","the skies","Mason,Chase,Noah,Bryce,Spencer,Patrick","Don't know why I like it, cant describe, maybe many landscapes?,47,100,20","Kind of looks like a sky with a storm or tornado.,10,120,20","brings up imagery of the sea and clashing, though not in a negative way,31,260,20","Nothing exciting in this one.,-36,20,20","Love the colors, uplifting and stormy at the same time,32,120,20","It looks confusing,-21,280,20","Spencer","Love the colors, uplifting and stormy at the same time,32,120,20","Bryce","Nothing exciting in this one.,-36,20,20","Patrick","It looks confusing,-21,280,20","3"
"7371","","survey-text","147","2251443","0.0-144.0-0.0","A3388HIWAKD3DV","","","","{""Q0"":""white lines""}","","","","","","","","","","","","","","","","","","","","","","",""
"4159.100000008941","","image-slider-response","148","2255603","0.0-145.0","A3388HIWAKD3DV","","","","","-11","","","","","","","","","","","","","","","","","","","","","",""
"4752","","image-button-response","149","2260604","0.0-146.0","A3388HIWAKD3DV","img_art/23.jpg","0","","","","","","","","","","","","","","","","","","","","","","","","",""
"448","","image-button-response","150","2261053","0.0-147.0","A3388HIWAKD3DV","img_art/23.jpg","0","","","","","","","","","","","","","","","","","","","","","","","","",""
"273","","image-button-response","151","2261327","0.0-148.0-0.0","A3388HIWAKD3DV","img_art/23.jpg","1","","","","","","","","","","","","","","","","","","","","","","","","",""
"250","","image-button-response","152","2261578","0.0-149.0-0.0","A3388HIWAKD3DV","img_art/23.jpg","2","","","","","","","","","","","","","","","","","","","","","","","","",""
"null","","html-keyboard-response","153","2263091","0.0-150.0","A3388HIWAKD3DV","<p style=""font-size: 48px;"">+</p>","","","","","null","allTrialResponses","1500","1","15","img_art/23.jpg","-11","white lines","Jordan,Adrian,Isaac,Bryce,Spencer,Patrick","I like the contrast,29,160,20","Too much contrasting colors together. I hate it.,-50,60,20","I like the royal colors.,38,280,20","So beautiful with the white accents.,50,20,20","Interesting, want to look at it more to identify,25,120,20","Beautiful color scheme,21,280,20","Jordan","I like the contrast,29,160,20","Adrian","Too much contrasting colors together. I hate it.,-50,60,20","Isaac","I like the royal colors.,38,280,20","3"
"2091","","survey-text","154","2265186","0.0-151.0-0.0","A3388HIWAKD3DV","","","","{""Q0"":""course""}","","","","","","","","","","","","","","","","","","","","","","",""
"4156","","survey-text","155","2269344","0.0-152.0-0.0","A3388HIWAKD3DV","","","","{""Q0"":""white tree""}","","","","","","","","","","","","","","","","","","","","","","",""
"2933.7999999970198","","image-slider-response","156","2272279","0.0-153.0","A3388HIWAKD3DV","","","","","-23","","","","","","","","","","","","","","","","","","","","","",""
"4555","","image-button-response","157","2277284","0.0-154.0","A3388HIWAKD3DV","img_art/14.jpg","0","","","","","","","","","","","","","","","","","","","","","","","","",""
"319","","image-button-response","158","2277607","0.0-155.0","A3388HIWAKD3DV","img_art/14.jpg","4","","","","","","","","","","","","","","","","","","","","","","","","",""
"273","","image-button-response","159","2277881","0.0-156.0-0.0","A3388HIWAKD3DV","img_art/14.jpg","3","","","","","","","","","","","","","","","","","","","","","","","","",""
"516","","image-button-response","160","2278398","0.0-157.0-0.0","A3388HIWAKD3DV","img_art/14.jpg","2","","","","","","","","","","","","","","","","","","","","","","","","",""
"null","","html-keyboard-response","161","2278912","0.0-158.0","A3388HIWAKD3DV","<p style=""font-size: 48px;"">+</p>","","","","","null","allTrialResponses","500","1","16","img_art/14.jpg","-23","white tree","Jordan,Adrian,Isaac,Richard,Christopher,Eric","Reminds me of art class,22,160,20","Warm, positive, growth.,8,60,20","The colors are pleasing.,29,280,20","the colors are peaceful and nature colors, soft,37,340,20","this looks pretty childish,-15,160,20","I'm imagining a flower bouquet with pretty colors which I like.,35,100,20","Christopher","this looks pretty childish,-15,160,20","Richard","the colors are peaceful and nature colors, soft,37,340,20","Isaac","The colors are pleasing.,29,280,20","3"
"5991","","survey-text","162","2284906","0.0-159.0-0.0","A3388HIWAKD3DV","","","","{""Q0"":""brown twig""}","","","","","","","","","","","","","","","","","","","","","","",""
"3554.6000000089407","","image-slider-response","163","2288461","0.0-160.0","A3388HIWAKD3DV","","","","","-5","","","","","","","","","","","","","","","","","","","","","",""
"4541","","image-button-response","164","2293463","0.0-161.0","A3388HIWAKD3DV","img_art/4.jpg","4","","","","","","","","","","","","","","","","","","","","","","","","",""
"392","","image-button-response","165","2293857","0.0-162.0","A3388HIWAKD3DV","img_art/4.jpg","3","","","","","","","","","","","","","","","","","","","","","","","","",""
"281","","image-button-response","166","2294138","0.0-163.0-0.0","A3388HIWAKD3DV","img_art/4.jpg","4","","","","","","","","","","","","","","","","","","","","","","","","",""
"478","","image-button-response","167","2294617","0.0-164.0-0.0","A3388HIWAKD3DV","img_art/4.jpg","2","","","","","","","","","","","","","","","","","","","","","","","","",""
"null","","html-keyboard-response","168","2296126","0.0-165.0","A3388HIWAKD3DV","<p style=""font-size: 48px;"">+</p>","","","","","null","allTrialResponses","1500","1","17","img_art/4.jpg","-5","brown twig","Seth,Devon,Isaac,Richard,Christopher,Hunter","Odd but intriguing. I feel emotion from this. Like a woman bent over carrying these emotions on her back.,33,60,20","heart symbol - this tells a story of hidden love,30,400,20","The colors remind me of McDonalds.,-41,280,20","too childish, not really art in my world,-50,340,20","too many red/yellow shades, its impact without a reason,-27,160,20","appealing warm palette,6,240,20","Richard","too childish, not really art in my world,-50,340,20","Christopher","too many red/yellow shades, its impact without a reason,-27,160,20","Isaac","The colors remind me of McDonalds.,-41,280,20","3"
"6309","","survey-text","169","2302445","0.0-166.0-0.0","A3388HIWAKD3DV","","","","{""Q0"":""rain drops""}","","","","","","","","","","","","","","","","","","","","","","",""
"2355","","image-slider-response","170","2304801","0.0-167.0","A3388HIWAKD3DV","","","","","-17","","","","","","","","","","","","","","","","","","","","","",""
"4358","","image-button-response","171","2309802","0.0-168.0","A3388HIWAKD3DV","img_art/13.jpg","4","","","","","","","","","","","","","","","","","","","","","","","","",""
"319","","image-button-response","172","2310122","0.0-169.0","A3388HIWAKD3DV","img_art/13.jpg","5","","","","","","","","","","","","","","","","","","","","","","","","",""
"260","","image-button-response","173","2310383","0.0-170.0-0.0","A3388HIWAKD3DV","img_art/13.jpg","4","","","","","","","","","","","","","","","","","","","","","","","","",""
"530","","image-button-response","174","2310914","0.0-171.0-0.0","A3388HIWAKD3DV","img_art/13.jpg","1","","","","","","","","","","","","","","","","","","","","","","","","",""
"null","","html-keyboard-response","175","2311924","0.0-172.0","A3388HIWAKD3DV","<p style=""font-size: 48px;"">+</p>","","","","","null","allTrialResponses","1000","1","18","img_art/13.jpg","-17","rain drops","Austin,Robert,Isaac,Richard,Christopher,Brian","Love the splash of colors,50,240,20","Raindrops splashing on the window.,50,360,20","The colors are okay but I don't like the shapes here.,-18,280,20","kind of like the pattern and colors but don't love it,13,340,20","this is an appealing mix of textures to me and the color scheme is harmonious,36,160,20","I don't really care for splatter paintings; the spectral colors underneath are nice.,-18,380,20","Brian","I don't really care for splatter paintings; the spectral colors underneath are nice.,-18,380,20","Christopher","this is an appealing mix of textures to me and the color scheme is harmonious,36,160,20","Robert","Raindrops splashing on the window.,50,360,20","3"
"5213","","survey-text","176","2317142","0.0-173.0-0.0","A3388HIWAKD3DV","","","","{""Q0"":""black boxes""}","","","","","","","","","","","","","","","","","","","","","","",""
"1996.2000000029802","","image-slider-response","177","2319139","0.0-174.0","A3388HIWAKD3DV","","","","","-24","","","","","","","","","","","","","","","","","","","","","",""
"null","","image-button-response","178","2324152","0.0-175.0","A3388HIWAKD3DV","img_art/12.jpg","null","","","","","","","","","","","","","","","","","","","","","","","","",""
"1414","","image-button-response","179","2325568","0.0-176.0","A3388HIWAKD3DV","img_art/12.jpg","3","","","","","","","","","","","","","","","","","","","","","","","","",""
"264","","image-button-response","180","2325833","0.0-177.0-0.0","A3388HIWAKD3DV","img_art/12.jpg","4","","","","","","","","","","","","","","","","","","","","","","","","",""
"565","","image-button-response","181","2326399","0.0-178.0-0.0","A3388HIWAKD3DV","img_art/12.jpg","2","","","","","","","","","","","","","","","","","","","","","","","","",""
"null","","html-keyboard-response","182","2326909","0.0-179.0","A3388HIWAKD3DV","<p style=""font-size: 48px;"">+</p>","","","","","null","allTrialResponses","500","1","19","img_art/12.jpg","-24","black boxes","Caleb,Robert,Sean,Kenneth,Christopher,Brian","Almost natural flowing between abstract sections.,27,40,20","I like the pattern to it.,31,360,20","my reaction is that the picture is wierd,-11,40,20","It's pretty, I find it interesting to look at.,10,300,20","i think it's a good piece but it doesn't appeal to me,-18,160,20","this is pretty, but I wouldn't hang it on my wall.,15,380,20","Kenneth","It's pretty, I find it interesting to look at.,10,300,20","Christopher","i think it's a good piece but it doesn't appeal to me,-18,160,20","Sean","my reaction is that the picture is wierd,-11,40,20","3"
"4511","","survey-text","183","2331423","0.0-180.0-0.0","A3388HIWAKD3DV","","","","{""Q0"":""red and yellow boxes""}","","","","","","","","","","","","","","","","","","","","","","",""
"2051.300000011921","","image-slider-response","184","2333477","0.0-181.0","A3388HIWAKD3DV","","","","","17","","","","","","","","","","","","","","","","","","","","","",""
"null","","image-button-response","185","2338479","0.0-182.0","A3388HIWAKD3DV","img_art/22.jpg","null","","","","","","","","","","","","","","","","","","","","","","","","",""
"529","","image-button-response","186","2339010","0.0-183.0","A3388HIWAKD3DV","img_art/22.jpg","0","","","","","","","","","","","","","","","","","","","","","","","","",""
"262","","image-button-response","187","2339273","0.0-184.0-0.0","A3388HIWAKD3DV","img_art/22.jpg","1","","","","","","","","","","","","","","","","","","","","","","","","",""
"538","","image-button-response","188","2339812","0.0-185.0-0.0","A3388HIWAKD3DV","img_art/22.jpg","4","","","","","","","","","","","","","","","","","","","","","","","","",""
"null","","html-keyboard-response","189","2340813","0.0-186.0","A3388HIWAKD3DV","<p style=""font-size: 48px;"">+</p>","","","","","null","allTrialResponses","1000","1","20","img_art/22.jpg","17","red and yellow boxes","Kyle,Nathan,Sean,Kenneth,Christopher,Lucas","I appreciate the artistic effort but it's not for me,0,340,20","A bit colorful, but slightly enjoyable, almost gives off castle/sunset vibes,10,200,20","my reaction is that the picture is confusion,-9,40,20","I really enjoy the blended colors.,20,300,20","boring, too many red and yellow tones for my taste,-15,160,20","Unfortunately, I can't see anything special in this painting.,-20,380,20","Kyle","I appreciate the artistic effort but it's not for me,0,340,20","Nathan","A bit colorful, but slightly enjoyable, almost gives off castle/sunset vibes,10,200,20","Christopher","boring, too many red and yellow tones for my taste,-15,160,20","3"
"2064","","survey-text","190","2342883","0.0-187.0-0.0","A3388HIWAKD3DV","","","","{""Q0"":""we""}","","","","","","","","","","","","","","","","","","","","","","",""
"4819","","survey-text","191","2347702","0.0-188.0-0.0","A3388HIWAKD3DV","","","","{""Q0"":""looks like cave paintings""}","","","","","","","","","","","","","","","","","","","","","","",""
"1598.8999999910593","","image-slider-response","192","2349302","0.0-189.0","A3388HIWAKD3DV","","","","","22","","","","","","","","","","","","","","","","","","","","","",""
"null","","image-button-response","193","2354310","0.0-190.0","A3388HIWAKD3DV","img_art/7.jpg","null","","","","","","","","","","","","","","","","","","","","","","","","",""
"433","","image-button-response","194","2354744","0.0-191.0","A3388HIWAKD3DV","img_art/7.jpg","3","","","","","","","","","","","","","","","","","","","","","","","","",""
"345","","image-button-response","195","2355091","0.0-192.0-0.0","A3388HIWAKD3DV","img_art/7.jpg","4","","","","","","","","","","","","","","","","","","","","","","","","",""
"263","","image-button-response","196","2355356","0.0-193.0-0.0","A3388HIWAKD3DV","img_art/7.jpg","5","","","","","","","","","","","","","","","","","","","","","","","","",""
"null","","html-keyboard-response","197","2355862","0.0-194.0","A3388HIWAKD3DV","<p style=""font-size: 48px;"">+</p>","","","","","null","allTrialResponses","500","1","21","img_art/7.jpg","22","looks like cave paintings","Kyle,Nathan,Cameron,Ethan,Christopher,Tristan","It just reminds me of dirt,-10,340,20","I don't like this kind of color scheme or look they went for,-50,200,20","tracks in dirt?,-15,60,20","This reminds me of a close up photo of a stone wall.,-19,120,20","i kind of like this, it looks like a photo of a planet's surface,16,160,20","Limited emotional reaction for me. No focus and highly abstract,-20,300,20","Ethan","This reminds me of a close up photo of a stone wall.,-19,120,20","Christopher","i kind of like this, it looks like a photo of a planet's surface,16,160,20","Tristan","Limited emotional reaction for me. No focus and highly abstract,-20,300,20","3"
"3752","","survey-text","198","2359617","0.0-195.0-0.0","A3388HIWAKD3DV","","","","{""Q0"":""waterfall""}","","","","","","","","","","","","","","","","","","","","","","",""
"1511.9000000059605","","image-slider-response","199","2361130","0.0-196.0","A3388HIWAKD3DV","","","","","2","","","","","","","","","","","","","","","","","","","","","",""
"null","","image-button-response","200","2366131","0.0-197.0","A3388HIWAKD3DV","img_art/24.jpg","null","","","","","","","","","","","","","","","","","","","","","","","","",""
"192","","image-button-response","201","2366325","0.0-198.0","A3388HIWAKD3DV","img_art/24.jpg","3","","","","","","","","","","","","","","","","","","","","","","","","",""
"253","","image-button-response","202","2366580","0.0-199.0-0.0","A3388HIWAKD3DV","img_art/24.jpg","4","","","","","","","","","","","","","","","","","","","","","","","","",""
"507","","image-button-response","203","2367088","0.0-200.0-0.0","A3388HIWAKD3DV","img_art/24.jpg","2","","","","","","","","","","","","","","","","","","","","","","","","",""
"null","","html-keyboard-response","204","2368090","0.0-201.0","A3388HIWAKD3DV","<p style=""font-size: 48px;"">+</p>","","","","","null","allTrialResponses","1000","1","22","img_art/24.jpg","2","waterfall","Brett,James,Jeremy,Ethan,Christopher,Tristan","Forest waterfall,40,360,20","The waterfall looks peaceful,11,380,20","somewhat happy. I like the colors,38,60,20","This is sort of interesting. I think it's a bit busy. Less is more.,3,120,20","it's fine, the colors are pleasing, but not my taste,9,160,20","The contorted angles of the flowing water upset the harmony,-20,300,20","Ethan","This is sort of interesting. I think it's a bit busy. Less is more.,3,120,20","Christopher","it's fine, the colors are pleasing, but not my taste,9,160,20","Jeremy","somewhat happy. I like the colors,38,60,20","3"
"3479","","survey-text","205","2371574","0.0-202.0-0.0","A3388HIWAKD3DV","","","","{""Q0"":""black dots""}","","","","","","","","","","","","","","","","","","","","","","",""
"1364.300000011921","","image-slider-response","206","2372939","0.0-203.0","A3388HIWAKD3DV","","","","","-2","","","","","","","","","","","","","","","","","","","","","",""
"4227","","image-button-response","207","2377945","0.0-204.0","A3388HIWAKD3DV","img_art/15.jpg","0","","","","","","","","","","","","","","","","","","","","","","","","",""
"1570","","image-button-response","208","2379516","0.0-205.0","A3388HIWAKD3DV","img_art/15.jpg","0","","","","","","","","","","","","","","","","","","","","","","","","",""
"210","","image-button-response","209","2379728","0.0-206.0-0.0","A3388HIWAKD3DV","img_art/15.jpg","1","","","","","","","","","","","","","","","","","","","","","","","","",""
"232","","image-button-response","210","2379961","0.0-207.0-0.0","A3388HIWAKD3DV","img_art/15.jpg","2","","","","","","","","","","","","","","","","","","","","","","","","",""
"null","","html-keyboard-response","211","2380976","0.0-208.0","A3388HIWAKD3DV","<p style=""font-size: 48px;"">+</p>","","","","","null","allTrialResponses","1000","1","23","img_art/15.jpg","-2","black dots","Shane,Luis,Jeremy,Ethan,Christopher,Alexander","Too intense with the black dotting,-22,80,20","Extreme darkness and sadness,-30,400,20","I feel nothing when looking at this,1,60,20","This piece gave me no emotion. It's ugly to me.,-38,120,20","this is really pretty! i like the pops of blue in all the black,26,160,20","Leafs spread on the ground.,27,120,20","Shane","Too intense with the black dotting,-22,80,20","Luis","Extreme darkness and sadness,-30,400,20","Jeremy","I feel nothing when looking at this,1,60,20","3"
"3583","","survey-text","212","2384571","0.0-209.0-0.0","A3388HIWAKD3DV","","","","{""Q0"":""red background""}","","","","","","","","","","","","","","","","","","","","","","",""
"2274.0999999940395","","image-slider-response","213","2386846","0.0-210.0","A3388HIWAKD3DV","","","","","13","","","","","","","","","","","","","","","","","","","","","",""
"null","","image-button-response","214","2391855","0.0-211.0","A3388HIWAKD3DV","img_art/1.jpg","null","","","","","","","","","","","","","","","","","","","","","","","","",""
"2076","","image-button-response","215","2393932","0.0-212.0","A3388HIWAKD3DV","img_art/1.jpg","0","","","","","","","","","","","","","","","","","","","","","","","","",""
"289","","image-button-response","216","2394222","0.0-213.0-0.0","A3388HIWAKD3DV","img_art/1.jpg","1","","","","","","","","","","","","","","","","","","","","","","","","",""
"272","","image-button-response","217","2394496","0.0-214.0-0.0","A3388HIWAKD3DV","img_art/1.jpg","2","","","","","","","","","","","","","","","","","","","","","","","","",""
"null","","html-keyboard-response","218","2396007","0.0-215.0","A3388HIWAKD3DV","<p style=""font-size: 48px;"">+</p>","","","","","null","allTrialResponses","1500","1","24","img_art/1.jpg","13","red background","Shane,Luis,Jeremy,Brendan,David,Peter","Warmth of the sun,22,80,20","I love the calming comfort and safe feeling of this,50,400,20","fearful. Makes me think of fire,-10,60,20","a colorful piece of art,25,340,20","This image doesn't invoke much in me.,0,340,20","Nothing whatsoever,2,320,20","Shane","Warmth of the sun,22,80,20","Luis","I love the calming comfort and safe feeling of this,50,400,20","Jeremy","fearful. Makes me think of fire,-10,60,20","3"
"4197","","survey-text","219","2400211","0.0-216.0-0.0","A3388HIWAKD3DV","","","","{""Q0"":""black background""}","","","","","","","","","","","","","","","","","","","","","","",""
"1610.300000011921","","image-slider-response","220","2401822","0.0-217.0","A3388HIWAKD3DV","","","","","8","","","","","","","","","","","","","","","","","","","","","",""
"null","","image-button-response","221","2406827","0.0-218.0","A3388HIWAKD3DV","img_art/29.jpg","null","","","","","","","","","","","","","","","","","","","","","","","","",""
"1766","","image-button-response","222","2408594","0.0-219.0","A3388HIWAKD3DV","img_art/29.jpg","0","","","","","","","","","","","","","","","","","","","","","","","","",""
"226","","image-button-response","223","2408822","0.0-220.0-0.0","A3388HIWAKD3DV","img_art/29.jpg","1","","","","","","","","","","","","","","","","","","","","","","","","",""
"549","","image-button-response","224","2409372","0.0-221.0-0.0","A3388HIWAKD3DV","img_art/29.jpg","4","","","","","","","","","","","","","","","","","","","","","","","","",""
"null","","html-keyboard-response","225","2410386","0.0-222.0","A3388HIWAKD3DV","<p style=""font-size: 48px;"">+</p>","","","","","null","allTrialResponses","1000","1","25","img_art/29.jpg","8","black background","Shane,Luis,Jeremy,Jesse,Jake,Dalton","Darkness and torment,-50,80,20","I love the representation of a mess,50,400,20","unhappy. Looking at this all the time would depress me.,-11,60,20","Grabs interest but then confuses me,6,80,20","This is very gross and odd looking.,-8,360,20","i dont know how it makes me feel.,1,300,20","Shane","Darkness and torment,-50,80,20","Luis","I love the representation of a mess,50,400,20","Jake","This is very gross and odd looking.,-8,360,20","3"
"3025","","survey-text","226","2413419","0.0-223.0-0.0","A3388HIWAKD3DV","","","","{""Q0"":""table""}","","","","","","","","","","","","","","","","","","","","","","",""
"5105","","survey-text","227","2418526","0.0-224.0-0.0","A3388HIWAKD3DV","","","","{""Q0"":""blue and yellow trees""}","","","","","","","","","","","","","","","","","","","","","","",""
"1615.5","","image-slider-response","228","2420143","0.0-225.0","A3388HIWAKD3DV","","","","","-9","","","","","","","","","","","","","","","","","","","","","",""
"null","","image-button-response","229","2425150","0.0-226.0","A3388HIWAKD3DV","img_art/26.jpg","null","","","","","","","","","","","","","","","","","","","","","","","","",""
"685","","image-button-response","230","2425837","0.0-227.0","A3388HIWAKD3DV","img_art/26.jpg","3","","","","","","","","","","","","","","","","","","","","","","","","",""
"218","","image-button-response","231","2426057","0.0-228.0-0.0","A3388HIWAKD3DV","img_art/26.jpg","4","","","","","","","","","","","","","","","","","","","","","","","","",""
"227","","image-button-response","232","2426285","0.0-229.0-0.0","A3388HIWAKD3DV","img_art/26.jpg","5","","","","","","","","","","","","","","","","","","","","","","","","",""
"null","","html-keyboard-response","233","2427291","0.0-230.0","A3388HIWAKD3DV","<p style=""font-size: 48px;"">+</p>","","","","","null","allTrialResponses","1000","1","26","img_art/26.jpg","-9","blue and yellow trees","Shane,Luis,Corey,Ian,Jake,Tanner","Colors are full and reminds me of a messy room,-9,80,20","I dont see any expression,-29,400,20","its boring and i dont like the color palette,3,260,20","This seems pretty and sweet, it's something I would like to actually see.,31,260,20","It's not ugly but not beautiful at all.,-3,360,20","happy, park, childhood,9,180,20","Ian","This seems pretty and sweet, it's something I would like to actually see.,31,260,20","Jake","It's not ugly but not beautiful at all.,-3,360,20","Tanner","happy, park, childhood,9,180,20","3"
"4495","","survey-text","234","2431798","0.0-231.0-0.0","A3388HIWAKD3DV","","","","{""Q0"":""blue indoors""}","","","","","","","","","","","","","","","","","","","","","","",""
"1626","","image-slider-response","235","2433427","0.0-232.0","A3388HIWAKD3DV","","","","","-10","","","","","","","","","","","","","","","","","","","","","",""
"null","","image-button-response","236","2439386","0.0-233.0","A3388HIWAKD3DV","img_art/2.jpg","null","","","","","","","","","","","","","","","","","","","","","","","","",""
"907","","image-button-response","237","2440294","0.0-234.0","A3388HIWAKD3DV","img_art/2.jpg","3","","","","","","","","","","","","","","","","","","","","","","","","",""
"210","","image-button-response","238","2440504","0.0-235.0-0.0","A3388HIWAKD3DV","img_art/2.jpg","4","","","","","","","","","","","","","","","","","","","","","","","","",""
"483","","image-button-response","239","2440988","0.0-236.0-0.0","A3388HIWAKD3DV","img_art/2.jpg","2","","","","","","","","","","","","","","","","","","","","","","","","",""
"null","","html-keyboard-response","240","2442002","0.0-237.0","A3388HIWAKD3DV","<p style=""font-size: 48px;"">+</p>","","","","","null","allTrialResponses","1000","1","27","img_art/2.jpg","-10","blue indoors","Joshua,Gregory,Ryan,Ian,Jake,Tanner","Looks like child's art.,-19,240,20","Awful color coordination and design,-35,220,20","Very simple and childish,40,380,20","I don't really like this but at the same time it's cute. It looks like a little monster kid.,-9,260,20","These colors are ugly.,-40,360,20","smilely face, soulful,11,180,20","Ian","I don't really like this but at the same time it's cute. It looks like a little monster kid.,-9,260,20","Jake","These colors are ugly.,-40,360,20","Ryan","Very simple and childish,40,380,20","3"
"3374","","survey-text","241","2445381","0.0-238.0-0.0","A3388HIWAKD3DV","","","","{""Q0"":""red lines""}","","","","","","","","","","","","","","","","","","","","","","",""
"1592.5","","image-slider-response","242","2446974","0.0-239.0","A3388HIWAKD3DV","","","","","-6","","","","","","","","","","","","","","","","","","","","","",""
"null","","image-button-response","243","2451990","0.0-240.0","A3388HIWAKD3DV","img_art/30.jpg","null","","","","","","","","","","","","","","","","","","","","","","","","",""
"843","","image-button-response","244","2452834","0.0-241.0","A3388HIWAKD3DV","img_art/30.jpg","0","","","","","","","","","","","","","","","","","","","","","","","","",""
"199","","image-button-response","245","2453035","0.0-242.0-0.0","A3388HIWAKD3DV","img_art/30.jpg","1","","","","","","","","","","","","","","","","","","","","","","","","",""
"211","","image-button-response","246","2453247","0.0-243.0-0.0","A3388HIWAKD3DV","img_art/30.jpg","2","","","","","","","","","","","","","","","","","","","","","","","","",""
"null","","html-keyboard-response","247","2454748","0.0-244.0","A3388HIWAKD3DV","<p style=""font-size: 48px;"">+</p>","","","","","null","allTrialResponses","1500","1","28","img_art/30.jpg","-6","red lines","Mitchell,Shawn,Ryan,Ian,Jake,William","connection, Everything is connected even in contrast.,42,180,20","Muddy, sloppy, unprofessional,-44,100,20","Love how the red stands out,20,380,20","It looks like it was made by pre-k students.,-30,260,20","This is just simple and ugly.,-2,360,20","to dark and dreary,-28,380,20","Mitchell","connection, Everything is connected even in contrast.,42,180,20","Shawn","Muddy, sloppy, unprofessional,-44,100,20","Ryan","Love how the red stands out,20,380,20","3"
"3122","","survey-text","248","2457873","0.0-245.0-0.0","A3388HIWAKD3DV","","","","{""Q0"":""black bird""}","","","","","","","","","","","","","","","","","","","","","","",""
"1551.9000000059605","","image-slider-response","249","2459425","0.0-246.0","A3388HIWAKD3DV","","","","","6","","","","","","","","","","","","","","","","","","","","","",""
"4531","","image-button-response","250","2464427","0.0-247.0","A3388HIWAKD3DV","img_art/6.jpg","0","","","","","","","","","","","","","","","","","","","","","","","","",""
"716","","image-button-response","251","2465144","0.0-248.0","A3388HIWAKD3DV","img_art/6.jpg","0","","","","","","","","","","","","","","","","","","","","","","","","",""
"513","","image-button-response","252","2465659","0.0-249.0-0.0","A3388HIWAKD3DV","img_art/6.jpg","4","","","","","","","","","","","","","","","","","","","","","","","","",""
"199","","image-button-response","253","2465859","0.0-250.0-0.0","A3388HIWAKD3DV","img_art/6.jpg","5","","","","","","","","","","","","","","","","","","","","","","","","",""
"null","","html-keyboard-response","254","2466362","0.0-251.0","A3388HIWAKD3DV","<p style=""font-size: 48px;"">+</p>","","","","","null","allTrialResponses","500","1","29","img_art/6.jpg","6","black bird","Mitchell,Shawn,Ryan,Dylan,Aaron,Connor","Looking, searching at the same time being content.,30,180,20","Cute and evocative,11,100,20","Makes me feel lonely,-22,380,20","this is interesting and unique,11,40,20","It reminds me of a simplistic bird. I like the colors used.,40,20,20","Blackbird in the desert,27,240,20","Mitchell","Looking, searching at the same time being content.,30,180,20","Aaron","It reminds me of a simplistic bird. I like the colors used.,40,20,20","Connor","Blackbird in the desert,27,240,20","3"
"2615","","survey-text","255","2468989","0.0-252.0-0.0","A3388HIWAKD3DV","","","","{""Q0"":""black lines""}","","","","","","","","","","","","","","","","","","","","","","",""
"1793.300000011921","","image-slider-response","256","2470784","0.0-253.0","A3388HIWAKD3DV","","","","","10","","","","","","","","","","","","","","","","","","","","","",""
"4236","","image-button-response","257","2475786","0.0-254.0","A3388HIWAKD3DV","img_art/10.jpg","1","","","","","","","","","","","","","","","","","","","","","","","","",""
"311","","image-button-response","258","2476099","0.0-255.0","A3388HIWAKD3DV","img_art/10.jpg","0","","","","","","","","","","","","","","","","","","","","","","","","",""
"356","","image-button-response","259","2476456","0.0-256.0-0.0","A3388HIWAKD3DV","img_art/10.jpg","1","","","","","","","","","","","","","","","","","","","","","","","","",""
"255","","image-button-response","260","2476712","0.0-257.0-0.0","A3388HIWAKD3DV","img_art/10.jpg","2","","","","","","","","","","","","","","","","","","","","","","","","",""
"null","","html-keyboard-response","261","2478219","0.0-258.0","A3388HIWAKD3DV","<p style=""font-size: 48px;"">+</p>","","","","","null","allTrialResponses","1500","1","30","img_art/10.jpg","10","black lines","Mitchell,Bradley,Matthew,Dustin,Aaron,Connor","Circle of life, with highs and lows, good and bad. You always weather the storm and come out on top.,40,180,20","This piece is very intriguing to me.,3,300,20","AWESOME VIOLIN!`,26,120,20","Dark and weird. Unidentifiable shape. I can't tell what it is, so I don't like it.,-50,20,20","I like how simple but intricate it is.,30,20,20","Cello music instrument,11,240,20","Mitchell","Circle of life, with highs and lows, good and bad. You always weather the storm and come out on top.,40,180,20","Bradley","This piece is very intriguing to me.,3,300,20","Matthew","AWESOME VIOLIN!`,26,120,20","3"
"1976","","image-button-response_instructions","262","2480199","0.0-259.0","A3388HIWAKD3DV","","0","instructions","","","","","","","","","","","","","","","","","","","","","","","",""
"768","","image-button-response","263","2480970","0.0-260.0","A3388HIWAKD3DV","","0","","","","","","","","","","","","","","","","","","","","","","","","",""
