"rt","url","trial_type","trial_index","time_elapsed","internal_node_id","participant_id","stimulus","button_pressed","Name","responses","response","key_press","variableName","fixationTime","condition","trial","photo","subjectRating","subjectResponse","agentsNames","agent_1_Response","agent_2_Response","agent_3_Response","agent_4_Response","agent_5_Response","agent_6_Response","kept_1_name","kept_1_response","kept_2_name","kept_2_response","kept_3_name","kept_3_response","errorCounter"
"6027","external_page_harvard.html","external-html","0","6174","0.0-0.0","A33B85TN97HQ33","","","","","","","","","","","","","","","","","","","","","","","","","","",""
"1933","","image-button-response","1","8110","0.0-1.0","A33B85TN97HQ33","","1","","","","","","","","","","","","","","","","","","","","","","","","",""
"1826","","image-button-response","2","9941","0.0-2.0-0.0","A33B85TN97HQ33","","1","phone","","","","","","","","","","","","","","","","","","","","","","","",""
"6791","","survey-text","3","16733","0.0-3.0-0.0","A33B85TN97HQ33","","","","{""Q0"":""A33B85TN97HQ33""}","","","","","","","","","","","","","","","","","","","","","","",""
"16486","","image-button-response_instructions","4","33221","0.0-4.0","A33B85TN97HQ33","","0","instructions","","","","","","","","","","","","","","","","","","","","","","","",""
"21158","","image-button-response_instructions","5","54381","0.0-5.0","A33B85TN97HQ33","img_art/ins/popularity/ins1.png","0","instructions","","","","","","","","","","","","","","","","","","","","","","","",""
"5455","","image-button-response_instructions","6","59837","0.0-6.0","A33B85TN97HQ33","img_art/ins/popularity/ins2.png","0","instructions","","","","","","","","","","","","","","","","","","","","","","","",""
"4870","","image-button-response_instructions","7","64709","0.0-7.0","A33B85TN97HQ33","img_art/ins/popularity/ins2Extreme.png","0","instructions","","","","","","","","","","","","","","","","","","","","","","","",""
"3742","","image-button-response_instructions","8","68452","0.0-8.0","A33B85TN97HQ33","img_art/ins/popularity/ins3KEEPpop.PNG","0","instructions","","","","","","","","","","","","","","","","","","","","","","","",""
"2024","","image-button-response_instructions","9","70478","0.0-9.0","A33B85TN97HQ33","img_art/ins/popularity/ins3ANamepop.PNG","0","instructions","","","","","","","","","","","","","","","","","","","","","","","",""
"2005","","image-button-response_instructions","10","72485","0.0-10.0","A33B85TN97HQ33","img_art/ins/popularity/ins3ARatingpop.png","0","instructions","","","","","","","","","","","","","","","","","","","","","","","",""
"3182","","image-button-response_instructions","11","75669","0.0-11.0","A33B85TN97HQ33","img_art/ins/popularity/ins3ATextpop.png","0","instructions","","","","","","","","","","","","","","","","","","","","","","","",""
"4918","","image-button-response_instructions","12","80589","0.0-12.0","A33B85TN97HQ33","img_art/ins/popularity/ins3ALikespop.png","0","instructions","","","","","","","","","","","","","","","","","","","","","","","",""
"6110","","image-button-response_instructions","13","86701","0.0-13.0","A33B85TN97HQ33","img_art/ins/popularity/ins3KEEPpop.PNG","0","instructions","","","","","","","","","","","","","","","","","","","","","","","",""
"5774","","image-button-response_instructions","14","92477","0.0-14.0","A33B85TN97HQ33","img_art/ins/popularity/ins3_5RED.png","0","instructions","","","","","","","","","","","","","","","","","","","","","","","",""
"2711","","image-button-response_instructions","15","95189","0.0-15.0","A33B85TN97HQ33","img_art/ins/popularity/ins3KEEPpop.PNG","0","instructions","","","","","","","","","","","","","","","","","","","","","","","",""
"6790","","image-button-response_instructions","16","101980","0.0-16.0","A33B85TN97HQ33","img_art/ins/popularity/ins4KEEPpop.PNG","0","instructions","","","","","","","","","","","","","","","","","","","","","","","",""
"3464","","image-button-response_instructions","17","105445","0.0-17.0","A33B85TN97HQ33","img_art/ins/popularity/ins5KEEPpop.PNG","0","instructions","","","","","","","","","","","","","","","","","","","","","","","",""
"1424","","image-button-response_instructions","18","106869","0.0-18.0","A33B85TN97HQ33","","0","instructions","","","","","","","","","","","","","","","","","","","","","","","",""
"6394","","survey-text","19","113285","0.0-19.0-0.0","A33B85TN97HQ33","","","","{""Q0"":""but""}","","","","","","","","","","","","","","","","","","","","","","",""
"13702","","survey-text","20","126989","0.0-20.0-0.0","A33B85TN97HQ33","","","","{""Q0"":""i feel the need to clean and organize by looking at it.""}","","","","","","","","","","","","","","","","","","","","","","",""
"3925","","image-slider-response","21","130917","0.0-21.0","A33B85TN97HQ33","","","","","-32","","","","","","","","","","","","","","","","","","","","","",""
"4886","","image-button-response","22","135929","0.0-22.0","A33B85TN97HQ33","img_art/ins/1.jpg","1","","","","","","","","","","","","","","","","","","","","","","","","",""
"1391","","image-button-response","23","137325","0.0-23.0","A33B85TN97HQ33","img_art/ins/1.jpg","1","","","","","","","","","","","","","","","","","","","","","","","","",""
"2934","","image-button-response","24","140261","0.0-24.0-0.0","A33B85TN97HQ33","img_art/ins/1.jpg","3","","","","","","","","","","","","","","","","","","","","","","","","",""
"7014","","image-button-response","25","147277","0.0-25.0-0.0","A33B85TN97HQ33","img_art/ins/1.jpg","2","","","","","","","","","","","","","","","","","","","","","","","","",""
"null","","html-keyboard-response","26","147793","0.0-26.0","A33B85TN97HQ33","<p style=""font-size: 48px;"">+</p>","","","","","null","allTrialResponses","500","1","-2","img_art/ins/1.jpg","-32","i feel the need to clean and organize by looking at it.","Allison,Ashley,Beth,Dora,Erika,Jen","looks like a lot of things going on in the mist,20,20,20","I just don't get why these type of art would be popular,-32,40,20","This color reminds me of poo,-46,60,20","looks like what my niece in 3rd grade did this afternoon,-50,80,20","I like the sophisticated brushwork,40,100,20","It reminds me of a candy land dream I had,36,120,20","Ashley","I just don't get why these type of art would be popular,-32,40,20","Dora","looks like what my niece in 3rd grade did this afternoon,-50,80,20","Beth","This color reminds me of poo,-46,60,20","0"
"11638","","survey-text","27","159453","0.0-27.0-0.0","A33B85TN97HQ33","","","","{""Q0"":""it seems like it could be evil""}","","","","","","","","","","","","","","","","","","","","","","",""
"3022","","image-slider-response","28","162477","0.0-28.0","A33B85TN97HQ33","","","","","-34","","","","","","","","","","","","","","","","","","","","","",""
"3174","","image-button-response","29","167486","0.0-29.0","A33B85TN97HQ33","img_art/ins/2.jpg","1","","","","","","","","","","","","","","","","","","","","","","","","",""
"700","","image-button-response","30","168188","0.0-30.0","A33B85TN97HQ33","img_art/ins/2.jpg","2","","","","","","","","","","","","","","","","","","","","","","","","",""
"638","","image-button-response","31","168828","0.0-31.0-0.0","A33B85TN97HQ33","img_art/ins/2.jpg","1","","","","","","","","","","","","","","","","","","","","","","","","",""
"2398","","image-button-response","32","171228","0.0-32.0-0.0","A33B85TN97HQ33","img_art/ins/2.jpg","3","","","","","","","","","","","","","","","","","","","","","","","","",""
"null","","html-keyboard-response","33","171737","0.0-33.0","A33B85TN97HQ33","<p style=""font-size: 48px;"">+</p>","","","","","null","allTrialResponses","500","1","-1","img_art/ins/2.jpg","-34","it seems like it could be evil","Jenna,Ashley,Beth,Dora,Kara,Katie","One of my pet peevs,-48,140,20","Idk, it is just annoying,-32,40,20","meaningless painting,-45,60,20","looks too angry,-50,80,20","I like the blocks of color arrangements,30,160,20","too much color!,-28,180,20","Beth","meaningless painting,-45,60,20","Ashley","Idk, it is just annoying,-32,40,20","Dora","looks too angry,-50,80,20","0"
"12162","","survey-text","34","183908","0.0-34.0-0.0","A33B85TN97HQ33","","","","{""Q0"":""it makes me think of ice""}","","","","","","","","","","","","","","","","","","","","","","",""
"2670","","image-slider-response","35","186580","0.0-35.0","A33B85TN97HQ33","","","","","5","","","","","","","","","","","","","","","","","","","","","",""
"3351","","image-button-response","36","191598","0.0-36.0","A33B85TN97HQ33","img_art/ins/3.jpg","0","","","","","","","","","","","","","","","","","","","","","","","","",""
"620","","image-button-response","37","192220","0.0-37.0","A33B85TN97HQ33","img_art/ins/3.jpg","0","","","","","","","","","","","","","","","","","","","","","","","","",""
"2767","","image-button-response","38","194988","0.0-38.0-0.0","A33B85TN97HQ33","img_art/ins/3.jpg","4","","","","","","","","","","","","","","","","","","","","","","","","",""
"2463","","image-button-response","39","197453","0.0-39.0-0.0","A33B85TN97HQ33","img_art/ins/3.jpg","0","","","","","","","","","","","","","","","","","","","","","","","","",""
"4170","","image-button-response","40","204613","0.0-39.1-0.1","A33B85TN97HQ33","img_art/ins/3.jpg","5","","","","","","","","","","","","","","","","","","","","","","","","",""
"null","","html-keyboard-response","41","205124","0.0-40.0","A33B85TN97HQ33","<p style=""font-size: 48px;"">+</p>","","","","","null","allTrialResponses","500","1","0","img_art/ins/3.jpg","5","it makes me think of ice","Leslie,Ashley,Beth,Dora,Mary,Rose","It's an alright work,15,200,20","It looks like a playground for bats,-36,40,20","This thing gives me anxiety,-41,60,20","My worst nightmare,-42,80,20","I like the overlapping of brushes,41,220,20","My daily routine, it's depressing,-20,240,20","Leslie","It's an alright work,15,200,20","Mary","I like the overlapping of brushes,41,220,20","Rose","My daily routine, it's depressing,-20,240,20","2"
"7818","","image-button-response_instructions","42","212956","0.0-41.0","A33B85TN97HQ33","","0","instructions","","","","","","","","","","","","","","","","","","","","","","","",""
"14536","","survey-likert","43","227494","0.0-42.0-0.0","A33B85TN97HQ33","","","","{""Q0"":"""",""Q1"":0,""Q2"":1}","","","","","","","","","","","","","","","","","","","","","","",""
"3923","","survey-text","44","231420","0.0-43.0-0.0","A33B85TN97HQ33","","","","{""Q0"":""rock""}","","","","","","","","","","","","","","","","","","","","","","",""
"8504","","survey-text","45","239924","0.0-44.0-0.0","A33B85TN97HQ33","","","","{""Q0"":""it seems like a emo city""}","","","","","","","","","","","","","","","","","","","","","","",""
"2750","","image-slider-response","46","242676","0.0-45.0","A33B85TN97HQ33","","","","","-42","","","","","","","","","","","","","","","","","","","","","",""
"4389","","image-button-response","47","247705","0.0-46.0","A33B85TN97HQ33","img_art/8.jpg","1","","","","","","","","","","","","","","","","","","","","","","","","",""
"601","","image-button-response","48","248308","0.0-47.0","A33B85TN97HQ33","img_art/8.jpg","1","","","","","","","","","","","","","","","","","","","","","","","","",""
"2359","","image-button-response","49","250668","0.0-48.0-0.0","A33B85TN97HQ33","img_art/8.jpg","3","","","","","","","","","","","","","","","","","","","","","","","","",""
"2383","","image-button-response","50","253052","0.0-49.0-0.0","A33B85TN97HQ33","img_art/8.jpg","4","","","","","","","","","","","","","","","","","","","","","","","","",""
"null","","html-keyboard-response","51","254063","0.0-50.0","A33B85TN97HQ33","<p style=""font-size: 48px;"">+</p>","","","","","null","allTrialResponses","1000","1","1","img_art/8.jpg","-42","it seems like a emo city","Emily,Erika,Cheyenne,Sophia,Tiffany,Breanna","It is interesting to look at. Abstract but ordered.,9,40,20","Striking, but not my taste,20,100,20","Has nice depth to it.,12,200,20","Interesting but it has a bit of a dark feel to it.,6,280,20","It makes me feel nervous. I can't tell ifI'm looking at an apartment, or a hellscape.,-18,360,20","Makes me feel nice,23,380,20","Erika","Striking, but not my taste,20,100,20","Sophia","Interesting but it has a bit of a dark feel to it.,6,280,20","Tiffany","It makes me feel nervous. I can't tell ifI'm looking at an apartment, or a hellscape.,-18,360,20","2"
"28842","","survey-text","52","282916","0.0-51.0-0.0","A33B85TN97HQ33","","","","{""Q0"":""too messy and childlike""}","","","","","","","","","","","","","","","","","","","","","","",""
"3455","","image-slider-response","53","286372","0.0-52.0","A33B85TN97HQ33","","","","","-46","","","","","","","","","","","","","","","","","","","","","",""
"1815","","image-button-response","54","291374","0.0-53.0","A33B85TN97HQ33","img_art/3.jpg","0","","","","","","","","","","","","","","","","","","","","","","","","",""
"835","","image-button-response","55","292211","0.0-54.0","A33B85TN97HQ33","img_art/3.jpg","0","","","","","","","","","","","","","","","","","","","","","","","","",""
"2568","","image-button-response","56","294780","0.0-55.0-0.0","A33B85TN97HQ33","img_art/3.jpg","2","","","","","","","","","","","","","","","","","","","","","","","","",""
"2806","","image-button-response","57","297588","0.0-56.0-0.0","A33B85TN97HQ33","img_art/3.jpg","4","","","","","","","","","","","","","","","","","","","","","","","","",""
"null","","html-keyboard-response","58","298594","0.0-57.0","A33B85TN97HQ33","<p style=""font-size: 48px;"">+</p>","","","","","null","allTrialResponses","1000","1","2","img_art/3.jpg","-46","too messy and childlike","Angelica,Erika,Mikayla,Sophia,Tiffany,Samantha","This is angry and childish looking.,-49,280,20","Unaure what the artist  was doing, needs context,11,100,20","Scary. Looks like blood.,-45,300,20","Marker gone wild?  Not sure what's going on here.,-21,280,20","I feel uncomfortable, like I am looking at a crime scene.,-17,360,20","Too angry and scribbly,-43,140,20","Angelica","This is angry and childish looking.,-49,280,20","Mikayla","Scary. Looks like blood.,-45,300,20","Tiffany","I feel uncomfortable, like I am looking at a crime scene.,-17,360,20","2"
"8437","","survey-text","59","307044","0.0-58.0-0.0","A33B85TN97HQ33","","","","{""Q0"":""makes me think of a farm garden""}","","","","","","","","","","","","","","","","","","","","","","",""
"2342","","image-slider-response","60","309387","0.0-59.0","A33B85TN97HQ33","","","","","7","","","","","","","","","","","","","","","","","","","","","",""
"3423","","image-button-response","61","314395","0.0-60.0","A33B85TN97HQ33","img_art/15.jpg","2","","","","","","","","","","","","","","","","","","","","","","","","",""
"503","","image-button-response","62","314899","0.0-61.0","A33B85TN97HQ33","img_art/15.jpg","2","","","","","","","","","","","","","","","","","","","","","","","","",""
"4007","","image-button-response","63","318907","0.0-62.0-0.0","A33B85TN97HQ33","img_art/15.jpg","4","","","","","","","","","","","","","","","","","","","","","","","","",""
"1286","","image-button-response","64","320195","0.0-63.0-0.0","A33B85TN97HQ33","img_art/15.jpg","5","","","","","","","","","","","","","","","","","","","","","","","","",""
"null","","html-keyboard-response","65","321705","0.0-64.0","A33B85TN97HQ33","<p style=""font-size: 48px;"">+</p>","","","","","null","allTrialResponses","1500","1","3","img_art/15.jpg","7","makes me think of a farm garden","Angelica,Lindsey,Mikayla,Kristen,Tiffany,Kayla","This looks odd and was not well executed.,-3,280,20","Not a fan. This piece would only go with very specific decor in a modern home.,-35,400,20","The dots are cool with the blue accents.,24,300,20","darkness, hatred, fear,-29,280,20","The painting is very relaxing, I'm reminded of sitting in a garden in the evening.,8,360,20","Bushes, good! Life, good!,12,180,20","Mikayla","The dots are cool with the blue accents.,24,300,20","Tiffany","The painting is very relaxing, I'm reminded of sitting in a garden in the evening.,8,360,20","Kayla","Bushes, good! Life, good!,12,180,20","2"
"8541","","survey-text","66","330260","0.0-65.0-0.0","A33B85TN97HQ33","","","","{""Q0"":""too dull and boring""}","","","","","","","","","","","","","","","","","","","","","","",""
"2838","","image-slider-response","67","333099","0.0-66.0","A33B85TN97HQ33","","","","","-43","","","","","","","","","","","","","","","","","","","","","",""
"2655","","image-button-response","68","338114","0.0-67.0","A33B85TN97HQ33","img_art/28.jpg","0","","","","","","","","","","","","","","","","","","","","","","","","",""
"775","","image-button-response","69","338891","0.0-68.0","A33B85TN97HQ33","img_art/28.jpg","0","","","","","","","","","","","","","","","","","","","","","","","","",""
"1462","","image-button-response","70","340356","0.0-69.0-0.0","A33B85TN97HQ33","img_art/28.jpg","3","","","","","","","","","","","","","","","","","","","","","","","","",""
"2182","","image-button-response","71","342539","0.0-70.0-0.0","A33B85TN97HQ33","img_art/28.jpg","5","","","","","","","","","","","","","","","","","","","","","","","","",""
"null","","html-keyboard-response","72","343544","0.0-71.0","A33B85TN97HQ33","<p style=""font-size: 48px;"">+</p>","","","","","null","allTrialResponses","1000","1","4","img_art/28.jpg","-43","too dull and boring","Shelby,Angela,Mikayla,Alyssa,Tiffany,Kayla","This one gives me an uneasy feeling,-10,240,20","This reminds me of internal organs.,-10,260,20","It gives me weird vibes.,-25,300,20","Not a fan of the bleak and dreary colors,-10,160,20","It makes me feel happy, and a little anxious.,50,360,20","Don't love it, don't hate it. It's just there.,1,180,20","Shelby","This one gives me an uneasy feeling,-10,240,20","Alyssa","Not a fan of the bleak and dreary colors,-10,160,20","Kayla","Don't love it, don't hate it. It's just there.,1,180,20","2"
"6899","","survey-text","73","350459","0.0-72.0-0.0","A33B85TN97HQ33","","","","{""Q0"":""looks like a perfume bottle""}","","","","","","","","","","","","","","","","","","","","","","",""
"2527","","image-slider-response","74","352987","0.0-73.0","A33B85TN97HQ33","","","","","6","","","","","","","","","","","","","","","","","","","","","",""
"1760","","image-button-response","75","358004","0.0-74.0","A33B85TN97HQ33","img_art/5.jpg","1","","","","","","","","","","","","","","","","","","","","","","","","",""
"261","","image-button-response","76","358268","0.0-75.0","A33B85TN97HQ33","img_art/5.jpg","0","","","","","","","","","","","","","","","","","","","","","","","","",""
"855","","image-button-response","77","359123","0.0-76.0-0.0","A33B85TN97HQ33","img_art/5.jpg","1","","","","","","","","","","","","","","","","","","","","","","","","",""
"3032","","image-button-response","78","362156","0.0-77.0-0.0","A33B85TN97HQ33","img_art/5.jpg","5","","","","","","","","","","","","","","","","","","","","","","","","",""
"null","","html-keyboard-response","79","362666","0.0-78.0","A33B85TN97HQ33","<p style=""font-size: 48px;"">+</p>","","","","","null","allTrialResponses","500","1","5","img_art/5.jpg","6","looks like a perfume bottle","Shelby,Autumn,Cynthia,Alyssa,Gabriela,Kayla","This feels joyful,39,240,20","Appealing but shapeless,24,340,20","boring and unsure,-25,320,20","It has a sense of vague familiarity that i like.Like a stick starting a fire at a campsite.,30,160,20","I am confused as to what this is supposed to be,6,140,20","I like that the pyramid is putting off a beacon of light.,11,180,20","Shelby","This feels joyful,39,240,20","Autumn","Appealing but shapeless,24,340,20","Kayla","I like that the pyramid is putting off a beacon of light.,11,180,20","2"
"3683","","survey-text","80","366379","0.0-79.0-0.0","A33B85TN97HQ33","","","","{""Q0"":""sky""}","","","","","","","","","","","","","","","","","","","","","","",""
"10447","","survey-text","81","376827","0.0-80.0-0.0","A33B85TN97HQ33","","","","{""Q0"":""has a nice beginning but gets lost""}","","","","","","","","","","","","","","","","","","","","","","",""
"2287","","image-slider-response","82","379116","0.0-81.0","A33B85TN97HQ33","","","","","-42","","","","","","","","","","","","","","","","","","","","","",""
"1670","","image-button-response","83","384125","0.0-82.0","A33B85TN97HQ33","img_art/27.jpg","1","","","","","","","","","","","","","","","","","","","","","","","","",""
"708","","image-button-response","84","384835","0.0-83.0","A33B85TN97HQ33","img_art/27.jpg","2","","","","","","","","","","","","","","","","","","","","","","","","",""
"711","","image-button-response","85","385548","0.0-84.0-0.0","A33B85TN97HQ33","img_art/27.jpg","1","","","","","","","","","","","","","","","","","","","","","","","","",""
"3494","","image-button-response","86","389043","0.0-85.0-0.0","A33B85TN97HQ33","img_art/27.jpg","5","","","","","","","","","","","","","","","","","","","","","","","","",""
"null","","html-keyboard-response","87","390055","0.0-86.0","A33B85TN97HQ33","<p style=""font-size: 48px;"">+</p>","","","","","null","allTrialResponses","1000","1","6","img_art/27.jpg","-42","has a nice beginning but gets lost","Shelby,Autumn,Kelsey,Amanda,Isabella,Kayla","The colors in this one are wonderful,20,240,20","Adult contemporary painting with child.,-33,340,20","too messy dont like the color choices either,-17,240,20","I love the childish aspect to it,37,180,20","Makes me feel warm inside,21,280,20","Don't know what it is, but I do like it.,10,180,20","Kelsey","too messy dont like the color choices either,-17,240,20","Autumn","Adult contemporary painting with child.,-33,340,20","Kayla","Don't know what it is, but I do like it.,10,180,20","2"
"11727","","survey-text","88","401795","0.0-87.0-0.0","A33B85TN97HQ33","","","","{""Q0"":""too messy and unorganized""}","","","","","","","","","","","","","","","","","","","","","","",""
"2302","","image-slider-response","89","404099","0.0-88.0","A33B85TN97HQ33","","","","","-34","","","","","","","","","","","","","","","","","","","","","",""
"4063","","image-button-response","90","409102","0.0-89.0","A33B85TN97HQ33","img_art/9.jpg","1","","","","","","","","","","","","","","","","","","","","","","","","",""
"1843","","image-button-response","91","410947","0.0-90.0","A33B85TN97HQ33","img_art/9.jpg","4","","","","","","","","","","","","","","","","","","","","","","","","",""
"2679","","image-button-response","92","413627","0.0-91.0-0.0","A33B85TN97HQ33","img_art/9.jpg","1","","","","","","","","","","","","","","","","","","","","","","","","",""
"1262","","image-button-response","93","414892","0.0-92.0-0.0","A33B85TN97HQ33","img_art/9.jpg","2","","","","","","","","","","","","","","","","","","","","","","","","",""
"null","","html-keyboard-response","94","416400","0.0-93.0","A33B85TN97HQ33","<p style=""font-size: 48px;"">+</p>","","","","","null","allTrialResponses","1500","1","7","img_art/9.jpg","-34","too messy and unorganized","Sarah,Autumn,Kelsey,Melissa,Chloe,Kayla","I really like the color balance but the image is odd,-5,180,20","Abstract but not well made,-26,340,20","i like the colors but not the composition,-17,240,20","strong focal point, appealing use of selective line,11,240,20","Cheesy. Looks unprofessional,-20,220,20","It's nice. Peaceful. Calming.,11,180,20","Chloe","Cheesy. Looks unprofessional,-20,220,20","Autumn","Abstract but not well made,-26,340,20","Kelsey","i like the colors but not the composition,-17,240,20","2"
"8462","","survey-text","95","424875","0.0-94.0-0.0","A33B85TN97HQ33","","","","{""Q0"":""the bear is cool but the rest is odd""}","","","","","","","","","","","","","","","","","","","","","","",""
"2847","","image-slider-response","96","427723","0.0-95.0","A33B85TN97HQ33","","","","","-4","","","","","","","","","","","","","","","","","","","","","",""
"2207","","image-button-response","97","432725","0.0-96.0","A33B85TN97HQ33","img_art/16.jpg","4","","","","","","","","","","","","","","","","","","","","","","","","",""
"387","","image-button-response","98","433115","0.0-97.0","A33B85TN97HQ33","img_art/16.jpg","4","","","","","","","","","","","","","","","","","","","","","","","","",""
"2135","","image-button-response","99","435251","0.0-98.0-0.0","A33B85TN97HQ33","img_art/16.jpg","5","","","","","","","","","","","","","","","","","","","","","","","","",""
"1455","","image-button-response","100","436707","0.0-99.0-0.0","A33B85TN97HQ33","img_art/16.jpg","0","","","","","","","","","","","","","","","","","","","","","","","","",""
"null","","html-keyboard-response","101","437211","0.0-100.0","A33B85TN97HQ33","<p style=""font-size: 48px;"">+</p>","","","","","null","allTrialResponses","500","1","8","img_art/16.jpg","-4","the bear is cool but the rest is odd","Sydney,Autumn,Kelsey,Caroline,Chloe,Katelyn","This piece is unusual but unique.,5,320,20","Very cool abstraction.,19,340,20","its disturbing! what the heck,-27,240,20","Did not like at all. I think something sinister going on in the background and the bear a diversion,-50,100,20","Fun but a little cheesy,15,220,20","I dont feel any real response,5,100,20","Chloe","Fun but a little cheesy,15,220,20","Katelyn","I dont feel any real response,5,100,20","Sydney","This piece is unusual but unique.,5,320,20","2"
"10657","","survey-text","102","447875","0.0-101.0-0.0","A33B85TN97HQ33","","","","{""Q0"":""i do't know what is going on here""}","","","","","","","","","","","","","","","","","","","","","","",""
"2926","","image-slider-response","103","450803","0.0-102.0","A33B85TN97HQ33","","","","","-44","","","","","","","","","","","","","","","","","","","","","",""
"3455","","image-button-response","104","455807","0.0-103.0","A33B85TN97HQ33","img_art/29.jpg","1","","","","","","","","","","","","","","","","","","","","","","","","",""
"931","","image-button-response","105","456739","0.0-104.0","A33B85TN97HQ33","img_art/29.jpg","1","","","","","","","","","","","","","","","","","","","","","","","","",""
"2558","","image-button-response","106","459299","0.0-105.0-0.0","A33B85TN97HQ33","img_art/29.jpg","3","","","","","","","","","","","","","","","","","","","","","","","","",""
"991","","image-button-response","107","460291","0.0-106.0-0.0","A33B85TN97HQ33","img_art/29.jpg","4","","","","","","","","","","","","","","","","","","","","","","","","",""
"null","","html-keyboard-response","108","461294","0.0-107.0","A33B85TN97HQ33","<p style=""font-size: 48px;"">+</p>","","","","","null","allTrialResponses","1000","1","9","img_art/29.jpg","-44","i do't know what is going on here","Sydney,Vanessa,Shannon,Brittany,Chloe,Katelyn","I like that the colors are toned down even though they're everywhere.,5,320,20","I hate the red x over everything, hate the black hate how hopeless this is.,-50,380,20","I think this image looks ugly and needs more colors so it looks nicer.,-30,220,20","It looks likes there's a lot going on, but they don't fit together.,2,40,20","Looks muddy and sticky,-31,220,20","Grabs interest but then confuses me,6,100,20","Vanessa","I hate the red x over everything, hate the black hate how hopeless this is.,-50,380,20","Brittany","It looks likes there's a lot going on, but they don't fit together.,2,40,20","Chloe","Looks muddy and sticky,-31,220,20","2"
"13851","","survey-text","109","475171","0.0-108.0-0.0","A33B85TN97HQ33","","","","{""Q0"":""seems like an interesting scene""}","","","","","","","","","","","","","","","","","","","","","","",""
"2199","","image-slider-response","110","477370","0.0-109.0","A33B85TN97HQ33","","","","","12","","","","","","","","","","","","","","","","","","","","","",""
"3383","","image-button-response","111","482382","0.0-110.0","A33B85TN97HQ33","img_art/19.jpg","2","","","","","","","","","","","","","","","","","","","","","","","","",""
"403","","image-button-response","112","482787","0.0-111.0","A33B85TN97HQ33","img_art/19.jpg","0","","","","","","","","","","","","","","","","","","","","","","","","",""
"911","","image-button-response","113","483699","0.0-112.0-0.0","A33B85TN97HQ33","img_art/19.jpg","2","","","","","","","","","","","","","","","","","","","","","","","","",""
"5311","","image-button-response","114","489011","0.0-113.0-0.0","A33B85TN97HQ33","img_art/19.jpg","3","","","","","","","","","","","","","","","","","","","","","","","","",""
"null","","html-keyboard-response","115","489513","0.0-114.0","A33B85TN97HQ33","<p style=""font-size: 48px;"">+</p>","","","","","null","allTrialResponses","500","1","10","img_art/19.jpg","12","seems like an interesting scene","Leslie,Vanessa,Mariah,Brittany,Chloe,Jennifer","It's a cute city scene, but nothing special.,10,380,20","Again, this is too abstract.,-10,380,20","I like the watercolor and colors, do not like the deconstructed city scene feel.,0,140,20","It looks too much of a rough sketch. Don't really enjoy looking at it.,-9,40,20","The use of space isn't my favorite.,-20,220,20","Very, very ugly and sloppy,-31,380,20","Leslie","It's a cute city scene, but nothing special.,10,380,20","Mariah","I like the watercolor and colors, do not like the deconstructed city scene feel.,0,140,20","Brittany","It looks too much of a rough sketch. Don't really enjoy looking at it.,-9,40,20","2"
"3563","","survey-text","116","493107","0.0-115.0-0.0","A33B85TN97HQ33","","","","{""Q0"":""our""}","","","","","","","","","","","","","","","","","","","","","","",""
"11623","","survey-text","117","504731","0.0-116.0-0.0","A33B85TN97HQ33","","","","{""Q0"":""the colors are nice but there's nothing else to it""}","","","","","","","","","","","","","","","","","","","","","","",""
"2271","","image-slider-response","118","507002","0.0-117.0","A33B85TN97HQ33","","","","","-16","","","","","","","","","","","","","","","","","","","","","",""
"2703","","image-button-response","119","512024","0.0-118.0","A33B85TN97HQ33","img_art/1.jpg","5","","","","","","","","","","","","","","","","","","","","","","","","",""
"1064","","image-button-response","120","513091","0.0-119.0","A33B85TN97HQ33","img_art/1.jpg","1","","","","","","","","","","","","","","","","","","","","","","","","",""
"919","","image-button-response","121","514010","0.0-120.0-0.0","A33B85TN97HQ33","img_art/1.jpg","2","","","","","","","","","","","","","","","","","","","","","","","","",""
"1631","","image-button-response","122","515643","0.0-121.0-0.0","A33B85TN97HQ33","img_art/1.jpg","0","","","","","","","","","","","","","","","","","","","","","","","","",""
"null","","html-keyboard-response","123","516156","0.0-122.0","A33B85TN97HQ33","<p style=""font-size: 48px;"">+</p>","","","","","null","allTrialResponses","500","1","11","img_art/1.jpg","-16","the colors are nice but there's nothing else to it","Leslie,Kaylee,Mariah,Brittany,Monica,Sara","The use of reds, blues, and yellows together reminds me of fire. Very interesting to look at.,40,380,20","a colorful piece of art,25,200,20","Colors are pleasant, but feels incredibly generic.,9,140,20","It reminds me of a sunset I once saw.,16,40,20","I like the yellow and purple but the large red spot reminds me of blood and isn't great,6,360,20","I feel uneasy looking at this,-41,160,20","Kaylee","a colorful piece of art,25,200,20","Mariah","Colors are pleasant, but feels incredibly generic.,9,140,20","Leslie","The use of reds, blues, and yellows together reminds me of fire. Very interesting to look at.,40,380,20","2"
"10638","","survey-text","124","526810","0.0-123.0-0.0","A33B85TN97HQ33","","","","{""Q0"":""it seems like an ancient drawing""}","","","","","","","","","","","","","","","","","","","","","","",""
"2438","","image-slider-response","125","529251","0.0-124.0","A33B85TN97HQ33","","","","","25","","","","","","","","","","","","","","","","","","","","","",""
"3550","","image-button-response","126","534254","0.0-125.0","A33B85TN97HQ33","img_art/10.jpg","5","","","","","","","","","","","","","","","","","","","","","","","","",""
"147","","image-button-response","127","534403","0.0-126.0","A33B85TN97HQ33","img_art/10.jpg","5","","","","","","","","","","","","","","","","","","","","","","","","",""
"1471","","image-button-response","128","535875","0.0-127.0-0.0","A33B85TN97HQ33","img_art/10.jpg","3","","","","","","","","","","","","","","","","","","","","","","","","",""
"1903","","image-button-response","129","537779","0.0-128.0-0.0","A33B85TN97HQ33","img_art/10.jpg","1","","","","","","","","","","","","","","","","","","","","","","","","",""
"null","","html-keyboard-response","130","538282","0.0-129.0","A33B85TN97HQ33","<p style=""font-size: 48px;"">+</p>","","","","","null","allTrialResponses","500","1","12","img_art/10.jpg","25","it seems like an ancient drawing","Leslie,Kaylee,Mariah,Molly,Maria,Amy","I love the chaotic feel of the brush strokes.,35,380,20","a blue whale on the sea,12,200,20","The colors and shapes are soothing but also disconcerting.,21,140,20","For me, it looks like a giant ship on the sea and it's astonishing.,30,340,20","not sure what to make of this one,0,120,20","Highly abstract and yet the shapes and colors provide an emotional accessibility for me.,20,220,20","Amy","Highly abstract and yet the shapes and colors provide an emotional accessibility for me.,20,220,20","Molly","For me, it looks like a giant ship on the sea and it's astonishing.,30,340,20","Kaylee","a blue whale on the sea,12,200,20","2"
"9148","","survey-text","131","547434","0.0-130.0-0.0","A33B85TN97HQ33","","","","{""Q0"":""the colors are pretty and engaging""}","","","","","","","","","","","","","","","","","","","","","","",""
"2239","","image-slider-response","132","549675","0.0-131.0","A33B85TN97HQ33","","","","","16","","","","","","","","","","","","","","","","","","","","","",""
"1688","","image-button-response","133","554679","0.0-132.0","A33B85TN97HQ33","img_art/21.jpg","1","","","","","","","","","","","","","","","","","","","","","","","","",""
"322","","image-button-response","134","555003","0.0-133.0","A33B85TN97HQ33","img_art/21.jpg","1","","","","","","","","","","","","","","","","","","","","","","","","",""
"2223","","image-button-response","135","557226","0.0-134.0-0.0","A33B85TN97HQ33","img_art/21.jpg","4","","","","","","","","","","","","","","","","","","","","","","","","",""
"1246","","image-button-response","136","558474","0.0-135.0-0.0","A33B85TN97HQ33","img_art/21.jpg","5","","","","","","","","","","","","","","","","","","","","","","","","",""
"null","","html-keyboard-response","137","559976","0.0-136.0","A33B85TN97HQ33","<p style=""font-size: 48px;"">+</p>","","","","","null","allTrialResponses","1500","1","13","img_art/21.jpg","16","the colors are pretty and engaging","Madison,Kaylee,Miranda,Molly,Heather,Amy","War! But then, what? And then, what of it? Intention seems incomplete, or not fully committed to.,-19,60,20","looks like a sea during some war,27,200,20","This looks very interesting because something is happening but I can't tell what.,28,320,20","Looks like a war. Many things happening on the painting, really enjoy it.,30,340,20","The color spectrum is just beautiful.,32,260,20","A landscape that leaves me inspired and hopeful.,20,220,20","Kaylee","looks like a sea during some war,27,200,20","Heather","The color spectrum is just beautiful.,32,260,20","Amy","A landscape that leaves me inspired and hopeful.,20,220,20","2"
"9027","","survey-text","138","569018","0.0-137.0-0.0","A33B85TN97HQ33","","","","{""Q0"":""seems too messy""}","","","","","","","","","","","","","","","","","","","","","","",""
"2415","","image-slider-response","139","571434","0.0-138.0","A33B85TN97HQ33","","","","","-38","","","","","","","","","","","","","","","","","","","","","",""
"3855","","image-button-response","140","576439","0.0-139.0","A33B85TN97HQ33","img_art/13.jpg","1","","","","","","","","","","","","","","","","","","","","","","","","",""
"274","","image-button-response","141","576714","0.0-140.0","A33B85TN97HQ33","img_art/13.jpg","1","","","","","","","","","","","","","","","","","","","","","","","","",""
"11159","","image-button-response","142","587874","0.0-141.0-0.0","A33B85TN97HQ33","img_art/13.jpg","5","","","","","","","","","","","","","","","","","","","","","","","","",""
"7655","","image-button-response","143","595530","0.0-142.0-0.0","A33B85TN97HQ33","img_art/13.jpg","4","","","","","","","","","","","","","","","","","","","","","","","","",""
"null","","html-keyboard-response","144","597033","0.0-143.0","A33B85TN97HQ33","<p style=""font-size: 48px;"">+</p>","","","","","null","allTrialResponses","1500","1","14","img_art/13.jpg","-38","seems too messy","Hannah,Kaylee,Brianna,Claire,Heather,Amy","Like this a lot and would hang in my house.,27,240,20","its crazy to the point that i cant get it,-28,200,20","This is a very cool painting, something an art teacher or professor would own.,22,20,20","love the colors and splatters,44,260,20","rain in blue black and white,1,260,20","I recognize the beauty of this but FOR ME its large degree of abstraction diminishes my emotional interaction.,-10,220,20","Kaylee","its crazy to the point that i cant get it,-28,200,20","Amy","I recognize the beauty of this but FOR ME its large degree of abstraction diminishes my emotional interaction.,-10,220,20","Heather","rain in blue black and white,1,260,20","2"
"10298","","survey-text","145","607347","0.0-144.0-0.0","A33B85TN97HQ33","","","","{""Q0"":""the color choices are original""}","","","","","","","","","","","","","","","","","","","","","","",""
"3111","","image-slider-response","146","610458","0.0-145.0","A33B85TN97HQ33","","","","","3","","","","","","","","","","","","","","","","","","","","","",""
"3975","","image-button-response","147","615464","0.0-146.0","A33B85TN97HQ33","img_art/12.jpg","4","","","","","","","","","","","","","","","","","","","","","","","","",""
"592","","image-button-response","148","616058","0.0-147.0","A33B85TN97HQ33","img_art/12.jpg","4","","","","","","","","","","","","","","","","","","","","","","","","",""
"967","","image-button-response","149","617026","0.0-148.0-0.0","A33B85TN97HQ33","img_art/12.jpg","3","","","","","","","","","","","","","","","","","","","","","","","","",""
"3310","","image-button-response","150","620339","0.0-149.0-0.0","A33B85TN97HQ33","img_art/12.jpg","0","","","","","","","","","","","","","","","","","","","","","","","","",""
"null","","html-keyboard-response","151","620842","0.0-150.0","A33B85TN97HQ33","<p style=""font-size: 48px;"">+</p>","","","","","null","allTrialResponses","500","1","15","img_art/12.jpg","3","the color choices are original","Allison,Kaylee,Laura,Erica,Heather,Amy","Minimalist colors and shapes.,-5,140,20","wtf is that i dont get it,-50,200,20","angry, disturbed and sharp,-25,320,20","good colours scheme; organised,17,80,20","beautiful also reminds me of a quilt,1,260,20","Quite lovely with depth and possibility.,21,220,20","Heather","beautiful also reminds me of a quilt,1,260,20","Erica","good colours scheme; organised,17,80,20","Allison","Minimalist colors and shapes.,-5,140,20","2"
"4006","","survey-text","152","624882","0.0-151.0-0.0","A33B85TN97HQ33","","","","{""Q0"":""course""}","","","","","","","","","","","","","","","","","","","","","","",""
"15255","","survey-text","153","640138","0.0-152.0-0.0","A33B85TN97HQ33","","","","{""Q0"":""i thought it was a bird at first but it's interesting""}","","","","","","","","","","","","","","","","","","","","","","",""
"2270","","image-slider-response","154","642410","0.0-153.0","A33B85TN97HQ33","","","","","5","","","","","","","","","","","","","","","","","","","","","",""
"2495","","image-button-response","155","647424","0.0-154.0","A33B85TN97HQ33","img_art/6.jpg","2","","","","","","","","","","","","","","","","","","","","","","","","",""
"611","","image-button-response","156","648042","0.0-155.0","A33B85TN97HQ33","img_art/6.jpg","2","","","","","","","","","","","","","","","","","","","","","","","","",""
"1670","","image-button-response","157","649714","0.0-156.0-0.0","A33B85TN97HQ33","img_art/6.jpg","3","","","","","","","","","","","","","","","","","","","","","","","","",""
"4646","","image-button-response","158","654362","0.0-157.0-0.0","A33B85TN97HQ33","img_art/6.jpg","0","","","","","","","","","","","","","","","","","","","","","","","","",""
"null","","html-keyboard-response","159","655867","0.0-158.0","A33B85TN97HQ33","<p style=""font-size: 48px;"">+</p>","","","","","null","allTrialResponses","1500","1","16","img_art/6.jpg","5","i thought it was a bird at first but it's interesting","Allison,Bailey,Michaela,Erica,Heather,Makayla","Simple desert scene.,5,140,20","Not my favorite, but I like the empty vibe and the imagination it invokes. A skinny girl with long legs, perhaps, looking over a cliff,9,360,20","It looks like a bird looking away,32,260,20","positive because of bright colours and a bird,20,80,20","it looks like a stick holding a wig on a cliff,21,260,20","Don't like the black space,2,80,20","Michaela","It looks like a bird looking away,32,260,20","Erica","positive because of bright colours and a bird,20,80,20","Allison","Simple desert scene.,5,140,20","2"
"9568","","survey-text","160","665450","0.0-159.0-0.0","A33B85TN97HQ33","","","","{""Q0"":""this is too much like a child's drawing""}","","","","","","","","","","","","","","","","","","","","","","",""
"2230","","image-slider-response","161","667682","0.0-160.0","A33B85TN97HQ33","","","","","-35","","","","","","","","","","","","","","","","","","","","","",""
"4007","","image-button-response","162","672704","0.0-161.0","A33B85TN97HQ33","img_art/26.jpg","0","","","","","","","","","","","","","","","","","","","","","","","","",""
"191","","image-button-response","163","672898","0.0-162.0","A33B85TN97HQ33","img_art/26.jpg","0","","","","","","","","","","","","","","","","","","","","","","","","",""
"1343","","image-button-response","164","674242","0.0-163.0-0.0","A33B85TN97HQ33","img_art/26.jpg","1","","","","","","","","","","","","","","","","","","","","","","","","",""
"3671","","image-button-response","165","677914","0.0-164.0-0.0","A33B85TN97HQ33","img_art/26.jpg","5","","","","","","","","","","","","","","","","","","","","","","","","",""
"null","","html-keyboard-response","166","679433","0.0-165.0","A33B85TN97HQ33","<p style=""font-size: 48px;"">+</p>","","","","","null","allTrialResponses","1500","1","17","img_art/26.jpg","-35","this is too much like a child's drawing","Allison,Kaitlyn,Michaela,Erica,Paige,Anna","pretty colors, but sketch style isn't for me,10,140,20","The colors look faded and blurry,2,80,20","Elevator art but the watercolors are good,29,260,20","very relaxing and easy going,22,80,20","somewhat happy, like being outside on a nice day,30,60,20","It looks like a watercolor I did when I was 6.,-30,300,20","Allison","pretty colors, but sketch style isn't for me,10,140,20","Kaitlyn","The colors look faded and blurry,2,80,20","Anna","It looks like a watercolor I did when I was 6.,-30,300,20","2"
"9577","","survey-text","167","689026","0.0-166.0-0.0","A33B85TN97HQ33","","","","{""Q0"":""seems too angry and hostile""}","","","","","","","","","","","","","","","","","","","","","","",""
"2134","","image-slider-response","168","691162","0.0-167.0","A33B85TN97HQ33","","","","","-38","","","","","","","","","","","","","","","","","","","","","",""
"null","","image-button-response","169","696174","0.0-168.0","A33B85TN97HQ33","img_art/20.jpg","null","","","","","","","","","","","","","","","","","","","","","","","","",""
"961","","image-button-response","170","697138","0.0-169.0","A33B85TN97HQ33","img_art/20.jpg","4","","","","","","","","","","","","","","","","","","","","","","","","",""
"2496","","image-button-response","171","699634","0.0-170.0-0.0","A33B85TN97HQ33","img_art/20.jpg","1","","","","","","","","","","","","","","","","","","","","","","","","",""
"2726","","image-button-response","172","702362","0.0-171.0-0.0","A33B85TN97HQ33","img_art/20.jpg","0","","","","","","","","","","","","","","","","","","","","","","","","",""
"null","","html-keyboard-response","173","703382","0.0-172.0","A33B85TN97HQ33","<p style=""font-size: 48px;"">+</p>","","","","","null","allTrialResponses","1000","1","18","img_art/20.jpg","-38","seems too angry and hostile","Allison,Kaitlyn,Morgan,Jasmine,Brooke,Anna","Melty picture. Reminiscent of Dali.,10,140,20","The picture looks smudged and dirty,-4,80,20","The beach and industry.,12,380,20","This one is okay but I don't really care for it,5,340,20","Dinosaur skill and some dark shadow above,-30,60,20","I would like it more without the frame.,10,300,20","Brooke","Dinosaur skill and some dark shadow above,-30,60,20","Kaitlyn","The picture looks smudged and dirty,-4,80,20","Allison","Melty picture. Reminiscent of Dali.,10,140,20","2"
"14084","","survey-text","174","717481","0.0-173.0-0.0","A33B85TN97HQ33","","","","{""Q0"":""it looks like the artist changed their mind at the last minute""}","","","","","","","","","","","","","","","","","","","","","","",""
"2398","","image-slider-response","175","719882","0.0-174.0","A33B85TN97HQ33","","","","","-29","","","","","","","","","","","","","","","","","","","","","",""
"1991","","image-button-response","176","724892","0.0-175.0","A33B85TN97HQ33","img_art/30.jpg","1","","","","","","","","","","","","","","","","","","","","","","","","",""
"388","","image-button-response","177","725281","0.0-176.0","A33B85TN97HQ33","img_art/30.jpg","1","","","","","","","","","","","","","","","","","","","","","","","","",""
"655","","image-button-response","178","725937","0.0-177.0-0.0","A33B85TN97HQ33","img_art/30.jpg","0","","","","","","","","","","","","","","","","","","","","","","","","",""
"7694","","image-button-response","179","733634","0.0-178.0-0.0","A33B85TN97HQ33","img_art/30.jpg","5","","","","","","","","","","","","","","","","","","","","","","","","",""
"null","","html-keyboard-response","180","734144","0.0-179.0","A33B85TN97HQ33","<p style=""font-size: 48px;"">+</p>","","","","","null","allTrialResponses","500","1","19","img_art/30.jpg","-29","it looks like the artist changed their mind at the last minute","Allison,Kaitlyn,Alexandra,Nicole,Brooke,Alexa","Dislike the contrast here.,-5,140,20","Do not like the streaks,-14,80,20","I really love the pastel colors and the 3D design in this,43,60,20","I like the softness of this but it doesn't make me feel that nice,5,20,20","Like the color and style,31,60,20","Looks quite basic but the colors are nice and there is a wildness about it that I love,0,40,20","Kaitlyn","Do not like the streaks,-14,80,20","Allison","Dislike the contrast here.,-5,140,20","Alexa","Looks quite basic but the colors are nice and there is a wildness about it that I love,0,40,20","2"
"11529","","survey-text","181","745697","0.0-180.0-0.0","A33B85TN97HQ33","","","","{""Q0"":""has a peaceful feel to it""}","","","","","","","","","","","","","","","","","","","","","","",""
"2054","","image-slider-response","182","747753","0.0-181.0","A33B85TN97HQ33","","","","","7","","","","","","","","","","","","","","","","","","","","","",""
"2216","","image-button-response","183","752757","0.0-182.0","A33B85TN97HQ33","img_art/14.jpg","1","","","","","","","","","","","","","","","","","","","","","","","","",""
"251","","image-button-response","184","753009","0.0-183.0","A33B85TN97HQ33","img_art/14.jpg","1","","","","","","","","","","","","","","","","","","","","","","","","",""
"2472","","image-button-response","185","755482","0.0-184.0-0.0","A33B85TN97HQ33","img_art/14.jpg","5","","","","","","","","","","","","","","","","","","","","","","","","",""
"2582","","image-button-response","186","758066","0.0-185.0-0.0","A33B85TN97HQ33","img_art/14.jpg","4","","","","","","","","","","","","","","","","","","","","","","","","",""
"null","","html-keyboard-response","187","759070","0.0-186.0","A33B85TN97HQ33","<p style=""font-size: 48px;"">+</p>","","","","","null","allTrialResponses","1000","1","20","img_art/14.jpg","7","has a peaceful feel to it","Allison,Kaitlyn,Abigail,Megan,Erin,Alexa","Very abstract. Unsure of what I'm looking at. No emotions towards it.,-6,140,20","Focal point is interesting,5,80,20","Reminds me of art class,22,20,20","Baby's room palette with tree confusion in a more confused substrate.,-15,200,20","Looks childish and basic,-42,120,20","Very abstract and colorful,40,40,20","Kaitlyn","Focal point is interesting,5,80,20","Alexa","Very abstract and colorful,40,40,20","Erin","Looks childish and basic,-42,120,20","2"
"4135","","survey-text","188","763249","0.0-187.0-0.0","A33B85TN97HQ33","","","","{""Q0"":""we""}","","","","","","","","","","","","","","","","","","","","","","",""
"8879","","survey-text","189","772129","0.0-188.0-0.0","A33B85TN97HQ33","","","","{""Q0"":""looks like a child's painting""}","","","","","","","","","","","","","","","","","","","","","","",""
"2086","","image-slider-response","190","774217","0.0-189.0","A33B85TN97HQ33","","","","","-28","","","","","","","","","","","","","","","","","","","","","",""
"1543","","image-button-response","191","779232","0.0-190.0","A33B85TN97HQ33","img_art/2.jpg","1","","","","","","","","","","","","","","","","","","","","","","","","",""
"327","","image-button-response","192","779562","0.0-191.0","A33B85TN97HQ33","img_art/2.jpg","1","","","","","","","","","","","","","","","","","","","","","","","","",""
"1366","","image-button-response","193","780929","0.0-192.0-0.0","A33B85TN97HQ33","img_art/2.jpg","2","","","","","","","","","","","","","","","","","","","","","","","","",""
"736","","image-button-response","194","781666","0.0-193.0-0.0","A33B85TN97HQ33","img_art/2.jpg","0","","","","","","","","","","","","","","","","","","","","","","","","",""
"null","","html-keyboard-response","195","783167","0.0-194.0","A33B85TN97HQ33","<p style=""font-size: 48px;"">+</p>","","","","","null","allTrialResponses","1500","1","21","img_art/2.jpg","-28","looks like a child's painting","Alexis,Kaitlyn,Katie,Katherine,Erin,Alexa","Do not like this type of abstract work,-50,100,20","Too jumbled and disorienting,-13,80,20","Doesn't look like anything. Just a blob of colors.,1,160,20","The color combo is kind of ugly but there's something charming about it still,17,120,20","There is an odd face here that is creepy,-4,120,20","Not my favorite but I can see this being hung in a art museum,25,40,20","Kaitlyn","Too jumbled and disorienting,-13,80,20","Katie","Doesn't look like anything. Just a blob of colors.,1,160,20","Alexis","Do not like this type of abstract work,-50,100,20","2"
"10013","","survey-text","196","793201","0.0-195.0-0.0","A33B85TN97HQ33","","","","{""Q0"":""has a crowd feel to it""}","","","","","","","","","","","","","","","","","","","","","","",""
"1982","","image-slider-response","197","795185","0.0-196.0","A33B85TN97HQ33","","","","","-29","","","","","","","","","","","","","","","","","","","","","",""
"3279","","image-button-response","198","800203","0.0-197.0","A33B85TN97HQ33","img_art/23.jpg","0","","","","","","","","","","","","","","","","","","","","","","","","",""
"420","","image-button-response","199","800625","0.0-198.0","A33B85TN97HQ33","img_art/23.jpg","0","","","","","","","","","","","","","","","","","","","","","","","","",""
"1631","","image-button-response","200","802258","0.0-199.0-0.0","A33B85TN97HQ33","img_art/23.jpg","3","","","","","","","","","","","","","","","","","","","","","","","","",""
"2606","","image-button-response","201","804865","0.0-200.0-0.0","A33B85TN97HQ33","img_art/23.jpg","5","","","","","","","","","","","","","","","","","","","","","","","","",""
"null","","html-keyboard-response","202","806371","0.0-201.0","A33B85TN97HQ33","<p style=""font-size: 48px;"">+</p>","","","","","null","allTrialResponses","1500","1","22","img_art/23.jpg","-29","has a crowd feel to it","Alexis,Kaitlyn,Katie,Jordan,Taylor,Stephanie","Pretty cool. I love the white, reminds me of people lined up.,28,100,20","Interesting contrast,9,80,20","I don't get it! the white in the middle of the speckled rainbow is confusing.,-10,160,20","NO, I don't get it,-50,20,20","The color contrast makes me happy,40,340,20","This makes me think of an orchestra playing a forth of july song,12,300,20","Alexis","Pretty cool. I love the white, reminds me of people lined up.,28,100,20","Jordan","NO, I don't get it,-50,20,20","Stephanie","This makes me think of an orchestra playing a forth of july song,12,300,20","2"
"13011","","survey-text","203","819401","0.0-202.0-0.0","A33B85TN97HQ33","","","","{""Q0"":""the person looks like a skeleton""}","","","","","","","","","","","","","","","","","","","","","","",""
"2062","","image-slider-response","204","821465","0.0-203.0","A33B85TN97HQ33","","","","","-13","","","","","","","","","","","","","","","","","","","","","",""
"2199","","image-button-response","205","826483","0.0-204.0","A33B85TN97HQ33","img_art/25.jpg","0","","","","","","","","","","","","","","","","","","","","","","","","",""
"532","","image-button-response","206","827017","0.0-205.0","A33B85TN97HQ33","img_art/25.jpg","0","","","","","","","","","","","","","","","","","","","","","","","","",""
"1855","","image-button-response","207","828873","0.0-206.0-0.0","A33B85TN97HQ33","img_art/25.jpg","2","","","","","","","","","","","","","","","","","","","","","","","","",""
"3718","","image-button-response","208","832594","0.0-207.0-0.0","A33B85TN97HQ33","img_art/25.jpg","4","","","","","","","","","","","","","","","","","","","","","","","","",""
"null","","html-keyboard-response","209","834102","0.0-208.0","A33B85TN97HQ33","<p style=""font-size: 48px;"">+</p>","","","","","null","allTrialResponses","1500","1","23","img_art/25.jpg","-13","the person looks like a skeleton","Alexis,Kelly,Rachel,Jordan,Kaitlin,Stephanie","Reminds me of cave drawings,21,100,20","I love the color. I don't know what exactly is going on but I like it.,24,220,20","I like the green color, but the combination of green and a person with a long neck reminds me of aliens,-27,80,20","It's fine, belongs in a church, or somewhere else mystical,15,20,20","i feel a bit dull, a bit scared,-20,60,20","It made me think of healing.,22,300,20","Alexis","Reminds me of cave drawings,21,100,20","Rachel","I like the green color, but the combination of green and a person with a long neck reminds me of aliens,-27,80,20","Kaitlin","i feel a bit dull, a bit scared,-20,60,20","2"
"9210","","survey-text","210","843330","0.0-209.0-0.0","A33B85TN97HQ33","","","","{""Q0"":""scene is peaceful and nice""}","","","","","","","","","","","","","","","","","","","","","","",""
"3198","","image-slider-response","211","846529","0.0-210.0","A33B85TN97HQ33","","","","","10","","","","","","","","","","","","","","","","","","","","","",""
"3807","","image-button-response","212","851543","0.0-211.0","A33B85TN97HQ33","img_art/24.jpg","3","","","","","","","","","","","","","","","","","","","","","","","","",""
"1190","","image-button-response","213","852737","0.0-212.0","A33B85TN97HQ33","img_art/24.jpg","0","","","","","","","","","","","","","","","","","","","","","","","","",""
"3334","","image-button-response","214","856073","0.0-213.0-0.0","A33B85TN97HQ33","img_art/24.jpg","2","","","","","","","","","","","","","","","","","","","","","","","","",""
"1742","","image-button-response","215","857818","0.0-214.0-0.0","A33B85TN97HQ33","img_art/24.jpg","4","","","","","","","","","","","","","","","","","","","","","","","","",""
"null","","html-keyboard-response","216","858826","0.0-215.0","A33B85TN97HQ33","<p style=""font-size: 48px;"">+</p>","","","","","null","allTrialResponses","1000","1","24","img_art/24.jpg","10","scene is peaceful and nice","Alexis,Gabrielle,Rachel,Courtney,Kaitlin,Marissa","Simple. Not too abstract. Love the different flower colors.,20,100,20","flowing water part is good, some of the rest is ok but dark,14,160,20","Looks like a beautiful stream rolling through terrain of rocks and flowers.,43,80,20","What a nice refreshing waterfall.,39,280,20","Aww. I love the peace brought by this picture.,40,60,20","It feels very serene,19,160,20","Alexis","Simple. Not too abstract. Love the different flower colors.,20,100,20","Rachel","Looks like a beautiful stream rolling through terrain of rocks and flowers.,43,80,20","Kaitlin","Aww. I love the peace brought by this picture.,40,60,20","2"
"12115","","survey-text","217","870961","0.0-216.0-0.0","A33B85TN97HQ33","","","","{""Q0"":""this looks like the ground in the desert""}","","","","","","","","","","","","","","","","","","","","","","",""
"2030","","image-slider-response","218","872993","0.0-217.0","A33B85TN97HQ33","","","","","-17","","","","","","","","","","","","","","","","","","","","","",""
"2455","","image-button-response","219","878002","0.0-218.0","A33B85TN97HQ33","img_art/7.jpg","1","","","","","","","","","","","","","","","","","","","","","","","","",""
"588","","image-button-response","220","878594","0.0-219.0","A33B85TN97HQ33","img_art/7.jpg","1","","","","","","","","","","","","","","","","","","","","","","","","",""
"750","","image-button-response","221","879345","0.0-220.0-0.0","A33B85TN97HQ33","img_art/7.jpg","2","","","","","","","","","","","","","","","","","","","","","","","","",""
"2783","","image-button-response","222","882129","0.0-221.0-0.0","A33B85TN97HQ33","img_art/7.jpg","3","","","","","","","","","","","","","","","","","","","","","","","","",""
"null","","html-keyboard-response","223","883132","0.0-222.0","A33B85TN97HQ33","<p style=""font-size: 48px;"">+</p>","","","","","null","allTrialResponses","1000","1","25","img_art/7.jpg","-17","this looks like the ground in the desert","Alexis,Alexandria,Rachel,Cassandra,Kaitlin,Lauren","Looks like bad wallpaper,-29,100,20","reminds me of the desert,-20,80,20","Looks like a desert or another planet. While the color choices are narrow, it's still interesting because it is very natural.,12,80,20","Just neutral...looks like sand at the beach.,3,120,20","I'm not too sure about this one,-10,60,20","I like how the image has a sense of history, since the style looks like it came from stone.,20,340,20","Alexandria","reminds me of the desert,-20,80,20","Rachel","Looks like a desert or another planet. While the color choices are narrow, it's still interesting because it is very natural.,12,80,20","Cassandra","Just neutral...looks like sand at the beach.,3,120,20","2"
"3426","","survey-text","224","886601","0.0-223.0-0.0","A33B85TN97HQ33","","","","{""Q0"":""table""}","","","","","","","","","","","","","","","","","","","","","","",""
"16422","","survey-text","225","903024","0.0-224.0-0.0","A33B85TN97HQ33","","","","{""Q0"":""too much use of red for me""}","","","","","","","","","","","","","","","","","","","","","","",""
"1968","","image-slider-response","226","904993","0.0-225.0","A33B85TN97HQ33","","","","","-11","","","","","","","","","","","","","","","","","","","","","",""
"3918","","image-button-response","227","910004","0.0-226.0","A33B85TN97HQ33","img_art/22.jpg","3","","","","","","","","","","","","","","","","","","","","","","","","",""
"627","","image-button-response","228","910633","0.0-227.0","A33B85TN97HQ33","img_art/22.jpg","3","","","","","","","","","","","","","","","","","","","","","","","","",""
"1671","","image-button-response","229","912305","0.0-228.0-0.0","A33B85TN97HQ33","img_art/22.jpg","5","","","","","","","","","","","","","","","","","","","","","","","","",""
"6239","","image-button-response","230","918545","0.0-229.0-0.0","A33B85TN97HQ33","img_art/22.jpg","2","","","","","","","","","","","","","","","","","","","","","","","","",""
"null","","html-keyboard-response","231","920052","0.0-230.0","A33B85TN97HQ33","<p style=""font-size: 48px;"">+</p>","","","","","null","allTrialResponses","1500","1","26","img_art/22.jpg","-11","too much use of red for me","Jenna,Alexandria,Rachel,Cassandra,Elizabeth,Julia","beautiful. love the bright colors & soft brush strokes, and the imprint of the key is genius.,50,360,20","the colors and shapes makes me want to keep looking at it,22,80,20","I like the vivid colors.,11,80,20","Don't like it...too much red,-17,120,20","Great color palette,29,20,20","this is too generic,-27,40,20","Cassandra","Don't like it...too much red,-17,120,20","Julia","this is too generic,-27,40,20","Rachel","I like the vivid colors.,11,80,20","2"
"20466","","survey-text","232","940536","0.0-231.0-0.0","A33B85TN97HQ33","","","","{""Q0"":""it is interesting with the use of the minimal colors""}","","","","","","","","","","","","","","","","","","","","","","",""
"2207","","image-slider-response","233","942745","0.0-232.0","A33B85TN97HQ33","","","","","7","","","","","","","","","","","","","","","","","","","","","",""
"null","","image-button-response","234","947750","0.0-233.0","A33B85TN97HQ33","img_art/17.jpg","null","","","","","","","","","","","","","","","","","","","","","","","","",""
"961","","image-button-response","235","948712","0.0-234.0","A33B85TN97HQ33","img_art/17.jpg","3","","","","","","","","","","","","","","","","","","","","","","","","",""
"974","","image-button-response","236","949689","0.0-235.0-0.0","A33B85TN97HQ33","img_art/17.jpg","4","","","","","","","","","","","","","","","","","","","","","","","","",""
"1734","","image-button-response","237","951424","0.0-236.0-0.0","A33B85TN97HQ33","img_art/17.jpg","1","","","","","","","","","","","","","","","","","","","","","","","","",""
"null","","html-keyboard-response","238","952942","0.0-237.0","A33B85TN97HQ33","<p style=""font-size: 48px;"">+</p>","","","","","null","allTrialResponses","1500","1","27","img_art/17.jpg","7","it is interesting with the use of the minimal colors","Dominique,Natalie,Rachel,Cassandra,Chelsea,Julia","Another favorite a relaxing day with nature a day to take it all In,34,400,20","my response to the picture is that it looks beautiful,27,400,20","Reminds me of a beautiful tree growing in a courtyard. I like the light and airy technique used.,34,80,20","Very pretty...the colors and good and flow well.,33,120,20","The colors are soft.,32,180,20","I'm not into paintings of trees,-18,40,20","Cassandra","Very pretty...the colors and good and flow well.,33,120,20","Chelsea","The colors are soft.,32,180,20","Natalie","my response to the picture is that it looks beautiful,27,400,20","2"
"11014","","survey-text","239","963977","0.0-238.0-0.0","A33B85TN97HQ33","","","","{""Q0"":""reminds me of powerlines blowing in a storm""}","","","","","","","","","","","","","","","","","","","","","","",""
"2158","","image-slider-response","240","966137","0.0-239.0","A33B85TN97HQ33","","","","","-17","","","","","","","","","","","","","","","","","","","","","",""
"3288","","image-button-response","241","971141","0.0-240.0","A33B85TN97HQ33","img_art/11.jpg","0","","","","","","","","","","","","","","","","","","","","","","","","",""
"170","","image-button-response","242","971313","0.0-241.0","A33B85TN97HQ33","img_art/11.jpg","0","","","","","","","","","","","","","","","","","","","","","","","","",""
"1463","","image-button-response","243","972777","0.0-242.0-0.0","A33B85TN97HQ33","img_art/11.jpg","2","","","","","","","","","","","","","","","","","","","","","","","","",""
"3966","","image-button-response","244","976745","0.0-243.0-0.0","A33B85TN97HQ33","img_art/11.jpg","5","","","","","","","","","","","","","","","","","","","","","","","","",""
"null","","html-keyboard-response","245","977258","0.0-244.0","A33B85TN97HQ33","<p style=""font-size: 48px;"">+</p>","","","","","null","allTrialResponses","500","1","28","img_art/11.jpg","-17","reminds me of powerlines blowing in a storm","Kimberly,Natalie,Olivia,Cassandra,Chelsea,Savannah","It's cables in a city,21,260,20","pic looks alright,8,400,20","business of traffic,10,40,20","I liked it it looked like an roller coasters at an amusment park.,16,120,20","I like the harsh black lines against a soft background.,27,180,20","Not quite as abstract as I'd like- It's clearly a dingy city.,-18,200,20","Kimberly","It's cables in a city,21,260,20","Olivia","business of traffic,10,40,20","Savannah","Not quite as abstract as I'd like- It's clearly a dingy city.,-18,200,20","2"
"14320","","survey-text","246","991601","0.0-245.0-0.0","A33B85TN97HQ33","","","","{""Q0"":""unsure what to make of the hand looking like that""}","","","","","","","","","","","","","","","","","","","","","","",""
"1998","","image-slider-response","247","993600","0.0-246.0","A33B85TN97HQ33","","","","","-30","","","","","","","","","","","","","","","","","","","","","",""
"4030","","image-button-response","248","998612","0.0-247.0","A33B85TN97HQ33","img_art/4.jpg","4","","","","","","","","","","","","","","","","","","","","","","","","",""
"787","","image-button-response","249","999401","0.0-248.0","A33B85TN97HQ33","img_art/4.jpg","4","","","","","","","","","","","","","","","","","","","","","","","","",""
"1078","","image-button-response","250","1000480","0.0-249.0-0.0","A33B85TN97HQ33","img_art/4.jpg","5","","","","","","","","","","","","","","","","","","","","","","","","",""
"2046","","image-button-response","251","1002528","0.0-250.0-0.0","A33B85TN97HQ33","img_art/4.jpg","0","","","","","","","","","","","","","","","","","","","","","","","","",""
"null","","html-keyboard-response","252","1003541","0.0-251.0","A33B85TN97HQ33","<p style=""font-size: 48px;"">+</p>","","","","","null","allTrialResponses","1000","1","29","img_art/4.jpg","-30","unsure what to make of the hand looking like that","Kimberly,Andrea,Olivia,Amber,Destiny,Savannah","It's ok, theres nothing that draws me away from it I guess,0,260,20","I think it speaks to familial closeness but the tonality is offputting to me.,-10,240,20","The muted tones,-11,40,20","I like the bold style.,10,200,20","it looks like a preschooler just dragged his fingers around,-36,360,20","Colors are horrendous, look like bodily fluids have been smeared.,-50,200,20","Destiny","it looks like a preschooler just dragged his fingers around,-36,360,20","Savannah","Colors are horrendous, look like bodily fluids have been smeared.,-50,200,20","Kimberly","It's ok, theres nothing that draws me away from it I guess,0,260,20","2"
"12022","","survey-text","253","1015584","0.0-252.0-0.0","A33B85TN97HQ33","","","","{""Q0"":""the colors are too dull here""}","","","","","","","","","","","","","","","","","","","","","","",""
"1989","","image-slider-response","254","1017576","0.0-253.0","A33B85TN97HQ33","","","","","-15","","","","","","","","","","","","","","","","","","","","","",""
"3270","","image-button-response","255","1022579","0.0-254.0","A33B85TN97HQ33","img_art/18.jpg","1","","","","","","","","","","","","","","","","","","","","","","","","",""
"516","","image-button-response","256","1023096","0.0-255.0","A33B85TN97HQ33","img_art/18.jpg","1","","","","","","","","","","","","","","","","","","","","","","","","",""
"1807","","image-button-response","257","1024905","0.0-256.0-0.0","A33B85TN97HQ33","img_art/18.jpg","3","","","","","","","","","","","","","","","","","","","","","","","","",""
"750","","image-button-response","258","1025656","0.0-257.0-0.0","A33B85TN97HQ33","img_art/18.jpg","3","","","","","","","","","","","","","","","","","","","","","","","","",""
"5881","","image-button-response","259","1034345","0.0-257.1-0.1","A33B85TN97HQ33","img_art/18.jpg","4","","","","","","","","","","","","","","","","","","","","","","","","",""
"null","","html-keyboard-response","260","1035855","0.0-258.0","A33B85TN97HQ33","<p style=""font-size: 48px;"">+</p>","","","","","null","allTrialResponses","1500","1","30","img_art/18.jpg","-15","the colors are too dull here","Kimberly,Margaret,Hailey,Alicia,Destiny,Savannah","I enjoy the detailed line work in this one,21,260,20","reminds me of dying at sea in the 1700s,-8,100,20","i like the colors. outerspace,21,200,20","Skeletons, death, bleak colors, still kinda like it.,16,120,20","Can't tell if I love it or hate it. That response warranted more than neutral so I gave it 20 but not sure,21,360,20","Accents make this piece.,21,200,20","Margaret","reminds me of dying at sea in the 1700s,-8,100,20","Alicia","Skeletons, death, bleak colors, still kinda like it.,16,120,20","Destiny","Can't tell if I love it or hate it. That response warranted more than neutral so I gave it 20 but not sure,21,360,20","4"
"9471","","image-button-response_instructions","261","1045344","0.0-259.0","A33B85TN97HQ33","","0","instructions","","","","","","","","","","","","","","","","","","","","","","","",""
