"rt","url","trial_type","trial_index","time_elapsed","internal_node_id","participant_id","stimulus","button_pressed","Name","responses","response","key_press","variableName","fixationTime","condition","trial","photo","subjectRating","subjectResponse","agentsNames","agent_1_Response","agent_2_Response","agent_3_Response","agent_4_Response","agent_5_Response","agent_6_Response","kept_1_name","kept_1_response","kept_2_name","kept_2_response","kept_3_name","kept_3_response","errorCounter"
"3731","external_page_harvard.html","external-html","0","3847","0.0-0.0","A33PHCBUOD4WKD","","","","","","","","","","","","","","","","","","","","","","","","","","",""
"2442","","image-button-response","1","6294","0.0-1.0","A33PHCBUOD4WKD","","1","","","","","","","","","","","","","","","","","","","","","","","","",""
"1141","","image-button-response","2","7445","0.0-2.0-0.0","A33PHCBUOD4WKD","","1","phone","","","","","","","","","","","","","","","","","","","","","","","",""
"5348","","survey-text","3","12797","0.0-3.0-0.0","A33PHCBUOD4WKD","","","","{""Q0"":""A33PHCBUOD4WKD""}","","","","","","","","","","","","","","","","","","","","","","",""
"3821","","image-button-response_instructions","4","16623","0.0-4.0","A33PHCBUOD4WKD","","0","instructions","","","","","","","","","","","","","","","","","","","","","","","",""
"10291","","image-button-response_instructions","5","26918","0.0-5.0","A33PHCBUOD4WKD","img_art/ins/popularity/ins1.png","0","instructions","","","","","","","","","","","","","","","","","","","","","","","",""
"5336","","image-button-response_instructions","6","32257","0.0-6.0","A33PHCBUOD4WKD","img_art/ins/popularity/ins2.png","0","instructions","","","","","","","","","","","","","","","","","","","","","","","",""
"5725","","image-button-response_instructions","7","37984","0.0-7.0","A33PHCBUOD4WKD","img_art/ins/popularity/ins2Extreme.png","0","instructions","","","","","","","","","","","","","","","","","","","","","","","",""
"8133","","image-button-response_instructions","8","46120","0.0-8.0","A33PHCBUOD4WKD","img_art/ins/popularity/ins3KEEPpop.PNG","0","instructions","","","","","","","","","","","","","","","","","","","","","","","",""
"1943","","image-button-response_instructions","9","48065","0.0-9.0","A33PHCBUOD4WKD","img_art/ins/popularity/ins3ANamepop.PNG","0","instructions","","","","","","","","","","","","","","","","","","","","","","","",""
"2319","","image-button-response_instructions","10","50387","0.0-10.0","A33PHCBUOD4WKD","img_art/ins/popularity/ins3ARatingpop.png","0","instructions","","","","","","","","","","","","","","","","","","","","","","","",""
"2023","","image-button-response_instructions","11","52413","0.0-11.0","A33PHCBUOD4WKD","img_art/ins/popularity/ins3ATextpop.png","0","instructions","","","","","","","","","","","","","","","","","","","","","","","",""
"4438","","image-button-response_instructions","12","56854","0.0-12.0","A33PHCBUOD4WKD","img_art/ins/popularity/ins3ALikespop.png","0","instructions","","","","","","","","","","","","","","","","","","","","","","","",""
"11759","","image-button-response_instructions","13","68616","0.0-13.0","A33PHCBUOD4WKD","img_art/ins/popularity/ins3KEEPpop.PNG","0","instructions","","","","","","","","","","","","","","","","","","","","","","","",""
"7459","","image-button-response_instructions","14","76077","0.0-14.0","A33PHCBUOD4WKD","img_art/ins/popularity/ins3_5RED.png","0","instructions","","","","","","","","","","","","","","","","","","","","","","","",""
"2651","","image-button-response_instructions","15","78731","0.0-15.0","A33PHCBUOD4WKD","img_art/ins/popularity/ins3KEEPpop.PNG","0","instructions","","","","","","","","","","","","","","","","","","","","","","","",""
"11091","","image-button-response_instructions","16","89825","0.0-16.0","A33PHCBUOD4WKD","img_art/ins/popularity/ins4KEEPpop.PNG","0","instructions","","","","","","","","","","","","","","","","","","","","","","","",""
"2847","","image-button-response_instructions","17","92674","0.0-17.0","A33PHCBUOD4WKD","img_art/ins/popularity/ins5KEEPpop.PNG","0","instructions","","","","","","","","","","","","","","","","","","","","","","","",""
"1863","","image-button-response_instructions","18","94539","0.0-18.0","A33PHCBUOD4WKD","","0","instructions","","","","","","","","","","","","","","","","","","","","","","","",""
"4163","","survey-text","19","98741","0.0-19.0-0.0","A33PHCBUOD4WKD","","","","{""Q0"":""but""}","","","","","","","","","","","","","","","","","","","","","","",""
"4892","","survey-text","20","103638","0.0-20.0-0.0","A33PHCBUOD4WKD","","","","{""Q0"":""like a sunset""}","","","","","","","","","","","","","","","","","","","","","","",""
"3806.100000143051","","image-slider-response","21","107451","0.0-21.0","A33PHCBUOD4WKD","","","","","23","","","","","","","","","","","","","","","","","","","","","",""
"null","","image-button-response","22","112460","0.0-22.0","A33PHCBUOD4WKD","img_art/ins/1.jpg","null","","","","","","","","","","","","","","","","","","","","","","","","",""
"1850","","image-button-response","23","114316","0.0-23.0","A33PHCBUOD4WKD","img_art/ins/1.jpg","4","","","","","","","","","","","","","","","","","","","","","","","","",""
"2915","","image-button-response","24","117236","0.0-24.0-0.0","A33PHCBUOD4WKD","img_art/ins/1.jpg","5","","","","","","","","","","","","","","","","","","","","","","","","",""
"5725","","image-button-response","25","122965","0.0-25.0-0.0","A33PHCBUOD4WKD","img_art/ins/1.jpg","0","","","","","","","","","","","","","","","","","","","","","","","","",""
"null","","html-keyboard-response","26","124474","0.0-26.0","A33PHCBUOD4WKD","<p style=""font-size: 48px;"">+</p>","","","","","null","allTrialResponses","1500","1","-2","img_art/ins/1.jpg","23","like a sunset","Allison,Ashley,Beth,Dora,Erika,Jen","looks like a lot of things going on in the mist,20,20,20","I just don't get why these type of art would be popular,-32,40,20","This color reminds me of poo,-46,60,20","looks like what my niece in 3rd grade did this afternoon,-50,80,20","I like the sophisticated brushwork,40,100,20","It reminds me of a candy land dream I had,36,120,20","Erika","I like the sophisticated brushwork,40,100,20","Jen","It reminds me of a candy land dream I had,36,120,20","Allison","looks like a lot of things going on in the mist,20,20,20","0"
"9833","","survey-text","27","134316","0.0-27.0-0.0","A33PHCBUOD4WKD","","","","{""Q0"":""this looks hard and very brutalist""}","","","","","","","","","","","","","","","","","","","","","","",""
"2582.300000190735","","image-slider-response","28","136905","0.0-28.0","A33PHCBUOD4WKD","","","","","-10","","","","","","","","","","","","","","","","","","","","","",""
"2934","","image-button-response","29","141911","0.0-29.0","A33PHCBUOD4WKD","img_art/ins/2.jpg","0","","","","","","","","","","","","","","","","","","","","","","","","",""
"2657","","image-button-response","30","144574","0.0-30.0","A33PHCBUOD4WKD","img_art/ins/2.jpg","5","","","","","","","","","","","","","","","","","","","","","","","","",""
"25772","","image-button-response","31","170352","0.0-31.0-0.0","A33PHCBUOD4WKD","img_art/ins/2.jpg","5","","","","","","","","","","","","","","","","","","","","","","","","",""
"1648","","image-button-response","32","177826","0.0-31.1-0.1","A33PHCBUOD4WKD","img_art/ins/2.jpg","2","","","","","","","","","","","","","","","","","","","","","","","","",""
"1816","","image-button-response","33","179649","0.0-32.0-0.0","A33PHCBUOD4WKD","img_art/ins/2.jpg","1","","","","","","","","","","","","","","","","","","","","","","","","",""
"null","","html-keyboard-response","34","180153","0.0-33.0","A33PHCBUOD4WKD","<p style=""font-size: 48px;"">+</p>","","","","","null","allTrialResponses","500","1","-1","img_art/ins/2.jpg","-10","this looks hard and very brutalist","Allison,Kara,Katie,Jenna,Erika,Jen","I don't have strong feelings about this,10,20,20","I like the blocks of color arrangements,30,160,20","too much color!,-28,180,20","One of my pet peevs,-48,140,20","I would never be able to compose a sophisticated pallete like this,48,100,20","It reminds me of a fireplace,36,120,20","Jen","It reminds me of a fireplace,36,120,20","Katie","too much color!,-28,180,20","Kara","I like the blocks of color arrangements,30,160,20","2"
"37394","","survey-text","35","217555","0.0-34.0-0.0","A33PHCBUOD4WKD","","","","{""Q0"":""this makes me feel cold like an ice storm""}","","","","","","","","","","","","","","","","","","","","","","",""
"3210.2999999523163","","image-slider-response","36","220771","0.0-35.0","A33PHCBUOD4WKD","","","","","8","","","","","","","","","","","","","","","","","","","","","",""
"2054","","image-button-response","37","225777","0.0-36.0","A33PHCBUOD4WKD","img_art/ins/3.jpg","1","","","","","","","","","","","","","","","","","","","","","","","","",""
"4430","","image-button-response","38","230210","0.0-37.0","A33PHCBUOD4WKD","img_art/ins/3.jpg","4","","","","","","","","","","","","","","","","","","","","","","","","",""
"1520","","image-button-response","39","231735","0.0-38.0-0.0","A33PHCBUOD4WKD","img_art/ins/3.jpg","5","","","","","","","","","","","","","","","","","","","","","","","","",""
"1783","","image-button-response","40","233523","0.0-39.0-0.0","A33PHCBUOD4WKD","img_art/ins/3.jpg","1","","","","","","","","","","","","","","","","","","","","","","","","",""
"null","","html-keyboard-response","41","234027","0.0-40.0","A33PHCBUOD4WKD","<p style=""font-size: 48px;"">+</p>","","","","","null","allTrialResponses","500","1","0","img_art/ins/3.jpg","8","this makes me feel cold like an ice storm","Rose,Kara,Katie,Leslie,Mary,Jen","My daily routine, it's depressing,-20,240,20","calming blue is very nice,36,160,20","It looks depressing,-26,180,20","It's an alright work,15,200,20","I like the overlapping of brushes,41,220,20","I can feel a rainy day from this painting,18,120,20","Mary","I like the overlapping of brushes,41,220,20","Jen","I can feel a rainy day from this painting,18,120,20","Kara","calming blue is very nice,36,160,20","2"
"4480","","image-button-response_instructions","42","238516","0.0-41.0","A33PHCBUOD4WKD","","0","instructions","","","","","","","","","","","","","","","","","","","","","","","",""
"7778","","survey-likert","43","246299","0.0-42.0-0.0","A33PHCBUOD4WKD","","","","{""Q0"":"""",""Q1"":0,""Q2"":1}","","","","","","","","","","","","","","","","","","","","","","",""
"4108","","survey-text","44","250417","0.0-43.0-0.0","A33PHCBUOD4WKD","","","","{""Q0"":""rock""}","","","","","","","","","","","","","","","","","","","","","","",""
"11150","","survey-text","45","261571","0.0-44.0-0.0","A33PHCBUOD4WKD","","","","{""Q0"":""this looks like someone rising from the dead - a little eerie""}","","","","","","","","","","","","","","","","","","","","","","",""
"2591","","image-slider-response","46","264167","0.0-45.0","A33PHCBUOD4WKD","","","","","-16","","","","","","","","","","","","","","","","","","","","","",""
"null","","image-button-response","47","269206","0.0-46.0","A33PHCBUOD4WKD","img_art/25.jpg","null","","","","","","","","","","","","","","","","","","","","","","","","",""
"766","","image-button-response","48","269977","0.0-47.0","A33PHCBUOD4WKD","img_art/25.jpg","4","","","","","","","","","","","","","","","","","","","","","","","","",""
"1273","","image-button-response","49","271256","0.0-48.0-0.0","A33PHCBUOD4WKD","img_art/25.jpg","3","","","","","","","","","","","","","","","","","","","","","","","","",""
"3778","","image-button-response","50","275039","0.0-49.0-0.0","A33PHCBUOD4WKD","img_art/25.jpg","1","","","","","","","","","","","","","","","","","","","","","","","","",""
"null","","html-keyboard-response","51","275544","0.0-50.0","A33PHCBUOD4WKD","<p style=""font-size: 48px;"">+</p>","","","","","null","allTrialResponses","500","1","1","img_art/25.jpg","-16","this looks like someone rising from the dead - a little eerie","Cynthia,Isabella,Lauren,Victoria,Erin,Allison","Somewhat feel protected by a messenger,33,320,20","I love the green and the figure is black but the green makes it pop,29,280,20","Depicts something negative, such as ritual. I'm not a fan.,-10,340,20","makes me think of a scary movie,-20,400,20","Looks like glow in the dark halloween decoration,-38,120,20","high contrast draws attention to the image, but I'm not sure what I'm seeing,-5,140,20","Erin","Looks like glow in the dark halloween decoration,-38,120,20","Victoria","makes me think of a scary movie,-20,400,20","Isabella","I love the green and the figure is black but the green makes it pop,29,280,20","2"
"9129","","survey-text","52","284680","0.0-51.0-0.0","A33PHCBUOD4WKD","","","","{""Q0"":""This looks like a soft sunset""}","","","","","","","","","","","","","","","","","","","","","","",""
"2877","","image-slider-response","53","287561","0.0-52.0","A33PHCBUOD4WKD","","","","","4","","","","","","","","","","","","","","","","","","","","","",""
"null","","image-button-response","54","292572","0.0-53.0","A33PHCBUOD4WKD","img_art/22.jpg","null","","","","","","","","","","","","","","","","","","","","","","","","",""
"424","","image-button-response","55","293000","0.0-54.0","A33PHCBUOD4WKD","img_art/22.jpg","1","","","","","","","","","","","","","","","","","","","","","","","","",""
"558","","image-button-response","56","293562","0.0-55.0-0.0","A33PHCBUOD4WKD","img_art/22.jpg","0","","","","","","","","","","","","","","","","","","","","","","","","",""
"864","","image-button-response","57","294432","0.0-56.0-0.0","A33PHCBUOD4WKD","img_art/22.jpg","0","","","","","","","","","","","","","","","","","","","","","","","","",""
"1483","","image-button-response","58","302535","0.0-56.1-0.1","A33PHCBUOD4WKD","img_art/22.jpg","2","","","","","","","","","","","","","","","","","","","","","","","","",""
"null","","html-keyboard-response","59","304037","0.0-57.0","A33PHCBUOD4WKD","<p style=""font-size: 48px;"">+</p>","","","","","null","allTrialResponses","1500","1","2","img_art/22.jpg","4","This looks like a soft sunset","Leslie,Isabella,Brooke,Victoria,Erin,Danielle","The way the colors seem to be reflected is a bit mesmerizing.,10,380,20","Sunsets at the beach,42,280,20","Like this one, like a sunset,30,60,20","love how the colors blend,42,400,20","Seems dated with geometic forms,-20,120,20","A bit colorful, but slightly enjoyable, almost gives off castle/sunset vibes,10,340,20","Isabella","Sunsets at the beach,42,280,20","Leslie","The way the colors seem to be reflected is a bit mesmerizing.,10,380,20","Brooke","Like this one, like a sunset,30,60,20","4"
"7733","","survey-text","60","311774","0.0-58.0-0.0","A33PHCBUOD4WKD","","","","{""Q0"":""This looks like someone inside a womb""}","","","","","","","","","","","","","","","","","","","","","","",""
"1991.5","","image-slider-response","61","313768","0.0-59.0","A33PHCBUOD4WKD","","","","","17","","","","","","","","","","","","","","","","","","","","","",""
"null","","image-button-response","62","318773","0.0-60.0","A33PHCBUOD4WKD","img_art/9.jpg","null","","","","","","","","","","","","","","","","","","","","","","","","",""
"1254","","image-button-response","63","320029","0.0-61.0","A33PHCBUOD4WKD","img_art/9.jpg","5","","","","","","","","","","","","","","","","","","","","","","","","",""
"1861","","image-button-response","64","321892","0.0-62.0-0.0","A33PHCBUOD4WKD","img_art/9.jpg","3","","","","","","","","","","","","","","","","","","","","","","","","",""
"3890","","image-button-response","65","325783","0.0-63.0-0.0","A33PHCBUOD4WKD","img_art/9.jpg","0","","","","","","","","","","","","","","","","","","","","","","","","",""
"null","","html-keyboard-response","66","327289","0.0-64.0","A33PHCBUOD4WKD","<p style=""font-size: 48px;"">+</p>","","","","","null","allTrialResponses","1500","1","3","img_art/9.jpg","17","This looks like someone inside a womb","Leslie,Isabella,Brooke,Alexa,Kimberly,Nicole","The colors are pretty, and remind me of a circus.,5,380,20","Angry beast mouth,-37,280,20","Dark fantasy seaside cave carnival? Fun.,15,60,20","It's wild and chaotic but also beautiful and has some kind of calming factor about it,20,40,20","It's too all over the place,-37,260,20","It's peaceful and relaxing,24,20,20","Nicole","It's peaceful and relaxing,24,20,20","Alexa","It's wild and chaotic but also beautiful and has some kind of calming factor about it,20,40,20","Leslie","The colors are pretty, and remind me of a circus.,5,380,20","4"
"5874","","survey-text","67","333167","0.0-65.0-0.0","A33PHCBUOD4WKD","","","","{""Q0"":""This looks like a murder scene""}","","","","","","","","","","","","","","","","","","","","","","",""
"2454.899999856949","","image-slider-response","68","335626","0.0-66.0","A33PHCBUOD4WKD","","","","","-29","","","","","","","","","","","","","","","","","","","","","",""
"null","","image-button-response","69","340641","0.0-67.0","A33PHCBUOD4WKD","img_art/3.jpg","null","","","","","","","","","","","","","","","","","","","","","","","","",""
"602","","image-button-response","70","341248","0.0-68.0","A33PHCBUOD4WKD","img_art/3.jpg","0","","","","","","","","","","","","","","","","","","","","","","","","",""
"575","","image-button-response","71","341826","0.0-69.0-0.0","A33PHCBUOD4WKD","img_art/3.jpg","1","","","","","","","","","","","","","","","","","","","","","","","","",""
"3203","","image-button-response","72","345033","0.0-70.0-0.0","A33PHCBUOD4WKD","img_art/3.jpg","4","","","","","","","","","","","","","","","","","","","","","","","","",""
"null","","html-keyboard-response","73","345537","0.0-71.0","A33PHCBUOD4WKD","<p style=""font-size: 48px;"">+</p>","","","","","null","allTrialResponses","500","1","4","img_art/3.jpg","-29","This looks like a murder scene","Leslie,Kristen,Morgan,Alexa,Haley,Nicole","It looks like the artist was trying too hard to make it chaotic and emotional.,-25,380,20","anger, blood, death,-24,280,20","Somewhere between a child's art and a poorly drawn battle map.,8,380,20","Looks messy and too much for my eyes,-35,40,20","Too messy and structure-less,-10,220,20","Something I'd paint when I'm mad. I feel that,20,20,20","Leslie","It looks like the artist was trying too hard to make it chaotic and emotional.,-25,380,20","Kristen","anger, blood, death,-24,280,20","Haley","Too messy and structure-less,-10,220,20","4"
"8279","","survey-text","74","353824","0.0-72.0-0.0","A33PHCBUOD4WKD","","","","{""Q0"":""like a fossil matrix""}","","","","","","","","","","","","","","","","","","","","","","",""
"3448.5","","image-slider-response","75","357277","0.0-73.0","A33PHCBUOD4WKD","","","","","-30","","","","","","","","","","","","","","","","","","","","","",""
"null","","image-button-response","76","362281","0.0-74.0","A33PHCBUOD4WKD","img_art/7.jpg","null","","","","","","","","","","","","","","","","","","","","","","","","",""
"1145","","image-button-response","77","363430","0.0-75.0","A33PHCBUOD4WKD","img_art/7.jpg","0","","","","","","","","","","","","","","","","","","","","","","","","",""
"1242","","image-button-response","78","364675","0.0-76.0-0.0","A33PHCBUOD4WKD","img_art/7.jpg","4","","","","","","","","","","","","","","","","","","","","","","","","",""
"1830","","image-button-response","79","366510","0.0-77.0-0.0","A33PHCBUOD4WKD","img_art/7.jpg","3","","","","","","","","","","","","","","","","","","","","","","","","",""
"null","","html-keyboard-response","80","367520","0.0-78.0","A33PHCBUOD4WKD","<p style=""font-size: 48px;"">+</p>","","","","","null","allTrialResponses","1000","1","5","img_art/7.jpg","-30","like a fossil matrix","Leslie,Kristen,Bailey,Marissa,Haley,Kaitlyn","This elicits no reaction in me.,0,380,20","sand, beach, tranquil,10,280,20","It gives off an alien-like vastness of space vibe which I like,9,360,20","I feel confused, am I looking at a painting or a close up picture of some sort of fly stone?,-19,160,20","Confusion, mild aversion,-36,220,20","Boring  and lacks color,-11,80,20","Leslie","This elicits no reaction in me.,0,380,20","Haley","Confusion, mild aversion,-36,220,20","Marissa","I feel confused, am I looking at a painting or a close up picture of some sort of fly stone?,-19,160,20","4"
"2448","","survey-text","81","369984","0.0-79.0-0.0","A33PHCBUOD4WKD","","","","{""Q0"":""sky""}","","","","","","","","","","","","","","","","","","","","","","",""
"7741","","survey-text","82","377727","0.0-80.0-0.0","A33PHCBUOD4WKD","","","","{""Q0"":""looks like a wise man in a library""}","","","","","","","","","","","","","","","","","","","","","","",""
"1949.7000000476837","","image-slider-response","83","379681","0.0-81.0","A33PHCBUOD4WKD","","","","","10","","","","","","","","","","","","","","","","","","","","","",""
"null","","image-button-response","84","384694","0.0-82.0","A33PHCBUOD4WKD","img_art/28.jpg","null","","","","","","","","","","","","","","","","","","","","","","","","",""
"1272","","image-button-response","85","385969","0.0-83.0","A33PHCBUOD4WKD","img_art/28.jpg","1","","","","","","","","","","","","","","","","","","","","","","","","",""
"1527","","image-button-response","86","387502","0.0-84.0-0.0","A33PHCBUOD4WKD","img_art/28.jpg","4","","","","","","","","","","","","","","","","","","","","","","","","",""
"1698","","image-button-response","87","389207","0.0-85.0-0.0","A33PHCBUOD4WKD","img_art/28.jpg","5","","","","","","","","","","","","","","","","","","","","","","","","",""
"null","","html-keyboard-response","88","389714","0.0-86.0","A33PHCBUOD4WKD","<p style=""font-size: 48px;"">+</p>","","","","","null","allTrialResponses","500","1","6","img_art/28.jpg","10","looks like a wise man in a library","Leslie,Amy,Chelsea,Marissa,Haley,Ashley","The darker colors make this unnerving.,40,380,20","Contemplative and a little dark. The muted colors and subject create a sense of mystery.,15,220,20","It is too messy.,-38,180,20","It feels very blah,-10,160,20","I can't explain why, but I really love this one,50,220,20","Normally don't react well to abstract art, but it looks almost like something's there.,28,320,20","Amy","Contemplative and a little dark. The muted colors and subject create a sense of mystery.,15,220,20","Haley","I can't explain why, but I really love this one,50,220,20","Ashley","Normally don't react well to abstract art, but it looks almost like something's there.,28,320,20","4"
"18396","","survey-text","89","408117","0.0-87.0-0.0","A33PHCBUOD4WKD","","","","{""Q0"":""looks like destruction from industrialiazation""}","","","","","","","","","","","","","","","","","","","","","","",""
"2428.7000000476837","","image-slider-response","90","410550","0.0-88.0","A33PHCBUOD4WKD","","","","","-18","","","","","","","","","","","","","","","","","","","","","",""
"null","","image-button-response","91","415557","0.0-89.0","A33PHCBUOD4WKD","img_art/20.jpg","null","","","","","","","","","","","","","","","","","","","","","","","","",""
"1978","","image-button-response","92","417537","0.0-90.0","A33PHCBUOD4WKD","img_art/20.jpg","2","","","","","","","","","","","","","","","","","","","","","","","","",""
"794","","image-button-response","93","418334","0.0-91.0-0.0","A33PHCBUOD4WKD","img_art/20.jpg","1","","","","","","","","","","","","","","","","","","","","","","","","",""
"2423","","image-button-response","94","420761","0.0-92.0-0.0","A33PHCBUOD4WKD","img_art/20.jpg","5","","","","","","","","","","","","","","","","","","","","","","","","",""
"null","","html-keyboard-response","95","421771","0.0-93.0","A33PHCBUOD4WKD","<p style=""font-size: 48px;"">+</p>","","","","","null","allTrialResponses","1000","1","7","img_art/20.jpg","-18","looks like destruction from industrialiazation","Alexis,Amy,Chloe,Alicia,Haley,Ashley","I like the proportion of the car to the desert city, but too abstract for me,15,100,20","Elements that are more defined are incongruous to the soft and melting nature of this painting,5,220,20","Mood setting if a little dreary,20,220,20","Very cool, and calming (again) Love it.,47,120,20","I really enjoy the contrast of colors (blue/red/orange),30,220,20","Painting within a painting, abstract.,32,320,20","Chloe","Mood setting if a little dreary,20,220,20","Amy","Elements that are more defined are incongruous to the soft and melting nature of this painting,5,220,20","Ashley","Painting within a painting, abstract.,32,320,20","4"
"5542","","survey-text","96","427322","0.0-94.0-0.0","A33PHCBUOD4WKD","","","","{""Q0"":""I don't get or like this one""}","","","","","","","","","","","","","","","","","","","","","","",""
"2534","","image-slider-response","97","429859","0.0-95.0","A33PHCBUOD4WKD","","","","","-32","","","","","","","","","","","","","","","","","","","","","",""
"null","","image-button-response","98","434865","0.0-96.0","A33PHCBUOD4WKD","img_art/16.jpg","null","","","","","","","","","","","","","","","","","","","","","","","","",""
"2326","","image-button-response","99","437195","0.0-97.0","A33PHCBUOD4WKD","img_art/16.jpg","4","","","","","","","","","","","","","","","","","","","","","","","","",""
"1111","","image-button-response","100","438310","0.0-98.0-0.0","A33PHCBUOD4WKD","img_art/16.jpg","5","","","","","","","","","","","","","","","","","","","","","","","","",""
"2187","","image-button-response","101","440504","0.0-99.0-0.0","A33PHCBUOD4WKD","img_art/16.jpg","2","","","","","","","","","","","","","","","","","","","","","","","","",""
"null","","html-keyboard-response","102","441006","0.0-100.0","A33PHCBUOD4WKD","<p style=""font-size: 48px;"">+</p>","","","","","null","allTrialResponses","500","1","8","img_art/16.jpg","-32","I don't get or like this one","Mackenzie,Amy,Chloe,Katelyn,Tiffany,Ashley","I like the mixture of images,23,20,20","visceral and a little disturbing.,10,220,20","Fun but a little cheesy,15,220,20","I dont feel any real response,5,100,20","I feel irked, like somehow the items in this painting just happened to fall on the page together.,-44,360,20","A lot fo these could abstract or childrens work.,23,320,20","Tiffany","I feel irked, like somehow the items in this painting just happened to fall on the page together.,-44,360,20","Ashley","A lot fo these could abstract or childrens work.,23,320,20","Chloe","Fun but a little cheesy,15,220,20","4"
"5305","","survey-text","103","446317","0.0-101.0-0.0","A33PHCBUOD4WKD","","","","{""Q0"":""A serene waterfall""}","","","","","","","","","","","","","","","","","","","","","","",""
"2524.199999809265","","image-slider-response","104","448845","0.0-102.0","A33PHCBUOD4WKD","","","","","27","","","","","","","","","","","","","","","","","","","","","",""
"null","","image-button-response","105","453851","0.0-103.0","A33PHCBUOD4WKD","img_art/24.jpg","null","","","","","","","","","","","","","","","","","","","","","","","","",""
"857","","image-button-response","106","454712","0.0-104.0","A33PHCBUOD4WKD","img_art/24.jpg","4","","","","","","","","","","","","","","","","","","","","","","","","",""
"637","","image-button-response","107","455353","0.0-105.0-0.0","A33PHCBUOD4WKD","img_art/24.jpg","5","","","","","","","","","","","","","","","","","","","","","","","","",""
"2507","","image-button-response","108","457867","0.0-106.0-0.0","A33PHCBUOD4WKD","img_art/24.jpg","2","","","","","","","","","","","","","","","","","","","","","","","","",""
"null","","html-keyboard-response","109","459376","0.0-107.0","A33PHCBUOD4WKD","<p style=""font-size: 48px;"">+</p>","","","","","null","allTrialResponses","1500","1","9","img_art/24.jpg","27","A serene waterfall","Brittany,Cheyenne,Chloe,Angelica,Tiffany,Ashley","Nice colors, but doesn't do much for me.,1,40,20","I like how the colors mix in this one.,20,200,20","Pretty but cheesy,-15,220,20","This looks ugly and simple, as if done by a young person.,-2,280,20","I feel relaxed and happy, looking at the stream, but it feels hollow, like something is fake.,5,360,20","NOt quite Bob Ross, but still good.,30,320,20","Tiffany","I feel relaxed and happy, looking at the stream, but it feels hollow, like something is fake.,5,360,20","Ashley","NOt quite Bob Ross, but still good.,30,320,20","Chloe","Pretty but cheesy,-15,220,20","4"
"13839","","survey-text","110","473223","0.0-108.0-0.0","A33PHCBUOD4WKD","","","","{""Q0"":""day and night cycles, I like it, but dont' love it""}","","","","","","","","","","","","","","","","","","","","","","",""
"2928.5","","image-slider-response","111","476155","0.0-109.0","A33PHCBUOD4WKD","","","","","4","","","","","","","","","","","","","","","","","","","","","",""
"null","","image-button-response","112","481166","0.0-110.0","A33PHCBUOD4WKD","img_art/12.jpg","null","","","","","","","","","","","","","","","","","","","","","","","","",""
"1080","","image-button-response","113","482251","0.0-111.0","A33PHCBUOD4WKD","img_art/12.jpg","1","","","","","","","","","","","","","","","","","","","","","","","","",""
"525","","image-button-response","114","482780","0.0-112.0-0.0","A33PHCBUOD4WKD","img_art/12.jpg","2","","","","","","","","","","","","","","","","","","","","","","","","",""
"1714","","image-button-response","115","484498","0.0-113.0-0.0","A33PHCBUOD4WKD","img_art/12.jpg","4","","","","","","","","","","","","","","","","","","","","","","","","",""
"null","","html-keyboard-response","116","485503","0.0-114.0","A33PHCBUOD4WKD","<p style=""font-size: 48px;"">+</p>","","","","","null","allTrialResponses","1000","1","10","img_art/12.jpg","4","day and night cycles, I like it, but dont' love it","Molly,Shelby,Chloe,Sarah,Tiffany,Ashley","Seems to be puzzles.,25,340,20","The shapes make me feel a bit uncomfortable,-10,240,20","Nice hallway art for a hotel.,21,220,20","i think it's a good piece but it doesn't appeal to me,-18,180,20","The painting makes me uncomfortable. The smears in the boxes feel like a giant mess.,-16,360,20","It's boxy, cubist immpressionism? Very ncie.,32,320,20","Shelby","The shapes make me feel a bit uncomfortable,-10,240,20","Chloe","Nice hallway art for a hotel.,21,220,20","Tiffany","The painting makes me uncomfortable. The smears in the boxes feel like a giant mess.,-16,360,20","4"
"3427","","survey-text","117","488943","0.0-115.0-0.0","A33PHCBUOD4WKD","","","","{""Q0"":""our""}","","","","","","","","","","","","","","","","","","","","","","",""
"12572","","survey-text","118","501518","0.0-116.0-0.0","A33PHCBUOD4WKD","","","","{""Q0"":""Love this, can't explain why. Maybe a tree of knowledge""}","","","","","","","","","","","","","","","","","","","","","","",""
"2906","","image-slider-response","119","504429","0.0-117.0","A33PHCBUOD4WKD","","","","","37","","","","","","","","","","","","","","","","","","","","","",""
"null","","image-button-response","120","509440","0.0-118.0","A33PHCBUOD4WKD","img_art/14.jpg","null","","","","","","","","","","","","","","","","","","","","","","","","",""
"886","","image-button-response","121","510330","0.0-119.0","A33PHCBUOD4WKD","img_art/14.jpg","0","","","","","","","","","","","","","","","","","","","","","","","","",""
"2507","","image-button-response","122","512841","0.0-120.0-0.0","A33PHCBUOD4WKD","img_art/14.jpg","2","","","","","","","","","","","","","","","","","","","","","","","","",""
"4084","","image-button-response","123","516930","0.0-121.0-0.0","A33PHCBUOD4WKD","img_art/14.jpg","3","","","","","","","","","","","","","","","","","","","","","","","","",""
"null","","html-keyboard-response","124","517936","0.0-122.0","A33PHCBUOD4WKD","<p style=""font-size: 48px;"">+</p>","","","","","null","allTrialResponses","1000","1","11","img_art/14.jpg","37","Love this, can't explain why. Maybe a tree of knowledge","Amanda,Shelby,Chloe,Jamie,Tiffany,Autumn","Gorgeous use of water color,50,180,20","Something about the cahotic imagery makes me uncomfortable,-15,240,20","Like the brushstrokes but not the composition,9,220,20","Not as cool as other tree looking paintings,-5,320,20","I feel uncomfortable looking at this painting, it is a mess that needs to be cleaned up.,-16,360,20","It's too basic.,23,340,20","Amanda","Gorgeous use of water color,50,180,20","Chloe","Like the brushstrokes but not the composition,9,220,20","Jamie","Not as cool as other tree looking paintings,-5,320,20","4"
"11743","","survey-text","125","529687","0.0-123.0-0.0","A33PHCBUOD4WKD","","","","{""Q0"":""Messy, poo smear, I can almost smell it""}","","","","","","","","","","","","","","","","","","","","","","",""
"2249.2999999523163","","image-slider-response","126","531941","0.0-124.0","A33PHCBUOD4WKD","","","","","-29","","","","","","","","","","","","","","","","","","","","","",""
"null","","image-button-response","127","536952","0.0-125.0","A33PHCBUOD4WKD","img_art/4.jpg","null","","","","","","","","","","","","","","","","","","","","","","","","",""
"1825","","image-button-response","128","538781","0.0-126.0","A33PHCBUOD4WKD","img_art/4.jpg","0","","","","","","","","","","","","","","","","","","","","","","","","",""
"1179","","image-button-response","129","539965","0.0-127.0-0.0","A33PHCBUOD4WKD","img_art/4.jpg","3","","","","","","","","","","","","","","","","","","","","","","","","",""
"4209","","image-button-response","130","544180","0.0-128.0-0.0","A33PHCBUOD4WKD","img_art/4.jpg","1","","","","","","","","","","","","","","","","","","","","","","","","",""
"null","","html-keyboard-response","131","544684","0.0-129.0","A33PHCBUOD4WKD","<p style=""font-size: 48px;"">+</p>","","","","","null","allTrialResponses","500","1","12","img_art/4.jpg","-29","Messy, poo smear, I can almost smell it","Amanda,Shannon,Chloe,Jamie,Courtney,Vanessa","Looks like an abstract version of the Scream painting,-50,180,20","I think that this picture is too boring in terms of color and it looks ugly.,-41,220,20","Great movement but don't love the yellowy tones.,31,220,20","Mustard yellow doesn't do it for me,-25,320,20","A leaning trophy,-9,280,20","Again, this is too abstract and I really don't like the colors.,-21,380,20","Amanda","Looks like an abstract version of the Scream painting,-50,180,20","Jamie","Mustard yellow doesn't do it for me,-25,320,20","Shannon","I think that this picture is too boring in terms of color and it looks ugly.,-41,220,20","4"
"7533","","survey-text","132","552226","0.0-130.0-0.0","A33PHCBUOD4WKD","","","","{""Q0"":""very calming and serene""}","","","","","","","","","","","","","","","","","","","","","","",""
"2304.4000000953674","","image-slider-response","133","554534","0.0-131.0","A33PHCBUOD4WKD","","","","","20","","","","","","","","","","","","","","","","","","","","","",""
"null","","image-button-response","134","559540","0.0-132.0","A33PHCBUOD4WKD","img_art/17.jpg","null","","","","","","","","","","","","","","","","","","","","","","","","",""
"775","","image-button-response","135","560320","0.0-133.0","A33PHCBUOD4WKD","img_art/17.jpg","3","","","","","","","","","","","","","","","","","","","","","","","","",""
"505","","image-button-response","136","560829","0.0-134.0-0.0","A33PHCBUOD4WKD","img_art/17.jpg","4","","","","","","","","","","","","","","","","","","","","","","","","",""
"3392","","image-button-response","137","564228","0.0-135.0-0.0","A33PHCBUOD4WKD","img_art/17.jpg","2","","","","","","","","","","","","","","","","","","","","","","","","",""
"null","","html-keyboard-response","138","564734","0.0-136.0","A33PHCBUOD4WKD","<p style=""font-size: 48px;"">+</p>","","","","","null","allTrialResponses","500","1","13","img_art/17.jpg","20","very calming and serene","Amanda,Shannon,Catherine,Jamie,Erika,Emma","Feels supernatural and scary,-16,180,20","I like the way the colors were used behind the tree. Makes the image colorful and interesting.,30,220,20","Nature coming to the inside of your space that you are locked into.,50,160,20","Looks like some fantasy tree. Nice,30,320,20","I love vague, dreamlike styles,50,100,20","Love the colors and the movement,46,60,20","Jamie","Looks like some fantasy tree. Nice,30,320,20","Erika","I love vague, dreamlike styles,50,100,20","Catherine","Nature coming to the inside of your space that you are locked into.,50,160,20","4"
"9391","","survey-text","139","574133","0.0-137.0-0.0","A33PHCBUOD4WKD","","","","{""Q0"":""X out the boring gray! ""}","","","","","","","","","","","","","","","","","","","","","","",""
"3934.9000000953674","","image-slider-response","140","578072","0.0-138.0","A33PHCBUOD4WKD","","","","","5","","","","","","","","","","","","","","","","","","","","","",""
"null","","image-button-response","141","583079","0.0-139.0","A33PHCBUOD4WKD","img_art/29.jpg","null","","","","","","","","","","","","","","","","","","","","","","","","",""
"503","","image-button-response","142","583586","0.0-140.0","A33PHCBUOD4WKD","img_art/29.jpg","0","","","","","","","","","","","","","","","","","","","","","","","","",""
"969","","image-button-response","143","584560","0.0-141.0-0.0","A33PHCBUOD4WKD","img_art/29.jpg","4","","","","","","","","","","","","","","","","","","","","","","","","",""
"475","","image-button-response","144","585042","0.0-142.0-0.0","A33PHCBUOD4WKD","img_art/29.jpg","3","","","","","","","","","","","","","","","","","","","","","","","","",""
"null","","html-keyboard-response","145","586047","0.0-143.0","A33PHCBUOD4WKD","<p style=""font-size: 48px;"">+</p>","","","","","null","allTrialResponses","1000","1","14","img_art/29.jpg","5","X out the boring gray! ","Sophia,Sydney,Catherine,Jamie,Erika,Gabriela","It's creative. It's just not my thing.,-32,280,20","I like that the colors are toned down even though they're everywhere.,5,320,20","death, darkness, negative picture,-31,160,20","3D looks is really cool,30,320,20","Feels like an abandoned dream,13,100,20","I like that it looks like a scene from perhaps a failed painted project,10,140,20","Sophia","It's creative. It's just not my thing.,-32,280,20","Erika","Feels like an abandoned dream,13,100,20","Jamie","3D looks is really cool,30,320,20","4"
"14708","","survey-text","146","600763","0.0-144.0-0.0","A33PHCBUOD4WKD","","","","{""Q0"":""Riding a horse into dreamland. Too abstract for me""}","","","","","","","","","","","","","","","","","","","","","","",""
"3157.899999856949","","image-slider-response","147","603925","0.0-145.0","A33PHCBUOD4WKD","","","","","-4","","","","","","","","","","","","","","","","","","","","","",""
"null","","image-button-response","148","608938","0.0-146.0","A33PHCBUOD4WKD","img_art/18.jpg","null","","","","","","","","","","","","","","","","","","","","","","","","",""
"620","","image-button-response","149","609561","0.0-147.0","A33PHCBUOD4WKD","img_art/18.jpg","0","","","","","","","","","","","","","","","","","","","","","","","","",""
"692","","image-button-response","150","610258","0.0-148.0-0.0","A33PHCBUOD4WKD","img_art/18.jpg","2","","","","","","","","","","","","","","","","","","","","","","","","",""
"1863","","image-button-response","151","612126","0.0-149.0-0.0","A33PHCBUOD4WKD","img_art/18.jpg","4","","","","","","","","","","","","","","","","","","","","","","","","",""
"null","","html-keyboard-response","152","612628","0.0-150.0","A33PHCBUOD4WKD","<p style=""font-size: 48px;"">+</p>","","","","","null","allTrialResponses","500","1","15","img_art/18.jpg","-4","Riding a horse into dreamland. Too abstract for me","Sophia,Megan,Abigail,Jamie,Erika,Kelsey","This one is very dark and apocalyptic indeed!,-30,280,20","Nice palette with complexity becoming nice at the center,34,200,20","Interesting and capitvating to look at,19,20,20","Mash up of colors and don't see a grander picture,-10,320,20","Gently chaotic and beautiful,40,100,20","its messy, it seems angry,-21,240,20","Sophia","This one is very dark and apocalyptic indeed!,-30,280,20","Abigail","Interesting and capitvating to look at,19,20,20","Erika","Gently chaotic and beautiful,40,100,20","4"
"2180","","survey-text","153","614825","0.0-151.0-0.0","A33PHCBUOD4WKD","","","","{""Q0"":""course""}","","","","","","","","","","","","","","","","","","","","","","",""
"8266","","survey-text","154","623093","0.0-152.0-0.0","A33PHCBUOD4WKD","","","","{""Q0"":""Too abstract for me, not enough structure""}","","","","","","","","","","","","","","","","","","","","","","",""
"3734.9000000953674","","image-slider-response","155","626832","0.0-153.0","A33PHCBUOD4WKD","","","","","-29","","","","","","","","","","","","","","","","","","","","","",""
"null","","image-button-response","156","631839","0.0-154.0","A33PHCBUOD4WKD","img_art/13.jpg","null","","","","","","","","","","","","","","","","","","","","","","","","",""
"1807","","image-button-response","157","633649","0.0-155.0","A33PHCBUOD4WKD","img_art/13.jpg","4","","","","","","","","","","","","","","","","","","","","","","","","",""
"1538","","image-button-response","158","635193","0.0-156.0-0.0","A33PHCBUOD4WKD","img_art/13.jpg","3","","","","","","","","","","","","","","","","","","","","","","","","",""
"1666","","image-button-response","159","636865","0.0-157.0-0.0","A33PHCBUOD4WKD","img_art/13.jpg","2","","","","","","","","","","","","","","","","","","","","","","","","",""
"null","","html-keyboard-response","160","637869","0.0-158.0","A33PHCBUOD4WKD","<p style=""font-size: 48px;"">+</p>","","","","","null","allTrialResponses","1000","1","16","img_art/13.jpg","-29","Too abstract for me, not enough structure","Sophia,Elizabeth,Abigail,Monica,Erika,Emily","I like the colors used in this piece.,2,280,20","Love the splash of colors,50,20,20","This is easy to look at,46,20,20","It's like any other splatter paint art piece, nothing special,1,360,20","Gorgeous contrast and color choice, very pleasing,50,100,20","I don't car for it but it does seem organized and like it took considereably more skill that others.,9,40,20","Erika","Gorgeous contrast and color choice, very pleasing,50,100,20","Monica","It's like any other splatter paint art piece, nothing special,1,360,20","Abigail","This is easy to look at,46,20,20","4"
"4799","","survey-text","161","642678","0.0-159.0-0.0","A33PHCBUOD4WKD","","","","{""Q0"":""Too boring""}","","","","","","","","","","","","","","","","","","","","","","",""
"2315.5999999046326","","image-slider-response","162","644997","0.0-160.0","A33PHCBUOD4WKD","","","","","-25","","","","","","","","","","","","","","","","","","","","","",""
"null","","image-button-response","163","650007","0.0-161.0","A33PHCBUOD4WKD","img_art/30.jpg","null","","","","","","","","","","","","","","","","","","","","","","","","",""
"476","","image-button-response","164","650487","0.0-162.0","A33PHCBUOD4WKD","img_art/30.jpg","1","","","","","","","","","","","","","","","","","","","","","","","","",""
"457","","image-button-response","165","650950","0.0-163.0-0.0","A33PHCBUOD4WKD","img_art/30.jpg","2","","","","","","","","","","","","","","","","","","","","","","","","",""
"1642","","image-button-response","166","652598","0.0-164.0-0.0","A33PHCBUOD4WKD","img_art/30.jpg","4","","","","","","","","","","","","","","","","","","","","","","","","",""
"null","","html-keyboard-response","167","653102","0.0-165.0","A33PHCBUOD4WKD","<p style=""font-size: 48px;"">+</p>","","","","","null","allTrialResponses","500","1","17","img_art/30.jpg","-25","Too boring","Alexandra,Stephanie,Abigail,Monica,Erika,Sabrina","I really love the pastel colors and the 3D design in this,43,60,20","My kindergarten class could do this,-50,300,20","Combination of colors arent good,-6,20,20","It looked like a random scribble but I can see a person's face in it now and I think it's clever,13,360,20","I can't parse any intention or emotion,-17,100,20","Flowing freely of the rest of the world,42,120,20","Stephanie","My kindergarten class could do this,-50,300,20","Abigail","Combination of colors arent good,-6,20,20","Erika","I can't parse any intention or emotion,-17,100,20","4"
"11443","","survey-text","168","664555","0.0-166.0-0.0","A33PHCBUOD4WKD","","","","{""Q0"":""Like the warm and cool colors together""}","","","","","","","","","","","","","","","","","","","","","","",""
"2825.9000000953674","","image-slider-response","169","667385","0.0-167.0","A33PHCBUOD4WKD","","","","","27","","","","","","","","","","","","","","","","","","","","","",""
"null","","image-button-response","170","672389","0.0-168.0","A33PHCBUOD4WKD","img_art/26.jpg","null","","","","","","","","","","","","","","","","","","","","","","","","",""
"538","","image-button-response","171","672932","0.0-169.0","A33PHCBUOD4WKD","img_art/26.jpg","5","","","","","","","","","","","","","","","","","","","","","","","","",""
"516","","image-button-response","172","673453","0.0-170.0-0.0","A33PHCBUOD4WKD","img_art/26.jpg","4","","","","","","","","","","","","","","","","","","","","","","","","",""
"509","","image-button-response","173","673968","0.0-171.0-0.0","A33PHCBUOD4WKD","img_art/26.jpg","3","","","","","","","","","","","","","","","","","","","","","","","","",""
"null","","html-keyboard-response","174","674472","0.0-172.0","A33PHCBUOD4WKD","<p style=""font-size: 48px;"">+</p>","","","","","null","allTrialResponses","500","1","18","img_art/26.jpg","27","Like the warm and cool colors together","Jacqueline,Stephanie,Abigail,Taylor,Erika,Claire","I don't really see the point in this painting.,-16,300,20","Day just begun in the city and the stores are opening their doors.,41,300,20","Reminds me of walks in my dads city when I was little,22,20,20","Makes me want to walk down a cool street,20,340,20","Feels like still life,-13,100,20","very impressionistic,11,260,20","Claire","very impressionistic,11,260,20","Erika","Feels like still life,-13,100,20","Taylor","Makes me want to walk down a cool street,20,340,20","4"
"10694","","survey-text","175","685173","0.0-173.0-0.0","A33PHCBUOD4WKD","","","","{""Q0"":""feels like an angry cloud""}","","","","","","","","","","","","","","","","","","","","","","",""
"2479","","image-slider-response","176","687655","0.0-174.0","A33PHCBUOD4WKD","","","","","-22","","","","","","","","","","","","","","","","","","","","","",""
"null","","image-button-response","177","692661","0.0-175.0","A33PHCBUOD4WKD","img_art/1.jpg","null","","","","","","","","","","","","","","","","","","","","","","","","",""
"789","","image-button-response","178","693455","0.0-176.0","A33PHCBUOD4WKD","img_art/1.jpg","4","","","","","","","","","","","","","","","","","","","","","","","","",""
"739","","image-button-response","179","694200","0.0-177.0-0.0","A33PHCBUOD4WKD","img_art/1.jpg","3","","","","","","","","","","","","","","","","","","","","","","","","",""
"1763","","image-button-response","180","695969","0.0-178.0-0.0","A33PHCBUOD4WKD","img_art/1.jpg","0","","","","","","","","","","","","","","","","","","","","","","","","",""
"null","","html-keyboard-response","181","697479","0.0-179.0","A33PHCBUOD4WKD","<p style=""font-size: 48px;"">+</p>","","","","","null","allTrialResponses","1500","1","19","img_art/1.jpg","-22","feels like an angry cloud","Meghan,Michaela,Erica,Taylor,Erika,Claire","good colors and contrast,31,220,20","That one piece in the middle gives it depth and it's really neat,21,260,20","Makes me warm and relaxed,38,80,20","Makes me think of a bad thunderstorm,11,340,20","Vague and directionless,-14,100,20","the colors are nice,8,260,20","Erika","Vague and directionless,-14,100,20","Taylor","Makes me think of a bad thunderstorm,11,340,20","Meghan","good colors and contrast,31,220,20","4"
"9866","","survey-text","182","707355","0.0-180.0-0.0","A33PHCBUOD4WKD","","","","{""Q0"":""too cartoony, but I like the background""}","","","","","","","","","","","","","","","","","","","","","","",""
"1868.7000000476837","","image-slider-response","183","709227","0.0-181.0","A33PHCBUOD4WKD","","","","","-11","","","","","","","","","","","","","","","","","","","","","",""
"null","","image-button-response","184","714234","0.0-182.0","A33PHCBUOD4WKD","img_art/27.jpg","null","","","","","","","","","","","","","","","","","","","","","","","","",""
"582","","image-button-response","185","714820","0.0-183.0","A33PHCBUOD4WKD","img_art/27.jpg","0","","","","","","","","","","","","","","","","","","","","","","","","",""
"839","","image-button-response","186","715662","0.0-184.0-0.0","A33PHCBUOD4WKD","img_art/27.jpg","2","","","","","","","","","","","","","","","","","","","","","","","","",""
"2149","","image-button-response","187","717817","0.0-185.0-0.0","A33PHCBUOD4WKD","img_art/27.jpg","4","","","","","","","","","","","","","","","","","","","","","","","","",""
"null","","html-keyboard-response","188","718323","0.0-186.0","A33PHCBUOD4WKD","<p style=""font-size: 48px;"">+</p>","","","","","null","allTrialResponses","500","1","20","img_art/27.jpg","-11","too cartoony, but I like the background","Meghan,Brianna,Madeline,Taylor,Erika,Breanna","again looks like childrens artwork,-40,220,20","This painting is very unique,21,20,20","Looks like the green bits were added on later,-1,40,20","Reminds me of a town on fire,-15,340,20","Nice color, but too vague,-12,100,20","Not too impressed with the work,6,380,20","Meghan","again looks like childrens artwork,-40,220,20","Madeline","Looks like the green bits were added on later,-1,40,20","Erika","Nice color, but too vague,-12,100,20","4"
"1962","","survey-text","189","720300","0.0-187.0-0.0","A33PHCBUOD4WKD","","","","{""Q0"":""we""}","","","","","","","","","","","","","","","","","","","","","","",""
"14603","","survey-text","190","734906","0.0-188.0-0.0","A33PHCBUOD4WKD","","","","{""Q0"":""A tree or a headless crow. LIke the openness of interpretation""}","","","","","","","","","","","","","","","","","","","","","","",""
"3346.899999856949","","image-slider-response","191","738257","0.0-189.0","A33PHCBUOD4WKD","","","","","33","","","","","","","","","","","","","","","","","","","","","",""
"null","","image-button-response","192","743266","0.0-190.0","A33PHCBUOD4WKD","img_art/6.jpg","null","","","","","","","","","","","","","","","","","","","","","","","","",""
"1372","","image-button-response","193","744641","0.0-191.0","A33PHCBUOD4WKD","img_art/6.jpg","0","","","","","","","","","","","","","","","","","","","","","","","","",""
"636","","image-button-response","194","745280","0.0-192.0-0.0","A33PHCBUOD4WKD","img_art/6.jpg","1","","","","","","","","","","","","","","","","","","","","","","","","",""
"2849","","image-button-response","195","748135","0.0-193.0-0.0","A33PHCBUOD4WKD","img_art/6.jpg","4","","","","","","","","","","","","","","","","","","","","","","","","",""
"null","","html-keyboard-response","196","748639","0.0-194.0","A33PHCBUOD4WKD","<p style=""font-size: 48px;"">+</p>","","","","","null","allTrialResponses","500","1","21","img_art/6.jpg","33","A tree or a headless crow. LIke the openness of interpretation","Meghan,Jasmine,Madeline,Angela,Erika,Jordan","reminds me of a bird,31,220,20","Simple and clean,11,340,20","Looks a bit like a pickle or something?,-16,40,20","I like the orange color, and I don't know why but I like this piece.,22,260,20","Lonesome in nature,13,100,20","This is interesting, I feel solitude, and loneliness from this.,13,20,20","Meghan","reminds me of a bird,31,220,20","Jasmine","Simple and clean,11,340,20","Erika","Lonesome in nature,13,100,20","4"
"11381","","survey-text","197","760029","0.0-195.0-0.0","A33PHCBUOD4WKD","","","","{""Q0"":""the chaos of our human made networks""}","","","","","","","","","","","","","","","","","","","","","","",""
"2298.2999999523163","","image-slider-response","198","762330","0.0-196.0","A33PHCBUOD4WKD","","","","","27","","","","","","","","","","","","","","","","","","","","","",""
"null","","image-button-response","199","767336","0.0-197.0","A33PHCBUOD4WKD","img_art/11.jpg","null","","","","","","","","","","","","","","","","","","","","","","","","",""
"1529","","image-button-response","200","768868","0.0-198.0","A33PHCBUOD4WKD","img_art/11.jpg","4","","","","","","","","","","","","","","","","","","","","","","","","",""
"901","","image-button-response","201","769776","0.0-199.0-0.0","A33PHCBUOD4WKD","img_art/11.jpg","1","","","","","","","","","","","","","","","","","","","","","","","","",""
"1929","","image-button-response","202","771711","0.0-200.0-0.0","A33PHCBUOD4WKD","img_art/11.jpg","3","","","","","","","","","","","","","","","","","","","","","","","","",""
"null","","html-keyboard-response","203","773215","0.0-201.0","A33PHCBUOD4WKD","<p style=""font-size: 48px;"">+</p>","","","","","null","allTrialResponses","1500","1","22","img_art/11.jpg","27","the chaos of our human made networks","Meghan,Jasmine,Lindsey,Caitlin,Erika,Dominique","makes me feel dizzy,-37,220,20","Reminds me of a city on a grey/rainy winter's day,25,340,20","Not a fan of the colors but it looks interesting.,-31,400,20","Busy, busy oceanside city.,-10,80,20","I want to know which skyline the artist is depicting,26,100,20","Looks like a familiar area,31,400,20","Erika","I want to know which skyline the artist is depicting,26,100,20","Jasmine","Reminds me of a city on a grey/rainy winter's day,25,340,20","Caitlin","Busy, busy oceanside city.,-10,80,20","4"
"9687","","survey-text","204","782914","0.0-202.0-0.0","A33PHCBUOD4WKD","","","","{""Q0"":""The face in the corner is really frightening""}","","","","","","","","","","","","","","","","","","","","","","",""
"3992.7999999523163","","image-slider-response","205","786912","0.0-203.0","A33PHCBUOD4WKD","","","","","-25","","","","","","","","","","","","","","","","","","","","","",""
"null","","image-button-response","206","791919","0.0-204.0","A33PHCBUOD4WKD","img_art/8.jpg","null","","","","","","","","","","","","","","","","","","","","","","","","",""
"1694","","image-button-response","207","793617","0.0-205.0","A33PHCBUOD4WKD","img_art/8.jpg","0","","","","","","","","","","","","","","","","","","","","","","","","",""
"854","","image-button-response","208","794474","0.0-206.0-0.0","A33PHCBUOD4WKD","img_art/8.jpg","3","","","","","","","","","","","","","","","","","","","","","","","","",""
"1965","","image-button-response","209","796444","0.0-207.0-0.0","A33PHCBUOD4WKD","img_art/8.jpg","5","","","","","","","","","","","","","","","","","","","","","","","","",""
"null","","html-keyboard-response","210","797948","0.0-208.0","A33PHCBUOD4WKD","<p style=""font-size: 48px;"">+</p>","","","","","null","allTrialResponses","1500","1","23","img_art/8.jpg","-25","The face in the corner is really frightening","Samantha,Jasmine,Margaret,Caitlin,Erika,Madison","The face bothers me,-25,140,20","Not too bad despite the chaos.,16,340,20","its pretty exciting to look at, there is alot going on,15,100,20","And I'll huff and I'll puff and I'll blow your town down!!,20,80,20","Striking, but not my taste,20,100,20","The composition is striking, and some of the images are quite dramatic,11,60,20","Samantha","The face bothers me,-25,140,20","Caitlin","And I'll huff and I'll puff and I'll blow your town down!!,20,80,20","Madison","The composition is striking, and some of the images are quite dramatic,11,60,20","4"
"7201","","survey-text","211","805159","0.0-209.0-0.0","A33PHCBUOD4WKD","","","","{""Q0"":""like an inkblot forest""}","","","","","","","","","","","","","","","","","","","","","","",""
"3307","","image-slider-response","212","808470","0.0-210.0","A33PHCBUOD4WKD","","","","","14","","","","","","","","","","","","","","","","","","","","","",""
"null","","image-button-response","213","813480","0.0-211.0","A33PHCBUOD4WKD","img_art/15.jpg","null","","","","","","","","","","","","","","","","","","","","","","","","",""
"669","","image-button-response","214","814154","0.0-212.0","A33PHCBUOD4WKD","img_art/15.jpg","1","","","","","","","","","","","","","","","","","","","","","","","","",""
"2264","","image-button-response","215","816423","0.0-213.0-0.0","A33PHCBUOD4WKD","img_art/15.jpg","3","","","","","","","","","","","","","","","","","","","","","","","","",""
"4853","","image-button-response","216","821281","0.0-214.0-0.0","A33PHCBUOD4WKD","img_art/15.jpg","5","","","","","","","","","","","","","","","","","","","","","","","","",""
"null","","html-keyboard-response","217","821785","0.0-215.0","A33PHCBUOD4WKD","<p style=""font-size: 48px;"">+</p>","","","","","null","allTrialResponses","500","1","24","img_art/15.jpg","14","like an inkblot forest","Samantha,Briana,Cassandra,Caitlin,Makayla,Madison","Not interesting enough. Boring,-37,140,20","It reminds me of when you look up into a tree,21,400,20","Hate it...black dots.,-47,120,20","Getting better.,10,80,20","It's just dots. Doesn't bring any positive or negative feelings,2,80,20","I am starting to feel description fatigue. This would be pleasant enough in a doctor's office waiting room.,15,60,20","Briana","It reminds me of when you look up into a tree,21,400,20","Caitlin","Getting better.,10,80,20","Madison","I am starting to feel description fatigue. This would be pleasant enough in a doctor's office waiting room.,15,60,20","4"
"6344","","survey-text","218","828140","0.0-216.0-0.0","A33PHCBUOD4WKD","","","","{""Q0"":""to messy, hate the color combo""}","","","","","","","","","","","","","","","","","","","","","","",""
"2726.5","","image-slider-response","219","830871","0.0-217.0","A33PHCBUOD4WKD","","","","","-33","","","","","","","","","","","","","","","","","","","","","",""
"null","","image-button-response","220","835876","0.0-218.0","A33PHCBUOD4WKD","img_art/2.jpg","null","","","","","","","","","","","","","","","","","","","","","","","","",""
"3753","","image-button-response","221","839631","0.0-219.0","A33PHCBUOD4WKD","img_art/2.jpg","0","","","","","","","","","","","","","","","","","","","","","","","","",""
"1074","","image-button-response","222","840710","0.0-220.0-0.0","A33PHCBUOD4WKD","img_art/2.jpg","1","","","","","","","","","","","","","","","","","","","","","","","","",""
"787","","image-button-response","223","841502","0.0-221.0-0.0","A33PHCBUOD4WKD","img_art/2.jpg","4","","","","","","","","","","","","","","","","","","","","","","","","",""
"null","","html-keyboard-response","224","843006","0.0-222.0","A33PHCBUOD4WKD","<p style=""font-size: 48px;"">+</p>","","","","","null","allTrialResponses","1500","1","25","img_art/2.jpg","-33","to messy, hate the color combo","Caroline,Briana,Destiny,Caitlin,Savannah,Madison","Colors are drab and cause a sense of blandness,-28,100,20","Childish smiley face,-19,400,20","omg she's so cute look at that little smile those eyelashes ugh love it,30,360,20","Have now advanced from kindergarten to the first grade.,-5,80,20","Very gross colors. What were they thinking?,-47,200,20","Grim and overwhelming,-6,60,20","Caroline","Colors are drab and cause a sense of blandness,-28,100,20","Briana","Childish smiley face,-19,400,20","Savannah","Very gross colors. What were they thinking?,-47,200,20","4"
"2295","","survey-text","225","845318","0.0-223.0-0.0","A33PHCBUOD4WKD","","","","{""Q0"":""table""}","","","","","","","","","","","","","","","","","","","","","","",""
"12590","","survey-text","226","857910","0.0-224.0-0.0","A33PHCBUOD4WKD","","","","{""Q0"":""a yellow bag of trash tied closed""}","","","","","","","","","","","","","","","","","","","","","","",""
"2207.5","","image-slider-response","227","860123","0.0-225.0","A33PHCBUOD4WKD","","","","","11","","","","","","","","","","","","","","","","","","","","","",""
"null","","image-button-response","228","865135","0.0-226.0","A33PHCBUOD4WKD","img_art/5.jpg","null","","","","","","","","","","","","","","","","","","","","","","","","",""
"4567","","image-button-response","229","869706","0.0-227.0","A33PHCBUOD4WKD","img_art/5.jpg","1","","","","","","","","","","","","","","","","","","","","","","","","",""
"1030","","image-button-response","230","870742","0.0-228.0-0.0","A33PHCBUOD4WKD","img_art/5.jpg","4","","","","","","","","","","","","","","","","","","","","","","","","",""
"563","","image-button-response","231","871312","0.0-229.0-0.0","A33PHCBUOD4WKD","img_art/5.jpg","5","","","","","","","","","","","","","","","","","","","","","","","","",""
"null","","html-keyboard-response","232","872818","0.0-230.0","A33PHCBUOD4WKD","<p style=""font-size: 48px;"">+</p>","","","","","null","allTrialResponses","1500","1","26","img_art/5.jpg","11","a yellow bag of trash tied closed","Caroline,Briana,Melissa,Hailey,Savannah,Crystal","Too much angular things happening, makes me think of stabbing something which makes me uncomfortable,-50,100,20","It looks like a poorly drawn pear,17,400,20","strong appeal in contrast,27,240,20","puke yellow with nothing but sadness,-35,200,20","Boring and appears low effort,-41,200,20","Confused as to what the artist is attempting to do.,-50,300,20","Briana","It looks like a poorly drawn pear,17,400,20","Savannah","Boring and appears low effort,-41,200,20","Crystal","Confused as to what the artist is attempting to do.,-50,300,20","4"
"7922","","survey-text","233","880752","0.0-231.0-0.0","A33PHCBUOD4WKD","","","","{""Q0"":""sideways guitar, kind of interesting""}","","","","","","","","","","","","","","","","","","","","","","",""
"2713.399999856949","","image-slider-response","234","883470","0.0-232.0","A33PHCBUOD4WKD","","","","","20","","","","","","","","","","","","","","","","","","","","","",""
"null","","image-button-response","235","888477","0.0-233.0","A33PHCBUOD4WKD","img_art/10.jpg","null","","","","","","","","","","","","","","","","","","","","","","","","",""
"4647","","image-button-response","236","893129","0.0-234.0","A33PHCBUOD4WKD","img_art/10.jpg","3","","","","","","","","","","","","","","","","","","","","","","","","",""
"727","","image-button-response","237","893860","0.0-235.0-0.0","A33PHCBUOD4WKD","img_art/10.jpg","0","","","","","","","","","","","","","","","","","","","","","","","","",""
"1477","","image-button-response","238","895342","0.0-236.0-0.0","A33PHCBUOD4WKD","img_art/10.jpg","2","","","","","","","","","","","","","","","","","","","","","","","","",""
"null","","html-keyboard-response","239","895843","0.0-237.0","A33PHCBUOD4WKD","<p style=""font-size: 48px;"">+</p>","","","","","null","allTrialResponses","500","1","27","img_art/10.jpg","20","sideways guitar, kind of interesting","Olivia,Briana,Alexandria,Kayla,Savannah,Crystal","feeling the turmoil and ride,12,40,20","It confuses me. I dont know whats going on,14,400,20","it reminds me of a musical instrument,19,80,20","The loop type thing reminds me of interconnectedness and life and hope.,12,180,20","This is a scribble of a mad man. Appears low effort.,-33,200,20","The contrast between the messy dots/dabs vs the straight affluent lines is unappealing,-20,300,20","Kayla","The loop type thing reminds me of interconnectedness and life and hope.,12,180,20","Olivia","feeling the turmoil and ride,12,40,20","Alexandria","it reminds me of a musical instrument,19,80,20","4"
"9793","","survey-text","240","905646","0.0-238.0-0.0","A33PHCBUOD4WKD","","","","{""Q0"":""a walk on mars, I like the warm colors""}","","","","","","","","","","","","","","","","","","","","","","",""
"2299.5","","image-slider-response","241","907950","0.0-239.0","A33PHCBUOD4WKD","","","","","9","","","","","","","","","","","","","","","","","","","","","",""
"null","","image-button-response","242","912957","0.0-240.0","A33PHCBUOD4WKD","img_art/19.jpg","null","","","","","","","","","","","","","","","","","","","","","","","","",""
"728","","image-button-response","243","913689","0.0-241.0","A33PHCBUOD4WKD","img_art/19.jpg","0","","","","","","","","","","","","","","","","","","","","","","","","",""
"668","","image-button-response","244","914361","0.0-242.0-0.0","A33PHCBUOD4WKD","img_art/19.jpg","1","","","","","","","","","","","","","","","","","","","","","","","","",""
"4116","","image-button-response","245","918484","0.0-243.0-0.0","A33PHCBUOD4WKD","img_art/19.jpg","4","","","","","","","","","","","","","","","","","","","","","","","","",""
"null","","html-keyboard-response","246","918989","0.0-244.0","A33PHCBUOD4WKD","<p style=""font-size: 48px;"">+</p>","","","","","null","allTrialResponses","500","1","28","img_art/19.jpg","9","a walk on mars, I like the warm colors","Olivia,Rebecca,Alexandria,Kayla,Kathryn,Laura","city life energy,8,40,20","interesting take on depth (reminds me of those 1000 piece puzzles),2,100,20","it draws my eye and my mind fills in the spaces,14,80,20","Too messy and busy. Too much going on there for me.,-12,180,20","This one feels pretty neutral. Like a window into someone's life, one person in a bustling metropolis.,0,140,20","confusion, scattered and diffuse,-4,320,20","Olivia","city life energy,8,40,20","Rebecca","interesting take on depth (reminds me of those 1000 piece puzzles),2,100,20","Kathryn","This one feels pretty neutral. Like a window into someone's life, one person in a bustling metropolis.,0,140,20","4"
"20751","","survey-text","247","939753","0.0-245.0-0.0","A33PHCBUOD4WKD","","","","{""Q0"":""a marching band on an LSD trip, fun and playful but distorted""}","","","","","","","","","","","","","","","","","","","","","","",""
"2048.399999856949","","image-slider-response","248","941804","0.0-246.0","A33PHCBUOD4WKD","","","","","7","","","","","","","","","","","","","","","","","","","","","",""
"null","","image-button-response","249","946815","0.0-247.0","A33PHCBUOD4WKD","img_art/23.jpg","null","","","","","","","","","","","","","","","","","","","","","","","","",""
"1849","","image-button-response","250","948668","0.0-248.0","A33PHCBUOD4WKD","img_art/23.jpg","4","","","","","","","","","","","","","","","","","","","","","","","","",""
"593","","image-button-response","251","949266","0.0-249.0-0.0","A33PHCBUOD4WKD","img_art/23.jpg","3","","","","","","","","","","","","","","","","","","","","","","","","",""
"1032","","image-button-response","252","950304","0.0-250.0-0.0","A33PHCBUOD4WKD","img_art/23.jpg","0","","","","","","","","","","","","","","","","","","","","","","","","",""
"null","","html-keyboard-response","253","951314","0.0-251.0","A33PHCBUOD4WKD","<p style=""font-size: 48px;"">+</p>","","","","","null","allTrialResponses","1000","1","29","img_art/23.jpg","7","a marching band on an LSD trip, fun and playful but distorted","Olivia,Rebecca,Paige,Katherine,Kathryn,Jennifer","happiness in the universe,28,40,20","love the contrast (was this painted by a left-handed artist?),7,100,20","Does not incite any emotional response,1,60,20","This one is awesome, kinda looks like a cake with sprinkles but in a different universe,50,120,20","I feel positive community and comfort. Singing along at a concert, united with a bunch of strangers through shared joy.,20,140,20","The cluster of white silhouettes against the colorful background makes me feel uneasy for some reason,-36,380,20","Kathryn","I feel positive community and comfort. Singing along at a concert, united with a bunch of strangers through shared joy.,20,140,20","Katherine","This one is awesome, kinda looks like a cake with sprinkles but in a different universe,50,120,20","Olivia","happiness in the universe,28,40,20","4"
"6624","","survey-text","254","957948","0.0-252.0-0.0","A33PHCBUOD4WKD","","","","{""Q0"":""calming""}","","","","","","","","","","","","","","","","","","","","","","",""
"1827.7999999523163","","image-slider-response","255","959779","0.0-253.0","A33PHCBUOD4WKD","","","","","8","","","","","","","","","","","","","","","","","","","","","",""
"null","","image-button-response","256","964787","0.0-254.0","A33PHCBUOD4WKD","img_art/21.jpg","null","","","","","","","","","","","","","","","","","","","","","","","","",""
"836","","image-button-response","257","965628","0.0-255.0","A33PHCBUOD4WKD","img_art/21.jpg","3","","","","","","","","","","","","","","","","","","","","","","","","",""
"1201","","image-button-response","258","966832","0.0-256.0-0.0","A33PHCBUOD4WKD","img_art/21.jpg","0","","","","","","","","","","","","","","","","","","","","","","","","",""
"1320","","image-button-response","259","968157","0.0-257.0-0.0","A33PHCBUOD4WKD","img_art/21.jpg","1","","","","","","","","","","","","","","","","","","","","","","","","",""
"null","","html-keyboard-response","260","969160","0.0-258.0","A33PHCBUOD4WKD","<p style=""font-size: 48px;"">+</p>","","","","","null","allTrialResponses","1000","1","30","img_art/21.jpg","8","calming","Olivia,Diana,Jenna,Katherine,Kathryn,Alyssa","feels like a wave coming into light,9,40,20","Makes me feel light and airy. Like I've gone back in time to 1700th century France.,43,380,20","beautiful. reminds me of a storm brewing over sea. i love the white dots.,45,360,20","I can't explain why this struck me as absolutely gorgeous. Like the clashing between 2 different worlds,43,120,20","This feels chaotic, like a battle or a storm.,-20,140,20","I like the colors that were used and the stark contrast between the two sides,25,160,20","Katherine","I can't explain why this struck me as absolutely gorgeous. Like the clashing between 2 different worlds,43,120,20","Olivia","feels like a wave coming into light,9,40,20","Diana","Makes me feel light and airy. Like I've gone back in time to 1700th century France.,43,380,20","4"
"3775","","image-button-response_instructions","261","972947","0.0-259.0","A33PHCBUOD4WKD","","0","instructions","","","","","","","","","","","","","","","","","","","","","","","",""
"1276","","image-button-response","262","974233","0.0-260.0","A33PHCBUOD4WKD","","0","","","","","","","","","","","","","","","","","","","","","","","","",""
