"rt","url","trial_type","trial_index","time_elapsed","internal_node_id","participant_id","stimulus","button_pressed","Name","responses","response","key_press","variableName","fixationTime","condition","trial","photo","subjectRating","subjectResponse","agentsNames","agent_1_Response","agent_2_Response","agent_3_Response","agent_4_Response","agent_5_Response","agent_6_Response","kept_1_name","kept_1_response","kept_2_name","kept_2_response","kept_3_name","kept_3_response","errorCounter"
"7445","external_page_harvard.html","external-html","0","7546","0.0-0.0","A3492HL94OVDR5","","","","","","","","","","","","","","","","","","","","","","","","","","",""
"1933","","image-button-response","1","9480","0.0-1.0","A3492HL94OVDR5","","0","","","","","","","","","","","","","","","","","","","","","","","","",""
"2324","","image-button-response","2","11809","0.0-2.0-0.0","A3492HL94OVDR5","","1","phone","","","","","","","","","","","","","","","","","","","","","","","",""
"21577","","survey-text","3","33387","0.0-3.0-0.0","A3492HL94OVDR5","","","","{""Q0"":""A3492HL94OVDR5""}","","","","","","","","","","","","","","","","","","","","","","",""
"47331","","image-button-response_instructions","4","80721","0.0-4.0","A3492HL94OVDR5","","0","instructions","","","","","","","","","","","","","","","","","","","","","","","",""
"10184","","image-button-response_instructions","5","90906","0.0-5.0","A3492HL94OVDR5","img_art/ins/popularity/ins1.png","0","instructions","","","","","","","","","","","","","","","","","","","","","","","",""
"8751","","image-button-response_instructions","6","99659","0.0-6.0","A3492HL94OVDR5","img_art/ins/popularity/ins2.png","0","instructions","","","","","","","","","","","","","","","","","","","","","","","",""
"8407","","image-button-response_instructions","7","108068","0.0-7.0","A3492HL94OVDR5","img_art/ins/popularity/ins2Extreme.png","0","instructions","","","","","","","","","","","","","","","","","","","","","","","",""
"7464","","image-button-response_instructions","8","115533","0.0-8.0","A3492HL94OVDR5","img_art/ins/popularity/ins3KEEPpop.PNG","0","instructions","","","","","","","","","","","","","","","","","","","","","","","",""
"2183","","image-button-response_instructions","9","117717","0.0-9.0","A3492HL94OVDR5","img_art/ins/popularity/ins3ANamepop.PNG","0","instructions","","","","","","","","","","","","","","","","","","","","","","","",""
"4959","","image-button-response_instructions","10","122678","0.0-10.0","A3492HL94OVDR5","img_art/ins/popularity/ins3ARatingpop.png","0","instructions","","","","","","","","","","","","","","","","","","","","","","","",""
"2127","","image-button-response_instructions","11","124806","0.0-11.0","A3492HL94OVDR5","img_art/ins/popularity/ins3ATextpop.png","0","instructions","","","","","","","","","","","","","","","","","","","","","","","",""
"3856","","image-button-response_instructions","12","128662","0.0-12.0","A3492HL94OVDR5","img_art/ins/popularity/ins3ALikespop.png","0","instructions","","","","","","","","","","","","","","","","","","","","","","","",""
"9176","","image-button-response_instructions","13","137840","0.0-13.0","A3492HL94OVDR5","img_art/ins/popularity/ins3KEEPpop.PNG","0","instructions","","","","","","","","","","","","","","","","","","","","","","","",""
"4016","","image-button-response_instructions","14","141856","0.0-14.0","A3492HL94OVDR5","img_art/ins/popularity/ins3_5RED.png","0","instructions","","","","","","","","","","","","","","","","","","","","","","","",""
"1831","","image-button-response_instructions","15","143689","0.0-15.0","A3492HL94OVDR5","img_art/ins/popularity/ins3KEEPpop.PNG","0","instructions","","","","","","","","","","","","","","","","","","","","","","","",""
"6688","","image-button-response_instructions","16","150378","0.0-16.0","A3492HL94OVDR5","img_art/ins/popularity/ins4KEEPpop.PNG","0","instructions","","","","","","","","","","","","","","","","","","","","","","","",""
"7168","","image-button-response_instructions","17","157546","0.0-17.0","A3492HL94OVDR5","img_art/ins/popularity/ins5KEEPpop.PNG","0","instructions","","","","","","","","","","","","","","","","","","","","","","","",""
"34268","","image-button-response_instructions","18","191815","0.0-18.0","A3492HL94OVDR5","","0","instructions","","","","","","","","","","","","","","","","","","","","","","","",""
"10607","","survey-text","19","202449","0.0-19.0-0.0","A3492HL94OVDR5","","","","{""Q0"":""but""}","","","","","","","","","","","","","","","","","","","","","","",""
"32778","","survey-text","20","235229","0.0-20.0-0.0","A3492HL94OVDR5","","","","{""Q0"":""It's a tad bit juvenile but I kind of like it.""}","","","","","","","","","","","","","","","","","","","","","","",""
"6974","","image-slider-response","21","242205","0.0-21.0","A3492HL94OVDR5","","","","","16","","","","","","","","","","","","","","","","","","","","","",""
"null","","image-button-response","22","247208","0.0-22.0","A3492HL94OVDR5","img_art/ins/1.jpg","null","","","","","","","","","","","","","","","","","","","","","","","","",""
"13710","","image-button-response","23","260920","0.0-23.0","A3492HL94OVDR5","img_art/ins/1.jpg","3","","","","","","","","","","","","","","","","","","","","","","","","",""
"1974","","image-button-response","24","262896","0.0-24.0-0.0","A3492HL94OVDR5","img_art/ins/1.jpg","1","","","","","","","","","","","","","","","","","","","","","","","","",""
"10367","","image-button-response","25","273265","0.0-25.0-0.0","A3492HL94OVDR5","img_art/ins/1.jpg","0","","","","","","","","","","","","","","","","","","","","","","","","",""
"null","","html-keyboard-response","26","274768","0.0-26.0","A3492HL94OVDR5","<p style=""font-size: 48px;"">+</p>","","","","","null","allTrialResponses","1500","1","-2","img_art/ins/1.jpg","16","It's a tad bit juvenile but I kind of like it.","Adam,Alex,Ben,Carl,Daniel,Jack","Seems like doodles,-20,20,20","very creative work.,36,40,20","This color reminds me of poo,-46,60,20","very calming artwork,42,80,20","It looks like a murder scene.,-48,100,20","I like the sophisticated brushwork,40,120,20","Carl","very calming artwork,42,80,20","Alex","very creative work.,36,40,20","Adam","Seems like doodles,-20,20,20","0"
"40874","","survey-text","27","315646","0.0-27.0-0.0","A3492HL94OVDR5","","","","{""Q0"":""Love the bold colors and flow.""}","","","","","","","","","","","","","","","","","","","","","","",""
"3414.8000000044703","","image-slider-response","28","319063","0.0-28.0","A3492HL94OVDR5","","","","","30","","","","","","","","","","","","","","","","","","","","","",""
"4967","","image-button-response","29","324066","0.0-29.0","A3492HL94OVDR5","img_art/ins/2.jpg","1","","","","","","","","","","","","","","","","","","","","","","","","",""
"1404","","image-button-response","30","325471","0.0-30.0","A3492HL94OVDR5","img_art/ins/2.jpg","1","","","","","","","","","","","","","","","","","","","","","","","","",""
"2630","","image-button-response","31","328104","0.0-31.0-0.0","A3492HL94OVDR5","img_art/ins/2.jpg","4","","","","","","","","","","","","","","","","","","","","","","","","",""
"1006","","image-button-response","32","329112","0.0-32.0-0.0","A3492HL94OVDR5","img_art/ins/2.jpg","3","","","","","","","","","","","","","","","","","","","","","","","","",""
"null","","html-keyboard-response","33","330613","0.0-33.0","A3492HL94OVDR5","<p style=""font-size: 48px;"">+</p>","","","","","null","allTrialResponses","1500","1","-1","img_art/ins/2.jpg","30","Love the bold colors and flow.","Adam,Alex,James,Carl,John,Kyle","too much color,-18,20,20","I like the blocks of color arrangements,30,40,20","looks too angry,-50,140,20","I can feel the artist's passion in it,45,80,20","love the texture of paint,48,160,20","Idk, it is just annoying,-32,180,20","Alex","I like the blocks of color arrangements,30,40,20","John","love the texture of paint,48,160,20","Carl","I can feel the artist's passion in it,45,80,20","0"
"63535","","survey-text","34","394152","0.0-34.0-0.0","A3492HL94OVDR5","","","","{""Q0"":""Love the flow.""}","","","","","","","","","","","","","","","","","","","","","","",""
"4110.69999999553","","image-slider-response","35","398264","0.0-35.0","A3492HL94OVDR5","","","","","26","","","","","","","","","","","","","","","","","","","","","",""
"null","","image-button-response","36","403267","0.0-36.0","A3492HL94OVDR5","img_art/ins/3.jpg","null","","","","","","","","","","","","","","","","","","","","","","","","",""
"1926","","image-button-response","37","405194","0.0-37.0","A3492HL94OVDR5","img_art/ins/3.jpg","0","","","","","","","","","","","","","","","","","","","","","","","","",""
"1702","","image-button-response","38","406898","0.0-38.0-0.0","A3492HL94OVDR5","img_art/ins/3.jpg","1","","","","","","","","","","","","","","","","","","","","","","","","",""
"1542","","image-button-response","39","408442","0.0-39.0-0.0","A3492HL94OVDR5","img_art/ins/3.jpg","0","","","","","","","","","","","","","","","","","","","","","","","","",""
"1327","","image-button-response","40","416003","0.0-39.1-0.1","A3492HL94OVDR5","img_art/ins/3.jpg","0","","","","","","","","","","","","","","","","","","","","","","","","",""
"2270","","image-button-response","41","423572","0.0-39.2-0.2","A3492HL94OVDR5","img_art/ins/3.jpg","4","","","","","","","","","","","","","","","","","","","","","","","","",""
"null","","html-keyboard-response","42","424574","0.0-40.0","A3492HL94OVDR5","<p style=""font-size: 48px;"">+</p>","","","","","null","allTrialResponses","1000","1","0","img_art/ins/3.jpg","26","Love the flow.","Mike,Alex,Ron,Carl,John,Sam","enjoy the different shades of blue,22,200,20","calming blue is very nice,36,40,20","It looks depressing,-26,220,20","It's an alright work,15,80,20","I like the overlapping of brushes,41,160,20","I can feel a rainy day from this painting,18,240,20","Mike","enjoy the different shades of blue,22,200,20","Alex","calming blue is very nice,36,40,20","John","I like the overlapping of brushes,41,160,20","4"
"10308","","image-button-response_instructions","43","434885","0.0-41.0","A3492HL94OVDR5","","0","instructions","","","","","","","","","","","","","","","","","","","","","","","",""
"16769","","survey-likert","44","451656","0.0-42.0-0.0","A3492HL94OVDR5","","","","{""Q0"":"""",""Q1"":0,""Q2"":1}","","","","","","","","","","","","","","","","","","","","","","",""
"5252","","survey-text","45","456912","0.0-43.0-0.0","A3492HL94OVDR5","","","","{""Q0"":""rock""}","","","","","","","","","","","","","","","","","","","","","","",""
"15264","","survey-text","46","472178","0.0-44.0-0.0","A3492HL94OVDR5","","","","{""Q0"":""Ooh! O love the colors and design.""}","","","","","","","","","","","","","","","","","","","","","","",""
"6663.5","","image-slider-response","47","478843","0.0-45.0","A3492HL94OVDR5","","","","","45","","","","","","","","","","","","","","","","","","","","","",""
"null","","image-button-response","48","483874","0.0-46.0","A3492HL94OVDR5","img_art/22.jpg","null","","","","","","","","","","","","","","","","","","","","","","","","",""
"1761","","image-button-response","49","485636","0.0-47.0","A3492HL94OVDR5","img_art/22.jpg","5","","","","","","","","","","","","","","","","","","","","","","","","",""
"58150","","image-button-response","50","543788","0.0-48.0-0.0","A3492HL94OVDR5","img_art/22.jpg","3","","","","","","","","","","","","","","","","","","","","","","","","",""
"8439","","image-button-response","51","552229","0.0-49.0-0.0","A3492HL94OVDR5","img_art/22.jpg","1","","","","","","","","","","","","","","","","","","","","","","","","",""
"null","","html-keyboard-response","52","552731","0.0-50.0","A3492HL94OVDR5","<p style=""font-size: 48px;"">+</p>","","","","","null","allTrialResponses","500","1","1","img_art/22.jpg","45","Ooh! O love the colors and design.","Trevor,Isaiah,Brian,Jesse,Adam,Timothy","i like the colors but it looks too 80s for me,7,280,20","The painting makes me feel a little sad.,12,300,20","this is too generic,-27,380,20","I usually dont like blurry pieces but the colors are amazing in this,14,80,20","Very generic mix of primary colors and shapes. Not a huge fan.,-10,40,20","This painting has a very nostalgic feel,20,240,20","Timothy","This painting has a very nostalgic feel,20,240,20","Jesse","I usually dont like blurry pieces but the colors are amazing in this,14,80,20","Isaiah","The painting makes me feel a little sad.,12,300,20","4"
"24560","","survey-text","53","577296","0.0-51.0-0.0","A3492HL94OVDR5","","","","{""Q0"":""sort of creepy..looks like a '90's grunge poster""}","","","","","","","","","","","","","","","","","","","","","","",""
"3350.5","","image-slider-response","54","580648","0.0-52.0","A3492HL94OVDR5","","","","","-22","","","","","","","","","","","","","","","","","","","","","",""
"null","","image-button-response","55","585651","0.0-53.0","A3492HL94OVDR5","img_art/25.jpg","null","","","","","","","","","","","","","","","","","","","","","","","","",""
"1588","","image-button-response","56","587241","0.0-54.0","A3492HL94OVDR5","img_art/25.jpg","5","","","","","","","","","","","","","","","","","","","","","","","","",""
"1055","","image-button-response","57","588298","0.0-55.0-0.0","A3492HL94OVDR5","img_art/25.jpg","4","","","","","","","","","","","","","","","","","","","","","","","","",""
"1574","","image-button-response","58","589873","0.0-56.0-0.0","A3492HL94OVDR5","img_art/25.jpg","3","","","","","","","","","","","","","","","","","","","","","","","","",""
"null","","html-keyboard-response","59","590876","0.0-57.0","A3492HL94OVDR5","<p style=""font-size: 48px;"">+</p>","","","","","null","allTrialResponses","1000","1","2","img_art/25.jpg","-22","sort of creepy..looks like a '90's grunge poster","Shawn,Isaiah,Robert,Jesse,Angel,Timothy","Cheesy and unprofessional,-30,100,20","I feel little to no emotion looking at this painting.,0,300,20","It made me think of healing.,22,360,20","Creates a bit of fear in me for some reason,-26,80,20","I feel uneasy. Like watching someone powerful ready to perform a ritual, but I don't know their intentions.,-10,180,20","This makes me feel uneasy,-20,240,20","Timothy","This makes me feel uneasy,-20,240,20","Angel","I feel uneasy. Like watching someone powerful ready to perform a ritual, but I don't know their intentions.,-10,180,20","Jesse","Creates a bit of fear in me for some reason,-26,80,20","4"
"14315","","survey-text","60","605194","0.0-58.0-0.0","A3492HL94OVDR5","","","","{""Q0"":""love the brush strokes""}","","","","","","","","","","","","","","","","","","","","","","",""
"4831.29999999702","","image-slider-response","61","610027","0.0-59.0","A3492HL94OVDR5","","","","","24","","","","","","","","","","","","","","","","","","","","","",""
"null","","image-button-response","62","615030","0.0-60.0","A3492HL94OVDR5","img_art/30.jpg","null","","","","","","","","","","","","","","","","","","","","","","","","",""
"1917","","image-button-response","63","616948","0.0-61.0","A3492HL94OVDR5","img_art/30.jpg","1","","","","","","","","","","","","","","","","","","","","","","","","",""
"1558","","image-button-response","64","618508","0.0-62.0-0.0","A3492HL94OVDR5","img_art/30.jpg","2","","","","","","","","","","","","","","","","","","","","","","","","",""
"4864","","image-button-response","65","623373","0.0-63.0-0.0","A3492HL94OVDR5","img_art/30.jpg","3","","","","","","","","","","","","","","","","","","","","","","","","",""
"null","","html-keyboard-response","66","623875","0.0-64.0","A3492HL94OVDR5","<p style=""font-size: 48px;"">+</p>","","","","","null","allTrialResponses","500","1","3","img_art/30.jpg","24","love the brush strokes","Bradley,Alexis,Sean,Jesse,Angel,Timothy","Hmmm. I think the artist is trying to direct me to a spreadsheet?  (s/s),-10,300,20","I like the strong lines or brush strokes. It looks modern and bold,21,140,20","the colors look nice,19,40,20","I do like the multi-dimensional aspect of this piece,10,80,20","It's like a child's art piece: carefree and not trying to conform to anything.,10,180,20","It's pleasent but otherwise unprovoking,8,240,20","Alexis","I like the strong lines or brush strokes. It looks modern and bold,21,140,20","Sean","the colors look nice,19,40,20","Jesse","I do like the multi-dimensional aspect of this piece,10,80,20","4"
"61365","","survey-text","67","685245","0.0-65.0-0.0","A3492HL94OVDR5","","","","{""Q0"":""very thought provoking""}","","","","","","","","","","","","","","","","","","","","","","",""
"6727","","image-slider-response","68","691973","0.0-66.0","A3492HL94OVDR5","","","","","16","","","","","","","","","","","","","","","","","","","","","",""
"null","","image-button-response","69","696976","0.0-67.0","A3492HL94OVDR5","img_art/10.jpg","null","","","","","","","","","","","","","","","","","","","","","","","","",""
"9070","","image-button-response","70","706048","0.0-68.0","A3492HL94OVDR5","img_art/10.jpg","4","","","","","","","","","","","","","","","","","","","","","","","","",""
"72593","","image-button-response","71","778642","0.0-69.0-0.0","A3492HL94OVDR5","img_art/10.jpg","1","","","","","","","","","","","","","","","","","","","","","","","","",""
"1054","","image-button-response","72","779699","0.0-70.0-0.0","A3492HL94OVDR5","img_art/10.jpg","2","","","","","","","","","","","","","","","","","","","","","","","","",""
"null","","html-keyboard-response","73","780701","0.0-71.0","A3492HL94OVDR5","<p style=""font-size: 48px;"">+</p>","","","","","null","allTrialResponses","1000","1","4","img_art/10.jpg","16","very thought provoking","Marcus,Alexis,Sean,Jesse,Nathan,Gregory","This makes me think of a city, specifically London.,20,60,20","It looks like a sea monster overtaking a ship,21,140,20","I see a rollercoaster,23,40,20","It makes me think of music and i love the reflective aspect,29,80,20","Seems very lovecraftian, which I love that style,25,200,20","Well done designs for being considered abstract,45,220,20","Nathan","Seems very lovecraftian, which I love that style,25,200,20","Alexis","It looks like a sea monster overtaking a ship,21,140,20","Sean","I see a rollercoaster,23,40,20","4"
"21996","","survey-text","74","802701","0.0-72.0-0.0","A3492HL94OVDR5","","","","{""Q0"":""looks like a 6th grade art project""}","","","","","","","","","","","","","","","","","","","","","","",""
"3062.2999999970198","","image-slider-response","75","805765","0.0-73.0","A3492HL94OVDR5","","","","","-50","","","","","","","","","","","","","","","","","","","","","",""
"null","","image-button-response","76","810767","0.0-74.0","A3492HL94OVDR5","img_art/16.jpg","null","","","","","","","","","","","","","","","","","","","","","","","","",""
"1222","","image-button-response","77","811991","0.0-75.0","A3492HL94OVDR5","img_art/16.jpg","3","","","","","","","","","","","","","","","","","","","","","","","","",""
"7919","","image-button-response","78","819911","0.0-76.0-0.0","A3492HL94OVDR5","img_art/16.jpg","2","","","","","","","","","","","","","","","","","","","","","","","","",""
"1798","","image-button-response","79","821712","0.0-77.0-0.0","A3492HL94OVDR5","img_art/16.jpg","5","","","","","","","","","","","","","","","","","","","","","","","","",""
"null","","html-keyboard-response","80","822714","0.0-78.0","A3492HL94OVDR5","<p style=""font-size: 48px;"">+</p>","","","","","null","allTrialResponses","1000","1","5","img_art/16.jpg","-50","looks like a 6th grade art project","Isaac,Alexis,Sean,Samuel,Nathan,Adrian","I wouldn't hang it up on my wall but I like the colors of the bear.,25,280,20","It looks very generic, like items were pasted onto the background,-38,140,20","my reaction is that the picture is creepy,-19,40,20","childhood horror,3,400,20","I enjoy how slightly strange this is, while seeming to still have some message,20,200,20","It's depressing. Probably achieved its goal. But I wouldn't want it hanging in my home.,-31,60,20","Samuel","childhood horror,3,400,20","Sean","my reaction is that the picture is creepy,-19,40,20","Adrian","It's depressing. Probably achieved its goal. But I wouldn't want it hanging in my home.,-31,60,20","4"
"54247","","survey-text","81","876967","0.0-79.0-0.0","A3492HL94OVDR5","","","","{""Q0"":""sky""}","","","","","","","","","","","","","","","","","","","","","","",""
"38444","","survey-text","82","915412","0.0-80.0-0.0","A3492HL94OVDR5","","","","{""Q0"":""Egh..a little generic""}","","","","","","","","","","","","","","","","","","","","","","",""
"21496.5","","image-slider-response","83","936911","0.0-81.0","A3492HL94OVDR5","","","","","-40","","","","","","","","","","","","","","","","","","","","","",""
"null","","image-button-response","84","941914","0.0-82.0","A3492HL94OVDR5","img_art/19.jpg","null","","","","","","","","","","","","","","","","","","","","","","","","",""
"1805","","image-button-response","85","943720","0.0-83.0","A3492HL94OVDR5","img_art/19.jpg","2","","","","","","","","","","","","","","","","","","","","","","","","",""
"5736","","image-button-response","86","949457","0.0-84.0-0.0","A3492HL94OVDR5","img_art/19.jpg","4","","","","","","","","","","","","","","","","","","","","","","","","",""
"2022","","image-button-response","87","951481","0.0-85.0-0.0","A3492HL94OVDR5","img_art/19.jpg","0","","","","","","","","","","","","","","","","","","","","","","","","",""
"null","","html-keyboard-response","88","952983","0.0-86.0","A3492HL94OVDR5","<p style=""font-size: 48px;"">+</p>","","","","","null","allTrialResponses","1500","1","6","img_art/19.jpg","-40","Egh..a little generic","Caleb,Jack,Sean,Samuel,Seth,Adrian","Watercolor abstract? Strange.,1,40,20","love the muted colors and added sketchy lines. calming without being boring.,50,320,20","the picture gave me anxiety,-38,40,20","city life energy,8,400,20","I wasn't sure if I liked it or hated it. It oddly reminds me of a clothing store.,11,60,20","Pleasant colors with just enough detail to be recognizable. I can see a scene in it that tells a story.,7,60,20","Sean","the picture gave me anxiety,-38,40,20","Seth","I wasn't sure if I liked it or hated it. It oddly reminds me of a clothing store.,11,60,20","Caleb","Watercolor abstract? Strange.,1,40,20","4"
"122271","","survey-text","89","1075257","0.0-87.0-0.0","A3492HL94OVDR5","","","","{""Q0"":""amateur""}","","","","","","","","","","","","","","","","","","","","","","",""
"4039.39999999851","","image-slider-response","90","1079298","0.0-88.0","A3492HL94OVDR5","","","","","-38","","","","","","","","","","","","","","","","","","","","","",""
"null","","image-button-response","91","1084300","0.0-89.0","A3492HL94OVDR5","img_art/26.jpg","null","","","","","","","","","","","","","","","","","","","","","","","","",""
"1029","","image-button-response","92","1085331","0.0-90.0","A3492HL94OVDR5","img_art/26.jpg","5","","","","","","","","","","","","","","","","","","","","","","","","",""
"26377","","image-button-response","93","1111710","0.0-91.0-0.0","A3492HL94OVDR5","img_art/26.jpg","4","","","","","","","","","","","","","","","","","","","","","","","","",""
"2790","","image-button-response","94","1114503","0.0-92.0-0.0","A3492HL94OVDR5","img_art/26.jpg","1","","","","","","","","","","","","","","","","","","","","","","","","",""
"null","","html-keyboard-response","95","1115505","0.0-93.0","A3492HL94OVDR5","<p style=""font-size: 48px;"">+</p>","","","","","null","allTrialResponses","1000","1","7","img_art/26.jpg","-38","amateur","Caleb,Aaron,Sean,Vincent,Seth,Chase","Appears childish and unfinished.,-20,40,20","It looks like a watercolor I did when I was 6.,-30,20,20","picture looks alright,1,40,20","Small town and home feel on A nice day.,28,360,20","I'm not sure if this is the image of a furniture store or not.,-20,60,20","I don't really see the point in this painting.,-16,120,20","Chase","I don't really see the point in this painting.,-16,120,20","Seth","I'm not sure if this is the image of a furniture store or not.,-20,60,20","Aaron","It looks like a watercolor I did when I was 6.,-30,20,20","4"
"23517","","survey-text","96","1139026","0.0-94.0-0.0","A3492HL94OVDR5","","","","{""Q0"":""I feel like I need to go pray.""}","","","","","","","","","","","","","","","","","","","","","","",""
"9632.10000000149","","image-slider-response","97","1148659","0.0-95.0","A3492HL94OVDR5","","","","","-42","","","","","","","","","","","","","","","","","","","","","",""
"null","","image-button-response","98","1153662","0.0-96.0","A3492HL94OVDR5","img_art/18.jpg","null","","","","","","","","","","","","","","","","","","","","","","","","",""
"154689","","image-button-response","99","1308352","0.0-97.0","A3492HL94OVDR5","img_art/18.jpg","2","","","","","","","","","","","","","","","","","","","","","","","","",""
"3805","","image-button-response","100","1312160","0.0-98.0-0.0","A3492HL94OVDR5","img_art/18.jpg","4","","","","","","","","","","","","","","","","","","","","","","","","",""
"3798","","image-button-response","101","1315960","0.0-99.0-0.0","A3492HL94OVDR5","img_art/18.jpg","5","","","","","","","","","","","","","","","","","","","","","","","","",""
"null","","html-keyboard-response","102","1316962","0.0-100.0","A3492HL94OVDR5","<p style=""font-size: 48px;"">+</p>","","","","","null","allTrialResponses","1000","1","8","img_art/18.jpg","-42","I feel like I need to go pray.","Austin,Aaron,James,John,Seth,Chase","Nice abstract art,50,240,20","I could spend a long time looking at it and see different things in the shapes.,21,20,20","Very eerie and it's spooky,11,380,20","There are alot of elements to this painting and a good mix of colors,32,120,20","This painting reminds me of the 4 horsemen of the apocalypse. It feels haunting.,31,60,20","Kinda neat, looks like cavalry, or a knight.,15,120,20","James","Very eerie and it's spooky,11,380,20","Seth","This painting reminds me of the 4 horsemen of the apocalypse. It feels haunting.,31,60,20","Chase","Kinda neat, looks like cavalry, or a knight.,15,120,20","4"
"42336","","survey-text","103","1359301","0.0-101.0-0.0","A3492HL94OVDR5","","","","{""Q0"":""looks like a kid got after this with a marker""}","","","","","","","","","","","","","","","","","","","","","","",""
"4782.39999999851","","image-slider-response","104","1364086","0.0-102.0","A3492HL94OVDR5","","","","","-46","","","","","","","","","","","","","","","","","","","","","",""
"null","","image-button-response","105","1369089","0.0-103.0","A3492HL94OVDR5","img_art/27.jpg","null","","","","","","","","","","","","","","","","","","","","","","","","",""
"14567","","image-button-response","106","1383657","0.0-104.0","A3492HL94OVDR5","img_art/27.jpg","0","","","","","","","","","","","","","","","","","","","","","","","","",""
"1238","","image-button-response","107","1384897","0.0-105.0-0.0","A3492HL94OVDR5","img_art/27.jpg","0","","","","","","","","","","","","","","","","","","","","","","","","",""
"10855","","image-button-response","108","1398459","0.0-105.1-0.1","A3492HL94OVDR5","img_art/27.jpg","4","","","","","","","","","","","","","","","","","","","","","","","","",""
"3118","","image-button-response","109","1401580","0.0-106.0-0.0","A3492HL94OVDR5","img_art/27.jpg","5","","","","","","","","","","","","","","","","","","","","","","","","",""
"null","","html-keyboard-response","110","1403083","0.0-107.0","A3492HL94OVDR5","<p style=""font-size: 48px;"">+</p>","","","","","null","allTrialResponses","1500","1","9","img_art/27.jpg","-46","looks like a kid got after this with a marker","Noah,Peter,James,Jason,Seth,Chase","I generally enjoy the style, but I'm finding the green lines grating,-9,260,20","Calming sky , relaxing,23,320,20","This painting is very unique,21,380,20","The variation of orange is nice,9,20,20","I don't care for the green scribbles; not sure what they are. But I adore the colors in the background.,24,60,20","I don't really see anything to this art.,-5,120,20","Noah","I generally enjoy the style, but I'm finding the green lines grating,-9,260,20","Seth","I don't care for the green scribbles; not sure what they are. But I adore the colors in the background.,24,60,20","Chase","I don't really see anything to this art.,-5,120,20","6"
"117578","","survey-text","111","1520666","0.0-108.0-0.0","A3492HL94OVDR5","","","","{""Q0"":""looks like a biblical apocalypse""}","","","","","","","","","","","","","","","","","","","","","","",""
"3239.5","","image-slider-response","112","1523907","0.0-109.0","A3492HL94OVDR5","","","","","-16","","","","","","","","","","","","","","","","","","","","","",""
"null","","image-button-response","113","1528910","0.0-110.0","A3492HL94OVDR5","img_art/8.jpg","null","","","","","","","","","","","","","","","","","","","","","","","","",""
"2252","","image-button-response","114","1531164","0.0-111.0","A3492HL94OVDR5","img_art/8.jpg","2","","","","","","","","","","","","","","","","","","","","","","","","",""
"2110","","image-button-response","115","1533276","0.0-112.0-0.0","A3492HL94OVDR5","img_art/8.jpg","4","","","","","","","","","","","","","","","","","","","","","","","","",""
"1750","","image-button-response","116","1535028","0.0-113.0-0.0","A3492HL94OVDR5","img_art/8.jpg","5","","","","","","","","","","","","","","","","","","","","","","","","",""
"null","","html-keyboard-response","117","1535530","0.0-114.0","A3492HL94OVDR5","<p style=""font-size: 48px;"">+</p>","","","","","null","allTrialResponses","500","1","10","img_art/8.jpg","-16","looks like a biblical apocalypse","Noah,Jacob,Shane,Ryan,Seth,Chase","not sure what to make of this - just neutral again,-1,260,20","Very cool! I like this piece,9,340,20","Ancient city looked after by diety,38,80,20","I love architectural paintings,46,380,20","I don't care for the piece, but I appreciate the talent that it took to create it.,22,60,20","This is kind of neat. I really like how things are oriented and the shapes used.,18,120,20","Shane","Ancient city looked after by diety,38,80,20","Seth","I don't care for the piece, but I appreciate the talent that it took to create it.,22,60,20","Chase","This is kind of neat. I really like how things are oriented and the shapes used.,18,120,20","6"
"3883","","survey-text","118","1539420","0.0-115.0-0.0","A3492HL94OVDR5","","","","{""Q0"":""our""}","","","","","","","","","","","","","","","","","","","","","","",""
"478851","","survey-text","119","2018274","0.0-116.0-0.0","A3492HL94OVDR5","","","","{""Q0"":""Looks like the tile in my bathroom""}","","","","","","","","","","","","","","","","","","","","","","",""
"4398.70000000298","","image-slider-response","120","2022674","0.0-117.0","A3492HL94OVDR5","","","","","-39","","","","","","","","","","","","","","","","","","","","","",""
"2286","","image-button-response","121","2027677","0.0-118.0","A3492HL94OVDR5","img_art/7.jpg","0","","","","","","","","","","","","","","","","","","","","","","","","",""
"1372","","image-button-response","122","2029051","0.0-119.0","A3492HL94OVDR5","img_art/7.jpg","0","","","","","","","","","","","","","","","","","","","","","","","","",""
"3783","","image-button-response","123","2032836","0.0-120.0-0.0","A3492HL94OVDR5","img_art/7.jpg","5","","","","","","","","","","","","","","","","","","","","","","","","",""
"1542","","image-button-response","124","2034380","0.0-121.0-0.0","A3492HL94OVDR5","img_art/7.jpg","3","","","","","","","","","","","","","","","","","","","","","","","","",""
"null","","html-keyboard-response","125","2034882","0.0-122.0","A3492HL94OVDR5","<p style=""font-size: 48px;"">+</p>","","","","","null","allTrialResponses","500","1","11","img_art/7.jpg","-39","Looks like the tile in my bathroom","Mark,Evan,Shane,Antonio,Seth,Chase","Reminds me of mold. Repulsive.,-10,80,20","I feel confused, am I looking at a painting or a close up picture of some sort of fly stone?,-19,140,20","Dessert like almost like dry land,4,80,20","Looks like dirt on the ground. Makes me feel unclean,-37,220,20","This piece reminds me of ants and it makes my skin crawl.,-37,60,20","Just looks like rocks or some kind of mineral.,0,120,20","Mark","Reminds me of mold. Repulsive.,-10,80,20","Chase","Just looks like rocks or some kind of mineral.,0,120,20","Antonio","Looks like dirt on the ground. Makes me feel unclean,-37,220,20","6"
"9422","","survey-text","126","2044308","0.0-123.0-0.0","A3492HL94OVDR5","","","","{""Q0"":""very 1980's""}","","","","","","","","","","","","","","","","","","","","","","",""
"3311","","image-slider-response","127","2047621","0.0-124.0","A3492HL94OVDR5","","","","","-37","","","","","","","","","","","","","","","","","","","","","",""
"null","","image-button-response","128","2052624","0.0-125.0","A3492HL94OVDR5","img_art/12.jpg","null","","","","","","","","","","","","","","","","","","","","","","","","",""
"11606","","image-button-response","129","2064232","0.0-126.0","A3492HL94OVDR5","img_art/12.jpg","4","","","","","","","","","","","","","","","","","","","","","","","","",""
"1822","","image-button-response","130","2066055","0.0-127.0-0.0","A3492HL94OVDR5","img_art/12.jpg","0","","","","","","","","","","","","","","","","","","","","","","","","",""
"3062","","image-button-response","131","2069120","0.0-128.0-0.0","A3492HL94OVDR5","img_art/12.jpg","2","","","","","","","","","","","","","","","","","","","","","","","","",""
"null","","html-keyboard-response","132","2070122","0.0-129.0","A3492HL94OVDR5","<p style=""font-size: 48px;"">+</p>","","","","","null","allTrialResponses","1000","1","12","img_art/12.jpg","-37","very 1980's","Mark,Matthew,Andrew,Antonio,Blake,Chase","It just feels like a jigsaw puzzle,-4,80,20","It's boxy, cubist immpressionism? Very ncie.,32,120,20","It's kind of ominous,-15,160,20","I like the colors in both sections, brights compared to neutrals. Each block has a different view. I think of the future,11,220,20","negative feelings with these blocks,-20,280,20","It's not particularly interesting or ugly.,-7,120,20","Blake","negative feelings with these blocks,-20,280,20","Mark","It just feels like a jigsaw puzzle,-4,80,20","Andrew","It's kind of ominous,-15,160,20","6"
"23877","","survey-text","133","2094003","0.0-130.0-0.0","A3492HL94OVDR5","","","","{""Q0"":""wayyy too much going on here""}","","","","","","","","","","","","","","","","","","","","","","",""
"3558.2999999970198","","image-slider-response","134","2097563","0.0-131.0","A3492HL94OVDR5","","","","","-32","","","","","","","","","","","","","","","","","","","","","",""
"null","","image-button-response","135","2102566","0.0-132.0","A3492HL94OVDR5","img_art/23.jpg","null","","","","","","","","","","","","","","","","","","","","","","","","",""
"2565","","image-button-response","136","2105133","0.0-133.0","A3492HL94OVDR5","img_art/23.jpg","0","","","","","","","","","","","","","","","","","","","","","","","","",""
"1006","","image-button-response","137","2106141","0.0-134.0-0.0","A3492HL94OVDR5","img_art/23.jpg","1","","","","","","","","","","","","","","","","","","","","","","","","",""
"2543","","image-button-response","138","2108685","0.0-135.0-0.0","A3492HL94OVDR5","img_art/23.jpg","4","","","","","","","","","","","","","","","","","","","","","","","","",""
"null","","html-keyboard-response","139","2110188","0.0-136.0","A3492HL94OVDR5","<p style=""font-size: 48px;"">+</p>","","","","","null","allTrialResponses","1500","1","13","img_art/23.jpg","-32","wayyy too much going on here","Mark,Brendan,Andrew,Patrick,Blake,Carlos","I see souls in torment and that makes me feel uneasy.,-21,80,20","i completely dont get it,-47,340,20","The color contrast makes me happy,40,160,20","Beautiful color scheme,21,280,20","cold and dark feeling,-27,280,20","It feels active and vibrant.,20,80,20","Mark","I see souls in torment and that makes me feel uneasy.,-21,80,20","Brendan","i completely dont get it,-47,340,20","Blake","cold and dark feeling,-27,280,20","6"
"13407","","survey-text","140","2123599","0.0-137.0-0.0","A3492HL94OVDR5","","","","{""Q0"":""I'm depressed""}","","","","","","","","","","","","","","","","","","","","","","",""
"3399.1999999955297","","image-slider-response","141","2127000","0.0-138.0","A3492HL94OVDR5","","","","","-43","","","","","","","","","","","","","","","","","","","","","",""
"null","","image-button-response","142","2132003","0.0-139.0","A3492HL94OVDR5","img_art/11.jpg","null","","","","","","","","","","","","","","","","","","","","","","","","",""
"963","","image-button-response","143","2132969","0.0-140.0","A3492HL94OVDR5","img_art/11.jpg","1","","","","","","","","","","","","","","","","","","","","","","","","",""
"2382","","image-button-response","144","2135353","0.0-141.0-0.0","A3492HL94OVDR5","img_art/11.jpg","5","","","","","","","","","","","","","","","","","","","","","","","","",""
"5255","","image-button-response","145","2140610","0.0-142.0-0.0","A3492HL94OVDR5","img_art/11.jpg","3","","","","","","","","","","","","","","","","","","","","","","","","",""
"null","","html-keyboard-response","146","2141612","0.0-143.0","A3492HL94OVDR5","<p style=""font-size: 48px;"">+</p>","","","","","null","allTrialResponses","1000","1","14","img_art/11.jpg","-43","I'm depressed","Mark,Brendan,David,Alex,Blake,Bryce","My initial thought was roller coasters but I see ship masts on a cloudy day too.,35,80,20","i dont understand this painting,-1,340,20","I like how this piece can be interpreted in different ways, such as a village on hilly terrain.,10,340,20","I think this is a city but I'm not sure, very abstract,18,100,20","a train going around the country,14,280,20","Scary again. Not a fan.,-23,20,20","Brendan","i dont understand this painting,-1,340,20","Bryce","Scary again. Not a fan.,-23,20,20","Alex","I think this is a city but I'm not sure, very abstract,18,100,20","6"
"19012","","survey-text","147","2160627","0.0-144.0-0.0","A3492HL94OVDR5","","","","{""Q0"":""somebody cut the parrot's head off""}","","","","","","","","","","","","","","","","","","","","","","",""
"3414.7000000029802","","image-slider-response","148","2164044","0.0-145.0","A3492HL94OVDR5","","","","","-23","","","","","","","","","","","","","","","","","","","","","",""
"null","","image-button-response","149","2169047","0.0-146.0","A3492HL94OVDR5","img_art/6.jpg","null","","","","","","","","","","","","","","","","","","","","","","","","",""
"3789","","image-button-response","150","2172838","0.0-147.0","A3492HL94OVDR5","img_art/6.jpg","3","","","","","","","","","","","","","","","","","","","","","","","","",""
"4206","","image-button-response","151","2177046","0.0-148.0-0.0","A3492HL94OVDR5","img_art/6.jpg","1","","","","","","","","","","","","","","","","","","","","","","","","",""
"1039","","image-button-response","152","2178086","0.0-149.0-0.0","A3492HL94OVDR5","img_art/6.jpg","4","","","","","","","","","","","","","","","","","","","","","","","","",""
"null","","html-keyboard-response","153","2179088","0.0-150.0","A3492HL94OVDR5","<p style=""font-size: 48px;"">+</p>","","","","","null","allTrialResponses","1000","1","15","img_art/6.jpg","-23","somebody cut the parrot's head off","Brandon,Brendan,Christopher,Alex,Paul,Bryce","The feeling of isolation with so little objects. Great,20,320,20","just an another tree on a desert?,9,340,20","it's interesting but I don't love it,10,160,20","Definitely belongs at a doctor's office, I think it's a crow or a tree?,-3,100,20","Maybe it's supposed to be a bird but it looks like a scary cloaked figure. it's just too simple and jarring,-23,300,20","Not very exciting.,-34,20,20","Alex","Definitely belongs at a doctor's office, I think it's a crow or a tree?,-3,100,20","Brendan","just an another tree on a desert?,9,340,20","Paul","Maybe it's supposed to be a bird but it looks like a scary cloaked figure. it's just too simple and jarring,-23,300,20","6"
"8015","","survey-text","154","2187111","0.0-151.0-0.0","A3492HL94OVDR5","","","","{""Q0"":""course""}","","","","","","","","","","","","","","","","","","","","","","",""
"23322","","survey-text","155","2210435","0.0-152.0-0.0","A3492HL94OVDR5","","","","{""Q0"":""I like the colors but not the black splatter""}","","","","","","","","","","","","","","","","","","","","","","",""
"6030.29999999702","","image-slider-response","156","2216467","0.0-153.0","A3492HL94OVDR5","","","","","-2","","","","","","","","","","","","","","","","","","","","","",""
"3767","","image-button-response","157","2221470","0.0-154.0","A3492HL94OVDR5","img_art/1.jpg","0","","","","","","","","","","","","","","","","","","","","","","","","",""
"1844","","image-button-response","158","2223316","0.0-155.0","A3492HL94OVDR5","img_art/1.jpg","0","","","","","","","","","","","","","","","","","","","","","","","","",""
"12360","","image-button-response","159","2235677","0.0-156.0-0.0","A3492HL94OVDR5","img_art/1.jpg","1","","","","","","","","","","","","","","","","","","","","","","","","",""
"4878","","image-button-response","160","2240558","0.0-157.0-0.0","A3492HL94OVDR5","img_art/1.jpg","4","","","","","","","","","","","","","","","","","","","","","","","","",""
"null","","html-keyboard-response","161","2241560","0.0-158.0","A3492HL94OVDR5","<p style=""font-size: 48px;"">+</p>","","","","","null","allTrialResponses","1000","1","16","img_art/1.jpg","-2","I like the colors but not the black splatter","Derek,Brendan,Edward,Alex,Paul,Mason","The blend of colors are gorgeous and reminds me of fall,32,360,20","a colorful piece of art,25,340,20","That one piece in the middle gives it depth and it's really neat,21,60,20","Random paint does not make art,-5,100,20","I like the yellow and purple but the large red spot reminds me of blood and isn't great,6,300,20","just colors mixed together. not interesting.,5,100,20","Derek","The blend of colors are gorgeous and reminds me of fall,32,360,20","Brendan","a colorful piece of art,25,340,20","Paul","I like the yellow and purple but the large red spot reminds me of blood and isn't great,6,300,20","6"
"30861","","survey-text","162","2272426","0.0-159.0-0.0","A3492HL94OVDR5","","","","{""Q0"":""Looks like a Phil Collins video""}","","","","","","","","","","","","","","","","","","","","","","",""
"6991.19999999553","","image-slider-response","163","2279419","0.0-160.0","A3492HL94OVDR5","","","","","-30","","","","","","","","","","","","","","","","","","","","","",""
"null","","image-button-response","164","2284422","0.0-161.0","A3492HL94OVDR5","img_art/17.jpg","null","","","","","","","","","","","","","","","","","","","","","","","","",""
"4317","","image-button-response","165","2288741","0.0-162.0","A3492HL94OVDR5","img_art/17.jpg","4","","","","","","","","","","","","","","","","","","","","","","","","",""
"3695","","image-button-response","166","2292437","0.0-163.0-0.0","A3492HL94OVDR5","img_art/17.jpg","5","","","","","","","","","","","","","","","","","","","","","","","","",""
"8734","","image-button-response","167","2301174","0.0-164.0-0.0","A3492HL94OVDR5","img_art/17.jpg","3","","","","","","","","","","","","","","","","","","","","","","","","",""
"null","","html-keyboard-response","168","2302676","0.0-165.0","A3492HL94OVDR5","<p style=""font-size: 48px;"">+</p>","","","","","null","allTrialResponses","1500","1","17","img_art/17.jpg","-30","Looks like a Phil Collins video","Derek,Brendan,Kenneth,Zachary,Paul,Charles","The colors are beautiful and the painting itself is magnificent,50,360,20","colorful tree really cool,27,340,20","I really like this, especially the tree.,23,300,20","Reminds me of a beautiful tree growing in a courtyard. I like the light and airy technique used.,34,400,20","The colors remind me of a sunset and give a bittersweet feeling. It looks unfinished but not terrible.,6,300,20","I like the trees, but the doors less so,19,100,20","Paul","The colors remind me of a sunset and give a bittersweet feeling. It looks unfinished but not terrible.,6,300,20","Charles","I like the trees, but the doors less so,19,100,20","Zachary","Reminds me of a beautiful tree growing in a courtyard. I like the light and airy technique used.,34,400,20","6"
"21736","","survey-text","169","2324417","0.0-166.0-0.0","A3492HL94OVDR5","","","","{""Q0"":""Is this a wrecked semi-truck in the desert?""}","","","","","","","","","","","","","","","","","","","","","","",""
"3806.7000000029802","","image-slider-response","170","2328225","0.0-167.0","A3492HL94OVDR5","","","","","-23","","","","","","","","","","","","","","","","","","","","","",""
"3734","","image-button-response","171","2333228","0.0-168.0","A3492HL94OVDR5","img_art/20.jpg","1","","","","","","","","","","","","","","","","","","","","","","","","",""
"845","","image-button-response","172","2334074","0.0-169.0","A3492HL94OVDR5","img_art/20.jpg","1","","","","","","","","","","","","","","","","","","","","","","","","",""
"2223","","image-button-response","173","2336299","0.0-170.0-0.0","A3492HL94OVDR5","img_art/20.jpg","2","","","","","","","","","","","","","","","","","","","","","","","","",""
"6479","","image-button-response","174","2342779","0.0-171.0-0.0","A3492HL94OVDR5","img_art/20.jpg","3","","","","","","","","","","","","","","","","","","","","","","","","",""
"null","","html-keyboard-response","175","2343781","0.0-172.0","A3492HL94OVDR5","<p style=""font-size: 48px;"">+</p>","","","","","null","allTrialResponses","1000","1","18","img_art/20.jpg","-23","Is this a wrecked semi-truck in the desert?","Joshua,Steven,Jeremy,Zachary,Paul,Charles","Reminds me of the Southwest; i.e. New Mexico or Arizona. It's interesting.,12,240,20","It's okay, I see what looks like a truck laying on it's side. Meh,10,160,20","scared. makes me feel alone or abandoned,-11,60,20","While interesting in technique.. It looks like a blurry car wreck. Does not evoke great emotions.,-20,400,20","It looks like a junkyard and isn't appealing,-22,300,20","Something bad has happened TO reality,-23,100,20","Steven","It's okay, I see what looks like a truck laying on it's side. Meh,10,160,20","Jeremy","scared. makes me feel alone or abandoned,-11,60,20","Zachary","While interesting in technique.. It looks like a blurry car wreck. Does not evoke great emotions.,-20,400,20","6"
"67809","","survey-text","176","2411596","0.0-173.0-0.0","A3492HL94OVDR5","","","","{""Q0"":""Schizophrenia as art.""}","","","","","","","","","","","","","","","","","","","","","","",""
"3957.89999999851","","image-slider-response","177","2415555","0.0-174.0","A3492HL94OVDR5","","","","","-41","","","","","","","","","","","","","","","","","","","","","",""
"null","","image-button-response","178","2420558","0.0-175.0","A3492HL94OVDR5","img_art/14.jpg","null","","","","","","","","","","","","","","","","","","","","","","","","",""
"10662","","image-button-response","179","2431222","0.0-176.0","A3492HL94OVDR5","img_art/14.jpg","3","","","","","","","","","","","","","","","","","","","","","","","","",""
"2406","","image-button-response","180","2433630","0.0-177.0-0.0","A3492HL94OVDR5","img_art/14.jpg","4","","","","","","","","","","","","","","","","","","","","","","","","",""
"4374","","image-button-response","181","2438007","0.0-178.0-0.0","A3492HL94OVDR5","img_art/14.jpg","2","","","","","","","","","","","","","","","","","","","","","","","","",""
"null","","html-keyboard-response","182","2438509","0.0-179.0","A3492HL94OVDR5","<p style=""font-size: 48px;"">+</p>","","","","","null","allTrialResponses","500","1","19","img_art/14.jpg","-41","Schizophrenia as art.","Luke,Steven,Jeremy,Zachary,Juan,Devin","looks like it's symbolizing rebirth which is hopeful,22,20,20","this one isn't bad, reminds me a tree that gives life, and people are waiting for someone new to be born,27,160,20","It didn't really do anything to excite me.,21,60,20","Did not evoke much feeling except confusion. I am not sure what to make of this one.,-20,400,20","I don't like the colors, but I espeically don't like all the negative space.,-20,260,20","It looks nice colorwise but detail is lacking,18,380,20","Zachary","Did not evoke much feeling except confusion. I am not sure what to make of this one.,-20,400,20","Juan","I don't like the colors, but I espeically don't like all the negative space.,-20,260,20","Jeremy","It didn't really do anything to excite me.,21,60,20","6"
"12615","","survey-text","183","2451129","0.0-180.0-0.0","A3492HL94OVDR5","","","","{""Q0"":""Trapper Keeper art.""}","","","","","","","","","","","","","","","","","","","","","","",""
"2478.39999999851","","image-slider-response","184","2453609","0.0-181.0","A3492HL94OVDR5","","","","","-50","","","","","","","","","","","","","","","","","","","","","",""
"null","","image-button-response","185","2458611","0.0-182.0","A3492HL94OVDR5","img_art/13.jpg","null","","","","","","","","","","","","","","","","","","","","","","","","",""
"7502","","image-button-response","186","2466115","0.0-183.0","A3492HL94OVDR5","img_art/13.jpg","3","","","","","","","","","","","","","","","","","","","","","","","","",""
"1614","","image-button-response","187","2467731","0.0-184.0-0.0","A3492HL94OVDR5","img_art/13.jpg","1","","","","","","","","","","","","","","","","","","","","","","","","",""
"1439","","image-button-response","188","2469171","0.0-185.0-0.0","A3492HL94OVDR5","img_art/13.jpg","0","","","","","","","","","","","","","","","","","","","","","","","","",""
"null","","html-keyboard-response","189","2469673","0.0-186.0","A3492HL94OVDR5","<p style=""font-size: 48px;"">+</p>","","","","","null","allTrialResponses","500","1","20","img_art/13.jpg","-50","Trapper Keeper art.","Kevin,Bryan,Jeremy,Zachary,Juan,Mitchell","Debree on top of a calm pond.,18,320,20","Love the colors, love the abstractness, love this Jackson Pollock type painting.,48,400,20","Pleased. I like to combination of colors,17,60,20","Peaceful colors.,20,400,20","I love the colors and the contrast between the different blues.,21,260,20","Magnified rain around trees. Beautiful happy colors. The little person on the right feels nature is huge.,45,180,20","Zachary","Peaceful colors.,20,400,20","Bryan","Love the colors, love the abstractness, love this Jackson Pollock type painting.,48,400,20","Kevin","Debree on top of a calm pond.,18,320,20","6"
"3034","","survey-text","190","2472715","0.0-187.0-0.0","A3492HL94OVDR5","","","","{""Q0"":""we""}","","","","","","","","","","","","","","","","","","","","","","",""
"25505","","survey-text","191","2498223","0.0-188.0-0.0","A3492HL94OVDR5","","","","{""Q0"":""woman reclining in spring""}","","","","","","","","","","","","","","","","","","","","","","",""
"3999.2000000029802","","image-slider-response","192","2502224","0.0-189.0","A3492HL94OVDR5","","","","","28","","","","","","","","","","","","","","","","","","","","","",""
"4950","","image-button-response","193","2507226","0.0-190.0","A3492HL94OVDR5","img_art/9.jpg","2","","","","","","","","","","","","","","","","","","","","","","","","",""
"3149","","image-button-response","194","2510376","0.0-191.0","A3492HL94OVDR5","img_art/9.jpg","2","","","","","","","","","","","","","","","","","","","","","","","","",""
"1598","","image-button-response","195","2511976","0.0-192.0-0.0","A3492HL94OVDR5","img_art/9.jpg","4","","","","","","","","","","","","","","","","","","","","","","","","",""
"1575","","image-button-response","196","2513553","0.0-193.0-0.0","A3492HL94OVDR5","img_art/9.jpg","3","","","","","","","","","","","","","","","","","","","","","","","","",""
"null","","html-keyboard-response","197","2514056","0.0-194.0","A3492HL94OVDR5","<p style=""font-size: 48px;"">+</p>","","","","","null","allTrialResponses","500","1","21","img_art/9.jpg","28","woman reclining in spring","Kevin,Bryan,Malik,Zachary,Benjamin,Ian","This is a picture of a scary mans head sideways.,-24,320,20","Huh?  Doesn't invoke much.,-37,400,20","Colorful and expressive,15,40,20","It looks like a lady taking a peaceful nap on a blanket in the grass.,41,400,20","looks like sleeping beauty in a garden,10,260,20","It looks like someone gave a kid a coloring book page but the colors are soothing and look put together and elegant,27,260,20","Malik","Colorful and expressive,15,40,20","Benjamin","looks like sleeping beauty in a garden,10,260,20","Zachary","It looks like a lady taking a peaceful nap on a blanket in the grass.,41,400,20","6"
"15061","","survey-text","198","2529122","0.0-195.0-0.0","A3492HL94OVDR5","","","","{""Q0"":""colorful waterfall""}","","","","","","","","","","","","","","","","","","","","","","",""
"3878.60000000149","","image-slider-response","199","2533003","0.0-196.0","A3492HL94OVDR5","","","","","48","","","","","","","","","","","","","","","","","","","","","",""
"2999","","image-button-response","200","2538004","0.0-197.0","A3492HL94OVDR5","img_art/24.jpg","1","","","","","","","","","","","","","","","","","","","","","","","","",""
"813","","image-button-response","201","2538820","0.0-198.0","A3492HL94OVDR5","img_art/24.jpg","1","","","","","","","","","","","","","","","","","","","","","","","","",""
"2270","","image-button-response","202","2541092","0.0-199.0-0.0","A3492HL94OVDR5","img_art/24.jpg","4","","","","","","","","","","","","","","","","","","","","","","","","",""
"1006","","image-button-response","203","2542100","0.0-200.0-0.0","A3492HL94OVDR5","img_art/24.jpg","3","","","","","","","","","","","","","","","","","","","","","","","","",""
"null","","html-keyboard-response","204","2543102","0.0-201.0","A3492HL94OVDR5","<p style=""font-size: 48px;"">+</p>","","","","","null","allTrialResponses","1000","1","22","img_art/24.jpg","48","colorful waterfall","Garrett,William,Malik,Zachary,Benjamin,Tanner","I like the way the colors are put together, and I can imagine this picture in real life.,40,180,20","very peaceful and serene,47,380,20","Very nice textures and subject,38,40,20","Looks like a beautiful stream rolling through terrain of rocks and flowers.,43,400,20","peaceful and calm yet joyous.,50,260,20","calm, nature, safe, happy place,,50,180,20","William","very peaceful and serene,47,380,20","Benjamin","peaceful and calm yet joyous.,50,260,20","Zachary","Looks like a beautiful stream rolling through terrain of rocks and flowers.,43,400,20","6"
"34493","","survey-text","205","2577600","0.0-202.0-0.0","A3492HL94OVDR5","","","","{""Q0"":""Ewwww..is the paintbrush really stuck to it?""}","","","","","","","","","","","","","","","","","","","","","","",""
"3102.89999999851","","image-slider-response","206","2580705","0.0-203.0","A3492HL94OVDR5","","","","","-50","","","","","","","","","","","","","","","","","","","","","",""
"null","","image-button-response","207","2585707","0.0-204.0","A3492HL94OVDR5","img_art/29.jpg","null","","","","","","","","","","","","","","","","","","","","","","","","",""
"3638","","image-button-response","208","2589346","0.0-205.0","A3492HL94OVDR5","img_art/29.jpg","5","","","","","","","","","","","","","","","","","","","","","","","","",""
"2887","","image-button-response","209","2592235","0.0-206.0-0.0","A3492HL94OVDR5","img_art/29.jpg","3","","","","","","","","","","","","","","","","","","","","","","","","",""
"1669","","image-button-response","210","2593907","0.0-207.0-0.0","A3492HL94OVDR5","img_art/29.jpg","1","","","","","","","","","","","","","","","","","","","","","","","","",""
"null","","html-keyboard-response","211","2594410","0.0-208.0","A3492HL94OVDR5","<p style=""font-size: 48px;"">+</p>","","","","","null","allTrialResponses","500","1","23","img_art/29.jpg","-50","Ewwww..is the paintbrush really stuck to it?","Connor,William,Jose,Zachary,Benjamin,Taylor","Red X is scary, like the bricks,7,240,20","makes me think of destruction,-20,380,20","I think the grey and red inspire negative feelings but it's not the worst thing.,13,200,20","It looks like someone did not like their art and drew an x over it.,-32,400,20","Don't like the red X across the painting.,-15,260,20","I would give up and give it a red X too.,-5,200,20","Taylor","I would give up and give it a red X too.,-5,200,20","Zachary","It looks like someone did not like their art and drew an x over it.,-32,400,20","William","makes me think of destruction,-20,380,20","6"
"11333","","survey-text","212","2605748","0.0-209.0-0.0","A3492HL94OVDR5","","","","{""Q0"":""Nice and soothing""}","","","","","","","","","","","","","","","","","","","","","","",""
"2750.2999999970198","","image-slider-response","213","2608500","0.0-210.0","A3492HL94OVDR5","","","","","35","","","","","","","","","","","","","","","","","","","","","",""
"4375","","image-button-response","214","2613502","0.0-211.0","A3492HL94OVDR5","img_art/21.jpg","0","","","","","","","","","","","","","","","","","","","","","","","","",""
"1838","","image-button-response","215","2615341","0.0-212.0","A3492HL94OVDR5","img_art/21.jpg","0","","","","","","","","","","","","","","","","","","","","","","","","",""
"8832","","image-button-response","216","2624175","0.0-213.0-0.0","A3492HL94OVDR5","img_art/21.jpg","2","","","","","","","","","","","","","","","","","","","","","","","","",""
"958","","image-button-response","217","2625135","0.0-214.0-0.0","A3492HL94OVDR5","img_art/21.jpg","3","","","","","","","","","","","","","","","","","","","","","","","","",""
"null","","html-keyboard-response","218","2625637","0.0-215.0","A3492HL94OVDR5","<p style=""font-size: 48px;"">+</p>","","","","","null","allTrialResponses","500","1","24","img_art/21.jpg","35","Nice and soothing","Dalton,William,Jesus,Zachary,Jordan,Taylor","The color spectrum is just beautiful.,32,300,20","like the colors,30,380,20","The shapes and colors are very interesting to look at.,41,100,20","Looks like a body of water during a sunset. I like this piece.,21,400,20","Beautiful colors, remind me of my yoga studio,50,160,20","Remove the rocks(?) on the lower right.,5,200,20","Dalton","The color spectrum is just beautiful.,32,300,20","Jesus","The shapes and colors are very interesting to look at.,41,100,20","Zachary","Looks like a body of water during a sunset. I like this piece.,21,400,20","6"
"19934","","survey-text","219","2645577","0.0-216.0-0.0","A3492HL94OVDR5","","","","{""Q0"":""I like it but don't know why""}","","","","","","","","","","","","","","","","","","","","","","",""
"4878.79999999702","","image-slider-response","220","2650457","0.0-217.0","A3492HL94OVDR5","","","","","28","","","","","","","","","","","","","","","","","","","","","",""
"null","","image-button-response","221","2655461","0.0-218.0","A3492HL94OVDR5","img_art/15.jpg","null","","","","","","","","","","","","","","","","","","","","","","","","",""
"2268","","image-button-response","222","2657731","0.0-219.0","A3492HL94OVDR5","img_art/15.jpg","2","","","","","","","","","","","","","","","","","","","","","","","","",""
"2446","","image-button-response","223","2660179","0.0-220.0-0.0","A3492HL94OVDR5","img_art/15.jpg","4","","","","","","","","","","","","","","","","","","","","","","","","",""
"7023","","image-button-response","224","2667204","0.0-221.0-0.0","A3492HL94OVDR5","img_art/15.jpg","3","","","","","","","","","","","","","","","","","","","","","","","","",""
"null","","html-keyboard-response","225","2668706","0.0-222.0","A3492HL94OVDR5","<p style=""font-size: 48px;"">+</p>","","","","","null","allTrialResponses","1500","1","25","img_art/15.jpg","28","I like it but don't know why","Dalton,Grant,Jesus,Zachary,Jorge,Joseph","black leaves makes the blue birds stand out.,1,300,20","This elicits no reaction in me.,0,200,20","I like the colors and textures.,32,100,20","Reminds me of blue birds in a tree at night. I love nature.,40,400,20","interested in this transformation,20,180,20","Bushes, good! Life, good!,12,220,20","Jesus","I like the colors and textures.,32,100,20","Jorge","interested in this transformation,20,180,20","Zachary","Reminds me of blue birds in a tree at night. I love nature.,40,400,20","6"
"5522","","survey-text","226","2674238","0.0-223.0-0.0","A3492HL94OVDR5","","","","{""Q0"":""table""}","","","","","","","","","","","","","","","","","","","","","","",""
"34217","","survey-text","227","2708457","0.0-224.0-0.0","A3492HL94OVDR5","","","","{""Q0"":""not terrible..kinda bloody looking""}","","","","","","","","","","","","","","","","","","","","","","",""
"3566.5","","image-slider-response","228","2712025","0.0-225.0","A3492HL94OVDR5","","","","","3","","","","","","","","","","","","","","","","","","","","","",""
"3487","","image-button-response","229","2717028","0.0-226.0","A3492HL94OVDR5","img_art/3.jpg","2","","","","","","","","","","","","","","","","","","","","","","","","",""
"557","","image-button-response","230","2717586","0.0-227.0","A3492HL94OVDR5","img_art/3.jpg","2","","","","","","","","","","","","","","","","","","","","","","","","",""
"5183","","image-button-response","231","2722771","0.0-228.0-0.0","A3492HL94OVDR5","img_art/3.jpg","3","","","","","","","","","","","","","","","","","","","","","","","","",""
"966","","image-button-response","232","2723739","0.0-229.0-0.0","A3492HL94OVDR5","img_art/3.jpg","4","","","","","","","","","","","","","","","","","","","","","","","","",""
"null","","html-keyboard-response","233","2724241","0.0-230.0","A3492HL94OVDR5","<p style=""font-size: 48px;"">+</p>","","","","","null","allTrialResponses","500","1","26","img_art/3.jpg","3","not terrible..kinda bloody looking","Stephen,Dustin,Jesus,Zachary,Jorge,Devon","Don't see what the purpose is.,-31,140,20","Messy. Looks like a children's drawing being passed off as expensive art. Too much red.,-50,20,20","I like the simplicity of it.,20,100,20","Too red and chaotic. Not calming.,-41,400,20","This makes me feel vulnerable,-32,180,20","good choice of color,12,400,20","Jesus","I like the simplicity of it.,20,100,20","Zachary","Too red and chaotic. Not calming.,-41,400,20","Jorge","This makes me feel vulnerable,-32,180,20","6"
"16935","","survey-text","234","2741181","0.0-231.0-0.0","A3492HL94OVDR5","","","","{""Q0"":""It makes me stop and think.""}","","","","","","","","","","","","","","","","","","","","","","",""
"3326.8000000044703","","image-slider-response","235","2744510","0.0-232.0","A3492HL94OVDR5","","","","","-4","","","","","","","","","","","","","","","","","","","","","",""
"null","","image-button-response","236","2749512","0.0-233.0","A3492HL94OVDR5","img_art/5.jpg","null","","","","","","","","","","","","","","","","","","","","","","","","",""
"3870","","image-button-response","237","2753383","0.0-234.0","A3492HL94OVDR5","img_art/5.jpg","3","","","","","","","","","","","","","","","","","","","","","","","","",""
"1823","","image-button-response","238","2755207","0.0-235.0-0.0","A3492HL94OVDR5","img_art/5.jpg","5","","","","","","","","","","","","","","","","","","","","","","","","",""
"3614","","image-button-response","239","2758823","0.0-236.0-0.0","A3492HL94OVDR5","img_art/5.jpg","2","","","","","","","","","","","","","","","","","","","","","","","","",""
"null","","html-keyboard-response","240","2759326","0.0-237.0","A3492HL94OVDR5","<p style=""font-size: 48px;"">+</p>","","","","","null","allTrialResponses","500","1","27","img_art/5.jpg","-4","It makes me stop and think.","Logan,Brett,Jesus,Zachary,Jorge,Jeffrey","Just doesn't do a whole lot for me. I see Cinderellas broom,-11,360,20","It reminds me of a piece of lemon candy, which is one of my favorite flavors,20,360,20","Overpowering colors.,-26,100,20","Not sure what to make of this one.,-1,400,20","boring and unsure,-25,180,20","positive colours; yellow calls attention,6,40,20","Zachary","Not sure what to make of this one.,-1,400,20","Jeffrey","positive colours; yellow calls attention,6,40,20","Jesus","Overpowering colors.,-26,100,20","6"
"30881","","survey-text","241","2790213","0.0-238.0-0.0","A3492HL94OVDR5","","","","{""Q0"":""for some reason I keep thinking of Ren from Ren and Stimpy""}","","","","","","","","","","","","","","","","","","","","","","",""
"4646.70000000298","","image-slider-response","242","2794861","0.0-239.0","A3492HL94OVDR5","","","","","-25","","","","","","","","","","","","","","","","","","","","","",""
"2375","","image-button-response","243","2799863","0.0-240.0","A3492HL94OVDR5","img_art/28.jpg","0","","","","","","","","","","","","","","","","","","","","","","","","",""
"678","","image-button-response","244","2800542","0.0-241.0","A3492HL94OVDR5","img_art/28.jpg","0","","","","","","","","","","","","","","","","","","","","","","","","",""
"3198","","image-button-response","245","2803742","0.0-242.0-0.0","A3492HL94OVDR5","img_art/28.jpg","1","","","","","","","","","","","","","","","","","","","","","","","","",""
"5984","","image-button-response","246","2809727","0.0-243.0-0.0","A3492HL94OVDR5","img_art/28.jpg","5","","","","","","","","","","","","","","","","","","","","","","","","",""
"null","","html-keyboard-response","247","2810229","0.0-244.0","A3492HL94OVDR5","<p style=""font-size: 48px;"">+</p>","","","","","null","allTrialResponses","500","1","28","img_art/28.jpg","-25","for some reason I keep thinking of Ren from Ren and Stimpy","Gabriel,Jake,Jesus,Zachary,Daniel,Jeffrey","this one is rather disturbing,-22,160,20","This is very ugly with poor colors.,-23,360,20","The muted tones aren't my favorite.,-10,100,20","Too muted and bland. I like my art to be vivid.,-11,400,20","Compact grey mess lack negative space,-10,320,20","Nothing calls my attention,15,40,20","Gabriel","this one is rather disturbing,-22,160,20","Jake","This is very ugly with poor colors.,-23,360,20","Jeffrey","Nothing calls my attention,15,40,20","6"
"12789","","survey-text","248","2823024","0.0-245.0-0.0","A3492HL94OVDR5","","","","{""Q0"":""nice colors, strange flow""}","","","","","","","","","","","","","","","","","","","","","","",""
"3191.10000000149","","image-slider-response","249","2826218","0.0-246.0","A3492HL94OVDR5","","","","","-1","","","","","","","","","","","","","","","","","","","","","",""
"null","","image-button-response","250","2831220","0.0-247.0","A3492HL94OVDR5","img_art/4.jpg","null","","","","","","","","","","","","","","","","","","","","","","","","",""
"597","","image-button-response","251","2831818","0.0-248.0","A3492HL94OVDR5","img_art/4.jpg","2","","","","","","","","","","","","","","","","","","","","","","","","",""
"2182","","image-button-response","252","2834002","0.0-249.0-0.0","A3492HL94OVDR5","img_art/4.jpg","4","","","","","","","","","","","","","","","","","","","","","","","","",""
"1246","","image-button-response","253","2835251","0.0-250.0-0.0","A3492HL94OVDR5","img_art/4.jpg","3","","","","","","","","","","","","","","","","","","","","","","","","",""
"null","","html-keyboard-response","254","2836752","0.0-251.0","A3492HL94OVDR5","<p style=""font-size: 48px;"">+</p>","","","","","null","allTrialResponses","1500","1","29","img_art/4.jpg","-1","nice colors, strange flow","Gabriel,Jake,Alexander,Eric,Travis,Jeffrey","this is terrible,-49,160,20","This is ugly in color and in terms of the shape on it.,-32,360,20","Pretzel noodles.,7,120,20","This piece catches my eye, but it's strange to me.,10,100,20","I don't like this...a mustardy scibble.,-47,260,20","Easy and relaxing,23,40,20","Alexander","Pretzel noodles.,7,120,20","Travis","I don't like this...a mustardy scibble.,-47,260,20","Eric","This piece catches my eye, but it's strange to me.,10,100,20","6"
"21191","","survey-text","255","2857949","0.0-252.0-0.0","A3492HL94OVDR5","","","","{""Q0"":""Kermit the Frog's 21st birthday party""}","","","","","","","","","","","","","","","","","","","","","","",""
"3823.2999999970198","","image-slider-response","256","2861774","0.0-253.0","A3492HL94OVDR5","","","","","-21","","","","","","","","","","","","","","","","","","","","","",""
"3207","","image-button-response","257","2866777","0.0-254.0","A3492HL94OVDR5","img_art/2.jpg","1","","","","","","","","","","","","","","","","","","","","","","","","",""
"1045","","image-button-response","258","2867824","0.0-255.0","A3492HL94OVDR5","img_art/2.jpg","5","","","","","","","","","","","","","","","","","","","","","","","","",""
"1805","","image-button-response","259","2869631","0.0-256.0-0.0","A3492HL94OVDR5","img_art/2.jpg","1","","","","","","","","","","","","","","","","","","","","","","","","",""
"1767","","image-button-response","260","2871400","0.0-257.0-0.0","A3492HL94OVDR5","img_art/2.jpg","4","","","","","","","","","","","","","","","","","","","","","","","","",""
"null","","html-keyboard-response","261","2872402","0.0-258.0","A3492HL94OVDR5","<p style=""font-size: 48px;"">+</p>","","","","","null","allTrialResponses","1000","1","30","img_art/2.jpg","-21","Kermit the Frog's 21st birthday party","Nicholas,Dylan,Alexander,Eric,Travis,Scott","Cute and happy,22,240,20","This is ugly- too plain and busy at the same time,-9,40,20","Old, dull, messy.,-10,120,20","I like the color, but I feel like I see a creepy face which I dislike.,-5,100,20","I didn't like this it looked like a kindergardner painted it and the green was out of place.,-46,260,20","looks like a child's artwork,-40,20,20","Scott","looks like a child's artwork,-40,20,20","Dylan","This is ugly- too plain and busy at the same time,-9,40,20","Travis","I didn't like this it looked like a kindergardner painted it and the green was out of place.,-46,260,20","6"
"14001","","image-button-response_instructions","262","2886410","0.0-259.0","A3492HL94OVDR5","","0","instructions","","","","","","","","","","","","","","","","","","","","","","","",""
"1155","","image-button-response","263","2887570","0.0-260.0","A3492HL94OVDR5","","0","","","","","","","","","","","","","","","","","","","","","","","","",""
