"rt","url","trial_type","trial_index","time_elapsed","internal_node_id","participant_id","stimulus","button_pressed","Name","responses","response","key_press","variableName","fixationTime","condition","trial","photo","subjectRating","subjectResponse","agentsNames","agent_1_Response","agent_2_Response","agent_3_Response","agent_4_Response","agent_5_Response","agent_6_Response","kept_1_name","kept_1_response","kept_2_name","kept_2_response","kept_3_name","kept_3_response","errorCounter"
"13847","external_page_harvard.html","external-html","0","13972","0.0-0.0","A34CBV74LOV6E3","","","","","","","","","","","","","","","","","","","","","","","","","","",""
"1797","","image-button-response","1","15770","0.0-1.0","A34CBV74LOV6E3","","0","","","","","","","","","","","","","","","","","","","","","","","","",""
"2004","","image-button-response","2","17778","0.0-2.0-0.0","A34CBV74LOV6E3","","1","phone","","","","","","","","","","","","","","","","","","","","","","","",""
"6279","","survey-text","3","24058","0.0-3.0-0.0","A34CBV74LOV6E3","","","","{""Q0"":""A34CBV74LOV6E3""}","","","","","","","","","","","","","","","","","","","","","","",""
"6871","","image-button-response_instructions","4","30930","0.0-4.0","A34CBV74LOV6E3","","0","instructions","","","","","","","","","","","","","","","","","","","","","","","",""
"8143","","image-button-response_instructions","5","39074","0.0-5.0","A34CBV74LOV6E3","img_art/ins/popularity/ins1.png","0","instructions","","","","","","","","","","","","","","","","","","","","","","","",""
"6239","","image-button-response_instructions","6","45314","0.0-6.0","A34CBV74LOV6E3","img_art/ins/popularity/ins2.png","0","instructions","","","","","","","","","","","","","","","","","","","","","","","",""
"12367","","image-button-response_instructions","7","57682","0.0-7.0","A34CBV74LOV6E3","img_art/ins/popularity/ins2Extreme.png","0","instructions","","","","","","","","","","","","","","","","","","","","","","","",""
"4839","","image-button-response_instructions","8","62522","0.0-8.0","A34CBV74LOV6E3","img_art/ins/popularity/ins3KEEPpop.PNG","0","instructions","","","","","","","","","","","","","","","","","","","","","","","",""
"6592","","image-button-response_instructions","9","69114","0.0-9.0","A34CBV74LOV6E3","img_art/ins/popularity/ins3ANamepop.PNG","0","instructions","","","","","","","","","","","","","","","","","","","","","","","",""
"2751","","image-button-response_instructions","10","71866","0.0-10.0","A34CBV74LOV6E3","img_art/ins/popularity/ins3ARatingpop.png","0","instructions","","","","","","","","","","","","","","","","","","","","","","","",""
"2127","","image-button-response_instructions","11","73994","0.0-11.0","A34CBV74LOV6E3","img_art/ins/popularity/ins3ATextpop.png","0","instructions","","","","","","","","","","","","","","","","","","","","","","","",""
"4591","","image-button-response_instructions","12","78586","0.0-12.0","A34CBV74LOV6E3","img_art/ins/popularity/ins3ALikespop.png","0","instructions","","","","","","","","","","","","","","","","","","","","","","","",""
"11351","","image-button-response_instructions","13","89938","0.0-13.0","A34CBV74LOV6E3","img_art/ins/popularity/ins3KEEPpop.PNG","0","instructions","","","","","","","","","","","","","","","","","","","","","","","",""
"5639","","image-button-response_instructions","14","95578","0.0-14.0","A34CBV74LOV6E3","img_art/ins/popularity/ins3_5RED.png","0","instructions","","","","","","","","","","","","","","","","","","","","","","","",""
"3223","","image-button-response_instructions","15","98802","0.0-15.0","A34CBV74LOV6E3","img_art/ins/popularity/ins3KEEPpop.PNG","0","instructions","","","","","","","","","","","","","","","","","","","","","","","",""
"12640","","image-button-response_instructions","16","111442","0.0-16.0","A34CBV74LOV6E3","img_art/ins/popularity/ins4KEEPpop.PNG","0","instructions","","","","","","","","","","","","","","","","","","","","","","","",""
"4239","","image-button-response_instructions","17","115682","0.0-17.0","A34CBV74LOV6E3","img_art/ins/popularity/ins5KEEPpop.PNG","0","instructions","","","","","","","","","","","","","","","","","","","","","","","",""
"1903","","image-button-response_instructions","18","117585","0.0-18.0","A34CBV74LOV6E3","","0","instructions","","","","","","","","","","","","","","","","","","","","","","","",""
"6219","","survey-text","19","123825","0.0-19.0-0.0","A34CBV74LOV6E3","","","","{""Q0"":""but""}","","","","","","","","","","","","","","","","","","","","","","",""
"21655","","survey-text","20","145481","0.0-20.0-0.0","A34CBV74LOV6E3","","","","{""Q0"":""I like the bright colors. It feels like spring.""}","","","","","","","","","","","","","","","","","","","","","","",""
"4989.800000071526","","image-slider-response","21","150473","0.0-21.0","A34CBV74LOV6E3","","","","","15","","","","","","","","","","","","","","","","","","","","","",""
"null","","image-button-response","22","155477","0.0-22.0","A34CBV74LOV6E3","img_art/ins/1.jpg","null","","","","","","","","","","","","","","","","","","","","","","","","",""
"7905","","image-button-response","23","163385","0.0-23.0","A34CBV74LOV6E3","img_art/ins/1.jpg","1","","","","","","","","","","","","","","","","","","","","","","","","",""
"1518","","image-button-response","24","164905","0.0-24.0-0.0","A34CBV74LOV6E3","img_art/ins/1.jpg","3","","","","","","","","","","","","","","","","","","","","","","","","",""
"19174","","image-button-response","25","184082","0.0-25.0-0.0","A34CBV74LOV6E3","img_art/ins/1.jpg","0","","","","","","","","","","","","","","","","","","","","","","","","",""
"null","","html-keyboard-response","26","184584","0.0-26.0","A34CBV74LOV6E3","<p style=""font-size: 48px;"">+</p>","","","","","null","allTrialResponses","500","1","-2","img_art/ins/1.jpg","15","I like the bright colors. It feels like spring.","Adam,Alex,Ben,Carl,Daniel,Jack","Seems like doodles,-20,20,20","very creative work.,36,40,20","This color reminds me of poo,-46,60,20","very calming artwork,42,80,20","It looks like a murder scene.,-48,100,20","I like the sophisticated brushwork,40,120,20","Alex","very creative work.,36,40,20","Carl","very calming artwork,42,80,20","Adam","Seems like doodles,-20,20,20","0"
"43184","","survey-text","27","227778","0.0-27.0-0.0","A34CBV74LOV6E3","","","","{""Q0"":""It feels aggressive and I get the impression of a shipyard.""}","","","","","","","","","","","","","","","","","","","","","","",""
"3342.5","","image-slider-response","28","231122","0.0-28.0","A34CBV74LOV6E3","","","","","-4","","","","","","","","","","","","","","","","","","","","","",""
"null","","image-button-response","29","236131","0.0-29.0","A34CBV74LOV6E3","img_art/ins/2.jpg","null","","","","","","","","","","","","","","","","","","","","","","","","",""
"3517","","image-button-response","30","239650","0.0-30.0","A34CBV74LOV6E3","img_art/ins/2.jpg","2","","","","","","","","","","","","","","","","","","","","","","","","",""
"21374","","image-button-response","31","261026","0.0-31.0-0.0","A34CBV74LOV6E3","img_art/ins/2.jpg","4","","","","","","","","","","","","","","","","","","","","","","","","",""
"3822","","image-button-response","32","264850","0.0-32.0-0.0","A34CBV74LOV6E3","img_art/ins/2.jpg","1","","","","","","","","","","","","","","","","","","","","","","","","",""
"null","","html-keyboard-response","33","265353","0.0-33.0","A34CBV74LOV6E3","<p style=""font-size: 48px;"">+</p>","","","","","null","allTrialResponses","500","1","-1","img_art/ins/2.jpg","-4","It feels aggressive and I get the impression of a shipyard.","Adam,Alex,James,Carl,John,Kyle","too much color,-18,20,20","I like the blocks of color arrangements,30,40,20","looks too angry,-50,140,20","I can feel the artist's passion in it,45,80,20","love the texture of paint,48,160,20","Idk, it is just annoying,-32,180,20","James","looks too angry,-50,140,20","John","love the texture of paint,48,160,20","Alex","I like the blocks of color arrangements,30,40,20","0"
"15098","","survey-text","34","280458","0.0-34.0-0.0","A34CBV74LOV6E3","","","","{""Q0"":""Somehow it is calm and chaotic at the same time.""}","","","","","","","","","","","","","","","","","","","","","","",""
"4558.800000071526","","image-slider-response","35","285018","0.0-35.0","A34CBV74LOV6E3","","","","","-14","","","","","","","","","","","","","","","","","","","","","",""
"null","","image-button-response","36","290020","0.0-36.0","A34CBV74LOV6E3","img_art/ins/3.jpg","null","","","","","","","","","","","","","","","","","","","","","","","","",""
"651","","image-button-response","37","290674","0.0-37.0","A34CBV74LOV6E3","img_art/ins/3.jpg","3","","","","","","","","","","","","","","","","","","","","","","","","",""
"2790","","image-button-response","38","293466","0.0-38.0-0.0","A34CBV74LOV6E3","img_art/ins/3.jpg","5","","","","","","","","","","","","","","","","","","","","","","","","",""
"1990","","image-button-response","39","295458","0.0-39.0-0.0","A34CBV74LOV6E3","img_art/ins/3.jpg","0","","","","","","","","","","","","","","","","","","","","","","","","",""
"null","","html-keyboard-response","40","296959","0.0-40.0","A34CBV74LOV6E3","<p style=""font-size: 48px;"">+</p>","","","","","null","allTrialResponses","1500","1","0","img_art/ins/3.jpg","-14","Somehow it is calm and chaotic at the same time.","Ron,Alex,James,Mike,John,Sam","It looks depressing,-26,220,20","calming blue is very nice,36,40,20","My worst nightmare,-42,140,20","enjoy the different shades of blue,22,200,20","I like the overlapping of brushes,41,160,20","I can feel a rainy day from this painting,18,240,20","Mike","enjoy the different shades of blue,22,200,20","Sam","I can feel a rainy day from this painting,18,240,20","Ron","It looks depressing,-26,220,20","0"
"46104","","image-button-response_instructions","41","343073","0.0-41.0","A34CBV74LOV6E3","","0","instructions","","","","","","","","","","","","","","","","","","","","","","","",""
"13783","","survey-likert","42","356858","0.0-42.0-0.0","A34CBV74LOV6E3","","","","{""Q0"":"""",""Q1"":0,""Q2"":1}","","","","","","","","","","","","","","","","","","","","","","",""
"4340","","survey-text","43","361202","0.0-43.0-0.0","A34CBV74LOV6E3","","","","{""Q0"":""rock""}","","","","","","","","","","","","","","","","","","","","","","",""
"29047","","survey-text","44","390250","0.0-44.0-0.0","A34CBV74LOV6E3","","","","{""Q0"":""Honestly? Feels like a disturbed child. It makes me uncomfortable.""}","","","","","","","","","","","","","","","","","","","","","","",""
"3390.2000000476837","","image-slider-response","45","393641","0.0-45.0","A34CBV74LOV6E3","","","","","-23","","","","","","","","","","","","","","","","","","","","","",""
"null","","image-button-response","46","399099","0.0-46.0","A34CBV74LOV6E3","img_art/16.jpg","null","","","","","","","","","","","","","","","","","","","","","","","","",""
"15204","","image-button-response","47","414306","0.0-47.0","A34CBV74LOV6E3","img_art/16.jpg","4","","","","","","","","","","","","","","","","","","","","","","","","",""
"3790","","image-button-response","48","418097","0.0-48.0-0.0","A34CBV74LOV6E3","img_art/16.jpg","0","","","","","","","","","","","","","","","","","","","","","","","","",""
"2975","","image-button-response","49","421073","0.0-49.0-0.0","A34CBV74LOV6E3","img_art/16.jpg","0","","","","","","","","","","","","","","","","","","","","","","","","",""
"1623","","image-button-response","50","425673","0.0-49.1-0.1","A34CBV74LOV6E3","img_art/16.jpg","2","","","","","","","","","","","","","","","","","","","","","","","","",""
"null","","html-keyboard-response","51","426175","0.0-50.0","A34CBV74LOV6E3","<p style=""font-size: 48px;"">+</p>","","","","","null","allTrialResponses","500","1","1","img_art/16.jpg","-23","Honestly? Feels like a disturbed child. It makes me uncomfortable.","Matthew,Blake,Dalton,Kevin,John,Tyler","A lot fo these could abstract or childrens work.,23,120,20","cute and warm. i like the bear,15,280,20","lol i dont know how i feel about this.,1,300,20","Hmm i don't know what going on here.,1,320,20","It creeps me out.,-50,120,20","Pop art, Tate Modern horse dung.,-50,320,20","John","It creeps me out.,-50,120,20","Matthew","A lot fo these could abstract or childrens work.,23,120,20","Dalton","lol i dont know how i feel about this.,1,300,20","2"
"19387","","survey-text","52","445570","0.0-51.0-0.0","A34CBV74LOV6E3","","","","{""Q0"":""Aggressive. It reminds me of like an alley wall.""}","","","","","","","","","","","","","","","","","","","","","","",""
"3053.2000000476837","","image-slider-response","53","448625","0.0-52.0","A34CBV74LOV6E3","","","","","-3","","","","","","","","","","","","","","","","","","","","","",""
"null","","image-button-response","54","453641","0.0-53.0","A34CBV74LOV6E3","img_art/29.jpg","null","","","","","","","","","","","","","","","","","","","","","","","","",""
"8447","","image-button-response","55","462089","0.0-54.0","A34CBV74LOV6E3","img_art/29.jpg","1","","","","","","","","","","","","","","","","","","","","","","","","",""
"8510","","image-button-response","56","470601","0.0-55.0-0.0","A34CBV74LOV6E3","img_art/29.jpg","4","","","","","","","","","","","","","","","","","","","","","","","","",""
"2470","","image-button-response","57","473073","0.0-56.0-0.0","A34CBV74LOV6E3","img_art/29.jpg","5","","","","","","","","","","","","","","","","","","","","","","","","",""
"null","","html-keyboard-response","58","474575","0.0-57.0","A34CBV74LOV6E3","<p style=""font-size: 48px;"">+</p>","","","","","null","allTrialResponses","1500","1","2","img_art/29.jpg","-3","Aggressive. It reminds me of like an alley wall.","Matthew,William,Dalton,Devin,John,Jared","It that an actual PAINTBUSH! Love it.,50,120,20","makes me think of destruction,-20,380,20","i dont know how it makes me feel.,1,300,20","Looks a bit messy,-13,380,20","Its interesting although doesnt illicit any strong emotions from me,10,120,20","not digging the paintbrush,1,400,20","William","makes me think of destruction,-20,380,20","John","Its interesting although doesnt illicit any strong emotions from me,10,120,20","Jared","not digging the paintbrush,1,400,20","2"
"26670","","survey-text","59","501249","0.0-58.0-0.0","A34CBV74LOV6E3","","","","{""Q0"":""The colors make me kind of depressed. Feels a bit like a farm.""}","","","","","","","","","","","","","","","","","","","","","","",""
"3510.5","","image-slider-response","60","504761","0.0-59.0","A34CBV74LOV6E3","","","","","-12","","","","","","","","","","","","","","","","","","","","","",""
"null","","image-button-response","61","510105","0.0-60.0","A34CBV74LOV6E3","img_art/28.jpg","null","","","","","","","","","","","","","","","","","","","","","","","","",""
"7519","","image-button-response","62","517625","0.0-61.0","A34CBV74LOV6E3","img_art/28.jpg","1","","","","","","","","","","","","","","","","","","","","","","","","",""
"13575","","image-button-response","63","531201","0.0-62.0-0.0","A34CBV74LOV6E3","img_art/28.jpg","4","","","","","","","","","","","","","","","","","","","","","","","","",""
"12654","","image-button-response","64","543857","0.0-63.0-0.0","A34CBV74LOV6E3","img_art/28.jpg","3","","","","","","","","","","","","","","","","","","","","","","","","",""
"null","","html-keyboard-response","65","544361","0.0-64.0","A34CBV74LOV6E3","<p style=""font-size: 48px;"">+</p>","","","","","null","allTrialResponses","500","1","3","img_art/28.jpg","-12","The colors make me kind of depressed. Feels a bit like a farm.","Brendan,William,Brett,Juan,John,Jared","i dont understand it,-34,340,20","drab and dreary,-21,380,20","Overpopulated city,35,360,20","It's such a blah piece and way too abstract.,-50,260,20","Not a fan of the bleak and dreary colors,-10,120,20","i like the colors and the shapes look like people,20,400,20","William","drab and dreary,-21,380,20","John","Not a fan of the bleak and dreary colors,-10,120,20","Juan","It's such a blah piece and way too abstract.,-50,260,20","2"
"26357","","survey-text","66","570729","0.0-65.0-0.0","A34CBV74LOV6E3","","","","{""Q0"":""Seems like a battle which makes me feel a bit uncomfortable.""}","","","","","","","","","","","","","","","","","","","","","","",""
"2462.600000023842","","image-slider-response","67","573193","0.0-66.0","A34CBV74LOV6E3","","","","","4","","","","","","","","","","","","","","","","","","","","","",""
"null","","image-button-response","68","578201","0.0-67.0","A34CBV74LOV6E3","img_art/18.jpg","null","","","","","","","","","","","","","","","","","","","","","","","","",""
"8174","","image-button-response","69","586377","0.0-68.0","A34CBV74LOV6E3","img_art/18.jpg","1","","","","","","","","","","","","","","","","","","","","","","","","",""
"7278","","image-button-response","70","593657","0.0-69.0-0.0","A34CBV74LOV6E3","img_art/18.jpg","0","","","","","","","","","","","","","","","","","","","","","","","","",""
"1030","","image-button-response","71","594689","0.0-70.0-0.0","A34CBV74LOV6E3","img_art/18.jpg","4","","","","","","","","","","","","","","","","","","","","","","","","",""
"null","","html-keyboard-response","72","595191","0.0-71.0","A34CBV74LOV6E3","<p style=""font-size: 48px;"">+</p>","","","","","null","allTrialResponses","500","1","4","img_art/18.jpg","4","Seems like a battle which makes me feel a bit uncomfortable.","Nicholas,William,Garrett,Juan,John,Patrick","Id love to see this piece closer. So much extra details hidden it it.,50,240,20","Makes me think of stormy oceans,20,380,20","I think its supposed to be a boat and the boat looks kind of interesting to me.,10,180,20","Again, this is too abtract.,-25,260,20","There are alot of elements to this painting and a good mix of colors,32,120,20","Too abstract and swirly,-21,280,20","William","Makes me think of stormy oceans,20,380,20","Nicholas","Id love to see this piece closer. So much extra details hidden it it.,50,240,20","John","There are alot of elements to this painting and a good mix of colors,32,120,20","2"
"23499","","survey-text","73","618697","0.0-72.0-0.0","A34CBV74LOV6E3","","","","{""Q0"":""Chaotic. The Pollock style kind of throws me but the colors are nice.""}","","","","","","","","","","","","","","","","","","","","","","",""
"3662.1999999284744","","image-slider-response","74","622361","0.0-73.0","A34CBV74LOV6E3","","","","","2","","","","","","","","","","","","","","","","","","","","","",""
"null","","image-button-response","75","627363","0.0-74.0","A34CBV74LOV6E3","img_art/13.jpg","null","","","","","","","","","","","","","","","","","","","","","","","","",""
"5909","","image-button-response","76","633273","0.0-75.0","A34CBV74LOV6E3","img_art/13.jpg","5","","","","","","","","","","","","","","","","","","","","","","","","",""
"1799","","image-button-response","77","635073","0.0-76.0-0.0","A34CBV74LOV6E3","img_art/13.jpg","0","","","","","","","","","","","","","","","","","","","","","","","","",""
"1615","","image-button-response","78","636689","0.0-77.0-0.0","A34CBV74LOV6E3","img_art/13.jpg","0","","","","","","","","","","","","","","","","","","","","","","","","",""
"2575","","image-button-response","79","641953","0.0-77.1-0.1","A34CBV74LOV6E3","img_art/13.jpg","2","","","","","","","","","","","","","","","","","","","","","","","","",""
"null","","html-keyboard-response","80","642954","0.0-78.0","A34CBV74LOV6E3","<p style=""font-size: 48px;"">+</p>","","","","","null","allTrialResponses","1000","1","5","img_art/13.jpg","2","Chaotic. The Pollock style kind of throws me but the colors are nice.","Nicholas,William,Chase,Joshua,John,Alejandro","Nice colors. beautiful blue,50,240,20","reminds me of rain,36,380,20","Seems a little cold but I like the neuron looking splatters.,10,120,20","Like this a lot and would hang in my house.,27,240,20","Pretty and it reminds me of rain droplets running down a window on a rainy day.,40,120,20","Reminiscent of Jackson Pollock and gives me a feeling of chaotic satisfaction,50,80,20","Alejandro","Reminiscent of Jackson Pollock and gives me a feeling of chaotic satisfaction,50,80,20","Nicholas","Nice colors. beautiful blue,50,240,20","Chase","Seems a little cold but I like the neuron looking splatters.,10,120,20","4"
"5199","","survey-text","81","648169","0.0-79.0-0.0","A34CBV74LOV6E3","","","","{""Q0"":""sky""}","","","","","","","","","","","","","","","","","","","","","","",""
"16271","","survey-text","82","664441","0.0-80.0-0.0","A34CBV74LOV6E3","","","","{""Q0"":""The warm colors remind me of summer or hunting.""}","","","","","","","","","","","","","","","","","","","","","","",""
"8998.5","","image-slider-response","83","673441","0.0-81.0","A34CBV74LOV6E3","","","","","1","","","","","","","","","","","","","","","","","","","","","",""
"4031","","image-button-response","84","678444","0.0-82.0","A34CBV74LOV6E3","img_art/1.jpg","0","","","","","","","","","","","","","","","","","","","","","","","","",""
"1187","","image-button-response","85","679633","0.0-83.0","A34CBV74LOV6E3","img_art/1.jpg","0","","","","","","","","","","","","","","","","","","","","","","","","",""
"9095","","image-button-response","86","688729","0.0-84.0-0.0","A34CBV74LOV6E3","img_art/1.jpg","4","","","","","","","","","","","","","","","","","","","","","","","","",""
"5750","","image-button-response","87","694481","0.0-85.0-0.0","A34CBV74LOV6E3","img_art/1.jpg","1","","","","","","","","","","","","","","","","","","","","","","","","",""
"null","","html-keyboard-response","88","694984","0.0-86.0","A34CBV74LOV6E3","<p style=""font-size: 48px;"">+</p>","","","","","null","allTrialResponses","500","1","6","img_art/1.jpg","1","The warm colors remind me of summer or hunting.","Nicholas,Grant,Chase,Hunter,Jason,Alejandro","Love the colors but it makes me feel like someone is looking at me through it,38,240,20","The use of reds, blues, and yellows together reminds me of fire. Very interesting to look at.,40,200,20","It's alright but lacks any depth.,-5,120,20","muddy and uninteresting,-16,240,20","Interesting blend of colors,9,20,20","Interesting color scheme but to bled to me,11,80,20","Nicholas","Love the colors but it makes me feel like someone is looking at me through it,38,240,20","Jason","Interesting blend of colors,9,20,20","Grant","The use of reds, blues, and yellows together reminds me of fire. Very interesting to look at.,40,200,20","4"
"16472","","survey-text","89","711465","0.0-87.0-0.0","A34CBV74LOV6E3","","","","{""Q0"":""Annoyed. The colors are so stark.""}","","","","","","","","","","","","","","","","","","","","","","",""
"2686.2999999523163","","image-slider-response","90","714153","0.0-88.0","A34CBV74LOV6E3","","","","","-19","","","","","","","","","","","","","","","","","","","","","",""
"null","","image-button-response","91","720103","0.0-89.0","A34CBV74LOV6E3","img_art/5.jpg","null","","","","","","","","","","","","","","","","","","","","","","","","",""
"14144","","image-button-response","92","734249","0.0-90.0","A34CBV74LOV6E3","img_art/5.jpg","4","","","","","","","","","","","","","","","","","","","","","","","","",""
"2494","","image-button-response","93","736745","0.0-91.0-0.0","A34CBV74LOV6E3","img_art/5.jpg","5","","","","","","","","","","","","","","","","","","","","","","","","",""
"1902","","image-button-response","94","738649","0.0-92.0-0.0","A34CBV74LOV6E3","img_art/5.jpg","1","","","","","","","","","","","","","","","","","","","","","","","","",""
"null","","html-keyboard-response","95","739151","0.0-93.0","A34CBV74LOV6E3","<p style=""font-size: 48px;"">+</p>","","","","","null","allTrialResponses","500","1","7","img_art/5.jpg","-19","Annoyed. The colors are so stark.","Nicholas,Grant,Aaron,Cody,Jason,Jose","I cant explain why i like this so much but it really calls out to me,50,240,20","This elicits no reaction in me.,0,200,20","It's kind of boring.,-20,20,20","Kind of ugly ....,-21,180,20","Wish the background had been kept clean; distracts from main object,11,20,20","Don't love don't hate,8,200,20","Jason","Wish the background had been kept clean; distracts from main object,11,20,20","Jose","Don't love don't hate,8,200,20","Grant","This elicits no reaction in me.,0,200,20","4"
"17334","","survey-text","96","756488","0.0-94.0-0.0","A34CBV74LOV6E3","","","","{""Q0"":""Celebratory. I enjoy the composition and color choices.""}","","","","","","","","","","","","","","","","","","","","","","",""
"1918.8999999761581","","image-slider-response","97","758409","0.0-95.0","A34CBV74LOV6E3","","","","","19","","","","","","","","","","","","","","","","","","","","","",""
"null","","image-button-response","98","763411","0.0-96.0","A34CBV74LOV6E3","img_art/23.jpg","null","","","","","","","","","","","","","","","","","","","","","","","","",""
"3619","","image-button-response","99","767033","0.0-97.0","A34CBV74LOV6E3","img_art/23.jpg","2","","","","","","","","","","","","","","","","","","","","","","","","",""
"5406","","image-button-response","100","772441","0.0-98.0-0.0","A34CBV74LOV6E3","img_art/23.jpg","5","","","","","","","","","","","","","","","","","","","","","","","","",""
"1606","","image-button-response","101","774049","0.0-99.0-0.0","A34CBV74LOV6E3","img_art/23.jpg","1","","","","","","","","","","","","","","","","","","","","","","","","",""
"null","","html-keyboard-response","102","775051","0.0-100.0","A34CBV74LOV6E3","<p style=""font-size: 48px;"">+</p>","","","","","null","allTrialResponses","1000","1","8","img_art/23.jpg","19","Celebratory. I enjoy the composition and color choices.","Dustin,Grant,Isaiah,Michael,Jason,Jose","I don't get it! the white in the middle of the speckled rainbow is confusing.,-10,20,20","It reminds me of being in a crowded place.,-10,200,20","I feel happy and a little excited. Like watching fireworks with family.,26,300,20","I don't get it.,-40,140,20","Interesting contrast,9,20,20","This one is awesome, kinda looks like a cake with sprinkles but in a different universe,50,200,20","Isaiah","I feel happy and a little excited. Like watching fireworks with family.,26,300,20","Jose","This one is awesome, kinda looks like a cake with sprinkles but in a different universe,50,200,20","Grant","It reminds me of being in a crowded place.,-10,200,20","4"
"27353","","survey-text","103","802409","0.0-101.0-0.0","A34CBV74LOV6E3","","","","{""Q0"":""There's some calmness there but it also feels... natural, like looking at an animal.""}","","","","","","","","","","","","","","","","","","","","","","",""
"6430.600000023842","","image-slider-response","104","808841","0.0-102.0","A34CBV74LOV6E3","","","","","1","","","","","","","","","","","","","","","","","","","","","",""
"null","","image-button-response","105","813844","0.0-103.0","A34CBV74LOV6E3","img_art/10.jpg","null","","","","","","","","","","","","","","","","","","","","","","","","",""
"2387","","image-button-response","106","816233","0.0-104.0","A34CBV74LOV6E3","img_art/10.jpg","4","","","","","","","","","","","","","","","","","","","","","","","","",""
"2255","","image-button-response","107","818489","0.0-105.0-0.0","A34CBV74LOV6E3","img_art/10.jpg","5","","","","","","","","","","","","","","","","","","","","","","","","",""
"2190","","image-button-response","108","820681","0.0-106.0-0.0","A34CBV74LOV6E3","img_art/10.jpg","0","","","","","","","","","","","","","","","","","","","","","","","","",""
"null","","html-keyboard-response","109","821198","0.0-107.0","A34CBV74LOV6E3","<p style=""font-size: 48px;"">+</p>","","","","","null","allTrialResponses","500","1","9","img_art/10.jpg","1","There's some calmness there but it also feels... natural, like looking at an animal.","Evan,Grant,Isaiah,Jake,Luis,Jose","My immediate thought is WTF is this,-20,140,20","I love the chaotic feel of the brush strokes.,35,200,20","I feel little to no emotion looking at this painting.,0,300,20","This is odd and ugly.,-9,360,20","I love the dark and edgy nature of this,50,400,20","This is pretty rad. The outline looks like a music staff,15,200,20","Luis","I love the dark and edgy nature of this,50,400,20","Jose","This is pretty rad. The outline looks like a music staff,15,200,20","Evan","My immediate thought is WTF is this,-20,140,20","4"
"19875","","survey-text","110","841081","0.0-108.0-0.0","A34CBV74LOV6E3","","","","{""Q0"":""The red makes me uncomfortable. I feel like a murder happened.""}","","","","","","","","","","","","","","","","","","","","","","",""
"14534.799999952316","","image-slider-response","111","855617","0.0-109.0","A34CBV74LOV6E3","","","","","-28","","","","","","","","","","","","","","","","","","","","","",""
"null","","image-button-response","112","860632","0.0-110.0","A34CBV74LOV6E3","img_art/3.jpg","null","","","","","","","","","","","","","","","","","","","","","","","","",""
"6087","","image-button-response","113","866721","0.0-111.0","A34CBV74LOV6E3","img_art/3.jpg","2","","","","","","","","","","","","","","","","","","","","","","","","",""
"2383","","image-button-response","114","869105","0.0-112.0-0.0","A34CBV74LOV6E3","img_art/3.jpg","5","","","","","","","","","","","","","","","","","","","","","","","","",""
"6191","","image-button-response","115","875298","0.0-113.0-0.0","A34CBV74LOV6E3","img_art/3.jpg","1","","","","","","","","","","","","","","","","","","","","","","","","",""
"null","","html-keyboard-response","116","876804","0.0-114.0","A34CBV74LOV6E3","<p style=""font-size: 48px;"">+</p>","","","","","null","allTrialResponses","1500","1","10","img_art/3.jpg","-28","The red makes me uncomfortable. I feel like a murder happened.","Evan,Charles,Shane,Scott,Luis,Jose","It feels like a half assed and failed imitation of Japanese signatures on old paintings,-22,140,20","I like that it feels kind of simple but still chaotic,6,100,20","Too much red or blood,-28,80,20","I like that it's messy,14,20,20","I dont really feel anything from this, i cant see or understand any of it,-20,400,20","Too much red! Reminds me of blood. I hate blood.,-34,200,20","Shane","Too much red or blood,-28,80,20","Jose","Too much red! Reminds me of blood. I hate blood.,-34,200,20","Charles","I like that it feels kind of simple but still chaotic,6,100,20","4"
"5495","","survey-text","117","882305","0.0-115.0-0.0","A34CBV74LOV6E3","","","","{""Q0"":""our""}","","","","","","","","","","","","","","","","","","","","","","",""
"42126","","survey-text","118","924432","0.0-116.0-0.0","A34CBV74LOV6E3","","","","{""Q0"":""I get lower class family. It is busy but almost welcoming.""}","","","","","","","","","","","","","","","","","","","","","","",""
"7598.5","","image-slider-response","119","932032","0.0-117.0","A34CBV74LOV6E3","","","","","0","","","","","","","","","","","","","","","","","","","","","",""
"4246","","image-button-response","120","937034","0.0-118.0","A34CBV74LOV6E3","img_art/2.jpg","2","","","","","","","","","","","","","","","","","","","","","","","","",""
"1875","","image-button-response","121","938913","0.0-119.0","A34CBV74LOV6E3","img_art/2.jpg","2","","","","","","","","","","","","","","","","","","","","","","","","",""
"3895","","image-button-response","122","942809","0.0-120.0-0.0","A34CBV74LOV6E3","img_art/2.jpg","4","","","","","","","","","","","","","","","","","","","","","","","","",""
"2654","","image-button-response","123","945465","0.0-121.0-0.0","A34CBV74LOV6E3","img_art/2.jpg","5","","","","","","","","","","","","","","","","","","","","","","","","",""
"null","","html-keyboard-response","124","945966","0.0-122.0","A34CBV74LOV6E3","<p style=""font-size: 48px;"">+</p>","","","","","null","allTrialResponses","500","1","11","img_art/2.jpg","0","I get lower class family. It is busy but almost welcoming.","Austin,Charles,Shane,Victor,Marcus,Jose","Good color pallette,12,240,20","I like the green,13,100,20","Feels like a playground or park vibe,27,80,20","It's interesting. The chunks of black here and there are nice,13,340,20","Only like the blues and teals in this. The rest is unappealing.,-15,60,20","The color combo is kind of ugly but there's something charming about it still,17,200,20","Shane","Feels like a playground or park vibe,27,80,20","Marcus","Only like the blues and teals in this. The rest is unappealing.,-15,60,20","Jose","The color combo is kind of ugly but there's something charming about it still,17,200,20","4"
"65567","","survey-text","125","1011544","0.0-123.0-0.0","A34CBV74LOV6E3","","","","{""Q0"":""I'm reminded of rain. The red feels off putting. ""}","","","","","","","","","","","","","","","","","","","","","","",""
"3174.3000000715256","","image-slider-response","126","1014720","0.0-124.0","A34CBV74LOV6E3","","","","","-5","","","","","","","","","","","","","","","","","","","","","",""
"2935","","image-button-response","127","1019731","0.0-125.0","A34CBV74LOV6E3","img_art/30.jpg","1","","","","","","","","","","","","","","","","","","","","","","","","",""
"1027","","image-button-response","128","1020760","0.0-126.0","A34CBV74LOV6E3","img_art/30.jpg","1","","","","","","","","","","","","","","","","","","","","","","","","",""
"2735","","image-button-response","129","1023496","0.0-127.0-0.0","A34CBV74LOV6E3","img_art/30.jpg","2","","","","","","","","","","","","","","","","","","","","","","","","",""
"6895","","image-button-response","130","1030392","0.0-128.0-0.0","A34CBV74LOV6E3","img_art/30.jpg","5","","","","","","","","","","","","","","","","","","","","","","","","",""
"null","","html-keyboard-response","131","1031904","0.0-129.0","A34CBV74LOV6E3","<p style=""font-size: 48px;"">+</p>","","","","","null","allTrialResponses","1500","1","12","img_art/30.jpg","-5","I'm reminded of rain. The red feels off putting. ","Cameron,Adam,Shane,Gregory,Marcus,Jose","Like the color and style,31,60,20","Dislike the contrast here.,-5,40,20","I like the back but the red lines in the front distress me,-7,80,20","Cool design and contrast of colors,30,220,20","Really don't like this piece. It feels very lazy to me.,-31,60,20","For some reason I like the red in this one. Maybe it's the style of lines/blurs,46,200,20","Adam","Dislike the contrast here.,-5,40,20","Shane","I like the back but the red lines in the front distress me,-7,80,20","Jose","For some reason I like the red in this one. Maybe it's the style of lines/blurs,46,200,20","4"
"32410","","survey-text","132","1064321","0.0-130.0-0.0","A34CBV74LOV6E3","","","","{""Q0"":""It makes my brain hurt. The chaos is real.""}","","","","","","","","","","","","","","","","","","","","","","",""
"5462.399999976158","","image-slider-response","133","1069785","0.0-131.0","A34CBV74LOV6E3","","","","","15","","","","","","","","","","","","","","","","","","","","","",""
"2766","","image-button-response","134","1074798","0.0-132.0","A34CBV74LOV6E3","img_art/8.jpg","1","","","","","","","","","","","","","","","","","","","","","","","","",""
"1031","","image-button-response","135","1075833","0.0-133.0","A34CBV74LOV6E3","img_art/8.jpg","1","","","","","","","","","","","","","","","","","","","","","","","","",""
"3622","","image-button-response","136","1079456","0.0-134.0-0.0","A34CBV74LOV6E3","img_art/8.jpg","3","","","","","","","","","","","","","","","","","","","","","","","","",""
"2342","","image-button-response","137","1081801","0.0-135.0-0.0","A34CBV74LOV6E3","img_art/8.jpg","5","","","","","","","","","","","","","","","","","","","","","","","","",""
"null","","html-keyboard-response","138","1082310","0.0-136.0","A34CBV74LOV6E3","<p style=""font-size: 48px;"">+</p>","","","","","null","allTrialResponses","500","1","13","img_art/8.jpg","15","It makes my brain hurt. The chaos is real.","Logan,Adam,Shane,Robert,Cole,Jose","a cute little cute with some protectors,25,360,20","Eclectic city with good mix of colors.,10,40,20","Ancient city looked after by diety,38,80,20","I like the colors and geometrical shapes but the face in the sky makes it look scary,-10,360,20","Its abstract and interesting,24,200,20","This is really cool, I love the fragments of faces,38,200,20","Adam","Eclectic city with good mix of colors.,10,40,20","Robert","I like the colors and geometrical shapes but the face in the sky makes it look scary,-10,360,20","Jose","This is really cool, I love the fragments of faces,38,200,20","4"
"22252","","survey-text","139","1104568","0.0-137.0-0.0","A34CBV74LOV6E3","","","","{""Q0"":""It's like two people facing off for a fight, but they are forces of nature. ""}","","","","","","","","","","","","","","","","","","","","","","",""
"3630.8000000715256","","image-slider-response","140","1108201","0.0-138.0","A34CBV74LOV6E3","","","","","30","","","","","","","","","","","","","","","","","","","","","",""
"null","","image-button-response","141","1113210","0.0-139.0","A34CBV74LOV6E3","img_art/21.jpg","null","","","","","","","","","","","","","","","","","","","","","","","","",""
"3244","","image-button-response","142","1116457","0.0-140.0","A34CBV74LOV6E3","img_art/21.jpg","4","","","","","","","","","","","","","","","","","","","","","","","","",""
"3014","","image-button-response","143","1119473","0.0-141.0-0.0","A34CBV74LOV6E3","img_art/21.jpg","5","","","","","","","","","","","","","","","","","","","","","","","","",""
"2006","","image-button-response","144","1121481","0.0-142.0-0.0","A34CBV74LOV6E3","img_art/21.jpg","0","","","","","","","","","","","","","","","","","","","","","","","","",""
"null","","html-keyboard-response","145","1121983","0.0-143.0","A34CBV74LOV6E3","<p style=""font-size: 48px;"">+</p>","","","","","null","allTrialResponses","500","1","14","img_art/21.jpg","30","It's like two people facing off for a fight, but they are forces of nature. ","Antonio,Adam,Bryce,Robert,Jack,Jose","the colors are pretty but I did not feel any thing looking at it,33,220,20","I like color mix here,15,40,20","Nothing exciting in this one.,-36,20,20","A battle at sea, the red is a bomb exploding.,-31,360,20","beautiful. reminds me of a storm brewing over sea. i love the white dots.,45,320,20","I can't explain why this struck me as absolutely gorgeous. Like the clashing between 2 different worlds,43,200,20","Jack","beautiful. reminds me of a storm brewing over sea. i love the white dots.,45,320,20","Jose","I can't explain why this struck me as absolutely gorgeous. Like the clashing between 2 different worlds,43,200,20","Antonio","the colors are pretty but I did not feel any thing looking at it,33,220,20","4"
"33226","","survey-text","146","1155216","0.0-144.0-0.0","A34CBV74LOV6E3","","","","{""Q0"":""Calm. I love the natural elements. I expect fairies to pop out.""}","","","","","","","","","","","","","","","","","","","","","","",""
"2718.5","","image-slider-response","147","1157936","0.0-145.0","A34CBV74LOV6E3","","","","","41","","","","","","","","","","","","","","","","","","","","","",""
"4751","","image-button-response","148","1162941","0.0-146.0","A34CBV74LOV6E3","img_art/24.jpg","1","","","","","","","","","","","","","","","","","","","","","","","","",""
"745","","image-button-response","149","1163689","0.0-147.0","A34CBV74LOV6E3","img_art/24.jpg","1","","","","","","","","","","","","","","","","","","","","","","","","",""
"4151","","image-button-response","150","1167841","0.0-148.0-0.0","A34CBV74LOV6E3","img_art/24.jpg","3","","","","","","","","","","","","","","","","","","","","","","","","",""
"3822","","image-button-response","151","1171665","0.0-149.0-0.0","A34CBV74LOV6E3","img_art/24.jpg","4","","","","","","","","","","","","","","","","","","","","","","","","",""
"null","","html-keyboard-response","152","1172167","0.0-150.0","A34CBV74LOV6E3","<p style=""font-size: 48px;"">+</p>","","","","","null","allTrialResponses","500","1","15","img_art/24.jpg","41","Calm. I love the natural elements. I expect fairies to pop out.","Antonio,Jesse,Ryan,Brandon,Jack,Jose","Waterfalls and spring and gives me a sense of renewal,34,220,20","Love the colors and contrast. Feels peaceful.,33,80,20","Beautiful,  peaceful,50,380,20","Simple. Not too abstract. Love the different flower colors.,20,320,20","colors are a bit cramped together. really unique take on a waterfall though.,32,320,20","The combination of nature / realism with abstract colors is unique.,39,200,20","Jesse","Love the colors and contrast. Feels peaceful.,33,80,20","Brandon","Simple. Not too abstract. Love the different flower colors.,20,320,20","Jack","colors are a bit cramped together. really unique take on a waterfall though.,32,320,20","4"
"4352","","survey-text","153","1176528","0.0-151.0-0.0","A34CBV74LOV6E3","","","","{""Q0"":""course""}","","","","","","","","","","","","","","","","","","","","","","",""
"33558","","survey-text","154","1210089","0.0-152.0-0.0","A34CBV74LOV6E3","","","","{""Q0"":""I see the lady in the grass. Gives me an Ophelia vibe which is vaguely depressing. ""}","","","","","","","","","","","","","","","","","","","","","","",""
"2238.600000023842","","image-slider-response","155","1212329","0.0-153.0","A34CBV74LOV6E3","","","","","10","","","","","","","","","","","","","","","","","","","","","",""
"null","","image-button-response","156","1217331","0.0-154.0","A34CBV74LOV6E3","img_art/9.jpg","null","","","","","","","","","","","","","","","","","","","","","","","","",""
"4179","","image-button-response","157","1221513","0.0-155.0","A34CBV74LOV6E3","img_art/9.jpg","3","","","","","","","","","","","","","","","","","","","","","","","","",""
"3094","","image-button-response","158","1224609","0.0-156.0-0.0","A34CBV74LOV6E3","img_art/9.jpg","4","","","","","","","","","","","","","","","","","","","","","","","","",""
"3782","","image-button-response","159","1228393","0.0-157.0-0.0","A34CBV74LOV6E3","img_art/9.jpg","1","","","","","","","","","","","","","","","","","","","","","","","","",""
"null","","html-keyboard-response","160","1229909","0.0-158.0","A34CBV74LOV6E3","<p style=""font-size: 48px;"">+</p>","","","","","null","allTrialResponses","1500","1","16","img_art/9.jpg","10","I see the lady in the grass. Gives me an Ophelia vibe which is vaguely depressing. ","Bradley,Jesse,Jacob,Brandon,Jack,Travis","Yikes. I'm not sure what to make of this one.,-14,300,20","The lack of concrete form kind of turns me off,-2,80,20","So I don't really like this style but it looks somewhat okay,3,340,20","I like the sense of forboding, the green creates a claustrophobic feeling,10,320,20","gorgeous colors, love the little details,42,320,20","Stuipid looking...dumb,-48,260,20","Brandon","I like the sense of forboding, the green creates a claustrophobic feeling,10,320,20","Jack","gorgeous colors, love the little details,42,320,20","Jesse","The lack of concrete form kind of turns me off,-2,80,20","4"
"38557","","survey-text","161","1268473","0.0-159.0-0.0","A34CBV74LOV6E3","","","","{""Q0"":""Ominous. Like a deity come to collect. ""}","","","","","","","","","","","","","","","","","","","","","","",""
"4382.5","","image-slider-response","162","1272857","0.0-160.0","A34CBV74LOV6E3","","","","","-3","","","","","","","","","","","","","","","","","","","","","",""
"3534","","image-button-response","163","1277871","0.0-161.0","A34CBV74LOV6E3","img_art/25.jpg","0","","","","","","","","","","","","","","","","","","","","","","","","",""
"855","","image-button-response","164","1278729","0.0-162.0","A34CBV74LOV6E3","img_art/25.jpg","0","","","","","","","","","","","","","","","","","","","","","","","","",""
"1847","","image-button-response","165","1280577","0.0-163.0-0.0","A34CBV74LOV6E3","img_art/25.jpg","4","","","","","","","","","","","","","","","","","","","","","","","","",""
"2238","","image-button-response","166","1282817","0.0-164.0-0.0","A34CBV74LOV6E3","img_art/25.jpg","5","","","","","","","","","","","","","","","","","","","","","","","","",""
"null","","html-keyboard-response","167","1283819","0.0-165.0","A34CBV74LOV6E3","<p style=""font-size: 48px;"">+</p>","","","","","null","allTrialResponses","1000","1","17","img_art/25.jpg","-3","Ominous. Like a deity come to collect. ","Alexander,Jesse,Colton,Brandon,Jack,Samuel","Ancient gods above you.,20,120,20","Creates a bit of fear in me for some reason,-26,80,20","the colors are pretty,11,220,20","Reminds me of cave drawings,21,320,20","beautiful in a primitive way,10,320,20","reminds me of burning man,18,400,20","Alexander","Ancient gods above you.,20,120,20","Jack","beautiful in a primitive way,10,320,20","Samuel","reminds me of burning man,18,400,20","4"
"24237","","survey-text","168","1308065","0.0-166.0-0.0","A34CBV74LOV6E3","","","","{""Q0"":""Clashing of adult and child. I like the bright colors but the discord is not for me.""}","","","","","","","","","","","","","","","","","","","","","","",""
"3758.5","","image-slider-response","169","1311825","0.0-167.0","A34CBV74LOV6E3","","","","","1","","","","","","","","","","","","","","","","","","","","","",""
"null","","image-button-response","170","1316828","0.0-168.0","A34CBV74LOV6E3","img_art/12.jpg","null","","","","","","","","","","","","","","","","","","","","","","","","",""
"6506","","image-button-response","171","1323337","0.0-169.0","A34CBV74LOV6E3","img_art/12.jpg","3","","","","","","","","","","","","","","","","","","","","","","","","",""
"10614","","image-button-response","172","1333953","0.0-170.0-0.0","A34CBV74LOV6E3","img_art/12.jpg","1","","","","","","","","","","","","","","","","","","","","","","","","",""
"1198","","image-button-response","173","1335153","0.0-171.0-0.0","A34CBV74LOV6E3","img_art/12.jpg","4","","","","","","","","","","","","","","","","","","","","","","","","",""
"null","","html-keyboard-response","174","1336669","0.0-172.0","A34CBV74LOV6E3","<p style=""font-size: 48px;"">+</p>","","","","","null","allTrialResponses","1500","1","18","img_art/12.jpg","1","Clashing of adult and child. I like the bright colors but the discord is not for me.","Alexander,Nathaniel,Richard,Timothy,Jack,Samuel","Ugly color combinations, no focus.,-25,120,20","Too many blocks. I can't see a purpose or a focal point,-44,220,20","seems too dark on top and too common on the bottom,-19,340,20","The shapes make me feel a bit uncomfortable,-10,240,20","interesting, but feels like someone cut up a picture and pasted it together wrong. want to see the original,15,320,20","feels cluttered,-11,400,20","Timothy","The shapes make me feel a bit uncomfortable,-10,240,20","Nathaniel","Too many blocks. I can't see a purpose or a focal point,-44,220,20","Jack","interesting, but feels like someone cut up a picture and pasted it together wrong. want to see the original,15,320,20","4"
"24623","","survey-text","175","1361296","0.0-173.0-0.0","A34CBV74LOV6E3","","","","{""Q0"":""My first thought was McDonalds fries. I don't like the lack of contrast in tonality.""}","","","","","","","","","","","","","","","","","","","","","","",""
"2974.5","","image-slider-response","176","1364272","0.0-174.0","A34CBV74LOV6E3","","","","","-37","","","","","","","","","","","","","","","","","","","","","",""
"null","","image-button-response","177","1369278","0.0-175.0","A34CBV74LOV6E3","img_art/4.jpg","null","","","","","","","","","","","","","","","","","","","","","","","","",""
"1176","","image-button-response","178","1370456","0.0-176.0","A34CBV74LOV6E3","img_art/4.jpg","0","","","","","","","","","","","","","","","","","","","","","","","","",""
"7743","","image-button-response","179","1378200","0.0-177.0-0.0","A34CBV74LOV6E3","img_art/4.jpg","4","","","","","","","","","","","","","","","","","","","","","","","","",""
"2198","","image-button-response","180","1380400","0.0-178.0-0.0","A34CBV74LOV6E3","img_art/4.jpg","3","","","","","","","","","","","","","","","","","","","","","","","","",""
"null","","html-keyboard-response","181","1380912","0.0-179.0","A34CBV74LOV6E3","<p style=""font-size: 48px;"">+</p>","","","","","null","allTrialResponses","500","1","19","img_art/4.jpg","-37","My first thought was McDonalds fries. I don't like the lack of contrast in tonality.","Christopher,Nathaniel,Jordan,Timothy,Jack,Seth","too many red/yellow shades, its impact without a reason,-27,160,20","Boring and tasteless. Almost reminds me of when an art gallery called a banana 'art',-42,220,20","A hand reaching for something it cannot obtain,-9,160,20","The colors feel a bit off to me,-10,240,20","creepy, looks like a deformed hand, but the background is pretty,5,320,20","Odd but intriguing. I feel emotion from this. Like a woman bent over carrying these emotions on her back.,33,60,20","Christopher","too many red/yellow shades, its impact without a reason,-27,160,20","Jack","creepy, looks like a deformed hand, but the background is pretty,5,320,20","Timothy","The colors feel a bit off to me,-10,240,20","4"
"30558","","survey-text","182","1411476","0.0-180.0-0.0","A34CBV74LOV6E3","","","","{""Q0"":""The colors make me want to be happy but the keys are ominous... I feel more confused. ""}","","","","","","","","","","","","","","","","","","","","","","",""
"5371.200000047684","","image-slider-response","183","1416848","0.0-181.0","A34CBV74LOV6E3","","","","","2","","","","","","","","","","","","","","","","","","","","","",""
"null","","image-button-response","184","1421858","0.0-182.0","A34CBV74LOV6E3","img_art/22.jpg","null","","","","","","","","","","","","","","","","","","","","","","","","",""
"2587","","image-button-response","185","1424449","0.0-183.0","A34CBV74LOV6E3","img_art/22.jpg","1","","","","","","","","","","","","","","","","","","","","","","","","",""
"4335","","image-button-response","186","1428785","0.0-184.0-0.0","A34CBV74LOV6E3","img_art/22.jpg","4","","","","","","","","","","","","","","","","","","","","","","","","",""
"4254","","image-button-response","187","1433041","0.0-185.0-0.0","A34CBV74LOV6E3","img_art/22.jpg","5","","","","","","","","","","","","","","","","","","","","","","","","",""
"null","","html-keyboard-response","188","1434042","0.0-186.0","A34CBV74LOV6E3","<p style=""font-size: 48px;"">+</p>","","","","","null","allTrialResponses","1000","1","20","img_art/22.jpg","2","The colors make me want to be happy but the keys are ominous... I feel more confused. ","Christopher,Shawn,Dylan,Timothy,Jack,Luke","boring, too many red and yellow tones for my taste,-15,160,20","Still like the colors but not the most interesting composition,17,100,20","The colors in this picture are nice.,32,40,20","This painting has a very nostalgic feel,20,240,20","beautiful. love the bright colors & soft brush strokes, and the imprint of the key is genius.,50,320,20","the colors and shapes makes me want to keep looking at it,22,20,20","Shawn","Still like the colors but not the most interesting composition,17,100,20","Jack","beautiful. love the bright colors & soft brush strokes, and the imprint of the key is genius.,50,320,20","Luke","the colors and shapes makes me want to keep looking at it,22,20,20","4"
"3377","","survey-text","189","1437432","0.0-187.0-0.0","A34CBV74LOV6E3","","","","{""Q0"":""we""}","","","","","","","","","","","","","","","","","","","","","","",""
"24935","","survey-text","190","1462368","0.0-188.0-0.0","A34CBV74LOV6E3","","","","{""Q0"":""Calm morning. Nothing is standing out as overly vibrant. ""}","","","","","","","","","","","","","","","","","","","","","","",""
"2870.7999999523163","","image-slider-response","191","1465240","0.0-189.0","A34CBV74LOV6E3","","","","","1","","","","","","","","","","","","","","","","","","","","","",""
"null","","image-button-response","192","1470249","0.0-190.0","A34CBV74LOV6E3","img_art/26.jpg","null","","","","","","","","","","","","","","","","","","","","","","","","",""
"1925","","image-button-response","193","1472177","0.0-191.0","A34CBV74LOV6E3","img_art/26.jpg","2","","","","","","","","","","","","","","","","","","","","","","","","",""
"5407","","image-button-response","194","1477584","0.0-192.0-0.0","A34CBV74LOV6E3","img_art/26.jpg","5","","","","","","","","","","","","","","","","","","","","","","","","",""
"4174","","image-button-response","195","1481760","0.0-193.0-0.0","A34CBV74LOV6E3","img_art/26.jpg","1","","","","","","","","","","","","","","","","","","","","","","","","",""
"null","","html-keyboard-response","196","1482774","0.0-194.0","A34CBV74LOV6E3","<p style=""font-size: 48px;"">+</p>","","","","","null","allTrialResponses","1000","1","21","img_art/26.jpg","1","Calm morning. Nothing is standing out as overly vibrant. ","Dakota,Shawn,Mark,Zachary,Jack,Luke","juvenile, faint and weak,-41,280,20","Not great use of space and brush strokes seem indistinct/accidental,-30,100,20","I get the feeling of a small old world street.,24,80,20","Pretty trees and bushes around fancy brown stones. I like the soft nature.,20,400,20","soft colors & brush work. very easy to look at. makes me happy.,50,320,20","makes me happy and reminds me of a paris courtyard,29,20,20","Mark","I get the feeling of a small old world street.,24,80,20","Luke","makes me happy and reminds me of a paris courtyard,29,20,20","Shawn","Not great use of space and brush strokes seem indistinct/accidental,-30,100,20","4"
"33206","","survey-text","197","1515984","0.0-195.0-0.0","A34CBV74LOV6E3","","","","{""Q0"":""Like walking into a cathedral that has been taken back by nature. I love the 'light' coming through the shapes.""}","","","","","","","","","","","","","","","","","","","","","","",""
"2382.399999976158","","image-slider-response","198","1518368","0.0-196.0","A34CBV74LOV6E3","","","","","44","","","","","","","","","","","","","","","","","","","","","",""
"null","","image-button-response","199","1523378","0.0-197.0","A34CBV74LOV6E3","img_art/17.jpg","null","","","","","","","","","","","","","","","","","","","","","","","","",""
"2564","","image-button-response","200","1525944","0.0-198.0","A34CBV74LOV6E3","img_art/17.jpg","4","","","","","","","","","","","","","","","","","","","","","","","","",""
"7599","","image-button-response","201","1533544","0.0-199.0-0.0","A34CBV74LOV6E3","img_art/17.jpg","2","","","","","","","","","","","","","","","","","","","","","","","","",""
"1982","","image-button-response","202","1535529","0.0-200.0-0.0","A34CBV74LOV6E3","img_art/17.jpg","3","","","","","","","","","","","","","","","","","","","","","","","","",""
"null","","html-keyboard-response","203","1537031","0.0-201.0","A34CBV74LOV6E3","<p style=""font-size: 48px;"">+</p>","","","","","null","allTrialResponses","1500","1","22","img_art/17.jpg","44","Like walking into a cathedral that has been taken back by nature. I love the 'light' coming through the shapes.","Gabriel,Shawn,Mark,Tristan,Thomas,Luke","this ones alright,10,160,20","Pretty but a little cheesy,-10,100,20","A coming storm but I think I would appreciate it more with more contrast.,-12,80,20","peaceful. contemplative. balanced. old,10,300,20","Colors and composition are beautiful. I would hang this in my home.,50,220,20","it looks very intricate and colorful,50,20,20","Thomas","Colors and composition are beautiful. I would hang this in my home.,50,220,20","Mark","A coming storm but I think I would appreciate it more with more contrast.,-12,80,20","Tristan","peaceful. contemplative. balanced. old,10,300,20","4"
"27085","","survey-text","204","1564120","0.0-202.0-0.0","A34CBV74LOV6E3","","","","{""Q0"":""Cluttered like trying to get through brush. Not really into it.""}","","","","","","","","","","","","","","","","","","","","","","",""
"2982.5","","image-slider-response","205","1567104","0.0-203.0","A34CBV74LOV6E3","","","","","-17","","","","","","","","","","","","","","","","","","","","","",""
"null","","image-button-response","206","1572110","0.0-204.0","A34CBV74LOV6E3","img_art/15.jpg","null","","","","","","","","","","","","","","","","","","","","","","","","",""
"5330","","image-button-response","207","1577440","0.0-205.0","A34CBV74LOV6E3","img_art/15.jpg","0","","","","","","","","","","","","","","","","","","","","","","","","",""
"5671","","image-button-response","208","1583112","0.0-206.0-0.0","A34CBV74LOV6E3","img_art/15.jpg","2","","","","","","","","","","","","","","","","","","","","","","","","",""
"2783","","image-button-response","209","1585896","0.0-207.0-0.0","A34CBV74LOV6E3","img_art/15.jpg","3","","","","","","","","","","","","","","","","","","","","","","","","",""
"null","","html-keyboard-response","210","1587398","0.0-208.0","A34CBV74LOV6E3","<p style=""font-size: 48px;"">+</p>","","","","","null","allTrialResponses","1500","1","23","img_art/15.jpg","-17","Cluttered like trying to get through brush. Not really into it.","Joseph,Justin,Mark,Tristan,Thomas,Lucas","Bushes, good! Life, good!,12,220,20","Color scheme and design are rather boring.,-10,280,20","Chameleons on reeds. Nice but doesn't really make me feel anything.,11,80,20","basic colors and pleasing shapes providing a calming effect,15,300,20","Interesting, and I don't dislike it.,9,220,20","I can't see the meaning of the painting.,-30,380,20","Joseph","Bushes, good! Life, good!,12,220,20","Mark","Chameleons on reeds. Nice but doesn't really make me feel anything.,11,80,20","Tristan","basic colors and pleasing shapes providing a calming effect,15,300,20","4"
"29042","","survey-text","211","1616448","0.0-209.0-0.0","A34CBV74LOV6E3","","","","{""Q0"":""Trapped in the woods but you can see the destination in the distance. ""}","","","","","","","","","","","","","","","","","","","","","","",""
"3103","","image-slider-response","212","1619552","0.0-210.0","A34CBV74LOV6E3","","","","","-15","","","","","","","","","","","","","","","","","","","","","",""
"null","","image-button-response","213","1624558","0.0-211.0","A34CBV74LOV6E3","img_art/27.jpg","null","","","","","","","","","","","","","","","","","","","","","","","","",""
"3520","","image-button-response","214","1628080","0.0-212.0","A34CBV74LOV6E3","img_art/27.jpg","3","","","","","","","","","","","","","","","","","","","","","","","","",""
"9958","","image-button-response","215","1638040","0.0-213.0-0.0","A34CBV74LOV6E3","img_art/27.jpg","2","","","","","","","","","","","","","","","","","","","","","","","","",""
"2286","","image-button-response","216","1640328","0.0-214.0-0.0","A34CBV74LOV6E3","img_art/27.jpg","0","","","","","","","","","","","","","","","","","","","","","","","","",""
"null","","html-keyboard-response","217","1640830","0.0-215.0","A34CBV74LOV6E3","<p style=""font-size: 48px;"">+</p>","","","","","null","allTrialResponses","500","1","24","img_art/27.jpg","-15","Trapped in the woods but you can see the destination in the distance. ","Joseph,Adrian,Mark,Tristan,Mitchell,Eric","Don't know what it is, but I do like it.,10,220,20","Looks like my niece's doodles.,-50,60,20","I see a cathedral through the woods.,12,80,20","The colors provide a complexity to the nearly child-like sketches.,5,300,20","Angelic, childlike. happiness but also with sadness.,40,180,20","This piece reminds me of a summer day.,30,100,20","Tristan","The colors provide a complexity to the nearly child-like sketches.,5,300,20","Mark","I see a cathedral through the woods.,12,80,20","Joseph","Don't know what it is, but I do like it.,10,220,20","4"
"29384","","survey-text","218","1670224","0.0-216.0-0.0","A34CBV74LOV6E3","","","","{""Q0"":""It made me smile. It is almost like a plant growing out of a sketchbook or art supplies.""}","","","","","","","","","","","","","","","","","","","","","","",""
"2166.3000000715256","","image-slider-response","219","1672391","0.0-217.0","A34CBV74LOV6E3","","","","","22","","","","","","","","","","","","","","","","","","","","","",""
"null","","image-button-response","220","1677399","0.0-218.0","A34CBV74LOV6E3","img_art/14.jpg","null","","","","","","","","","","","","","","","","","","","","","","","","",""
"3287","","image-button-response","221","1680688","0.0-219.0","A34CBV74LOV6E3","img_art/14.jpg","0","","","","","","","","","","","","","","","","","","","","","","","","",""
"5614","","image-button-response","222","1686304","0.0-220.0-0.0","A34CBV74LOV6E3","img_art/14.jpg","1","","","","","","","","","","","","","","","","","","","","","","","","",""
"774","","image-button-response","223","1687080","0.0-221.0-0.0","A34CBV74LOV6E3","img_art/14.jpg","5","","","","","","","","","","","","","","","","","","","","","","","","",""
"null","","html-keyboard-response","224","1687581","0.0-222.0","A34CBV74LOV6E3","<p style=""font-size: 48px;"">+</p>","","","","","null","allTrialResponses","500","1","25","img_art/14.jpg","22","It made me smile. It is almost like a plant growing out of a sketchbook or art supplies.","Joseph,David,Mark,Tristan,Connor,Jesus","I like that it looks like plants on a table, which reminds me of life.,4,220,20","I like how balanced the piece is with its symmetrical design.,20,340,20","Cute little plant.,15,80,20","In others I might say the colors are garish. Here it works perfectly. The balance is wondrous and unlimiting.,25,300,20","Looks childish and basic,-42,240,20","I like the combination of colors and textures.,35,100,20","Joseph","I like that it looks like plants on a table, which reminds me of life.,4,220,20","David","I like how balanced the piece is with its symmetrical design.,20,340,20","Jesus","I like the combination of colors and textures.,35,100,20","4"
"4276","","survey-text","225","1691871","0.0-223.0-0.0","A34CBV74LOV6E3","","","","{""Q0"":""table""}","","","","","","","","","","","","","","","","","","","","","","",""
"24191","","survey-text","226","1716064","0.0-224.0-0.0","A34CBV74LOV6E3","","","","{""Q0"":""My first thought was Venice. a city on the water. But there is a storm coming.""}","","","","","","","","","","","","","","","","","","","","","","",""
"3846.5","","image-slider-response","227","1719912","0.0-225.0","A34CBV74LOV6E3","","","","","15","","","","","","","","","","","","","","","","","","","","","",""
"null","","image-button-response","228","1724914","0.0-226.0","A34CBV74LOV6E3","img_art/11.jpg","null","","","","","","","","","","","","","","","","","","","","","","","","",""
"1394","","image-button-response","229","1726312","0.0-227.0","A34CBV74LOV6E3","img_art/11.jpg","1","","","","","","","","","","","","","","","","","","","","","","","","",""
"5110","","image-button-response","230","1731424","0.0-228.0-0.0","A34CBV74LOV6E3","img_art/11.jpg","5","","","","","","","","","","","","","","","","","","","","","","","","",""
"902","","image-button-response","231","1732328","0.0-229.0-0.0","A34CBV74LOV6E3","img_art/11.jpg","2","","","","","","","","","","","","","","","","","","","","","","","","",""
"null","","html-keyboard-response","232","1732830","0.0-230.0","A34CBV74LOV6E3","<p style=""font-size: 48px;"">+</p>","","","","","null","allTrialResponses","500","1","26","img_art/11.jpg","15","My first thought was Venice. a city on the water. But there is a storm coming.","Joseph,David,Edward,Miguel,Jeffrey,Jesus","I like that it could be train tracks, or telephone wires, etc. It's always a means of getting from a to b.,15,220,20","I like how this piece can be interpreted in different ways, such as a village on hilly terrain.,10,340,20","Reminds me of a city and how chaotic it can be,22,60,20","Good but not eye catching,14,160,20","a lot of dark colours,-8,40,20","The different textures and colors make this pleasing to look at.,30,100,20","David","I like how this piece can be interpreted in different ways, such as a village on hilly terrain.,10,340,20","Jesus","The different textures and colors make this pleasing to look at.,30,100,20","Edward","Reminds me of a city and how chaotic it can be,22,60,20","4"
"33114","","survey-text","233","1765951","0.0-231.0-0.0","A34CBV74LOV6E3","","","","{""Q0"":""Old west town with a skull up front. I feel unsettled because it feels like something bad is about to happen.""}","","","","","","","","","","","","","","","","","","","","","","",""
"2870.600000023842","","image-slider-response","234","1768823","0.0-232.0","A34CBV74LOV6E3","","","","","-5","","","","","","","","","","","","","","","","","","","","","",""
"null","","image-button-response","235","1773827","0.0-233.0","A34CBV74LOV6E3","img_art/20.jpg","null","","","","","","","","","","","","","","","","","","","","","","","","",""
"7378","","image-button-response","236","1781208","0.0-234.0","A34CBV74LOV6E3","img_art/20.jpg","3","","","","","","","","","","","","","","","","","","","","","","","","",""
"894","","image-button-response","237","1782104","0.0-235.0-0.0","A34CBV74LOV6E3","img_art/20.jpg","1","","","","","","","","","","","","","","","","","","","","","","","","",""
"1622","","image-button-response","238","1783728","0.0-236.0-0.0","A34CBV74LOV6E3","img_art/20.jpg","0","","","","","","","","","","","","","","","","","","","","","","","","",""
"null","","html-keyboard-response","239","1784729","0.0-237.0","A34CBV74LOV6E3","<p style=""font-size: 48px;"">+</p>","","","","","null","allTrialResponses","1000","1","27","img_art/20.jpg","-5","Old west town with a skull up front. I feel unsettled because it feels like something bad is about to happen.","Isaac,David,Edward,Ian,Elijah,Jesus","It is abstract but it looks neat.,15,280,20","I like how the image is depicting a scene.,10,340,20","I can't tell what's going on but I like the colors,12,60,20","A painting within a painting, the inner painting looks like a car crash with a semi truck.,21,260,20","Makes me feel impressed,9,80,20","Shapes are fun to interpret,21,100,20","Ian","A painting within a painting, the inner painting looks like a car crash with a semi truck.,21,260,20","David","I like how the image is depicting a scene.,10,340,20","Isaac","It is abstract but it looks neat.,15,280,20","4"
"25489","","survey-text","240","1810224","0.0-238.0-0.0","A34CBV74LOV6E3","","","","{""Q0"":""A little chaotic but also vaguely feels like a market place.""}","","","","","","","","","","","","","","","","","","","","","","",""
"2518.399999976158","","image-slider-response","241","1812744","0.0-239.0","A34CBV74LOV6E3","","","","","-5","","","","","","","","","","","","","","","","","","","","","",""
"null","","image-button-response","242","1817750","0.0-240.0","A34CBV74LOV6E3","img_art/19.jpg","null","","","","","","","","","","","","","","","","","","","","","","","","",""
"5544","","image-button-response","243","1823296","0.0-241.0","A34CBV74LOV6E3","img_art/19.jpg","5","","","","","","","","","","","","","","","","","","","","","","","","",""
"1590","","image-button-response","244","1824888","0.0-242.0-0.0","A34CBV74LOV6E3","img_art/19.jpg","2","","","","","","","","","","","","","","","","","","","","","","","","",""
"2038","","image-button-response","245","1826928","0.0-243.0-0.0","A34CBV74LOV6E3","img_art/19.jpg","1","","","","","","","","","","","","","","","","","","","","","","","","",""
"null","","html-keyboard-response","246","1828442","0.0-244.0","A34CBV74LOV6E3","<p style=""font-size: 48px;"">+</p>","","","","","null","allTrialResponses","1500","1","28","img_art/19.jpg","-5","A little chaotic but also vaguely feels like a market place.","Isaac,David,Jeremy,Ian,Alexis,Daniel","It is too busy.,-34,280,20","The image doesn't really invoke any emotions strongly.,0,340,20","it's too busy for me. Makes me feel stressed.,1,60,20","It looks cool but at the time looks like it was done by a talented 5 year old.,13,260,20","it looks messy and non-unique.,-9,140,20","Simple, scratchy lack of negative space.,-10,320,20","Daniel","Simple, scratchy lack of negative space.,-10,320,20","Jeremy","it's too busy for me. Makes me feel stressed.,1,60,20","David","The image doesn't really invoke any emotions strongly.,0,340,20","4"
"35796","","survey-text","247","1864247","0.0-245.0-0.0","A34CBV74LOV6E3","","","","{""Q0"":""The Lorax. That last truffula tree. It feels very lonely and heartbreaking.""}","","","","","","","","","","","","","","","","","","","","","","",""
"3238.399999976158","","image-slider-response","248","1867487","0.0-246.0","A34CBV74LOV6E3","","","","","6","","","","","","","","","","","","","","","","","","","","","",""
"null","","image-button-response","249","1872489","0.0-247.0","A34CBV74LOV6E3","img_art/6.jpg","null","","","","","","","","","","","","","","","","","","","","","","","","",""
"4629","","image-button-response","250","1877120","0.0-248.0","A34CBV74LOV6E3","img_art/6.jpg","4","","","","","","","","","","","","","","","","","","","","","","","","",""
"4110","","image-button-response","251","1881232","0.0-249.0-0.0","A34CBV74LOV6E3","img_art/6.jpg","3","","","","","","","","","","","","","","","","","","","","","","","","",""
"2246","","image-button-response","252","1883480","0.0-250.0-0.0","A34CBV74LOV6E3","img_art/6.jpg","1","","","","","","","","","","","","","","","","","","","","","","","","",""
"null","","html-keyboard-response","253","1883981","0.0-251.0","A34CBV74LOV6E3","<p style=""font-size: 48px;"">+</p>","","","","","null","allTrialResponses","500","1","29","img_art/6.jpg","6","The Lorax. That last truffula tree. It feels very lonely and heartbreaking.","Andrew,David,Jeremy,Jorge,Noah,Daniel","Reminds me of my friend's bird,21,160,20","I like the simplicity of the piece.,10,340,20","Kind of boring. I don't care for many abstracts,1,60,20","seeds of change,11,180,20","intrigues me - not sure what I'm seeing, but I like combination of colour and texture,21,260,20","Odd desert, nice sand color with headless bird,11,320,20","Noah","intrigues me - not sure what I'm seeing, but I like combination of colour and texture,21,260,20","Jorge","seeds of change,11,180,20","David","I like the simplicity of the piece.,10,340,20","4"
"28388","","survey-text","254","1912384","0.0-252.0-0.0","A34CBV74LOV6E3","","","","{""Q0"":""Looks like fossils poking through rock. I like the texture but that is about it.""}","","","","","","","","","","","","","","","","","","","","","","",""
"2494.600000023842","","image-slider-response","255","1914880","0.0-253.0","A34CBV74LOV6E3","","","","","-20","","","","","","","","","","","","","","","","","","","","","",""
"null","","image-button-response","256","1919888","0.0-254.0","A34CBV74LOV6E3","img_art/7.jpg","null","","","","","","","","","","","","","","","","","","","","","","","","",""
"3566","","image-button-response","257","1923456","0.0-255.0","A34CBV74LOV6E3","img_art/7.jpg","1","","","","","","","","","","","","","","","","","","","","","","","","",""
"5118","","image-button-response","258","1928576","0.0-256.0-0.0","A34CBV74LOV6E3","img_art/7.jpg","5","","","","","","","","","","","","","","","","","","","","","","","","",""
"4742","","image-button-response","259","1933320","0.0-257.0-0.0","A34CBV74LOV6E3","img_art/7.jpg","4","","","","","","","","","","","","","","","","","","","","","","","","",""
"null","","html-keyboard-response","260","1933821","0.0-258.0","A34CBV74LOV6E3","<p style=""font-size: 48px;"">+</p>","","","","","null","allTrialResponses","500","1","30","img_art/7.jpg","-20","Looks like fossils poking through rock. I like the texture but that is about it.","Paul,David,Taylor,Jorge,Noah,Nathan","It looks like bloody scabs on skin, I don't like it,-42,300,20","I like how the image has a sense of history, since the style looks like it came from stone.,20,340,20","Looks like a photo taken from the moon.,-6,200,20","time and change,1,180,20","elicits no real response,0,260,20","I don't like this kind of color scheme or look they went for,-50,200,20","David","I like how the image has a sense of history, since the style looks like it came from stone.,20,340,20","Nathan","I don't like this kind of color scheme or look they went for,-50,200,20","Noah","elicits no real response,0,260,20","4"
"2668","","image-button-response_instructions","261","1936496","0.0-259.0","A34CBV74LOV6E3","","0","instructions","","","","","","","","","","","","","","","","","","","","","","","",""
"1027","","image-button-response","262","1937527","0.0-260.0","A34CBV74LOV6E3","","0","","","","","","","","","","","","","","","","","","","","","","","","",""
