"rt","url","trial_type","trial_index","time_elapsed","internal_node_id","participant_id","stimulus","button_pressed","Name","responses","response","key_press","variableName","fixationTime","condition","trial","photo","subjectRating","subjectResponse","agentsNames","agent_1_Response","agent_2_Response","agent_3_Response","agent_4_Response","agent_5_Response","agent_6_Response","kept_1_name","kept_1_response","kept_2_name","kept_2_response","kept_3_name","kept_3_response","errorCounter"
"12198","external_page_harvard.html","external-html","0","12547","0.0-0.0","A34EHWOYRBL6OZ","","","","","","","","","","","","","","","","","","","","","","","","","","",""
"2380","","image-button-response","1","14933","0.0-1.0","A34EHWOYRBL6OZ","","1","","","","","","","","","","","","","","","","","","","","","","","","",""
"1613","","image-button-response","2","16560","0.0-2.0-0.0","A34EHWOYRBL6OZ","","1","phone","","","","","","","","","","","","","","","","","","","","","","","",""
"9520","","survey-text","3","26084","0.0-3.0-0.0","A34EHWOYRBL6OZ","","","","{""Q0"":""A34EHWOYRBL6OZ""}","","","","","","","","","","","","","","","","","","","","","","",""
"9154","","image-button-response_instructions","4","35244","0.0-4.0","A34EHWOYRBL6OZ","","0","instructions","","","","","","","","","","","","","","","","","","","","","","","",""
"15537","","image-button-response_instructions","5","50784","0.0-5.0","A34EHWOYRBL6OZ","img_art/ins/popularity/ins1.png","0","instructions","","","","","","","","","","","","","","","","","","","","","","","",""
"7173","","image-button-response_instructions","6","57960","0.0-6.0","A34EHWOYRBL6OZ","img_art/ins/popularity/ins2.png","0","instructions","","","","","","","","","","","","","","","","","","","","","","","",""
"7963","","image-button-response_instructions","7","65926","0.0-7.0","A34EHWOYRBL6OZ","img_art/ins/popularity/ins2Extreme.png","0","instructions","","","","","","","","","","","","","","","","","","","","","","","",""
"5969","","image-button-response_instructions","8","71898","0.0-8.0","A34EHWOYRBL6OZ","img_art/ins/popularity/ins3KEEPpop.PNG","0","instructions","","","","","","","","","","","","","","","","","","","","","","","",""
"5271","","image-button-response_instructions","9","77172","0.0-9.0","A34EHWOYRBL6OZ","img_art/ins/popularity/ins3ANamepop.PNG","0","instructions","","","","","","","","","","","","","","","","","","","","","","","",""
"17313","","image-button-response_instructions","10","94488","0.0-10.0","A34EHWOYRBL6OZ","img_art/ins/popularity/ins3ARatingpop.png","0","instructions","","","","","","","","","","","","","","","","","","","","","","","",""
"5163","","image-button-response_instructions","11","99653","0.0-11.0","A34EHWOYRBL6OZ","img_art/ins/popularity/ins3ATextpop.png","0","instructions","","","","","","","","","","","","","","","","","","","","","","","",""
"12361","","image-button-response_instructions","12","112018","0.0-12.0","A34EHWOYRBL6OZ","img_art/ins/popularity/ins3ALikespop.png","0","instructions","","","","","","","","","","","","","","","","","","","","","","","",""
"8276","","image-button-response_instructions","13","120297","0.0-13.0","A34EHWOYRBL6OZ","img_art/ins/popularity/ins3KEEPpop.PNG","0","instructions","","","","","","","","","","","","","","","","","","","","","","","",""
"7111","","image-button-response_instructions","14","127411","0.0-14.0","A34EHWOYRBL6OZ","img_art/ins/popularity/ins3_5RED.png","0","instructions","","","","","","","","","","","","","","","","","","","","","","","",""
"3856","","image-button-response_instructions","15","131270","0.0-15.0","A34EHWOYRBL6OZ","img_art/ins/popularity/ins3KEEPpop.PNG","0","instructions","","","","","","","","","","","","","","","","","","","","","","","",""
"6830","","image-button-response_instructions","16","138104","0.0-16.0","A34EHWOYRBL6OZ","img_art/ins/popularity/ins4KEEPpop.PNG","0","instructions","","","","","","","","","","","","","","","","","","","","","","","",""
"4145","","image-button-response_instructions","17","142251","0.0-17.0","A34EHWOYRBL6OZ","img_art/ins/popularity/ins5KEEPpop.PNG","0","instructions","","","","","","","","","","","","","","","","","","","","","","","",""
"6588","","image-button-response_instructions","18","148842","0.0-18.0","A34EHWOYRBL6OZ","","0","instructions","","","","","","","","","","","","","","","","","","","","","","","",""
"6094","","survey-text","19","154993","0.0-19.0-0.0","A34EHWOYRBL6OZ","","","","{""Q0"":""but""}","","","","","","","","","","","","","","","","","","","","","","",""
"24295","","survey-text","20","179293","0.0-20.0-0.0","A34EHWOYRBL6OZ","","","","{""Q0"":""I like it. The colors remind me of a field of flowers.""}","","","","","","","","","","","","","","","","","","","","","","",""
"2653.7999999988824","","image-slider-response","21","181953","0.0-21.0","A34EHWOYRBL6OZ","","","","","34","","","","","","","","","","","","","","","","","","","","","",""
"null","","image-button-response","22","186963","0.0-22.0","A34EHWOYRBL6OZ","img_art/ins/1.jpg","null","","","","","","","","","","","","","","","","","","","","","","","","",""
"10462","","image-button-response","23","197433","0.0-23.0","A34EHWOYRBL6OZ","img_art/ins/1.jpg","4","","","","","","","","","","","","","","","","","","","","","","","","",""
"1614","","image-button-response","24","199053","0.0-24.0-0.0","A34EHWOYRBL6OZ","img_art/ins/1.jpg","5","","","","","","","","","","","","","","","","","","","","","","","","",""
"2411","","image-button-response","25","201471","0.0-25.0-0.0","A34EHWOYRBL6OZ","img_art/ins/1.jpg","0","","","","","","","","","","","","","","","","","","","","","","","","",""
"null","","html-keyboard-response","26","201977","0.0-26.0","A34EHWOYRBL6OZ","<p style=""font-size: 48px;"">+</p>","","","","","null","allTrialResponses","500","1","-2","img_art/ins/1.jpg","34","I like it. The colors remind me of a field of flowers.","Allison,Ashley,Beth,Dora,Erika,Jen","looks like a lot of things going on in the mist,20,20,20","I just don't get why these type of art would be popular,-32,40,20","This color reminds me of poo,-46,60,20","looks like what my niece in 3rd grade did this afternoon,-50,80,20","I like the sophisticated brushwork,40,100,20","It reminds me of a candy land dream I had,36,120,20","Erika","I like the sophisticated brushwork,40,100,20","Jen","It reminds me of a candy land dream I had,36,120,20","Allison","looks like a lot of things going on in the mist,20,20,20","0"
"26533","","survey-text","27","228530","0.0-27.0-0.0","A34EHWOYRBL6OZ","","","","{""Q0"":""It looks like the artist was in turmoil about something.""}","","","","","","","","","","","","","","","","","","","","","","",""
"2711.2999999988824","","image-slider-response","28","231246","0.0-28.0","A34EHWOYRBL6OZ","","","","","26","","","","","","","","","","","","","","","","","","","","","",""
"null","","image-button-response","29","236255","0.0-29.0","A34EHWOYRBL6OZ","img_art/ins/2.jpg","null","","","","","","","","","","","","","","","","","","","","","","","","",""
"5724","","image-button-response","30","241985","0.0-30.0","A34EHWOYRBL6OZ","img_art/ins/2.jpg","5","","","","","","","","","","","","","","","","","","","","","","","","",""
"2186","","image-button-response","31","244176","0.0-31.0-0.0","A34EHWOYRBL6OZ","img_art/ins/2.jpg","1","","","","","","","","","","","","","","","","","","","","","","","","",""
"2539","","image-button-response","32","246721","0.0-32.0-0.0","A34EHWOYRBL6OZ","img_art/ins/2.jpg","4","","","","","","","","","","","","","","","","","","","","","","","","",""
"null","","html-keyboard-response","33","247726","0.0-33.0","A34EHWOYRBL6OZ","<p style=""font-size: 48px;"">+</p>","","","","","null","allTrialResponses","1000","1","-1","img_art/ins/2.jpg","26","It looks like the artist was in turmoil about something.","Allison,Kara,Katie,Jenna,Erika,Jen","I don't have strong feelings about this,10,20,20","I like the blocks of color arrangements,30,160,20","too much color!,-28,180,20","One of my pet peevs,-48,140,20","I would never be able to compose a sophisticated pallete like this,48,100,20","It reminds me of a fireplace,36,120,20","Jen","It reminds me of a fireplace,36,120,20","Kara","I like the blocks of color arrangements,30,160,20","Erika","I would never be able to compose a sophisticated pallete like this,48,100,20","0"
"15242","","survey-text","34","262999","0.0-34.0-0.0","A34EHWOYRBL6OZ","","","","{""Q0"":""It reminds me of Ice and snow.""}","","","","","","","","","","","","","","","","","","","","","","",""
"3322.199999999255","","image-slider-response","35","266325","0.0-35.0","A34EHWOYRBL6OZ","","","","","43","","","","","","","","","","","","","","","","","","","","","",""
"3584","","image-button-response","36","271333","0.0-36.0","A34EHWOYRBL6OZ","img_art/ins/3.jpg","1","","","","","","","","","","","","","","","","","","","","","","","","",""
"1226","","image-button-response","37","272564","0.0-37.0","A34EHWOYRBL6OZ","img_art/ins/3.jpg","1","","","","","","","","","","","","","","","","","","","","","","","","",""
"2310","","image-button-response","38","274880","0.0-38.0-0.0","A34EHWOYRBL6OZ","img_art/ins/3.jpg","4","","","","","","","","","","","","","","","","","","","","","","","","",""
"1291","","image-button-response","39","276178","0.0-39.0-0.0","A34EHWOYRBL6OZ","img_art/ins/3.jpg","5","","","","","","","","","","","","","","","","","","","","","","","","",""
"null","","html-keyboard-response","40","276682","0.0-40.0","A34EHWOYRBL6OZ","<p style=""font-size: 48px;"">+</p>","","","","","null","allTrialResponses","500","1","0","img_art/ins/3.jpg","43","It reminds me of Ice and snow.","Mary,Kara,Rose,Leslie,Erika,Jen","I like the overlapping of brushes,41,220,20","calming blue is very nice,36,160,20","My daily routine, it's depressing,-20,240,20","It's an alright work,15,200,20","I feel connected to the artist,40,100,20","I can feel a rainy day from this painting,18,120,20","Kara","calming blue is very nice,36,160,20","Erika","I feel connected to the artist,40,100,20","Jen","I can feel a rainy day from this painting,18,120,20","0"
"50542","","image-button-response_instructions","41","327241","0.0-41.0","A34EHWOYRBL6OZ","","0","instructions","","","","","","","","","","","","","","","","","","","","","","","",""
"7503","","survey-likert","42","334749","0.0-42.0-0.0","A34EHWOYRBL6OZ","","","","{""Q0"":"""",""Q1"":0,""Q2"":1}","","","","","","","","","","","","","","","","","","","","","","",""
"4287","","survey-text","43","339059","0.0-43.0-0.0","A34EHWOYRBL6OZ","","","","{""Q0"":""rock""}","","","","","","","","","","","","","","","","","","","","","","",""
"17805","","survey-text","44","356867","0.0-44.0-0.0","A34EHWOYRBL6OZ","","","","{""Q0"":""This reminds me of sand and rocks.""}","","","","","","","","","","","","","","","","","","","","","","",""
"2805.5999999996275","","image-slider-response","45","359676","0.0-45.0","A34EHWOYRBL6OZ","","","","","32","","","","","","","","","","","","","","","","","","","","","",""
"null","","image-button-response","46","364747","0.0-46.0","A34EHWOYRBL6OZ","img_art/7.jpg","null","","","","","","","","","","","","","","","","","","","","","","","","",""
"2094","","image-button-response","47","366845","0.0-47.0","A34EHWOYRBL6OZ","img_art/7.jpg","2","","","","","","","","","","","","","","","","","","","","","","","","",""
"2365","","image-button-response","48","369217","0.0-48.0-0.0","A34EHWOYRBL6OZ","img_art/7.jpg","4","","","","","","","","","","","","","","","","","","","","","","","","",""
"4486","","image-button-response","49","373710","0.0-49.0-0.0","A34EHWOYRBL6OZ","img_art/7.jpg","3","","","","","","","","","","","","","","","","","","","","","","","","",""
"null","","html-keyboard-response","50","374216","0.0-50.0","A34EHWOYRBL6OZ","<p style=""font-size: 48px;"">+</p>","","","","","null","allTrialResponses","500","1","1","img_art/7.jpg","32","This reminds me of sand and rocks.","Mary,Nicole,Isabella,Jenna,Leah,Kimberly","This reminds me of a close up photo of a stone wall.,-19,180,20","Looks like the surface of mars,29,20,20","Dessert like almost like dry land,4,280,20","reminds me of a desert from far above,23,360,20","I love it, it looks like a landscape photograph in desert or rocky mountain,50,360,20","Looks like a bad picture of a beach,-21,260,20","Isabella","Dessert like almost like dry land,4,280,20","Leah","I love it, it looks like a landscape photograph in desert or rocky mountain,50,360,20","Jenna","reminds me of a desert from far above,23,360,20","0"
"14946","","survey-text","51","389184","0.0-51.0-0.0","A34EHWOYRBL6OZ","","","","{""Q0"":""It looks like the bottom half of a bird.""}","","","","","","","","","","","","","","","","","","","","","","",""
"2602","","image-slider-response","52","391791","0.0-52.0","A34EHWOYRBL6OZ","","","","","43","","","","","","","","","","","","","","","","","","","","","",""
"null","","image-button-response","53","396800","0.0-53.0","A34EHWOYRBL6OZ","img_art/6.jpg","null","","","","","","","","","","","","","","","","","","","","","","","","",""
"6766","","image-button-response","54","403572","0.0-54.0","A34EHWOYRBL6OZ","img_art/6.jpg","1","","","","","","","","","","","","","","","","","","","","","","","","",""
"2241","","image-button-response","55","405820","0.0-55.0-0.0","A34EHWOYRBL6OZ","img_art/6.jpg","2","","","","","","","","","","","","","","","","","","","","","","","","",""
"13528","","image-button-response","56","419356","0.0-56.0-0.0","A34EHWOYRBL6OZ","img_art/6.jpg","3","","","","","","","","","","","","","","","","","","","","","","","","",""
"null","","html-keyboard-response","57","420360","0.0-57.0","A34EHWOYRBL6OZ","<p style=""font-size: 48px;"">+</p>","","","","","null","allTrialResponses","1000","1","2","img_art/6.jpg","43","It looks like the bottom half of a bird.","Chelsea,Gabrielle,Isabella,Jenna,Leah,Alexa","It looks like one tall ugly bird.,-43,180,20","simplistic but reminds me of a crow in a field,-10,160,20","A bird standing in the sun,37,280,20","I like the bottom half, but not the top,-7,360,20","Boring, looks like a sad tree in wind,-37,360,20","Too basic for me,-20,40,20","Gabrielle","simplistic but reminds me of a crow in a field,-10,160,20","Isabella","A bird standing in the sun,37,280,20","Jenna","I like the bottom half, but not the top,-7,360,20","0"
"51248","","survey-text","58","471627","0.0-58.0-0.0","A34EHWOYRBL6OZ","","","","{""Q0"":""it reminds me of an octopus or some other sea creature.""}","","","","","","","","","","","","","","","","","","","","","","",""
"3588.2999999988824","","image-slider-response","59","475220","0.0-59.0","A34EHWOYRBL6OZ","","","","","21","","","","","","","","","","","","","","","","","","","","","",""
"null","","image-button-response","60","480229","0.0-60.0","A34EHWOYRBL6OZ","img_art/30.jpg","null","","","","","","","","","","","","","","","","","","","","","","","","",""
"3030","","image-button-response","61","483267","0.0-61.0","A34EHWOYRBL6OZ","img_art/30.jpg","4","","","","","","","","","","","","","","","","","","","","","","","","",""
"1534","","image-button-response","62","484808","0.0-62.0-0.0","A34EHWOYRBL6OZ","img_art/30.jpg","3","","","","","","","","","","","","","","","","","","","","","","","","",""
"1050","","image-button-response","63","485864","0.0-63.0-0.0","A34EHWOYRBL6OZ","img_art/30.jpg","0","","","","","","","","","","","","","","","","","","","","","","","","",""
"null","","html-keyboard-response","64","486369","0.0-64.0","A34EHWOYRBL6OZ","<p style=""font-size: 48px;"">+</p>","","","","","null","allTrialResponses","500","1","3","img_art/30.jpg","21","it reminds me of an octopus or some other sea creature.","Jessica,Gabrielle,Isabella,Jenna,Mackenzie,Kylie","Looks cool , but no meaning,1,400,20","looks very childish, like your kid did it,-33,160,20","I like the back but the red lines in the front distress me,-7,280,20","love the movement of the brush strokes. very interesting piece.,38,360,20","I like the forefront design.,10,20,20","I can't figure this out,25,300,20","Mackenzie","I like the forefront design.,10,20,20","Jenna","love the movement of the brush strokes. very interesting piece.,38,360,20","Jessica","Looks cool , but no meaning,1,400,20","0"
"28875","","survey-text","65","515283","0.0-65.0-0.0","A34EHWOYRBL6OZ","","","","{""Q0"":""It reminds me of a city street.""}","","","","","","","","","","","","","","","","","","","","","","",""
"4380.60000000149","","image-slider-response","66","519668","0.0-66.0","A34EHWOYRBL6OZ","","","","","46","","","","","","","","","","","","","","","","","","","","","",""
"null","","image-button-response","67","524677","0.0-67.0","A34EHWOYRBL6OZ","img_art/26.jpg","null","","","","","","","","","","","","","","","","","","","","","","","","",""
"2691","","image-button-response","68","527376","0.0-68.0","A34EHWOYRBL6OZ","img_art/26.jpg","2","","","","","","","","","","","","","","","","","","","","","","","","",""
"2388","","image-button-response","69","529771","0.0-69.0-0.0","A34EHWOYRBL6OZ","img_art/26.jpg","5","","","","","","","","","","","","","","","","","","","","","","","","",""
"2929","","image-button-response","70","532708","0.0-70.0-0.0","A34EHWOYRBL6OZ","img_art/26.jpg","3","","","","","","","","","","","","","","","","","","","","","","","","",""
"null","","html-keyboard-response","71","534213","0.0-71.0","A34EHWOYRBL6OZ","<p style=""font-size: 48px;"">+</p>","","","","","null","allTrialResponses","1500","1","4","img_art/26.jpg","46","It reminds me of a city street.","Jessica,Caitlin,Jamie,Jenna,Mackenzie,Rachel","It doesn't look so vibrant, I'm not sure what feelings they were trying to capture,-41,400,20","At least it is a bit of scenery.,10,80,20","Street corner on a sunny day,5,320,20","soft colors & brush work. very easy to look at. makes me happy.,50,360,20","Very interesting to look at, I like the shapes, textures and colors.,30,20,20","Pretty trees and bushes around fancy brown stones. I like the soft nature.,20,80,20","Jamie","Street corner on a sunny day,5,320,20","Rachel","Pretty trees and bushes around fancy brown stones. I like the soft nature.,20,80,20","Jenna","soft colors & brush work. very easy to look at. makes me happy.,50,360,20","0"
"26322","","survey-text","72","560579","0.0-72.0-0.0","A34EHWOYRBL6OZ","","","","{""Q0"":""It is very colorful and interesting.""}","","","","","","","","","","","","","","","","","","","","","","",""
"2788.699999999255","","image-slider-response","73","563372","0.0-73.0","A34EHWOYRBL6OZ","","","","","29","","","","","","","","","","","","","","","","","","","","","",""
"1997","","image-button-response","74","568381","0.0-74.0","A34EHWOYRBL6OZ","img_art/23.jpg","1","","","","","","","","","","","","","","","","","","","","","","","","",""
"511","","image-button-response","75","568900","0.0-75.0","A34EHWOYRBL6OZ","img_art/23.jpg","1","","","","","","","","","","","","","","","","","","","","","","","","",""
"5859","","image-button-response","76","574765","0.0-76.0-0.0","A34EHWOYRBL6OZ","img_art/23.jpg","5","","","","","","","","","","","","","","","","","","","","","","","","",""
"1529","","image-button-response","77","576299","0.0-77.0-0.0","A34EHWOYRBL6OZ","img_art/23.jpg","3","","","","","","","","","","","","","","","","","","","","","","","","",""
"null","","html-keyboard-response","78","577304","0.0-78.0","A34EHWOYRBL6OZ","<p style=""font-size: 48px;"">+</p>","","","","","null","allTrialResponses","1000","1","5","img_art/23.jpg","29","It is very colorful and interesting.","Ashley,Alexandra,Jamie,Jenna,Abigail,Rachel","A line dance, it's really strinkingly beautiful.,50,320,20","This is my favorite of them all. I love the colors.,41,60,20","Reminds me of outer space and the stars,30,320,20","awesome colors. love the white drawing the eye to the center. oddly comforting.,50,360,20","I like the contrast,29,20,20","Vivid colors and the white in the middle looks like people dancing.,31,80,20","Alexandra","This is my favorite of them all. I love the colors.,41,60,20","Rachel","Vivid colors and the white in the middle looks like people dancing.,31,80,20","Jenna","awesome colors. love the white drawing the eye to the center. oddly comforting.,50,360,20","0"
"6658","","survey-text","79","584016","0.0-79.0-0.0","A34EHWOYRBL6OZ","","","","{""Q0"":""sky""}","","","","","","","","","","","","","","","","","","","","","","",""
"16554","","survey-text","80","600573","0.0-80.0-0.0","A34EHWOYRBL6OZ","","","","{""Q0"":""It looks like water running over some rocks.""}","","","","","","","","","","","","","","","","","","","","","","",""
"3502.800000000745","","image-slider-response","81","604081","0.0-81.0","A34EHWOYRBL6OZ","","","","","42","","","","","","","","","","","","","","","","","","","","","",""
"4661","","image-button-response","82","609093","0.0-82.0","A34EHWOYRBL6OZ","img_art/24.jpg","1","","","","","","","","","","","","","","","","","","","","","","","","",""
"1683","","image-button-response","83","610787","0.0-83.0","A34EHWOYRBL6OZ","img_art/24.jpg","1","","","","","","","","","","","","","","","","","","","","","","","","",""
"4386","","image-button-response","84","615178","0.0-84.0-0.0","A34EHWOYRBL6OZ","img_art/24.jpg","5","","","","","","","","","","","","","","","","","","","","","","","","",""
"6144","","image-button-response","85","621329","0.0-85.0-0.0","A34EHWOYRBL6OZ","img_art/24.jpg","4","","","","","","","","","","","","","","","","","","","","","","","","",""
"null","","html-keyboard-response","86","622335","0.0-86.0","A34EHWOYRBL6OZ","<p style=""font-size: 48px;"">+</p>","","","","","null","allTrialResponses","1000","1","6","img_art/24.jpg","42","It looks like water running over some rocks.","Crystal,Alexandra,Destiny,Jenna,Kaitlin,Rachel","I don't like this painting because of its blottedness. It lacks conviction, direction and purpose.,-31,300,20","This reminds me of a creek or a river. It puts me a peace,42,60,20","brick wall waterfall girl you think you got it all,50,360,20","colors are a bit cramped together. really unique take on a waterfall though.,32,360,20","Aww. I love the peace brought by this picture.,40,60,20","Looks like a beautiful stream rolling through terrain of rocks and flowers.,43,80,20","Alexandra","This reminds me of a creek or a river. It puts me a peace,42,60,20","Rachel","Looks like a beautiful stream rolling through terrain of rocks and flowers.,43,80,20","Kaitlin","Aww. I love the peace brought by this picture.,40,60,20","0"
"19464","","survey-text","87","641835","0.0-87.0-0.0","A34EHWOYRBL6OZ","","","","{""Q0"":""This looks like a car crash to me.""}","","","","","","","","","","","","","","","","","","","","","","",""
"6294.300000000745","","image-slider-response","88","648133","0.0-88.0","A34EHWOYRBL6OZ","","","","","18","","","","","","","","","","","","","","","","","","","","","",""
"null","","image-button-response","89","653141","0.0-89.0","A34EHWOYRBL6OZ","img_art/20.jpg","null","","","","","","","","","","","","","","","","","","","","","","","","",""
"3636","","image-button-response","90","656782","0.0-90.0","A34EHWOYRBL6OZ","img_art/20.jpg","2","","","","","","","","","","","","","","","","","","","","","","","","",""
"2398","","image-button-response","91","659186","0.0-91.0-0.0","A34EHWOYRBL6OZ","img_art/20.jpg","5","","","","","","","","","","","","","","","","","","","","","","","","",""
"2216","","image-button-response","92","661408","0.0-92.0-0.0","A34EHWOYRBL6OZ","img_art/20.jpg","4","","","","","","","","","","","","","","","","","","","","","","","","",""
"null","","html-keyboard-response","93","662914","0.0-93.0","A34EHWOYRBL6OZ","<p style=""font-size: 48px;"">+</p>","","","","","null","allTrialResponses","1500","1","7","img_art/20.jpg","18","This looks like a car crash to me.","Rebecca,Alexandra,Natalie,Kaitlyn,Kaitlin,Rachel","reminds me of georgia o'keeffe's skull,22,100,20","The white blob looks like a face and it's creepy,-30,60,20","I like the detail on it, although I get a sad vibe to it,19,400,20","The picture looks smudged and dirty,-4,80,20","i can feel the intensity in this,11,60,20","While interesting in technique.. It looks like a blurry car wreck. Does not evoke great emotions.,-20,80,20","Natalie","I like the detail on it, although I get a sad vibe to it,19,400,20","Rachel","While interesting in technique.. It looks like a blurry car wreck. Does not evoke great emotions.,-20,80,20","Kaitlin","i can feel the intensity in this,11,60,20","0"
"16961","","survey-text","94","679909","0.0-94.0-0.0","A34EHWOYRBL6OZ","","","","{""Q0"":""it looks like a giant clam.""}","","","","","","","","","","","","","","","","","","","","","","",""
"2930.0999999996275","","image-slider-response","95","682843","0.0-95.0","A34EHWOYRBL6OZ","","","","","14","","","","","","","","","","","","","","","","","","","","","",""
"null","","image-button-response","96","687853","0.0-96.0","A34EHWOYRBL6OZ","img_art/9.jpg","null","","","","","","","","","","","","","","","","","","","","","","","","",""
"4243","","image-button-response","97","692103","0.0-97.0","A34EHWOYRBL6OZ","img_art/9.jpg","5","","","","","","","","","","","","","","","","","","","","","","","","",""
"2716","","image-button-response","98","694824","0.0-98.0-0.0","A34EHWOYRBL6OZ","img_art/9.jpg","0","","","","","","","","","","","","","","","","","","","","","","","","",""
"2107","","image-button-response","99","696937","0.0-99.0-0.0","A34EHWOYRBL6OZ","img_art/9.jpg","0","","","","","","","","","","","","","","","","","","","","","","","","",""
"3487","","image-button-response","100","705663","0.0-99.1-0.1","A34EHWOYRBL6OZ","img_art/9.jpg","4","","","","","","","","","","","","","","","","","","","","","","","","",""
"null","","html-keyboard-response","101","707168","0.0-100.0","A34EHWOYRBL6OZ","<p style=""font-size: 48px;"">+</p>","","","","","null","allTrialResponses","1500","1","8","img_art/9.jpg","14","it looks like a giant clam.","Andrea,Sara,Natalie,Madison,Kaitlin,Rachel","Sleeping woman in a cave. Makes me feel safe.,20,240,20","Spiral patterns are not my thing,-30,160,20","Gives me anxiety,-23,400,20","No cohesive form whatsoever. Hard pass.,-31,60,20","this looks to be a child nightmare,-10,60,20","It looks like a lady taking a peaceful nap on a blanket in the grass.,41,80,20","Rachel","It looks like a lady taking a peaceful nap on a blanket in the grass.,41,80,20","Andrea","Sleeping woman in a cave. Makes me feel safe.,20,240,20","Kaitlin","this looks to be a child nightmare,-10,60,20","2"
"26139","","survey-text","102","733331","0.0-101.0-0.0","A34EHWOYRBL6OZ","","","","{""Q0"":""This looks like a monsters hand.""}","","","","","","","","","","","","","","","","","","","","","","",""
"5067.199999999255","","image-slider-response","103","738403","0.0-102.0","A34EHWOYRBL6OZ","","","","","-12","","","","","","","","","","","","","","","","","","","","","",""
"null","","image-button-response","104","743412","0.0-103.0","A34EHWOYRBL6OZ","img_art/4.jpg","null","","","","","","","","","","","","","","","","","","","","","","","","",""
"15753","","image-button-response","105","759173","0.0-104.0","A34EHWOYRBL6OZ","img_art/4.jpg","1","","","","","","","","","","","","","","","","","","","","","","","","",""
"7407","","image-button-response","106","766586","0.0-105.0-0.0","A34EHWOYRBL6OZ","img_art/4.jpg","5","","","","","","","","","","","","","","","","","","","","","","","","",""
"2825","","image-button-response","107","769418","0.0-106.0-0.0","A34EHWOYRBL6OZ","img_art/4.jpg","2","","","","","","","","","","","","","","","","","","","","","","","","",""
"null","","html-keyboard-response","108","770922","0.0-107.0","A34EHWOYRBL6OZ","<p style=""font-size: 48px;"">+</p>","","","","","null","allTrialResponses","1500","1","9","img_art/4.jpg","-12","This looks like a monsters hand.","Andrea,Sophia,Margaret,Jasmine,Kaitlin,Rachel","I think it speaks to familial closeness but the tonality is offputting to me.,-10,240,20","This looks like what happens when someone steps on a mustard packet.,-7,280,20","doesn't do anything for me,-4,100,20","It's quite meh to me,0,340,20","heart symbol - this tells a story of hidden love,30,60,20","Not a huge fan of the color story, but it reminds me of a child finger-painting.,12,80,20","Sophia","This looks like what happens when someone steps on a mustard packet.,-7,280,20","Rachel","Not a huge fan of the color story, but it reminds me of a child finger-painting.,12,80,20","Margaret","doesn't do anything for me,-4,100,20","2"
"17734","","survey-text","109","788679","0.0-108.0-0.0","A34EHWOYRBL6OZ","","","","{""Q0"":""I like the colors they used in this.""}","","","","","","","","","","","","","","","","","","","","","","",""
"2975.800000000745","","image-slider-response","110","791662","0.0-109.0","A34EHWOYRBL6OZ","","","","","21","","","","","","","","","","","","","","","","","","","","","",""
"null","","image-button-response","111","796670","0.0-110.0","A34EHWOYRBL6OZ","img_art/22.jpg","null","","","","","","","","","","","","","","","","","","","","","","","","",""
"2435","","image-button-response","112","799111","0.0-111.0","A34EHWOYRBL6OZ","img_art/22.jpg","1","","","","","","","","","","","","","","","","","","","","","","","","",""
"3080","","image-button-response","113","802196","0.0-112.0-0.0","A34EHWOYRBL6OZ","img_art/22.jpg","5","","","","","","","","","","","","","","","","","","","","","","","","",""
"3577","","image-button-response","114","805779","0.0-113.0-0.0","A34EHWOYRBL6OZ","img_art/22.jpg","0","","","","","","","","","","","","","","","","","","","","","","","","",""
"null","","html-keyboard-response","115","806285","0.0-114.0","A34EHWOYRBL6OZ","<p style=""font-size: 48px;"">+</p>","","","","","null","allTrialResponses","500","1","10","img_art/22.jpg","21","I like the colors they used in this.","Courtney,Sophia,Margaret,Makayla,Laura,Rachel","Looks hot where ever that is.,-8,280,20","I like this one. There is a lot to see if you keep looking for it.,27,280,20","i feel like this is a a basic art piece that a school would have on the wall,-24,100,20","Just neutral no feelings,2,80,20","muddy and rough,14,320,20","I like the vivid colors.,11,80,20","Sophia","I like this one. There is a lot to see if you keep looking for it.,27,280,20","Rachel","I like the vivid colors.,11,80,20","Courtney","Looks hot where ever that is.,-8,280,20","2"
"13718","","survey-text","116","820055","0.0-115.0-0.0","A34EHWOYRBL6OZ","","","","{""Q0"":""our""}","","","","","","","","","","","","","","","","","","","","","","",""
"16759","","survey-text","117","836819","0.0-116.0-0.0","A34EHWOYRBL6OZ","","","","{""Q0"":""It looks like a crime scene.""}","","","","","","","","","","","","","","","","","","","","","","",""
"3373.89999999851","","image-slider-response","118","840198","0.0-117.0","A34EHWOYRBL6OZ","","","","","-16","","","","","","","","","","","","","","","","","","","","","",""
"null","","image-button-response","119","845209","0.0-118.0","A34EHWOYRBL6OZ","img_art/3.jpg","null","","","","","","","","","","","","","","","","","","","","","","","","",""
"3310","","image-button-response","120","848526","0.0-119.0","A34EHWOYRBL6OZ","img_art/3.jpg","3","","","","","","","","","","","","","","","","","","","","","","","","",""
"3220","","image-button-response","121","851752","0.0-120.0-0.0","A34EHWOYRBL6OZ","img_art/3.jpg","2","","","","","","","","","","","","","","","","","","","","","","","","",""
"3991","","image-button-response","122","855749","0.0-121.0-0.0","A34EHWOYRBL6OZ","img_art/3.jpg","0","","","","","","","","","","","","","","","","","","","","","","","","",""
"null","","html-keyboard-response","123","857254","0.0-122.0","A34EHWOYRBL6OZ","<p style=""font-size: 48px;"">+</p>","","","","","null","allTrialResponses","1500","1","11","img_art/3.jpg","-16","It looks like a crime scene.","Courtney,Sophia,Erin,Melissa,Hailey,Rachel","That just looks like a mess..,-18,280,20","Marker gone wild?  Not sure what's going on here.,-21,280,20","Shapes are interesting but color is overwhelming,5,120,20","strong color, interesting negative shapes,21,240,20","painted by a 2 year old. cold and boring,-30,200,20","Too red and chaotic. Not calming.,-41,80,20","Melissa","strong color, interesting negative shapes,21,240,20","Erin","Shapes are interesting but color is overwhelming,5,120,20","Courtney","That just looks like a mess..,-18,280,20","2"
"17422","","survey-text","124","874731","0.0-123.0-0.0","A34EHWOYRBL6OZ","","","","{""Q0"":""This is interesting.""}","","","","","","","","","","","","","","","","","","","","","","",""
"2234.800000000745","","image-slider-response","125","876969","0.0-124.0","A34EHWOYRBL6OZ","","","","","8","","","","","","","","","","","","","","","","","","","","","",""
"null","","image-button-response","126","881976","0.0-125.0","A34EHWOYRBL6OZ","img_art/27.jpg","null","","","","","","","","","","","","","","","","","","","","","","","","",""
"5175","","image-button-response","127","887157","0.0-126.0","A34EHWOYRBL6OZ","img_art/27.jpg","0","","","","","","","","","","","","","","","","","","","","","","","","",""
"2679","","image-button-response","128","889842","0.0-127.0-0.0","A34EHWOYRBL6OZ","img_art/27.jpg","2","","","","","","","","","","","","","","","","","","","","","","","","",""
"1315","","image-button-response","129","891164","0.0-128.0-0.0","A34EHWOYRBL6OZ","img_art/27.jpg","3","","","","","","","","","","","","","","","","","","","","","","","","",""
"null","","html-keyboard-response","130","891670","0.0-129.0","A34EHWOYRBL6OZ","<p style=""font-size: 48px;"">+</p>","","","","","null","allTrialResponses","500","1","12","img_art/27.jpg","8","This is interesting.","Courtney,Danielle,Erin,Melissa,Jennifer,Erika","A fall mess going on here,2,280,20","Looks a bit like a child's project with unsatisfying colors,-31,340,20","Looks like someone vandalized the original piece with a marker,-36,120,20","reminds me of kandinsky,10,240,20","Somewhat boring piece,-3,380,20","Nice color, but too vague,-12,100,20","Courtney","A fall mess going on here,2,280,20","Erin","Looks like someone vandalized the original piece with a marker,-36,120,20","Melissa","reminds me of kandinsky,10,240,20","2"
"23202","","survey-text","131","914918","0.0-130.0-0.0","A34EHWOYRBL6OZ","","","","{""Q0"":""This is chaotic I don't like it.""}","","","","","","","","","","","","","","","","","","","","","","",""
"3407.2999999988824","","image-slider-response","132","918331","0.0-131.0","A34EHWOYRBL6OZ","","","","","-17","","","","","","","","","","","","","","","","","","","","","",""
"2785","","image-button-response","133","923341","0.0-132.0","A34EHWOYRBL6OZ","img_art/28.jpg","2","","","","","","","","","","","","","","","","","","","","","","","","",""
"1618","","image-button-response","134","924967","0.0-133.0","A34EHWOYRBL6OZ","img_art/28.jpg","2","","","","","","","","","","","","","","","","","","","","","","","","",""
"1951","","image-button-response","135","926924","0.0-134.0-0.0","A34EHWOYRBL6OZ","img_art/28.jpg","4","","","","","","","","","","","","","","","","","","","","","","","","",""
"2860","","image-button-response","136","929790","0.0-135.0-0.0","A34EHWOYRBL6OZ","img_art/28.jpg","5","","","","","","","","","","","","","","","","","","","","","","","","",""
"null","","html-keyboard-response","137","930294","0.0-136.0","A34EHWOYRBL6OZ","<p style=""font-size: 48px;"">+</p>","","","","","null","allTrialResponses","500","1","13","img_art/28.jpg","-17","This is chaotic I don't like it.","Courtney,Chloe,Erin,Melissa,Kelsey,Brianna","Looks like some guys in s band playing at a busy park.,18,280,20","Evocative but a little dreary.,20,220,20","Dislike color palette and amoeba,-9,120,20","reminds me of kandinsky,14,240,20","this one is rather disturbing,-22,240,20","My grandparents would like this, maybe my great grandparents. It's not my style.,-30,20,20","Erin","Dislike color palette and amoeba,-9,120,20","Kelsey","this one is rather disturbing,-22,240,20","Brianna","My grandparents would like this, maybe my great grandparents. It's not my style.,-30,20,20","2"
"24022","","survey-text","138","954349","0.0-137.0-0.0","A34EHWOYRBL6OZ","","","","{""Q0"":""I like this it reminds me of a black hole or a spiral.""}","","","","","","","","","","","","","","","","","","","","","","",""
"2398.199999999255","","image-slider-response","139","956751","0.0-138.0","A34EHWOYRBL6OZ","","","","","35","","","","","","","","","","","","","","","","","","","","","",""
"2607","","image-button-response","140","961760","0.0-139.0","A34EHWOYRBL6OZ","img_art/18.jpg","1","","","","","","","","","","","","","","","","","","","","","","","","",""
"539","","image-button-response","141","962308","0.0-140.0","A34EHWOYRBL6OZ","img_art/18.jpg","1","","","","","","","","","","","","","","","","","","","","","","","","",""
"4267","","image-button-response","142","966580","0.0-141.0-0.0","A34EHWOYRBL6OZ","img_art/18.jpg","3","","","","","","","","","","","","","","","","","","","","","","","","",""
"3539","","image-button-response","143","970126","0.0-142.0-0.0","A34EHWOYRBL6OZ","img_art/18.jpg","5","","","","","","","","","","","","","","","","","","","","","","","","",""
"null","","html-keyboard-response","144","971630","0.0-143.0","A34EHWOYRBL6OZ","<p style=""font-size: 48px;"">+</p>","","","","","null","allTrialResponses","1500","1","14","img_art/18.jpg","35","I like this it reminds me of a black hole or a spiral.","Cassandra,Olivia,Erin,Anna,Kelsey,Brianna","I don't know...kind of a dissatified feeling inside.,-6,120,20","death rides in life,-25,40,20","See a weird horse,-22,120,20","I could spend a long time looking at it and see different things in the shapes.,21,300,20","its messy, it seems angry,-21,240,20","Very eerie and it's spooky,11,20,20","Olivia","death rides in life,-25,40,20","Anna","I could spend a long time looking at it and see different things in the shapes.,21,300,20","Brianna","Very eerie and it's spooky,11,20,20","2"
"18468","","survey-text","145","990158","0.0-144.0-0.0","A34EHWOYRBL6OZ","","","","{""Q0"":""It looks like a scene from the movie saw.""}","","","","","","","","","","","","","","","","","","","","","","",""
"2688.5999999996275","","image-slider-response","146","992851","0.0-145.0","A34EHWOYRBL6OZ","","","","","35","","","","","","","","","","","","","","","","","","","","","",""
"null","","image-button-response","147","997858","0.0-146.0","A34EHWOYRBL6OZ","img_art/29.jpg","null","","","","","","","","","","","","","","","","","","","","","","","","",""
"2998","","image-button-response","148","1000866","0.0-147.0","A34EHWOYRBL6OZ","img_art/29.jpg","3","","","","","","","","","","","","","","","","","","","","","","","","",""
"3508","","image-button-response","149","1004380","0.0-148.0-0.0","A34EHWOYRBL6OZ","img_art/29.jpg","5","","","","","","","","","","","","","","","","","","","","","","","","",""
"2779","","image-button-response","150","1007165","0.0-149.0-0.0","A34EHWOYRBL6OZ","img_art/29.jpg","0","","","","","","","","","","","","","","","","","","","","","","","","",""
"null","","html-keyboard-response","151","1008670","0.0-150.0","A34EHWOYRBL6OZ","<p style=""font-size: 48px;"">+</p>","","","","","null","allTrialResponses","1500","1","15","img_art/29.jpg","35","It looks like a scene from the movie saw.","Breanna,Olivia,Bailey,Anna,Lindsey,Brianna","Makes me feel untidy,-9,380,20","too challenging to comprehend,-28,40,20","Giant messy blob. Looks like it tries to be edgy, but fails.,-40,360,20","I like the texture and colors and how it makes me feel. I like how it's different from other abstract art.,45,300,20","Again, ugly colors and I'm not a fan of abstract. This looks like the view into a garbage dump.,-50,400,20","It has a red X on there, and x's mean bad in my perspective,-29,20,20","Anna","I like the texture and colors and how it makes me feel. I like how it's different from other abstract art.,45,300,20","Brianna","It has a red X on there, and x's mean bad in my perspective,-29,20,20","Breanna","Makes me feel untidy,-9,380,20","2"
"8299","","survey-text","152","1017033","0.0-151.0-0.0","A34EHWOYRBL6OZ","","","","{""Q0"":""course""}","","","","","","","","","","","","","","","","","","","","","","",""
"14140","","survey-text","153","1031175","0.0-152.0-0.0","A34EHWOYRBL6OZ","","","","{""Q0"":""reminds me of a nightmare.""}","","","","","","","","","","","","","","","","","","","","","","",""
"2883.10000000149","","image-slider-response","154","1034063","0.0-153.0","A34EHWOYRBL6OZ","","","","","43","","","","","","","","","","","","","","","","","","","","","",""
"null","","image-button-response","155","1039072","0.0-154.0","A34EHWOYRBL6OZ","img_art/25.jpg","null","","","","","","","","","","","","","","","","","","","","","","","","",""
"556","","image-button-response","156","1039636","0.0-155.0","A34EHWOYRBL6OZ","img_art/25.jpg","2","","","","","","","","","","","","","","","","","","","","","","","","",""
"8649","","image-button-response","157","1048290","0.0-156.0-0.0","A34EHWOYRBL6OZ","img_art/25.jpg","5","","","","","","","","","","","","","","","","","","","","","","","","",""
"1677","","image-button-response","158","1049974","0.0-157.0-0.0","A34EHWOYRBL6OZ","img_art/25.jpg","0","","","","","","","","","","","","","","","","","","","","","","","","",""
"null","","html-keyboard-response","159","1050980","0.0-158.0","A34EHWOYRBL6OZ","<p style=""font-size: 48px;"">+</p>","","","","","null","allTrialResponses","1000","1","16","img_art/25.jpg","43","reminds me of a nightmare.","Breanna,Katie,Dominique,Anna,Briana,Brianna","Makes me feel intrigued,13,380,20","Reminds me of ancient civilization art. I like the aqua color; soothing to me.,1,160,20","Iike this picture; it speaks to me on a personal level. But seems to scare the ones around me.,7,400,20","I love the green and the texture,50,300,20","Its scary. It looks like someone overlooking hell,-34,400,20","This would definitely be hanging in my bedroom in my house,50,20,20","Dominique","Iike this picture; it speaks to me on a personal level. But seems to scare the ones around me.,7,400,20","Brianna","This would definitely be hanging in my bedroom in my house,50,20,20","Breanna","Makes me feel intrigued,13,380,20","2"
"15062","","survey-text","160","1066109","0.0-159.0-0.0","A34EHWOYRBL6OZ","","","","{""Q0"":""It looks like a puzzle that is out of order.""}","","","","","","","","","","","","","","","","","","","","","","",""
"2915","","image-slider-response","161","1069028","0.0-160.0","A34EHWOYRBL6OZ","","","","","18","","","","","","","","","","","","","","","","","","","","","",""
"3553","","image-button-response","162","1074037","0.0-161.0","A34EHWOYRBL6OZ","img_art/12.jpg","1","","","","","","","","","","","","","","","","","","","","","","","","",""
"850","","image-button-response","163","1074897","0.0-162.0","A34EHWOYRBL6OZ","img_art/12.jpg","1","","","","","","","","","","","","","","","","","","","","","","","","",""
"810","","image-button-response","164","1075711","0.0-163.0-0.0","A34EHWOYRBL6OZ","img_art/12.jpg","2","","","","","","","","","","","","","","","","","","","","","","","","",""
"3844","","image-button-response","165","1079563","0.0-164.0-0.0","A34EHWOYRBL6OZ","img_art/12.jpg","4","","","","","","","","","","","","","","","","","","","","","","","","",""
"null","","html-keyboard-response","166","1080067","0.0-165.0","A34EHWOYRBL6OZ","<p style=""font-size: 48px;"">+</p>","","","","","null","allTrialResponses","500","1","17","img_art/12.jpg","18","It looks like a puzzle that is out of order.","Breanna,Marissa,Dominique,Angelica,Kathryn,Brianna","It makes me feel confused,-15,380,20","It reminds me of the documentary Paris is Burning, though I'm not sure why,11,160,20","I have seen some like this before very popular and full of life,42,400,20","It's strange looking and unappealing.,-4,280,20","This feels cosmopolitan. Like looking at a high rise apartment at night and seeing into everyone's windows.,20,140,20","Don't like it or despise it,1,20,20","Marissa","It reminds me of the documentary Paris is Burning, though I'm not sure why,11,160,20","Dominique","I have seen some like this before very popular and full of life,42,400,20","Kathryn","This feels cosmopolitan. Like looking at a high rise apartment at night and seeing into everyone's windows.,20,140,20","2"
"30958","","survey-text","167","1111082","0.0-166.0-0.0","A34EHWOYRBL6OZ","","","","{""Q0"":""I like this although I am not sure what it is.""}","","","","","","","","","","","","","","","","","","","","","","",""
"3111.5","","image-slider-response","168","1114199","0.0-167.0","A34EHWOYRBL6OZ","","","","","34","","","","","","","","","","","","","","","","","","","","","",""
"null","","image-button-response","169","1119207","0.0-168.0","A34EHWOYRBL6OZ","img_art/5.jpg","null","","","","","","","","","","","","","","","","","","","","","","","","",""
"1963","","image-button-response","170","1121179","0.0-169.0","A34EHWOYRBL6OZ","img_art/5.jpg","2","","","","","","","","","","","","","","","","","","","","","","","","",""
"4697","","image-button-response","171","1125882","0.0-170.0-0.0","A34EHWOYRBL6OZ","img_art/5.jpg","4","","","","","","","","","","","","","","","","","","","","","","","","",""
"5949","","image-button-response","172","1131837","0.0-171.0-0.0","A34EHWOYRBL6OZ","img_art/5.jpg","1","","","","","","","","","","","","","","","","","","","","","","","","",""
"null","","html-keyboard-response","173","1132844","0.0-172.0","A34EHWOYRBL6OZ","<p style=""font-size: 48px;"">+</p>","","","","","null","allTrialResponses","1000","1","18","img_art/5.jpg","34","I like this although I am not sure what it is.","Caroline,Marissa,Dominique,Alicia,Kathryn,Brooke","Too much angular things happening, makes me think of stabbing something which makes me uncomfortable,-50,100,20","I am confused as to what I am seeing is it a handbag, duck foot, bell?,-18,160,20","It speaks volumes to some. It's also a conversational piece. And very different ideas,34,400,20","pointless, ugly, not creative.,-50,120,20","I see a sign advising me to be cautious.,-20,140,20","No. What even is this? A mop?,-35,60,20","Dominique","It speaks volumes to some. It's also a conversational piece. And very different ideas,34,400,20","Kathryn","I see a sign advising me to be cautious.,-20,140,20","Marissa","I am confused as to what I am seeing is it a handbag, duck foot, bell?,-18,160,20","2"
"16197","","survey-text","174","1149097","0.0-173.0-0.0","A34EHWOYRBL6OZ","","","","{""Q0"":""reminds me of rain on a window.""}","","","","","","","","","","","","","","","","","","","","","","",""
"2946","","image-slider-response","175","1152047","0.0-174.0","A34EHWOYRBL6OZ","","","","","16","","","","","","","","","","","","","","","","","","","","","",""
"2706","","image-button-response","176","1157055","0.0-175.0","A34EHWOYRBL6OZ","img_art/13.jpg","0","","","","","","","","","","","","","","","","","","","","","","","","",""
"673","","image-button-response","177","1157735","0.0-176.0","A34EHWOYRBL6OZ","img_art/13.jpg","0","","","","","","","","","","","","","","","","","","","","","","","","",""
"1256","","image-button-response","178","1158996","0.0-177.0-0.0","A34EHWOYRBL6OZ","img_art/13.jpg","1","","","","","","","","","","","","","","","","","","","","","","","","",""
"3634","","image-button-response","179","1162635","0.0-178.0-0.0","A34EHWOYRBL6OZ","img_art/13.jpg","2","","","","","","","","","","","","","","","","","","","","","","","","",""
"null","","html-keyboard-response","180","1163641","0.0-179.0","A34EHWOYRBL6OZ","<p style=""font-size: 48px;"">+</p>","","","","","null","allTrialResponses","1000","1","19","img_art/13.jpg","16","reminds me of rain on a window.","Amanda,Marissa,Dominique,Meghan,Kathryn,Diana","Feels calm and could be placed in anyones house,43,180,20","It reminds me of looking out the window on a stormy night at cars drive by,21,160,20","I love the colors reminds me of a rainy day..it's calm and relaxing,32,400,20","I like the transition to other colors,24,220,20","Reminds me of depression anxiety, but negativity is dampened by motion. It's trying to release itself through expression.,-10,140,20","I really loved the color contrast. Having the white stripe in the center makes the it appear 3D.,11,380,20","Amanda","Feels calm and could be placed in anyones house,43,180,20","Marissa","It reminds me of looking out the window on a stormy night at cars drive by,21,160,20","Dominique","I love the colors reminds me of a rainy day..it's calm and relaxing,32,400,20","2"
"17237","","survey-text","181","1180914","0.0-180.0-0.0","A34EHWOYRBL6OZ","","","","{""Q0"":""This looks like a battle scene from a movie.""}","","","","","","","","","","","","","","","","","","","","","","",""
"2434.5999999996275","","image-slider-response","182","1183353","0.0-181.0","A34EHWOYRBL6OZ","","","","","24","","","","","","","","","","","","","","","","","","","","","",""
"2256","","image-button-response","183","1188363","0.0-182.0","A34EHWOYRBL6OZ","img_art/21.jpg","2","","","","","","","","","","","","","","","","","","","","","","","","",""
"811","","image-button-response","184","1189183","0.0-183.0","A34EHWOYRBL6OZ","img_art/21.jpg","2","","","","","","","","","","","","","","","","","","","","","","","","",""
"5889","","image-button-response","185","1195078","0.0-184.0-0.0","A34EHWOYRBL6OZ","img_art/21.jpg","5","","","","","","","","","","","","","","","","","","","","","","","","",""
"1616","","image-button-response","186","1196704","0.0-185.0-0.0","A34EHWOYRBL6OZ","img_art/21.jpg","3","","","","","","","","","","","","","","","","","","","","","","","","",""
"null","","html-keyboard-response","187","1197209","0.0-186.0","A34EHWOYRBL6OZ","<p style=""font-size: 48px;"">+</p>","","","","","null","allTrialResponses","500","1","20","img_art/21.jpg","24","This looks like a battle scene from a movie.","Amanda,Marissa,Dominique,Maria,Lauren,Angela","Very calming and nice to look at,30,180,20","I feel confused,-18,160,20","Love the colors have to say this is my favorite above all,37,400,20","brings up imagery of the sea and clashing, though not in a negative way,31,120,20","I like how the piece has the possibility of depicting some type of story.,30,340,20","I feel like I'm looking at two different paintings mashed together in the middle.,20,260,20","Dominique","Love the colors have to say this is my favorite above all,37,400,20","Angela","I feel like I'm looking at two different paintings mashed together in the middle.,20,260,20","Maria","brings up imagery of the sea and clashing, though not in a negative way,31,120,20","2"
"7169","","survey-text","188","1204484","0.0-187.0-0.0","A34EHWOYRBL6OZ","","","","{""Q0"":""we""}","","","","","","","","","","","","","","","","","","","","","","",""
"15250","","survey-text","189","1219738","0.0-188.0-0.0","A34EHWOYRBL6OZ","","","","{""Q0"":""It looks like a sunset.""}","","","","","","","","","","","","","","","","","","","","","","",""
"2263.5","","image-slider-response","190","1222005","0.0-189.0","A34EHWOYRBL6OZ","","","","","15","","","","","","","","","","","","","","","","","","","","","",""
"4649","","image-button-response","191","1227015","0.0-190.0","A34EHWOYRBL6OZ","img_art/1.jpg","0","","","","","","","","","","","","","","","","","","","","","","","","",""
"2536","","image-button-response","192","1229559","0.0-191.0","A34EHWOYRBL6OZ","img_art/1.jpg","2","","","","","","","","","","","","","","","","","","","","","","","","",""
"1192","","image-button-response","193","1230756","0.0-192.0-0.0","A34EHWOYRBL6OZ","img_art/1.jpg","0","","","","","","","","","","","","","","","","","","","","","","","","",""
"3540","","image-button-response","194","1234302","0.0-193.0-0.0","A34EHWOYRBL6OZ","img_art/1.jpg","5","","","","","","","","","","","","","","","","","","","","","","","","",""
"null","","html-keyboard-response","195","1234808","0.0-194.0","A34EHWOYRBL6OZ","<p style=""font-size: 48px;"">+</p>","","","","","null","allTrialResponses","500","1","21","img_art/1.jpg","15","It looks like a sunset.","Victoria,Katelyn,Dominique,Maria,Sarah,Angela","love how the colors blend,42,400,20","Im not a fan of the bluriness,-18,100,20","I love the detail and colors like a beautiful autumn day,35,400,20","the bright colours evoke the 90s, and not their best part,-10,120,20","it's boring despite all the colors,-2,180,20","Like the colors very much, and this piece makes me feel peaceful.,29,260,20","Dominique","I love the detail and colors like a beautiful autumn day,35,400,20","Victoria","love how the colors blend,42,400,20","Angela","Like the colors very much, and this piece makes me feel peaceful.,29,260,20","2"
"16318","","survey-text","196","1251183","0.0-195.0-0.0","A34EHWOYRBL6OZ","","","","{""Q0"":""I love this it says a lot.""}","","","","","","","","","","","","","","","","","","","","","","",""
"3592.5999999996275","","image-slider-response","197","1254780","0.0-196.0","A34EHWOYRBL6OZ","","","","","50","","","","","","","","","","","","","","","","","","","","","",""
"null","","image-button-response","198","1259789","0.0-197.0","A34EHWOYRBL6OZ","img_art/8.jpg","null","","","","","","","","","","","","","","","","","","","","","","","","",""
"737","","image-button-response","199","1260534","0.0-198.0","A34EHWOYRBL6OZ","img_art/8.jpg","2","","","","","","","","","","","","","","","","","","","","","","","","",""
"754","","image-button-response","200","1261292","0.0-199.0-0.0","A34EHWOYRBL6OZ","img_art/8.jpg","0","","","","","","","","","","","","","","","","","","","","","","","","",""
"4149","","image-button-response","201","1265447","0.0-200.0-0.0","A34EHWOYRBL6OZ","img_art/8.jpg","4","","","","","","","","","","","","","","","","","","","","","","","","",""
"null","","html-keyboard-response","202","1266454","0.0-201.0","A34EHWOYRBL6OZ","<p style=""font-size: 48px;"">+</p>","","","","","null","allTrialResponses","1000","1","22","img_art/8.jpg","50","I love this it says a lot.","Victoria,Mikayla,Dominique,Julia,Cynthia,Angela","makes me think of a busy city,-18,400,20","Its kinda like an optical illusion.,22,300,20","This speaks volumes to me and is another favorite I'm sure by many,40,400,20","it's a little too classical for my tastes,-25,40,20","New power in the community,22,320,20","Like the colors and the energy, but the face feels jarring to me,13,260,20","Dominique","This speaks volumes to me and is another favorite I'm sure by many,40,400,20","Victoria","makes me think of a busy city,-18,400,20","Cynthia","New power in the community,22,320,20","2"
"15497","","survey-text","203","1282022","0.0-202.0-0.0","A34EHWOYRBL6OZ","","","","{""Q0"":""reminds me of black flowers.""}","","","","","","","","","","","","","","","","","","","","","","",""
"3556.7999999988824","","image-slider-response","204","1285583","0.0-203.0","A34EHWOYRBL6OZ","","","","","47","","","","","","","","","","","","","","","","","","","","","",""
"4010","","image-button-response","205","1290595","0.0-204.0","A34EHWOYRBL6OZ","img_art/15.jpg","0","","","","","","","","","","","","","","","","","","","","","","","","",""
"465","","image-button-response","206","1291069","0.0-205.0","A34EHWOYRBL6OZ","img_art/15.jpg","0","","","","","","","","","","","","","","","","","","","","","","","","",""
"1926","","image-button-response","207","1293001","0.0-206.0-0.0","A34EHWOYRBL6OZ","img_art/15.jpg","2","","","","","","","","","","","","","","","","","","","","","","","","",""
"5394","","image-button-response","208","1298401","0.0-207.0-0.0","A34EHWOYRBL6OZ","img_art/15.jpg","3","","","","","","","","","","","","","","","","","","","","","","","","",""
"null","","html-keyboard-response","209","1298906","0.0-208.0","A34EHWOYRBL6OZ","<p style=""font-size: 48px;"">+</p>","","","","","null","allTrialResponses","500","1","23","img_art/15.jpg","47","reminds me of black flowers.","Victoria,Jordan,Dominique,Tiffany,Cynthia,Shelby","makes me feel calm,40,400,20","I'm just not into it,-5,20,20","I like the colors and the different style This brings,7,400,20","The painting is very relaxing, I'm reminded of sitting in a garden in the evening.,8,360,20","interested in this transformation,20,320,20","This painting gives a calm vibe but no stronger emotions than that,10,240,20","Victoria","makes me feel calm,40,400,20","Dominique","I like the colors and the different style This brings,7,400,20","Tiffany","The painting is very relaxing, I'm reminded of sitting in a garden in the evening.,8,360,20","2"
"20159","","survey-text","210","1319124","0.0-209.0-0.0","A34EHWOYRBL6OZ","","","","{""Q0"":""There is a lot going on in this painting.""}","","","","","","","","","","","","","","","","","","","","","","",""
"3822","","image-slider-response","211","1322950","0.0-210.0","A34EHWOYRBL6OZ","","","","","20","","","","","","","","","","","","","","","","","","","","","",""
"2529","","image-button-response","212","1327961","0.0-211.0","A34EHWOYRBL6OZ","img_art/19.jpg","1","","","","","","","","","","","","","","","","","","","","","","","","",""
"805","","image-button-response","213","1328774","0.0-212.0","A34EHWOYRBL6OZ","img_art/19.jpg","1","","","","","","","","","","","","","","","","","","","","","","","","",""
"3937","","image-button-response","214","1332718","0.0-213.0-0.0","A34EHWOYRBL6OZ","img_art/19.jpg","5","","","","","","","","","","","","","","","","","","","","","","","","",""
"2605","","image-button-response","215","1335331","0.0-214.0-0.0","A34EHWOYRBL6OZ","img_art/19.jpg","2","","","","","","","","","","","","","","","","","","","","","","","","",""
"null","","html-keyboard-response","216","1335836","0.0-215.0","A34EHWOYRBL6OZ","<p style=""font-size: 48px;"">+</p>","","","","","null","allTrialResponses","500","1","24","img_art/19.jpg","20","There is a lot going on in this painting.","Victoria,Kaylee,Dominique,Tiffany,Sabrina,Stephanie","to much going on,-22,400,20","beautiful old town,37,200,20","I really like the colors and feel of this one and alot of life,41,400,20","I feel a little anxious and happy. I'm about to walk into a market and any number of treasures could be found,14,360,20","Gives a very open and freeing vibe,42,120,20","A dreary town in the fall.,-4,300,20","Kaylee","beautiful old town,37,200,20","Stephanie","A dreary town in the fall.,-4,300,20","Dominique","I really like the colors and feel of this one and alot of life,41,400,20","2"
"23723","","survey-text","217","1359634","0.0-216.0-0.0","A34EHWOYRBL6OZ","","","","{""Q0"":""It looks like a rocky sea.""}","","","","","","","","","","","","","","","","","","","","","","",""
"2639.5999999996275","","image-slider-response","218","1362278","0.0-217.0","A34EHWOYRBL6OZ","","","","","36","","","","","","","","","","","","","","","","","","","","","",""
"null","","image-button-response","219","1367285","0.0-218.0","A34EHWOYRBL6OZ","img_art/11.jpg","null","","","","","","","","","","","","","","","","","","","","","","","","",""
"676","","image-button-response","220","1367969","0.0-219.0","A34EHWOYRBL6OZ","img_art/11.jpg","2","","","","","","","","","","","","","","","","","","","","","","","","",""
"814","","image-button-response","221","1368788","0.0-220.0-0.0","A34EHWOYRBL6OZ","img_art/11.jpg","0","","","","","","","","","","","","","","","","","","","","","","","","",""
"1005","","image-button-response","222","1369799","0.0-221.0-0.0","A34EHWOYRBL6OZ","img_art/11.jpg","4","","","","","","","","","","","","","","","","","","","","","","","","",""
"null","","html-keyboard-response","223","1371303","0.0-222.0","A34EHWOYRBL6OZ","<p style=""font-size: 48px;"">+</p>","","","","","null","allTrialResponses","1500","1","25","img_art/11.jpg","36","It looks like a rocky sea.","Emily,Kaylee,Dominique,Jacqueline,Madeline,Stephanie","It's kind of cool and I see it looks clean.,22,40,20","i dont understand this painting,-1,200,20","Looks like a familiar area,31,400,20","It's too dark and dingy.,-30,300,20","I like the vibe of the painting,-3,40,20","Rainy dreary day in a town.,7,300,20","Dominique","Looks like a familiar area,31,400,20","Emily","It's kind of cool and I see it looks clean.,22,40,20","Madeline","I like the vibe of the painting,-3,40,20","2"
"5413","","survey-text","224","1376802","0.0-223.0-0.0","A34EHWOYRBL6OZ","","","","{""Q0"":""table""}","","","","","","","","","","","","","","","","","","","","","","",""
"15750","","survey-text","225","1392556","0.0-224.0-0.0","A34EHWOYRBL6OZ","","","","{""Q0"":""This is dark but also interesting.""}","","","","","","","","","","","","","","","","","","","","","","",""
"3273.800000000745","","image-slider-response","226","1395834","0.0-225.0","A34EHWOYRBL6OZ","","","","","44","","","","","","","","","","","","","","","","","","","","","",""
"null","","image-button-response","227","1400843","0.0-226.0","A34EHWOYRBL6OZ","img_art/16.jpg","null","","","","","","","","","","","","","","","","","","","","","","","","",""
"754","","image-button-response","228","1401605","0.0-227.0","A34EHWOYRBL6OZ","img_art/16.jpg","1","","","","","","","","","","","","","","","","","","","","","","","","",""
"2480","","image-button-response","229","1404091","0.0-228.0-0.0","A34EHWOYRBL6OZ","img_art/16.jpg","5","","","","","","","","","","","","","","","","","","","","","","","","",""
"2825","","image-button-response","230","1406923","0.0-229.0-0.0","A34EHWOYRBL6OZ","img_art/16.jpg","3","","","","","","","","","","","","","","","","","","","","","","","","",""
"null","","html-keyboard-response","231","1407427","0.0-230.0","A34EHWOYRBL6OZ","<p style=""font-size: 48px;"">+</p>","","","","","null","allTrialResponses","500","1","26","img_art/16.jpg","44","This is dark but also interesting.","Emily,Claire,Dominique,Vanessa,Madeline,Elizabeth","Looks like a kid did itt and ti looks disturbing.,-45,40,20","the materials used are interesting,30,260,20","Toys toys toys. Happy playful free spirit,30,400,20","This is too bizarre.,-39,380,20","That bear looks unfitting!,-8,40,20","Picture seems unique,12,20,20","Claire","the materials used are interesting,30,260,20","Elizabeth","Picture seems unique,12,20,20","Vanessa","This is too bizarre.,-39,380,20","2"
"17865","","survey-text","232","1425366","0.0-231.0-0.0","A34EHWOYRBL6OZ","","","","{""Q0"":""It looks like some kind of tree maybe a fruit tree.""}","","","","","","","","","","","","","","","","","","","","","","",""
"2608.4000000003725","","image-slider-response","233","1427978","0.0-232.0","A34EHWOYRBL6OZ","","","","","38","","","","","","","","","","","","","","","","","","","","","",""
"null","","image-button-response","234","1432988","0.0-233.0","A34EHWOYRBL6OZ","img_art/14.jpg","null","","","","","","","","","","","","","","","","","","","","","","","","",""
"133","","image-button-response","235","1433128","0.0-234.0","A34EHWOYRBL6OZ","img_art/14.jpg","1","","","","","","","","","","","","","","","","","","","","","","","","",""
"2615","","image-button-response","236","1435749","0.0-235.0-0.0","A34EHWOYRBL6OZ","img_art/14.jpg","4","","","","","","","","","","","","","","","","","","","","","","","","",""
"1583","","image-button-response","237","1437339","0.0-236.0-0.0","A34EHWOYRBL6OZ","img_art/14.jpg","5","","","","","","","","","","","","","","","","","","","","","","","","",""
"null","","html-keyboard-response","238","1438844","0.0-237.0","A34EHWOYRBL6OZ","<p style=""font-size: 48px;"">+</p>","","","","","null","allTrialResponses","1500","1","27","img_art/14.jpg","38","It looks like some kind of tree maybe a fruit tree.","Mariah,Claire,Savannah,Vanessa,Samantha,Elizabeth","The lighting feels like spring.,20,140,20","mythical and nature like,37,260,20","Again. This is pretty neutral, leaning dislike.,-18,200,20","I don't like the colors, but I espeically don't like all the negative space.,-20,380,20","I love the feeling of the tree and people. Makes me happy,50,140,20","Love the abstractness of this painting,39,20,20","Claire","mythical and nature like,37,260,20","Samantha","I love the feeling of the tree and people. Makes me happy,50,140,20","Elizabeth","Love the abstractness of this painting,39,20,20","2"
"21975","","survey-text","239","1460882","0.0-238.0-0.0","A34EHWOYRBL6OZ","","","","{""Q0"":""Looks like some people laying in bed.""}","","","","","","","","","","","","","","","","","","","","","","",""
"2466","","image-slider-response","240","1463352","0.0-239.0","A34EHWOYRBL6OZ","","","","","-22","","","","","","","","","","","","","","","","","","","","","",""
"null","","image-button-response","241","1468360","0.0-240.0","A34EHWOYRBL6OZ","img_art/2.jpg","null","","","","","","","","","","","","","","","","","","","","","","","","",""
"4619","","image-button-response","242","1472986","0.0-241.0","A34EHWOYRBL6OZ","img_art/2.jpg","5","","","","","","","","","","","","","","","","","","","","","","","","",""
"1001","","image-button-response","243","1473996","0.0-242.0-0.0","A34EHWOYRBL6OZ","img_art/2.jpg","4","","","","","","","","","","","","","","","","","","","","","","","","",""
"813","","image-button-response","244","1474814","0.0-243.0-0.0","A34EHWOYRBL6OZ","img_art/2.jpg","2","","","","","","","","","","","","","","","","","","","","","","","","",""
"null","","html-keyboard-response","245","1475327","0.0-244.0","A34EHWOYRBL6OZ","<p style=""font-size: 48px;"">+</p>","","","","","null","allTrialResponses","500","1","28","img_art/2.jpg","-22","Looks like some people laying in bed.","Alyssa,Claire,Erica,Sierra,Samantha,Elizabeth","Its meh. Doesnt illicit any strong feelings in me,1,160,20","too blocky and don't like color combination,-32,260,20","positive, seems like someone really happy and colourful is looking at me,22,80,20","looks like a happy child,15,260,20","Cute and happy,22,140,20","Good color pallette,12,20,20","Elizabeth","Good color pallette,12,20,20","Samantha","Cute and happy,22,140,20","Erica","positive, seems like someone really happy and colourful is looking at me,22,80,20","2"
"12909","","survey-text","246","1488308","0.0-245.0-0.0","A34EHWOYRBL6OZ","","","","{""Q0"":""It looks like an enchanted forest.""}","","","","","","","","","","","","","","","","","","","","","","",""
"3403.699999999255","","image-slider-response","247","1491717","0.0-246.0","A34EHWOYRBL6OZ","","","","","50","","","","","","","","","","","","","","","","","","","","","",""
"null","","image-button-response","248","1496726","0.0-247.0","A34EHWOYRBL6OZ","img_art/17.jpg","null","","","","","","","","","","","","","","","","","","","","","","","","",""
"550","","image-button-response","249","1497282","0.0-248.0","A34EHWOYRBL6OZ","img_art/17.jpg","1","","","","","","","","","","","","","","","","","","","","","","","","",""
"1231","","image-button-response","250","1498518","0.0-249.0-0.0","A34EHWOYRBL6OZ","img_art/17.jpg","4","","","","","","","","","","","","","","","","","","","","","","","","",""
"1224","","image-button-response","251","1499748","0.0-250.0-0.0","A34EHWOYRBL6OZ","img_art/17.jpg","3","","","","","","","","","","","","","","","","","","","","","","","","",""
"null","","html-keyboard-response","252","1500253","0.0-251.0","A34EHWOYRBL6OZ","<p style=""font-size: 48px;"">+</p>","","","","","null","allTrialResponses","500","1","29","img_art/17.jpg","50","It looks like an enchanted forest.","Amy,Kelly,Erica,Molly,Samantha,Elizabeth","peaceful. contemplative. balanced. old,10,220,20","I really like this, especially the tree.,23,220,20","Makes me warm and cozy just by looking at it,29,80,20","Wow, I haven't seen anything better than this.,40,340,20","Nice colors, shapes, flow,31,140,20","Has a unique vibe to it,50,20,20","Kelly","I really like this, especially the tree.,23,220,20","Samantha","Nice colors, shapes, flow,31,140,20","Molly","Wow, I haven't seen anything better than this.,40,340,20","2"
"21403","","survey-text","253","1521702","0.0-252.0-0.0","A34EHWOYRBL6OZ","","","","{""Q0"":""This is very cool it speaks to me.""}","","","","","","","","","","","","","","","","","","","","","","",""
"5215.5999999996275","","image-slider-response","254","1526922","0.0-253.0","A34EHWOYRBL6OZ","","","","","49","","","","","","","","","","","","","","","","","","","","","",""
"null","","image-button-response","255","1531931","0.0-254.0","A34EHWOYRBL6OZ","img_art/10.jpg","null","","","","","","","","","","","","","","","","","","","","","","","","",""
"4633","","image-button-response","256","1536571","0.0-255.0","A34EHWOYRBL6OZ","img_art/10.jpg","1","","","","","","","","","","","","","","","","","","","","","","","","",""
"7217","","image-button-response","257","1543795","0.0-256.0-0.0","A34EHWOYRBL6OZ","img_art/10.jpg","5","","","","","","","","","","","","","","","","","","","","","","","","",""
"4649","","image-button-response","258","1548450","0.0-257.0-0.0","A34EHWOYRBL6OZ","img_art/10.jpg","3","","","","","","","","","","","","","","","","","","","","","","","","",""
"null","","html-keyboard-response","259","1549456","0.0-258.0","A34EHWOYRBL6OZ","<p style=""font-size: 48px;"">+</p>","","","","","null","allTrialResponses","1000","1","30","img_art/10.jpg","49","This is very cool it speaks to me.","Kayla,Kelly,Monica,Molly,Samantha,Michaela","The loop type thing reminds me of interconnectedness and life and hope.,12,180,20","I cant tell what this is supposed to be, but I enjoy the simplicity of it.,28,220,20","It doesn't look pleasing to the eye, it kind of looks like an animal but a dirty one,-38,360,20","For me, it looks like a giant ship on the sea and it's astonishing.,30,340,20","I like it but do not love it. It is sort of depressing,13,140,20","It looks like it's sinking but it could also be a view from above,40,260,20","Kelly","I cant tell what this is supposed to be, but I enjoy the simplicity of it.,28,220,20","Michaela","It looks like it's sinking but it could also be a view from above,40,260,20","Molly","For me, it looks like a giant ship on the sea and it's astonishing.,30,340,20","2"
"3519","","image-button-response_instructions","260","1553044","0.0-259.0","A34EHWOYRBL6OZ","","0","instructions","","","","","","","","","","","","","","","","","","","","","","","",""
"1230","","image-button-response","261","1554325","0.0-260.0","A34EHWOYRBL6OZ","","0","","","","","","","","","","","","","","","","","","","","","","","","",""
