"rt","url","trial_type","trial_index","time_elapsed","internal_node_id","participant_id","stimulus","button_pressed","Name","responses","response","key_press","variableName","fixationTime","condition","trial","photo","subjectRating","subjectResponse","agentsNames","agent_1_Response","agent_2_Response","agent_3_Response","agent_4_Response","agent_5_Response","agent_6_Response","kept_1_name","kept_1_response","kept_2_name","kept_2_response","kept_3_name","kept_3_response","errorCounter"
"13636","external_page_harvard.html","external-html","0","13761","0.0-0.0","A34GH9SAZ3NAGE","","","","","","","","","","","","","","","","","","","","","","","","","","",""
"1618","","image-button-response","1","15383","0.0-1.0","A34GH9SAZ3NAGE","","1","","","","","","","","","","","","","","","","","","","","","","","","",""
"2220","","image-button-response","2","17609","0.0-2.0-0.0","A34GH9SAZ3NAGE","","1","phone","","","","","","","","","","","","","","","","","","","","","","","",""
"7517","","survey-text","3","25130","0.0-3.0-0.0","A34GH9SAZ3NAGE","","","","{""Q0"":""A34GH9SAZ3NAGE""}","","","","","","","","","","","","","","","","","","","","","","",""
"6624","","image-button-response_instructions","4","31758","0.0-4.0","A34GH9SAZ3NAGE","","0","instructions","","","","","","","","","","","","","","","","","","","","","","","",""
"22528","","image-button-response_instructions","5","54288","0.0-5.0","A34GH9SAZ3NAGE","img_art/ins/popularity/ins1.png","0","instructions","","","","","","","","","","","","","","","","","","","","","","","",""
"6829","","image-button-response_instructions","6","61120","0.0-6.0","A34GH9SAZ3NAGE","img_art/ins/popularity/ins2.png","0","instructions","","","","","","","","","","","","","","","","","","","","","","","",""
"5041","","image-button-response_instructions","7","66163","0.0-7.0","A34GH9SAZ3NAGE","img_art/ins/popularity/ins2Extreme.png","0","instructions","","","","","","","","","","","","","","","","","","","","","","","",""
"12625","","image-button-response_instructions","8","78791","0.0-8.0","A34GH9SAZ3NAGE","img_art/ins/popularity/ins3KEEPpop.PNG","0","instructions","","","","","","","","","","","","","","","","","","","","","","","",""
"2937","","image-button-response_instructions","9","81731","0.0-9.0","A34GH9SAZ3NAGE","img_art/ins/popularity/ins3ANamepop.PNG","0","instructions","","","","","","","","","","","","","","","","","","","","","","","",""
"3493","","image-button-response_instructions","10","85228","0.0-10.0","A34GH9SAZ3NAGE","img_art/ins/popularity/ins3ARatingpop.png","0","instructions","","","","","","","","","","","","","","","","","","","","","","","",""
"5151","","image-button-response_instructions","11","90381","0.0-11.0","A34GH9SAZ3NAGE","img_art/ins/popularity/ins3ATextpop.png","0","instructions","","","","","","","","","","","","","","","","","","","","","","","",""
"7898","","image-button-response_instructions","12","98282","0.0-12.0","A34GH9SAZ3NAGE","img_art/ins/popularity/ins3ALikespop.png","0","instructions","","","","","","","","","","","","","","","","","","","","","","","",""
"12023","","image-button-response_instructions","13","110307","0.0-13.0","A34GH9SAZ3NAGE","img_art/ins/popularity/ins3KEEPpop.PNG","0","instructions","","","","","","","","","","","","","","","","","","","","","","","",""
"12919","","image-button-response_instructions","14","123228","0.0-14.0","A34GH9SAZ3NAGE","img_art/ins/popularity/ins3_5RED.png","0","instructions","","","","","","","","","","","","","","","","","","","","","","","",""
"4640","","image-button-response_instructions","15","127870","0.0-15.0","A34GH9SAZ3NAGE","img_art/ins/popularity/ins3KEEPpop.PNG","0","instructions","","","","","","","","","","","","","","","","","","","","","","","",""
"8835","","image-button-response_instructions","16","136706","0.0-16.0","A34GH9SAZ3NAGE","img_art/ins/popularity/ins4KEEPpop.PNG","0","instructions","","","","","","","","","","","","","","","","","","","","","","","",""
"6042","","image-button-response_instructions","17","142750","0.0-17.0","A34GH9SAZ3NAGE","img_art/ins/popularity/ins5KEEPpop.PNG","0","instructions","","","","","","","","","","","","","","","","","","","","","","","",""
"2534","","image-button-response_instructions","18","145286","0.0-18.0","A34GH9SAZ3NAGE","","0","instructions","","","","","","","","","","","","","","","","","","","","","","","",""
"9135","","survey-text","19","154446","0.0-19.0-0.0","A34GH9SAZ3NAGE","","","","{""Q0"":""but""}","","","","","","","","","","","","","","","","","","","","","","",""
"59745","","survey-text","20","214194","0.0-20.0-0.0","A34GH9SAZ3NAGE","","","","{""Q0"":""It is very colorful and I've seen art like this before but I don't really have a strong reaction to it. It looks drawn on with crayon.""}","","","","","","","","","","","","","","","","","","","","","","",""
"9601.799999952316","","image-slider-response","21","223802","0.0-21.0","A34GH9SAZ3NAGE","","","","","11","","","","","","","","","","","","","","","","","","","","","",""
"null","","image-button-response","22","228807","0.0-22.0","A34GH9SAZ3NAGE","img_art/ins/1.jpg","null","","","","","","","","","","","","","","","","","","","","","","","","",""
"8823","","image-button-response","23","237634","0.0-23.0","A34GH9SAZ3NAGE","img_art/ins/1.jpg","5","","","","","","","","","","","","","","","","","","","","","","","","",""
"9208","","image-button-response","24","246846","0.0-24.0-0.0","A34GH9SAZ3NAGE","img_art/ins/1.jpg","0","","","","","","","","","","","","","","","","","","","","","","","","",""
"9593","","image-button-response","25","256444","0.0-25.0-0.0","A34GH9SAZ3NAGE","img_art/ins/1.jpg","0","","","","","","","","","","","","","","","","","","","","","","","","",""
"702","","image-button-response","26","262842","0.0-25.1-0.1","A34GH9SAZ3NAGE","img_art/ins/1.jpg","4","","","","","","","","","","","","","","","","","","","","","","","","",""
"null","","html-keyboard-response","27","263346","0.0-26.0","A34GH9SAZ3NAGE","<p style=""font-size: 48px;"">+</p>","","","","","null","allTrialResponses","500","1","-2","img_art/ins/1.jpg","11","It is very colorful and I've seen art like this before but I don't really have a strong reaction to it. It looks drawn on with crayon.","Allison,Ashley,Beth,Dora,Erika,Jen","looks like a lot of things going on in the mist,20,20,20","I just don't get why these type of art would be popular,-32,40,20","This color reminds me of poo,-46,60,20","looks like what my niece in 3rd grade did this afternoon,-50,80,20","I like the sophisticated brushwork,40,100,20","It reminds me of a candy land dream I had,36,120,20","Jen","It reminds me of a candy land dream I had,36,120,20","Allison","looks like a lot of things going on in the mist,20,20,20","Erika","I like the sophisticated brushwork,40,100,20","2"
"40808","","survey-text","28","304161","0.0-27.0-0.0","A34GH9SAZ3NAGE","","","","{""Q0"":""It looks like it was painted on a wall.""}","","","","","","","","","","","","","","","","","","","","","","",""
"3452.600000023842","","image-slider-response","29","307619","0.0-28.0","A34GH9SAZ3NAGE","","","","","30","","","","","","","","","","","","","","","","","","","","","",""
"null","","image-button-response","30","312624","0.0-29.0","A34GH9SAZ3NAGE","img_art/ins/2.jpg","null","","","","","","","","","","","","","","","","","","","","","","","","",""
"6132","","image-button-response","31","318759","0.0-30.0","A34GH9SAZ3NAGE","img_art/ins/2.jpg","1","","","","","","","","","","","","","","","","","","","","","","","","",""
"2232","","image-button-response","32","320996","0.0-31.0-0.0","A34GH9SAZ3NAGE","img_art/ins/2.jpg","5","","","","","","","","","","","","","","","","","","","","","","","","",""
"6332","","image-button-response","33","327331","0.0-32.0-0.0","A34GH9SAZ3NAGE","img_art/ins/2.jpg","0","","","","","","","","","","","","","","","","","","","","","","","","",""
"null","","html-keyboard-response","34","327835","0.0-33.0","A34GH9SAZ3NAGE","<p style=""font-size: 48px;"">+</p>","","","","","null","allTrialResponses","500","1","-1","img_art/ins/2.jpg","30","It looks like it was painted on a wall.","Allison,Kara,Katie,Jenna,Erika,Jen","I don't have strong feelings about this,10,20,20","I like the blocks of color arrangements,30,160,20","too much color!,-28,180,20","One of my pet peevs,-48,140,20","I would never be able to compose a sophisticated pallete like this,48,100,20","It reminds me of a fireplace,36,120,20","Kara","I like the blocks of color arrangements,30,160,20","Jen","It reminds me of a fireplace,36,120,20","Allison","I don't have strong feelings about this,10,20,20","2"
"29899","","survey-text","35","357741","0.0-34.0-0.0","A34GH9SAZ3NAGE","","","","{""Q0"":""It reminds me of winter.""}","","","","","","","","","","","","","","","","","","","","","","",""
"6502.100000023842","","image-slider-response","36","364246","0.0-35.0","A34GH9SAZ3NAGE","","","","","40","","","","","","","","","","","","","","","","","","","","","",""
"3949","","image-button-response","37","369249","0.0-36.0","A34GH9SAZ3NAGE","img_art/ins/3.jpg","4","","","","","","","","","","","","","","","","","","","","","","","","",""
"972","","image-button-response","38","370226","0.0-37.0","A34GH9SAZ3NAGE","img_art/ins/3.jpg","4","","","","","","","","","","","","","","","","","","","","","","","","",""
"8290","","image-button-response","39","378519","0.0-38.0-0.0","A34GH9SAZ3NAGE","img_art/ins/3.jpg","1","","","","","","","","","","","","","","","","","","","","","","","","",""
"1942","","image-button-response","40","380467","0.0-39.0-0.0","A34GH9SAZ3NAGE","img_art/ins/3.jpg","5","","","","","","","","","","","","","","","","","","","","","","","","",""
"null","","html-keyboard-response","41","380970","0.0-40.0","A34GH9SAZ3NAGE","<p style=""font-size: 48px;"">+</p>","","","","","null","allTrialResponses","500","1","0","img_art/ins/3.jpg","40","It reminds me of winter.","Allison,Kara,Rose,Leslie,Mary,Jen","enjoy the different shades of blue,22,20,20","calming blue is very nice,36,160,20","My daily routine, it's depressing,-20,240,20","It's an alright work,15,200,20","I like the overlapping of brushes,41,220,20","I can feel a rainy day from this painting,18,120,20","Mary","I like the overlapping of brushes,41,220,20","Kara","calming blue is very nice,36,160,20","Jen","I can feel a rainy day from this painting,18,120,20","2"
"8670","","image-button-response_instructions","42","389648","0.0-41.0","A34GH9SAZ3NAGE","","0","instructions","","","","","","","","","","","","","","","","","","","","","","","",""
"17711","","survey-likert","43","407363","0.0-42.0-0.0","A34GH9SAZ3NAGE","","","","{""Q0"":"""",""Q1"":0,""Q2"":1}","","","","","","","","","","","","","","","","","","","","","","",""
"5105","","survey-text","44","412476","0.0-43.0-0.0","A34GH9SAZ3NAGE","","","","{""Q0"":""rock""}","","","","","","","","","","","","","","","","","","","","","","",""
"35085","","survey-text","45","447564","0.0-44.0-0.0","A34GH9SAZ3NAGE","","","","{""Q0"":""It feels kinda Western with a bit of Rome.""}","","","","","","","","","","","","","","","","","","","","","","",""
"2844.5999999046326","","image-slider-response","46","450412","0.0-45.0","A34GH9SAZ3NAGE","","","","","50","","","","","","","","","","","","","","","","","","","","","",""
"2455","","image-button-response","47","455449","0.0-46.0","A34GH9SAZ3NAGE","img_art/22.jpg","4","","","","","","","","","","","","","","","","","","","","","","","","",""
"4528","","image-button-response","48","459981","0.0-47.0","A34GH9SAZ3NAGE","img_art/22.jpg","0","","","","","","","","","","","","","","","","","","","","","","","","",""
"430","","image-button-response","49","460415","0.0-48.0-0.0","A34GH9SAZ3NAGE","img_art/22.jpg","1","","","","","","","","","","","","","","","","","","","","","","","","",""
"2610","","image-button-response","50","463029","0.0-49.0-0.0","A34GH9SAZ3NAGE","img_art/22.jpg","0","","","","","","","","","","","","","","","","","","","","","","","","",""
"3324","","image-button-response","51","471430","0.0-49.1-0.1","A34GH9SAZ3NAGE","img_art/22.jpg","4","","","","","","","","","","","","","","","","","","","","","","","","",""
"null","","html-keyboard-response","52","471935","0.0-50.0","A34GH9SAZ3NAGE","<p style=""font-size: 48px;"">+</p>","","","","","null","allTrialResponses","500","1","1","img_art/22.jpg","50","It feels kinda Western with a bit of Rome.","Alexandria,Amber,Jordan,Savannah,Monica,Catherine","the colors and shapes makes me want to keep looking at it,22,80,20","Colors are bright and cheerful.,5,200,20","not a fan of this, it's boring,1,20,20","Seems too simple.,-19,200,20","I really like the bright colors and sunset feel,31,360,20","Scary monsters lurking causing confusion.,-40,160,20","Alexandria","the colors and shapes makes me want to keep looking at it,22,80,20","Amber","Colors are bright and cheerful.,5,200,20","Monica","I really like the bright colors and sunset feel,31,360,20","4"
"24270","","survey-text","53","496214","0.0-51.0-0.0","A34GH9SAZ3NAGE","","","","{""Q0"":""It looks like McDonalds' fries""}","","","","","","","","","","","","","","","","","","","","","","",""
"3545","","image-slider-response","54","499762","0.0-52.0","A34GH9SAZ3NAGE","","","","","-27","","","","","","","","","","","","","","","","","","","","","",""
"null","","image-button-response","55","504766","0.0-53.0","A34GH9SAZ3NAGE","img_art/4.jpg","null","","","","","","","","","","","","","","","","","","","","","","","","",""
"1328","","image-button-response","56","506097","0.0-54.0","A34GH9SAZ3NAGE","img_art/4.jpg","2","","","","","","","","","","","","","","","","","","","","","","","","",""
"6662","","image-button-response","57","512763","0.0-55.0-0.0","A34GH9SAZ3NAGE","img_art/4.jpg","4","","","","","","","","","","","","","","","","","","","","","","","","",""
"5471","","image-button-response","58","518240","0.0-56.0-0.0","A34GH9SAZ3NAGE","img_art/4.jpg","3","","","","","","","","","","","","","","","","","","","","","","","","",""
"null","","html-keyboard-response","59","518743","0.0-57.0","A34GH9SAZ3NAGE","<p style=""font-size: 48px;"">+</p>","","","","","null","allTrialResponses","500","1","2","img_art/4.jpg","-27","It looks like McDonalds' fries","Alexandria,Amber,Jamie,Angela,Monica,Hannah","it looks like a simple finger painting, yet i liked the color choices,-12,80,20","I like the bold style.,10,200,20","Mustard yellow doesn't do it for me,-25,320,20","Really like the colors, but don't like the object/squiggle in darker gold and black,4,260,20","The dark yellow color makes me think of mustard, which I dislike,-27,360,20","looks very rudimentary and too simple.,-14,240,20","Jamie","Mustard yellow doesn't do it for me,-25,320,20","Monica","The dark yellow color makes me think of mustard, which I dislike,-27,360,20","Angela","Really like the colors, but don't like the object/squiggle in darker gold and black,4,260,20","4"
"25437","","survey-text","60","544189","0.0-58.0-0.0","A34GH9SAZ3NAGE","","","","{""Q0"":""It looks like Christmas on the beach.""}","","","","","","","","","","","","","","","","","","","","","","",""
"3306.100000023842","","image-slider-response","61","547499","0.0-59.0","A34GH9SAZ3NAGE","","","","","9","","","","","","","","","","","","","","","","","","","","","",""
"4775","","image-button-response","62","552503","0.0-60.0","A34GH9SAZ3NAGE","img_art/14.jpg","0","","","","","","","","","","","","","","","","","","","","","","","","",""
"1040","","image-button-response","63","553548","0.0-61.0","A34GH9SAZ3NAGE","img_art/14.jpg","0","","","","","","","","","","","","","","","","","","","","","","","","",""
"290","","image-button-response","64","553841","0.0-62.0-0.0","A34GH9SAZ3NAGE","img_art/14.jpg","1","","","","","","","","","","","","","","","","","","","","","","","","",""
"18447","","image-button-response","65","572293","0.0-63.0-0.0","A34GH9SAZ3NAGE","img_art/14.jpg","3","","","","","","","","","","","","","","","","","","","","","","","","",""
"null","","html-keyboard-response","66","572797","0.0-64.0","A34GH9SAZ3NAGE","<p style=""font-size: 48px;"">+</p>","","","","","null","allTrialResponses","500","1","3","img_art/14.jpg","9","It looks like Christmas on the beach.","Sophia,Lindsey,Jamie,Angela,Monica,Michelle","I don't know why, but this piece makes me happy.,20,280,20","Warm, positive, growth.,8,400,20","Not as cool as other tree looking paintings,-5,320,20","I like the colors and the shapes are interesting,11,260,20","Just don't like it, maybe it's the bleeding colors on the left of the tree-looking thing in the center or the faded background,-10,360,20","Too abstract with annoying little details. Just draw a regular tree already,-6,280,20","Sophia","I don't know why, but this piece makes me happy.,20,280,20","Lindsey","Warm, positive, growth.,8,400,20","Angela","I like the colors and the shapes are interesting,11,260,20","4"
"19639","","survey-text","67","592442","0.0-65.0-0.0","A34GH9SAZ3NAGE","","","","{""Q0"":""This looks like a monster's teeth.""}","","","","","","","","","","","","","","","","","","","","","","",""
"2556.600000023842","","image-slider-response","68","595003","0.0-66.0","A34GH9SAZ3NAGE","","","","","23","","","","","","","","","","","","","","","","","","","","","",""
"2998","","image-button-response","69","600007","0.0-67.0","A34GH9SAZ3NAGE","img_art/23.jpg","0","","","","","","","","","","","","","","","","","","","","","","","","",""
"585","","image-button-response","70","600596","0.0-68.0","A34GH9SAZ3NAGE","img_art/23.jpg","0","","","","","","","","","","","","","","","","","","","","","","","","",""
"8898","","image-button-response","71","609498","0.0-69.0-0.0","A34GH9SAZ3NAGE","img_art/23.jpg","2","","","","","","","","","","","","","","","","","","","","","","","","",""
"9552","","image-button-response","72","619056","0.0-70.0-0.0","A34GH9SAZ3NAGE","img_art/23.jpg","5","","","","","","","","","","","","","","","","","","","","","","","","",""
"null","","html-keyboard-response","73","620060","0.0-71.0","A34GH9SAZ3NAGE","<p style=""font-size: 48px;"">+</p>","","","","","null","allTrialResponses","1000","1","4","img_art/23.jpg","23","This looks like a monster's teeth.","Sophia,Lindsey,Cassidy,Angela,Heather,Kelly","I like the contrast and the bright colors in this one.,6,280,20","Too much contrasting colors together. I hate it.,-50,400,20","I like the colors, the tiny dots, and the contrast between the white and background,28,140,20","Like the background colors and the energy, but the white bits ruin it for me,-7,260,20","illegible wording with a graffiti background,1,260,20","Love this. I love the white, really pops with the colors surrounding it.,44,220,20","Sophia","I like the contrast and the bright colors in this one.,6,280,20","Cassidy","I like the colors, the tiny dots, and the contrast between the white and background,28,140,20","Kelly","Love this. I love the white, really pops with the colors surrounding it.,44,220,20","4"
"48205","","survey-text","74","668273","0.0-72.0-0.0","A34GH9SAZ3NAGE","","","","{""Q0"":""It looks like a bird standing on the ground with it's head out of frame. Looking out to the unknown maybe.""}","","","","","","","","","","","","","","","","","","","","","","",""
"3121.5","","image-slider-response","75","671399","0.0-73.0","A34GH9SAZ3NAGE","","","","","15","","","","","","","","","","","","","","","","","","","","","",""
"null","","image-button-response","76","676404","0.0-74.0","A34GH9SAZ3NAGE","img_art/6.jpg","null","","","","","","","","","","","","","","","","","","","","","","","","",""
"916","","image-button-response","77","677324","0.0-75.0","A34GH9SAZ3NAGE","img_art/6.jpg","0","","","","","","","","","","","","","","","","","","","","","","","","",""
"12182","","image-button-response","78","689510","0.0-76.0-0.0","A34GH9SAZ3NAGE","img_art/6.jpg","3","","","","","","","","","","","","","","","","","","","","","","","","",""
"5247","","image-button-response","79","694762","0.0-77.0-0.0","A34GH9SAZ3NAGE","img_art/6.jpg","1","","","","","","","","","","","","","","","","","","","","","","","","",""
"null","","html-keyboard-response","80","695265","0.0-78.0","A34GH9SAZ3NAGE","<p style=""font-size: 48px;"">+</p>","","","","","null","allTrialResponses","500","1","5","img_art/6.jpg","15","It looks like a bird standing on the ground with it's head out of frame. Looking out to the unknown maybe.","Sophia,Cynthia,Cassidy,Jasmine,Mikayla,Kelly","It's okay. It kind of looks like a bird with his head buried in his feathers.,2,280,20","seeds of change,11,320,20","The background on the upper half is nice. I also like the contrast of the top and bottom halves,5,140,20","Simple and clean,11,340,20","Not very exciting.,-34,300,20","Simple and pretty.,18,220,20","Sophia","It's okay. It kind of looks like a bird with his head buried in his feathers.,2,280,20","Jasmine","Simple and clean,11,340,20","Cynthia","seeds of change,11,320,20","4"
"3412","","survey-text","81","698689","0.0-79.0-0.0","A34GH9SAZ3NAGE","","","","{""Q0"":""sky""}","","","","","","","","","","","","","","","","","","","","","","",""
"18430","","survey-text","82","717123","0.0-80.0-0.0","A34GH9SAZ3NAGE","","","","{""Q0"":""It seems mashed and confusing.""}","","","","","","","","","","","","","","","","","","","","","","",""
"2850","","image-slider-response","83","719977","0.0-81.0","A34GH9SAZ3NAGE","","","","","-12","","","","","","","","","","","","","","","","","","","","","",""
"null","","image-button-response","84","724981","0.0-82.0","A34GH9SAZ3NAGE","img_art/1.jpg","null","","","","","","","","","","","","","","","","","","","","","","","","",""
"1019","","image-button-response","85","726004","0.0-83.0","A34GH9SAZ3NAGE","img_art/1.jpg","2","","","","","","","","","","","","","","","","","","","","","","","","",""
"4212","","image-button-response","86","730220","0.0-84.0-0.0","A34GH9SAZ3NAGE","img_art/1.jpg","3","","","","","","","","","","","","","","","","","","","","","","","","",""
"15128","","image-button-response","87","745353","0.0-85.0-0.0","A34GH9SAZ3NAGE","img_art/1.jpg","1","","","","","","","","","","","","","","","","","","","","","","","","",""
"null","","html-keyboard-response","88","745864","0.0-86.0","A34GH9SAZ3NAGE","<p style=""font-size: 48px;"">+</p>","","","","","null","allTrialResponses","500","1","6","img_art/1.jpg","-12","It seems mashed and confusing.","Sophia,Cynthia,Breanna,Jasmine,Brooke,Kristen","This is a great piece that has a lot more going on the longer you look at it. I like it!,30,280,20","fishing on the lake surrounded by trees,42,320,20","Makes me feel confused,-6,380,20","Too similar to some of the other pieces,-18,340,20","It's okay, colors remind me of autumn.,10,60,20","river, fall, cozy, warm,12,280,20","Breanna","Makes me feel confused,-6,380,20","Jasmine","Too similar to some of the other pieces,-18,340,20","Cynthia","fishing on the lake surrounded by trees,42,320,20","4"
"27187","","survey-text","89","773058","0.0-87.0-0.0","A34GH9SAZ3NAGE","","","","{""Q0"":""This seems little cryptic and mysterious.""}","","","","","","","","","","","","","","","","","","","","","","",""
"4189.199999928474","","image-slider-response","90","777250","0.0-88.0","A34GH9SAZ3NAGE","","","","","7","","","","","","","","","","","","","","","","","","","","","",""
"null","","image-button-response","91","782264","0.0-89.0","A34GH9SAZ3NAGE","img_art/12.jpg","null","","","","","","","","","","","","","","","","","","","","","","","","",""
"9300","","image-button-response","92","791570","0.0-90.0","A34GH9SAZ3NAGE","img_art/12.jpg","4","","","","","","","","","","","","","","","","","","","","","","","","",""
"2669","","image-button-response","93","794243","0.0-91.0-0.0","A34GH9SAZ3NAGE","img_art/12.jpg","0","","","","","","","","","","","","","","","","","","","","","","","","",""
"2146","","image-button-response","94","796394","0.0-92.0-0.0","A34GH9SAZ3NAGE","img_art/12.jpg","1","","","","","","","","","","","","","","","","","","","","","","","","",""
"null","","html-keyboard-response","95","797406","0.0-93.0","A34GH9SAZ3NAGE","<p style=""font-size: 48px;"">+</p>","","","","","null","allTrialResponses","1000","1","7","img_art/12.jpg","7","This seems little cryptic and mysterious.","Kathryn,Cynthia,Breanna,Jasmine,Caroline,Mariah","This feels cosmopolitan. Like looking at a high rise apartment at night and seeing into everyone's windows.,20,140,20","Windows to a different story,6,320,20","It makes me feel confused,-15,380,20","It's just not my style,-18,340,20","I like the colors in both sections, brights compared to neutrals. Each block has a different view. I think of the future,11,100,20","It is very bland and the colors are not cohesive.,-20,140,20","Caroline","I like the colors in both sections, brights compared to neutrals. Each block has a different view. I think of the future,11,100,20","Kathryn","This feels cosmopolitan. Like looking at a high rise apartment at night and seeing into everyone's windows.,20,140,20","Cynthia","Windows to a different story,6,320,20","4"
"51245","","survey-text","96","848658","0.0-94.0-0.0","A34GH9SAZ3NAGE","","","","{""Q0"":""This could be a map of a battlefield or a piece of land. I don't understand the lines.""}","","","","","","","","","","","","","","","","","","","","","","",""
"11798.199999928474","","image-slider-response","97","860461","0.0-95.0","A34GH9SAZ3NAGE","","","","","-5","","","","","","","","","","","","","","","","","","","","","",""
"null","","image-button-response","98","865466","0.0-96.0","A34GH9SAZ3NAGE","img_art/10.jpg","null","","","","","","","","","","","","","","","","","","","","","","","","",""
"25728","","image-button-response","99","891200","0.0-97.0","A34GH9SAZ3NAGE","img_art/10.jpg","5","","","","","","","","","","","","","","","","","","","","","","","","",""
"6034","","image-button-response","100","897237","0.0-98.0-0.0","A34GH9SAZ3NAGE","img_art/10.jpg","1","","","","","","","","","","","","","","","","","","","","","","","","",""
"1119","","image-button-response","101","898359","0.0-99.0-0.0","A34GH9SAZ3NAGE","img_art/10.jpg","0","","","","","","","","","","","","","","","","","","","","","","","","",""
"null","","html-keyboard-response","102","899362","0.0-100.0","A34GH9SAZ3NAGE","<p style=""font-size: 48px;"">+</p>","","","","","null","allTrialResponses","1000","1","8","img_art/10.jpg","-5","This could be a map of a battlefield or a piece of land. I don't understand the lines.","Kathryn,Cynthia,Kaitlin,Leslie,Caroline,Erica","This piece makes me think of music. The music is dark; I like dark music so it edges toward good.,10,140,20","cultural with a symphony,40,320,20","awww... this looks very nice,32,60,20","I love the chaotic feel of the brush strokes.,35,380,20","This painting made me think of a guitar which made me think of music which envoked happy feelings.,28,100,20","Relaxing; a lot of going on but colours make it easy to look at,20,80,20","Erica","Relaxing; a lot of going on but colours make it easy to look at,20,80,20","Cynthia","cultural with a symphony,40,320,20","Kathryn","This piece makes me think of music. The music is dark; I like dark music so it edges toward good.,10,140,20","4"
"11419","","survey-text","103","910789","0.0-101.0-0.0","A34GH9SAZ3NAGE","","","","{""Q0"":""I don't like the colors in this.""}","","","","","","","","","","","","","","","","","","","","","","",""
"3485.1999999284744","","image-slider-response","104","914276","0.0-102.0","A34GH9SAZ3NAGE","","","","","-48","","","","","","","","","","","","","","","","","","","","","",""
"2749","","image-button-response","105","919285","0.0-103.0","A34GH9SAZ3NAGE","img_art/2.jpg","1","","","","","","","","","","","","","","","","","","","","","","","","",""
"550","","image-button-response","106","919838","0.0-104.0","A34GH9SAZ3NAGE","img_art/2.jpg","1","","","","","","","","","","","","","","","","","","","","","","","","",""
"2477","","image-button-response","107","922320","0.0-105.0-0.0","A34GH9SAZ3NAGE","img_art/2.jpg","4","","","","","","","","","","","","","","","","","","","","","","","","",""
"8712","","image-button-response","108","931035","0.0-106.0-0.0","A34GH9SAZ3NAGE","img_art/2.jpg","0","","","","","","","","","","","","","","","","","","","","","","","","",""
"null","","html-keyboard-response","109","932040","0.0-107.0","A34GH9SAZ3NAGE","<p style=""font-size: 48px;"">+</p>","","","","","null","allTrialResponses","1000","1","9","img_art/2.jpg","-48","I don't like the colors in this.","Kathryn,Cynthia,Cheyenne,Christina,Katie,Erica","I think I'm put off by the clashing colors here. It feels discombobulated and sick.,-10,140,20","Confused and disoriented,-33,320,20","Colors mix nicely.,5,200,20","It looks like a little kids primary color picture,3,240,20","Doesn't look like anything. Just a blob of colors.,1,160,20","positive, seems like someone really happy and colourful is looking at me,22,80,20","Cynthia","Confused and disoriented,-33,320,20","Katie","Doesn't look like anything. Just a blob of colors.,1,160,20","Kathryn","I think I'm put off by the clashing colors here. It feels discombobulated and sick.,-10,140,20","4"
"62095","","survey-text","110","994142","0.0-108.0-0.0","A34GH9SAZ3NAGE","","","","{""Q0"":""A look into someone's work space but the big red X doesn't look good.""}","","","","","","","","","","","","","","","","","","","","","","",""
"5736.100000023842","","image-slider-response","111","999881","0.0-109.0","A34GH9SAZ3NAGE","","","","","5","","","","","","","","","","","","","","","","","","","","","",""
"null","","image-button-response","112","1004890","0.0-110.0","A34GH9SAZ3NAGE","img_art/29.jpg","null","","","","","","","","","","","","","","","","","","","","","","","","",""
"59015","","image-button-response","113","1063909","0.0-111.0","A34GH9SAZ3NAGE","img_art/29.jpg","2","","","","","","","","","","","","","","","","","","","","","","","","",""
"3229","","image-button-response","114","1067143","0.0-112.0-0.0","A34GH9SAZ3NAGE","img_art/29.jpg","1","","","","","","","","","","","","","","","","","","","","","","","","",""
"5029","","image-button-response","115","1072177","0.0-113.0-0.0","A34GH9SAZ3NAGE","img_art/29.jpg","0","","","","","","","","","","","","","","","","","","","","","","","","",""
"null","","html-keyboard-response","116","1072680","0.0-114.0","A34GH9SAZ3NAGE","<p style=""font-size: 48px;"">+</p>","","","","","null","allTrialResponses","500","1","10","img_art/29.jpg","5","A look into someone's work space but the big red X doesn't look good.","Kathryn,Cynthia,Michaela,Dominique,Katie,Samantha","This piece feels gross. Makes me think of pollution/litter strewn across a dirty street.,-20,140,20","makes me feel busy and unorganized,4,320,20","Like a crime scene. It's neat and different,30,260,20","Another great work of art and very conversational piece,33,400,20","Don't get it! Too dark and random. Perhaps it was the start of something but the artist stopped and cancelled out the work.,-50,160,20","I love this things almost hidden in it like paint brush and other details,50,140,20","Michaela","Like a crime scene. It's neat and different,30,260,20","Cynthia","makes me feel busy and unorganized,4,320,20","Kathryn","This piece feels gross. Makes me think of pollution/litter strewn across a dirty street.,-20,140,20","4"
"4777","","survey-text","117","1077472","0.0-115.0-0.0","A34GH9SAZ3NAGE","","","","{""Q0"":""our""}","","","","","","","","","","","","","","","","","","","","","","",""
"17400","","survey-text","118","1094876","0.0-116.0-0.0","A34GH9SAZ3NAGE","","","","{""Q0"":""I really don't like the colors.""}","","","","","","","","","","","","","","","","","","","","","","",""
"4550","","image-slider-response","119","1099429","0.0-117.0","A34GH9SAZ3NAGE","","","","","-50","","","","","","","","","","","","","","","","","","","","","",""
"4412","","image-button-response","120","1104456","0.0-118.0","A34GH9SAZ3NAGE","img_art/28.jpg","0","","","","","","","","","","","","","","","","","","","","","","","","",""
"646","","image-button-response","121","1105107","0.0-119.0","A34GH9SAZ3NAGE","img_art/28.jpg","0","","","","","","","","","","","","","","","","","","","","","","","","",""
"11500","","image-button-response","122","1116610","0.0-120.0-0.0","A34GH9SAZ3NAGE","img_art/28.jpg","5","","","","","","","","","","","","","","","","","","","","","","","","",""
"8800","","image-button-response","123","1125415","0.0-121.0-0.0","A34GH9SAZ3NAGE","img_art/28.jpg","1","","","","","","","","","","","","","","","","","","","","","","","","",""
"null","","html-keyboard-response","124","1126921","0.0-122.0","A34GH9SAZ3NAGE","<p style=""font-size: 48px;"">+</p>","","","","","null","allTrialResponses","1500","1","11","img_art/28.jpg","-50","I really don't like the colors.","Kathryn,Cynthia,Michaela,Erika,Ashley,Rebecca","My immediate reaction was to think of smog. It recalls choking on dirty air.,-20,140,20","nostalgic from a memory,11,320,20","Salvador Dali called and he thinks this looks pretty good,27,260,20","Invokes curiosity, I want to know it's story.,15,100,20","Normally don't react well to abstract art, but it looks almost like something's there.,28,320,20","the color scheme is very well matched but i just didn't like it,-6,100,20","Kathryn","My immediate reaction was to think of smog. It recalls choking on dirty air.,-20,140,20","Rebecca","the color scheme is very well matched but i just didn't like it,-6,100,20","Cynthia","nostalgic from a memory,11,320,20","4"
"54815","","survey-text","125","1181744","0.0-123.0-0.0","A34GH9SAZ3NAGE","","","","{""Q0"":""I truly do not understand this piece. It just looks like a bunch of black dots with blue thrown in.""}","","","","","","","","","","","","","","","","","","","","","","",""
"2849.899999976158","","image-slider-response","126","1184598","0.0-124.0","A34GH9SAZ3NAGE","","","","","-32","","","","","","","","","","","","","","","","","","","","","",""
"null","","image-button-response","127","1189603","0.0-125.0","A34GH9SAZ3NAGE","img_art/15.jpg","null","","","","","","","","","","","","","","","","","","","","","","","","",""
"900","","image-button-response","128","1190507","0.0-126.0","A34GH9SAZ3NAGE","img_art/15.jpg","2","","","","","","","","","","","","","","","","","","","","","","","","",""
"7217","","image-button-response","129","1197728","0.0-127.0-0.0","A34GH9SAZ3NAGE","img_art/15.jpg","4","","","","","","","","","","","","","","","","","","","","","","","","",""
"5163","","image-button-response","130","1202896","0.0-128.0-0.0","A34GH9SAZ3NAGE","img_art/15.jpg","5","","","","","","","","","","","","","","","","","","","","","","","","",""
"null","","html-keyboard-response","131","1203898","0.0-129.0","A34GH9SAZ3NAGE","<p style=""font-size: 48px;"">+</p>","","","","","null","allTrialResponses","1000","1","12","img_art/15.jpg","-32","I truly do not understand this piece. It just looks like a bunch of black dots with blue thrown in.","Kathryn,Cynthia,Autumn,Melissa,Brianna,Rebecca","This is looking at a forest from above. I can see water and some pathways throughout. Nature.,20,140,20","interested in this transformation,20,320,20","Simple but not good,-34,340,20","reminds me of birds in trees,14,240,20","No opinion truthfully,1,20,20","very unsettling! like reverse porcelain esp because of the colors,28,100,20","Autumn","Simple but not good,-34,340,20","Brianna","No opinion truthfully,1,20,20","Rebecca","very unsettling! like reverse porcelain esp because of the colors,28,100,20","4"
"23196","","survey-text","132","1227102","0.0-130.0-0.0","A34GH9SAZ3NAGE","","","","{""Q0"":""I don't like the use of brown in this.""}","","","","","","","","","","","","","","","","","","","","","","",""
"2555.899999976158","","image-slider-response","133","1229662","0.0-131.0","A34GH9SAZ3NAGE","","","","","-30","","","","","","","","","","","","","","","","","","","","","",""
"null","","image-button-response","134","1234666","0.0-132.0","A34GH9SAZ3NAGE","img_art/19.jpg","null","","","","","","","","","","","","","","","","","","","","","","","","",""
"2145","","image-button-response","135","1236814","0.0-133.0","A34GH9SAZ3NAGE","img_art/19.jpg","1","","","","","","","","","","","","","","","","","","","","","","","","",""
"9199","","image-button-response","136","1246017","0.0-134.0-0.0","A34GH9SAZ3NAGE","img_art/19.jpg","2","","","","","","","","","","","","","","","","","","","","","","","","",""
"878","","image-button-response","137","1246900","0.0-135.0-0.0","A34GH9SAZ3NAGE","img_art/19.jpg","4","","","","","","","","","","","","","","","","","","","","","","","","",""
"null","","html-keyboard-response","138","1247903","0.0-136.0","A34GH9SAZ3NAGE","<p style=""font-size: 48px;"">+</p>","","","","","null","allTrialResponses","1000","1","13","img_art/19.jpg","-30","I don't like the use of brown in this.","Hailey,Alexa,Autumn,Vanessa,Brianna,Rebecca","an old cityfrom many years ago. its ok,6,200,20","It has a chaotic energy about it that draws me in,40,40,20","Messy and kid like.,-36,340,20","Again, this is too abstract.,-10,380,20","I don't know what's going on, and I realise that I don't like it,-21,20,20","interesting take on depth (reminds me of those 1000 piece puzzles),2,100,20","Alexa","It has a chaotic energy about it that draws me in,40,40,20","Autumn","Messy and kid like.,-36,340,20","Brianna","I don't know what's going on, and I realise that I don't like it,-21,20,20","4"
"40260","","survey-text","139","1288170","0.0-137.0-0.0","A34GH9SAZ3NAGE","","","","{""Q0"":""Parts of this look really clean and other parts look abstract and I really like it.""}","","","","","","","","","","","","","","","","","","","","","","",""
"4066.7000000476837","","image-slider-response","140","1292239","0.0-138.0","A34GH9SAZ3NAGE","","","","","50","","","","","","","","","","","","","","","","","","","","","",""
"null","","image-button-response","141","1297255","0.0-139.0","A34GH9SAZ3NAGE","img_art/18.jpg","null","","","","","","","","","","","","","","","","","","","","","","","","",""
"619","","image-button-response","142","1297877","0.0-140.0","A34GH9SAZ3NAGE","img_art/18.jpg","0","","","","","","","","","","","","","","","","","","","","","","","","",""
"1166","","image-button-response","143","1299046","0.0-141.0-0.0","A34GH9SAZ3NAGE","img_art/18.jpg","1","","","","","","","","","","","","","","","","","","","","","","","","",""
"2556","","image-button-response","144","1301606","0.0-142.0-0.0","A34GH9SAZ3NAGE","img_art/18.jpg","2","","","","","","","","","","","","","","","","","","","","","","","","",""
"null","","html-keyboard-response","145","1303109","0.0-143.0","A34GH9SAZ3NAGE","<p style=""font-size: 48px;"">+</p>","","","","","null","allTrialResponses","1500","1","14","img_art/18.jpg","50","Parts of this look really clean and other parts look abstract and I really like it.","Andrea,Alexa,Autumn,Marissa,Brianna,Nicole","I see an artistic representation of the riding of last of the four horseman. Its stunning.,45,240,20","Very wild and abstract. I love it and would definitely hang this up in my home,50,40,20","This looks amazing.,40,340,20","This brings to mind the four horsemen of the apocalypse,8,160,20","Very eerie and it's spooky,11,20,20","There's danger in this painting and it's awesome,40,20,20","Andrea","I see an artistic representation of the riding of last of the four horseman. Its stunning.,45,240,20","Alexa","Very wild and abstract. I love it and would definitely hang this up in my home,50,40,20","Autumn","This looks amazing.,40,340,20","4"
"22608","","survey-text","146","1325726","0.0-144.0-0.0","A34GH9SAZ3NAGE","","","","{""Q0"":""Looks like the surface of Mars or what I imagine it to be.""}","","","","","","","","","","","","","","","","","","","","","","",""
"2656.100000023842","","image-slider-response","147","1328386","0.0-145.0","A34GH9SAZ3NAGE","","","","","18","","","","","","","","","","","","","","","","","","","","","",""
"null","","image-button-response","148","1333398","0.0-146.0","A34GH9SAZ3NAGE","img_art/7.jpg","null","","","","","","","","","","","","","","","","","","","","","","","","",""
"3525","","image-button-response","149","1336928","0.0-147.0","A34GH9SAZ3NAGE","img_art/7.jpg","5","","","","","","","","","","","","","","","","","","","","","","","","",""
"9942","","image-button-response","150","1346873","0.0-148.0-0.0","A34GH9SAZ3NAGE","img_art/7.jpg","1","","","","","","","","","","","","","","","","","","","","","","","","",""
"3906","","image-button-response","151","1350782","0.0-149.0-0.0","A34GH9SAZ3NAGE","img_art/7.jpg","3","","","","","","","","","","","","","","","","","","","","","","","","",""
"null","","html-keyboard-response","152","1352284","0.0-150.0","A34GH9SAZ3NAGE","<p style=""font-size: 48px;"">+</p>","","","","","null","allTrialResponses","1500","1","15","img_art/7.jpg","18","Looks like the surface of Mars or what I imagine it to be.","Andrea,Alexa,Autumn,Angelica,Shannon,Allison","Reminds me of mold. Repulsive.,-10,240,20","Not a fan of the pattern or colors,-40,40,20","Well done minimalism.,35,340,20","This is vague and ugly.,-3,280,20","I don't like the repetitiveness of the colors, and I think there should be more colors.,-50,220,20","I like the earth tones here,5,140,20","Allison","I like the earth tones here,5,140,20","Alexa","Not a fan of the pattern or colors,-40,40,20","Angelica","This is vague and ugly.,-3,280,20","4"
"7174","","survey-text","153","1359474","0.0-151.0-0.0","A34GH9SAZ3NAGE","","","","{""Q0"":""course""}","","","","","","","","","","","","","","","","","","","","","","",""
"51964","","survey-text","154","1411442","0.0-152.0-0.0","A34GH9SAZ3NAGE","","","","{""Q0"":""I really like how the brushstrokes are on this one. Reminds me of Ursula from The Little Mermaid""}","","","","","","","","","","","","","","","","","","","","","","",""
"3430.100000023842","","image-slider-response","155","1414877","0.0-153.0","A34GH9SAZ3NAGE","","","","","23","","","","","","","","","","","","","","","","","","","","","",""
"null","","image-button-response","156","1419889","0.0-154.0","A34GH9SAZ3NAGE","img_art/30.jpg","null","","","","","","","","","","","","","","","","","","","","","","","","",""
"2471","","image-button-response","157","1422365","0.0-155.0","A34GH9SAZ3NAGE","img_art/30.jpg","4","","","","","","","","","","","","","","","","","","","","","","","","",""
"8094","","image-button-response","158","1430463","0.0-156.0-0.0","A34GH9SAZ3NAGE","img_art/30.jpg","1","","","","","","","","","","","","","","","","","","","","","","","","",""
"2186","","image-button-response","159","1432652","0.0-157.0-0.0","A34GH9SAZ3NAGE","img_art/30.jpg","0","","","","","","","","","","","","","","","","","","","","","","","","",""
"null","","html-keyboard-response","160","1433655","0.0-158.0","A34GH9SAZ3NAGE","<p style=""font-size: 48px;"">+</p>","","","","","null","allTrialResponses","1000","1","16","img_art/30.jpg","23","I really like how the brushstrokes are on this one. Reminds me of Ursula from The Little Mermaid","Alicia,Alexa,Kaitlyn,Angelica,Sydney,Allison","Neat, but simple, I could make this. not skilled.,9,120,20","Looks quite basic but the colors are nice and there is a wildness about it that I love,0,40,20","Do not like the streaks,-14,80,20","This is just simple and ugly.,-2,280,20","I love the colors, the style, and the uniqueness in this piece. I love everything.,50,320,20","Dislike the contrast here.,-5,140,20","Sydney","I love the colors, the style, and the uniqueness in this piece. I love everything.,50,320,20","Alexa","Looks quite basic but the colors are nice and there is a wildness about it that I love,0,40,20","Alicia","Neat, but simple, I could make this. not skilled.,9,120,20","4"
"57415","","survey-text","161","1491078","0.0-159.0-0.0","A34GH9SAZ3NAGE","","","","{""Q0"":""The background looks very nice but the green and white drawings look like chicken-scratch.""}","","","","","","","","","","","","","","","","","","","","","","",""
"6078","","image-slider-response","162","1497160","0.0-160.0","A34GH9SAZ3NAGE","","","","","22","","","","","","","","","","","","","","","","","","","","","",""
"null","","image-button-response","163","1502165","0.0-161.0","A34GH9SAZ3NAGE","img_art/27.jpg","null","","","","","","","","","","","","","","","","","","","","","","","","",""
"622","","image-button-response","164","1502790","0.0-162.0","A34GH9SAZ3NAGE","img_art/27.jpg","0","","","","","","","","","","","","","","","","","","","","","","","","",""
"4274","","image-button-response","165","1507070","0.0-163.0-0.0","A34GH9SAZ3NAGE","img_art/27.jpg","5","","","","","","","","","","","","","","","","","","","","","","","","",""
"13006","","image-button-response","166","1520080","0.0-164.0-0.0","A34GH9SAZ3NAGE","img_art/27.jpg","1","","","","","","","","","","","","","","","","","","","","","","","","",""
"null","","html-keyboard-response","167","1521586","0.0-165.0","A34GH9SAZ3NAGE","<p style=""font-size: 48px;"">+</p>","","","","","null","allTrialResponses","1500","1","17","img_art/27.jpg","22","The background looks very nice but the green and white drawings look like chicken-scratch.","Alicia,Alexa,Meghan,Julia,Sydney,Katherine","dont like it, don't hate it, meh.,2,120,20","I love the mood of this painting,30,40,20","again looks like childrens artwork,-40,220,20","Colors could be more pleasing, but I really like the thinner lines superimposed over the background,25,40,20","This piece reminds me of a summer day.,30,320,20","it's like a weird version of heaven,16,120,20","Alicia","dont like it, don't hate it, meh.,2,120,20","Katherine","it's like a weird version of heaven,16,120,20","Alexa","I love the mood of this painting,30,40,20","4"
"41902","","survey-text","168","1563496","0.0-166.0-0.0","A34GH9SAZ3NAGE","","","","{""Q0"":""Looks like a nice neighborhood to stay in ""}","","","","","","","","","","","","","","","","","","","","","","",""
"2879.7000000476837","","image-slider-response","169","1566380","0.0-167.0","A34GH9SAZ3NAGE","","","","","32","","","","","","","","","","","","","","","","","","","","","",""
"null","","image-button-response","170","1571384","0.0-168.0","A34GH9SAZ3NAGE","img_art/26.jpg","null","","","","","","","","","","","","","","","","","","","","","","","","",""
"887","","image-button-response","171","1572274","0.0-169.0","A34GH9SAZ3NAGE","img_art/26.jpg","0","","","","","","","","","","","","","","","","","","","","","","","","",""
"5528","","image-button-response","172","1577807","0.0-170.0-0.0","A34GH9SAZ3NAGE","img_art/26.jpg","2","","","","","","","","","","","","","","","","","","","","","","","","",""
"9927","","image-button-response","173","1587740","0.0-171.0-0.0","A34GH9SAZ3NAGE","img_art/26.jpg","5","","","","","","","","","","","","","","","","","","","","","","","","",""
"null","","html-keyboard-response","174","1588742","0.0-172.0","A34GH9SAZ3NAGE","<p style=""font-size: 48px;"">+</p>","","","","","null","allTrialResponses","1000","1","18","img_art/26.jpg","32","Looks like a nice neighborhood to stay in ","Alicia,Alexa,Claire,Molly,Bailey,Katherine","I like the simple watercolor colors, makes my mind work, thumbs up.,27,120,20","Looks messy and like it was painted by a small child,-48,40,20","very impressionistic,11,260,20","Nothing to say.,0,340,20","Too blocky and unfocused. It's like the inside of a house, and the outside.,-24,360,20","This style of objects that are supposed to be something but then are blurry is interesting.,38,120,20","Alicia","I like the simple watercolor colors, makes my mind work, thumbs up.,27,120,20","Claire","very impressionistic,11,260,20","Katherine","This style of objects that are supposed to be something but then are blurry is interesting.,38,120,20","4"
"55941","","survey-text","175","1644690","0.0-173.0-0.0","A34GH9SAZ3NAGE","","","","{""Q0"":""Could be a representation of what the bear is supposed to mean""}","","","","","","","","","","","","","","","","","","","","","","",""
"4320","","image-slider-response","176","1649013","0.0-174.0","A34GH9SAZ3NAGE","","","","","-14","","","","","","","","","","","","","","","","","","","","","",""
"null","","image-button-response","177","1654017","0.0-175.0","A34GH9SAZ3NAGE","img_art/16.jpg","null","","","","","","","","","","","","","","","","","","","","","","","","",""
"3039","","image-button-response","178","1657060","0.0-176.0","A34GH9SAZ3NAGE","img_art/16.jpg","2","","","","","","","","","","","","","","","","","","","","","","","","",""
"576","","image-button-response","179","1657640","0.0-177.0-0.0","A34GH9SAZ3NAGE","img_art/16.jpg","1","","","","","","","","","","","","","","","","","","","","","","","","",""
"5442","","image-button-response","180","1663087","0.0-178.0-0.0","A34GH9SAZ3NAGE","img_art/16.jpg","4","","","","","","","","","","","","","","","","","","","","","","","","",""
"null","","html-keyboard-response","181","1664590","0.0-179.0","A34GH9SAZ3NAGE","<p style=""font-size: 48px;"">+</p>","","","","","null","allTrialResponses","1500","1","19","img_art/16.jpg","-14","Could be a representation of what the bear is supposed to mean","Alicia,Madeline,Claire,Crystal,Kayla,Katherine","Don't get it. Hate it. ugly.,-44,120,20","That bear looks unfitting!,-8,40,20","the materials used are interesting,30,260,20","Garble and nonsense,-50,300,20","Looks upsetting. Like it's actually graphic violence but you can't tell.,-24,180,20","Super weird. Id like to know more about it,24,120,20","Claire","the materials used are interesting,30,260,20","Madeline","That bear looks unfitting!,-8,40,20","Kayla","Looks upsetting. Like it's actually graphic violence but you can't tell.,-24,180,20","4"
"31431","","survey-text","182","1696032","0.0-180.0-0.0","A34GH9SAZ3NAGE","","","","{""Q0"":""This is too plain and too simplistic""}","","","","","","","","","","","","","","","","","","","","","","",""
"4651.199999928474","","image-slider-response","183","1700688","0.0-181.0","A34GH9SAZ3NAGE","","","","","-50","","","","","","","","","","","","","","","","","","","","","",""
"null","","image-button-response","184","1705693","0.0-182.0","A34GH9SAZ3NAGE","img_art/5.jpg","null","","","","","","","","","","","","","","","","","","","","","","","","",""
"662","","image-button-response","185","1706358","0.0-183.0","A34GH9SAZ3NAGE","img_art/5.jpg","0","","","","","","","","","","","","","","","","","","","","","","","","",""
"307","","image-button-response","186","1706669","0.0-184.0-0.0","A34GH9SAZ3NAGE","img_art/5.jpg","1","","","","","","","","","","","","","","","","","","","","","","","","",""
"4072","","image-button-response","187","1710745","0.0-185.0-0.0","A34GH9SAZ3NAGE","img_art/5.jpg","5","","","","","","","","","","","","","","","","","","","","","","","","",""
"null","","html-keyboard-response","188","1711248","0.0-186.0","A34GH9SAZ3NAGE","<p style=""font-size: 48px;"">+</p>","","","","","null","allTrialResponses","500","1","20","img_art/5.jpg","-50","This is too plain and too simplistic","Alexis,Madeline,Claire,Isabella,Kayla,Sabrina","Kindergarten art. I really don't like this style.,-50,100,20","A bit too messy in my eyes,-4,40,20","I like the strokes and colors used,20,260,20","Seems clean and neat,11,280,20","I like that the pyramid is putting off a beacon of light.,11,180,20","Very messy and not a lot of thought,-29,120,20","Alexis","Kindergarten art. I really don't like this style.,-50,100,20","Madeline","A bit too messy in my eyes,-4,40,20","Sabrina","Very messy and not a lot of thought,-29,120,20","4"
"2589","","survey-text","189","1713853","0.0-187.0-0.0","A34GH9SAZ3NAGE","","","","{""Q0"":""we""}","","","","","","","","","","","","","","","","","","","","","","",""
"51632","","survey-text","190","1765488","0.0-188.0-0.0","A34GH9SAZ3NAGE","","","","{""Q0"":""I like this. It seems a bit hopeful. Like there's a guy on a mountain top looking out.""}","","","","","","","","","","","","","","","","","","","","","","",""
"3139.600000023842","","image-slider-response","191","1768631","0.0-189.0","A34GH9SAZ3NAGE","","","","","40","","","","","","","","","","","","","","","","","","","","","",""
"null","","image-button-response","192","1773635","0.0-190.0","A34GH9SAZ3NAGE","img_art/21.jpg","null","","","","","","","","","","","","","","","","","","","","","","","","",""
"1111","","image-button-response","193","1774749","0.0-191.0","A34GH9SAZ3NAGE","img_art/21.jpg","0","","","","","","","","","","","","","","","","","","","","","","","","",""
"654","","image-button-response","194","1775407","0.0-192.0-0.0","A34GH9SAZ3NAGE","img_art/21.jpg","2","","","","","","","","","","","","","","","","","","","","","","","","",""
"7274","","image-button-response","195","1782685","0.0-193.0-0.0","A34GH9SAZ3NAGE","img_art/21.jpg","4","","","","","","","","","","","","","","","","","","","","","","","","",""
"null","","html-keyboard-response","196","1783688","0.0-194.0","A34GH9SAZ3NAGE","<p style=""font-size: 48px;"">+</p>","","","","","null","allTrialResponses","1000","1","21","img_art/21.jpg","40","I like this. It seems a bit hopeful. Like there's a guy on a mountain top looking out.","Alexis,Madeline,Lauren,Olivia,Taylor,Sabrina","I love this. Reminds me of a coast. The colors flow beautifully,40,100,20","Evokes a strong colorful sense,8,40,20","I like how the piece has the possibility of depicting some type of story.,30,340,20","feels like a wave coming into light,9,40,20","I love the contrasting tones between the two sides,36,340,20","I like the representation of love and hate in this,43,120,20","Alexis","I love this. Reminds me of a coast. The colors flow beautifully,40,100,20","Lauren","I like how the piece has the possibility of depicting some type of story.,30,340,20","Taylor","I love the contrasting tones between the two sides,36,340,20","4"
"42345","","survey-text","197","1826042","0.0-195.0-0.0","A34GH9SAZ3NAGE","","","","{""Q0"":""The background has nice cool colors with some splatter art on top.""}","","","","","","","","","","","","","","","","","","","","","","",""
"2718.399999976158","","image-slider-response","198","1828764","0.0-196.0","A34GH9SAZ3NAGE","","","","","32","","","","","","","","","","","","","","","","","","","","","",""
"null","","image-button-response","199","1833768","0.0-197.0","A34GH9SAZ3NAGE","img_art/13.jpg","null","","","","","","","","","","","","","","","","","","","","","","","","",""
"600","","image-button-response","200","1834371","0.0-198.0","A34GH9SAZ3NAGE","img_art/13.jpg","0","","","","","","","","","","","","","","","","","","","","","","","","",""
"354","","image-button-response","201","1834728","0.0-199.0-0.0","A34GH9SAZ3NAGE","img_art/13.jpg","1","","","","","","","","","","","","","","","","","","","","","","","","",""
"2357","","image-button-response","202","1837088","0.0-200.0-0.0","A34GH9SAZ3NAGE","img_art/13.jpg","2","","","","","","","","","","","","","","","","","","","","","","","","",""
"null","","html-keyboard-response","203","1837606","0.0-201.0","A34GH9SAZ3NAGE","<p style=""font-size: 48px;"">+</p>","","","","","null","allTrialResponses","500","1","22","img_art/13.jpg","32","The background has nice cool colors with some splatter art on top.","Alexis,Kylie,Lauren,Paige,Taylor,Chelsea","Simple, but pleasing. The blue gradient is a favorite of mine,32,100,20","Very abstract and soothing,40,300,20","I like the color coordination between the foreground and background.,10,340,20","Pleased. I like to combination of colors,17,60,20","It makes me think of sitting inside on a rainy day while drinking a warm coffee,32,340,20","The colors are okay but I don't like the shapes here.,-18,180,20","Alexis","Simple, but pleasing. The blue gradient is a favorite of mine,32,100,20","Kylie","Very abstract and soothing,40,300,20","Lauren","I like the color coordination between the foreground and background.,10,340,20","4"
"32248","","survey-text","204","1869863","0.0-202.0-0.0","A34GH9SAZ3NAGE","","","","{""Q0"":""It looks like it could be opening into another dimension.""}","","","","","","","","","","","","","","","","","","","","","","",""
"3478.5","","image-slider-response","205","1873345","0.0-203.0","A34GH9SAZ3NAGE","","","","","26","","","","","","","","","","","","","","","","","","","","","",""
"null","","image-button-response","206","1878350","0.0-204.0","A34GH9SAZ3NAGE","img_art/11.jpg","null","","","","","","","","","","","","","","","","","","","","","","","","",""
"972","","image-button-response","207","1879326","0.0-205.0","A34GH9SAZ3NAGE","img_art/11.jpg","1","","","","","","","","","","","","","","","","","","","","","","","","",""
"417","","image-button-response","208","1879747","0.0-206.0-0.0","A34GH9SAZ3NAGE","img_art/11.jpg","2","","","","","","","","","","","","","","","","","","","","","","","","",""
"4047","","image-button-response","209","1883800","0.0-207.0-0.0","A34GH9SAZ3NAGE","img_art/11.jpg","5","","","","","","","","","","","","","","","","","","","","","","","","",""
"null","","html-keyboard-response","210","1885302","0.0-208.0","A34GH9SAZ3NAGE","<p style=""font-size: 48px;"">+</p>","","","","","null","allTrialResponses","1500","1","23","img_art/11.jpg","26","It looks like it could be opening into another dimension.","Alexis,Kylie,Lauren,Haley,Jenna,Miranda","Don't like cityscapes, which this picture reminds me of,-29,100,20","This looks like a busy highway system along a suburban background,40,300,20","I like how this piece can be interpreted in different ways, such as a village on hilly terrain.,10,340,20","Lovely. I could look at this for a really long time. I love the details and the composition.,40,220,20","makes me think of city highways & bridges on a rainy, foggy day. I like the melancholy it evokes.,43,360,20","This one is a little erie, gives me post-apocalyptic feeling,27,320,20","Kylie","This looks like a busy highway system along a suburban background,40,300,20","Lauren","I like how this piece can be interpreted in different ways, such as a village on hilly terrain.,10,340,20","Miranda","This one is a little erie, gives me post-apocalyptic feeling,27,320,20","4"
"62161","","survey-text","211","1947469","0.0-209.0-0.0","A34GH9SAZ3NAGE","","","","{""Q0"":""The scene seems kinda chaotic and unfocussed but it does look very clean.""}","","","","","","","","","","","","","","","","","","","","","","",""
"2601.2000000476837","","image-slider-response","212","1950075","0.0-210.0","A34GH9SAZ3NAGE","","","","","6","","","","","","","","","","","","","","","","","","","","","",""
"null","","image-button-response","213","1955085","0.0-211.0","A34GH9SAZ3NAGE","img_art/8.jpg","null","","","","","","","","","","","","","","","","","","","","","","","","",""
"19740","","image-button-response","214","1974828","0.0-212.0","A34GH9SAZ3NAGE","img_art/8.jpg","0","","","","","","","","","","","","","","","","","","","","","","","","",""
"4436","","image-button-response","215","1979268","0.0-213.0-0.0","A34GH9SAZ3NAGE","img_art/8.jpg","2","","","","","","","","","","","","","","","","","","","","","","","","",""
"4932","","image-button-response","216","1984205","0.0-214.0-0.0","A34GH9SAZ3NAGE","img_art/8.jpg","4","","","","","","","","","","","","","","","","","","","","","","","","",""
"null","","html-keyboard-response","217","1984707","0.0-215.0","A34GH9SAZ3NAGE","<p style=""font-size: 48px;"">+</p>","","","","","null","allTrialResponses","500","1","24","img_art/8.jpg","6","The scene seems kinda chaotic and unfocussed but it does look very clean.","Leah,Kylie,Lauren,Caitlin,Margaret,Miranda","Nice formats, I just don't like it much,-16,360,20","Very abstract and seems symbolic,45,300,20","I like how the piece is showcasing emotion in relation to something.,25,340,20","And I'll huff and I'll puff and I'll blow your town down!!,20,80,20","its pretty exciting to look at, there is alot going on,15,100,20","I like this, the longer I look at in the more details I see.,41,320,20","Leah","Nice formats, I just don't like it much,-16,360,20","Lauren","I like how the piece is showcasing emotion in relation to something.,25,340,20","Margaret","its pretty exciting to look at, there is alot going on,15,100,20","4"
"38651","","survey-text","218","2023368","0.0-216.0-0.0","A34GH9SAZ3NAGE","","","","{""Q0"":""Looks like a waterfall surrounded by nature.""}","","","","","","","","","","","","","","","","","","","","","","",""
"3362.5","","image-slider-response","219","2026734","0.0-217.0","A34GH9SAZ3NAGE","","","","","17","","","","","","","","","","","","","","","","","","","","","",""
"null","","image-button-response","220","2031738","0.0-218.0","A34GH9SAZ3NAGE","img_art/24.jpg","null","","","","","","","","","","","","","","","","","","","","","","","","",""
"532","","image-button-response","221","2032274","0.0-219.0","A34GH9SAZ3NAGE","img_art/24.jpg","3","","","","","","","","","","","","","","","","","","","","","","","","",""
"3688","","image-button-response","222","2035966","0.0-220.0-0.0","A34GH9SAZ3NAGE","img_art/24.jpg","4","","","","","","","","","","","","","","","","","","","","","","","","",""
"3367","","image-button-response","223","2039337","0.0-221.0-0.0","A34GH9SAZ3NAGE","img_art/24.jpg","5","","","","","","","","","","","","","","","","","","","","","","","","",""
"null","","html-keyboard-response","224","2039840","0.0-222.0","A34GH9SAZ3NAGE","<p style=""font-size: 48px;"">+</p>","","","","","null","allTrialResponses","500","1","25","img_art/24.jpg","17","Looks like a waterfall surrounded by nature.","Leah,Erin,Lauren,Makayla,Margaret,Victoria","Happy, the forest as I would love to see it,50,360,20","Too literal, not abstract,-29,120,20","Invokes a strong sense of nature, since the piece can interpreted as a stream or an abstracted bird.,40,340,20","Looks like a serene waterfall and woods,29,80,20","peaceful and serene but Im not the biggest landscape fan,4,100,20","very peaceful and serene,47,400,20","Makayla","Looks like a serene waterfall and woods,29,80,20","Margaret","peaceful and serene but Im not the biggest landscape fan,4,100,20","Victoria","very peaceful and serene,47,400,20","4"
"4136","","survey-text","225","2043994","0.0-223.0-0.0","A34GH9SAZ3NAGE","","","","{""Q0"":""table""}","","","","","","","","","","","","","","","","","","","","","","",""
"42953","","survey-text","226","2086950","0.0-224.0-0.0","A34GH9SAZ3NAGE","","","","{""Q0"":""Could possibly be a cell like in the human body but abstract.""}","","","","","","","","","","","","","","","","","","","","","","",""
"7591.800000071526","","image-slider-response","227","2094545","0.0-225.0","A34GH9SAZ3NAGE","","","","","7","","","","","","","","","","","","","","","","","","","","","",""
"null","","image-button-response","228","2099551","0.0-226.0","A34GH9SAZ3NAGE","img_art/9.jpg","null","","","","","","","","","","","","","","","","","","","","","","","","",""
"3898","","image-button-response","229","2103452","0.0-227.0","A34GH9SAZ3NAGE","img_art/9.jpg","1","","","","","","","","","","","","","","","","","","","","","","","","",""
"3354","","image-button-response","230","2106811","0.0-228.0-0.0","A34GH9SAZ3NAGE","img_art/9.jpg","5","","","","","","","","","","","","","","","","","","","","","","","","",""
"2292","","image-button-response","231","2109108","0.0-229.0-0.0","A34GH9SAZ3NAGE","img_art/9.jpg","4","","","","","","","","","","","","","","","","","","","","","","","","",""
"null","","html-keyboard-response","232","2110111","0.0-230.0","A34GH9SAZ3NAGE","<p style=""font-size: 48px;"">+</p>","","","","","null","allTrialResponses","1000","1","26","img_art/9.jpg","7","Could possibly be a cell like in the human body but abstract.","Madison,Kimberly,Amanda,Makayla,Margaret,Victoria","No cohesive form whatsoever. Hard pass.,-31,60,20","It's too all over the place,-37,260,20","Makes me feel angry, its not very clear,-50,180,20","Looks like a monster's teeth , unsettling,-18,80,20","keeps me interested. like the colors,17,100,20","reminds me of a story book,18,400,20","Kimberly","It's too all over the place,-37,260,20","Victoria","reminds me of a story book,18,400,20","Margaret","keeps me interested. like the colors,17,100,20","4"
"36991","","survey-text","233","2147114","0.0-231.0-0.0","A34GH9SAZ3NAGE","","","","{""Q0"":""Seems like there's a thick fog over the trees.""}","","","","","","","","","","","","","","","","","","","","","","",""
"4623.800000071526","","image-slider-response","234","2151739","0.0-232.0","A34GH9SAZ3NAGE","","","","","35","","","","","","","","","","","","","","","","","","","","","",""
"null","","image-button-response","235","2156744","0.0-233.0","A34GH9SAZ3NAGE","img_art/17.jpg","null","","","","","","","","","","","","","","","","","","","","","","","","",""
"1243","","image-button-response","236","2157990","0.0-234.0","A34GH9SAZ3NAGE","img_art/17.jpg","1","","","","","","","","","","","","","","","","","","","","","","","","",""
"3655","","image-button-response","237","2161649","0.0-235.0-0.0","A34GH9SAZ3NAGE","img_art/17.jpg","5","","","","","","","","","","","","","","","","","","","","","","","","",""
"707","","image-button-response","238","2162361","0.0-236.0-0.0","A34GH9SAZ3NAGE","img_art/17.jpg","4","","","","","","","","","","","","","","","","","","","","","","","","",""
"null","","html-keyboard-response","239","2163863","0.0-237.0","A34GH9SAZ3NAGE","<p style=""font-size: 48px;"">+</p>","","","","","null","allTrialResponses","1500","1","27","img_art/17.jpg","35","Seems like there's a thick fog over the trees.","Chloe,Kimberly,Mackenzie,Kelsey,Margaret,Victoria","Pretty but a little cheesy,-10,220,20","I like the trees, but the doors less so,19,260,20","Very fun textures,32,20,20","this ones alright,10,240,20","gentle watercolor vibes,12,100,20","love the wispyness of it,34,400,20","Kimberly","I like the trees, but the doors less so,19,260,20","Victoria","love the wispyness of it,34,400,20","Margaret","gentle watercolor vibes,12,100,20","4"
"41472","","survey-text","240","2205346","0.0-238.0-0.0","A34GH9SAZ3NAGE","","","","{""Q0"":""Appears to be a religious deity in the middle of the painting with maybe their followers behind them.""}","","","","","","","","","","","","","","","","","","","","","","",""
"2857.7000000476837","","image-slider-response","241","2208207","0.0-239.0","A34GH9SAZ3NAGE","","","","","-5","","","","","","","","","","","","","","","","","","","","","",""
"null","","image-button-response","242","2213210","0.0-240.0","A34GH9SAZ3NAGE","img_art/25.jpg","null","","","","","","","","","","","","","","","","","","","","","","","","",""
"625","","image-button-response","243","2213840","0.0-241.0","A34GH9SAZ3NAGE","img_art/25.jpg","1","","","","","","","","","","","","","","","","","","","","","","","","",""
"5157","","image-button-response","244","2219001","0.0-242.0-0.0","A34GH9SAZ3NAGE","img_art/25.jpg","5","","","","","","","","","","","","","","","","","","","","","","","","",""
"3948","","image-button-response","245","2222953","0.0-243.0-0.0","A34GH9SAZ3NAGE","img_art/25.jpg","4","","","","","","","","","","","","","","","","","","","","","","","","",""
"null","","html-keyboard-response","246","2223468","0.0-244.0","A34GH9SAZ3NAGE","<p style=""font-size: 48px;"">+</p>","","","","","null","allTrialResponses","500","1","28","img_art/25.jpg","-5","Appears to be a religious deity in the middle of the painting with maybe their followers behind them.","Emily,Kimberly,Jessica,Tiffany,Margaret,Victoria","Low skill not impressed.,-14,40,20","Cult-like, which to me makes it kind of creepy,-21,260,20","I really like how the lines form this piece.,8,400,20","I feel little to no emotion looking at this painting.,0,360,20","love the color and the contrast of the black on teal,50,100,20","makes me think of a scary movie,-20,400,20","Kimberly","Cult-like, which to me makes it kind of creepy,-21,260,20","Victoria","makes me think of a scary movie,-20,400,20","Margaret","love the color and the contrast of the black on teal,50,100,20","4"
"40253","","survey-text","247","2263733","0.0-245.0-0.0","A34GH9SAZ3NAGE","","","","{""Q0"":""Seems like their a motor vehicle in front of a burning building.""}","","","","","","","","","","","","","","","","","","","","","","",""
"2998.100000023842","","image-slider-response","248","2266736","0.0-246.0","A34GH9SAZ3NAGE","","","","","8","","","","","","","","","","","","","","","","","","","","","",""
"null","","image-button-response","249","2271740","0.0-247.0","A34GH9SAZ3NAGE","img_art/20.jpg","null","","","","","","","","","","","","","","","","","","","","","","","","",""
"686","","image-button-response","250","2272429","0.0-248.0","A34GH9SAZ3NAGE","img_art/20.jpg","0","","","","","","","","","","","","","","","","","","","","","","","","",""
"5004","","image-button-response","251","2277437","0.0-249.0-0.0","A34GH9SAZ3NAGE","img_art/20.jpg","1","","","","","","","","","","","","","","","","","","","","","","","","",""
"14454","","image-button-response","252","2291896","0.0-250.0-0.0","A34GH9SAZ3NAGE","img_art/20.jpg","2","","","","","","","","","","","","","","","","","","","","","","","","",""
"null","","html-keyboard-response","253","2293399","0.0-251.0","A34GH9SAZ3NAGE","<p style=""font-size: 48px;"">+</p>","","","","","null","allTrialResponses","1500","1","29","img_art/20.jpg","8","Seems like their a motor vehicle in front of a burning building.","Jennifer,Kimberly,Amy,Jacqueline,Margaret,Victoria","Neutral, this piece doesn't strike me as particularly bad or good,0,380,20","Something bad has happened TO reality,-23,260,20","Elements that are more defined are incongruous to the soft and melting nature of this painting,5,220,20","Looks like a refinery dumping shit into the water.,-40,300,20","It seems to be a neutral cool toned art piece. Gives me alamo/desert vibes,2,100,20","like the colors and desert feel,7,400,20","Jennifer","Neutral, this piece doesn't strike me as particularly bad or good,0,380,20","Kimberly","Something bad has happened TO reality,-23,260,20","Amy","Elements that are more defined are incongruous to the soft and melting nature of this painting,5,220,20","4"
"41385","","survey-text","254","2334795","0.0-252.0-0.0","A34GH9SAZ3NAGE","","","","{""Q0"":""It seems like a mess. Like someone was beaten up and now there's blood all over them.""}","","","","","","","","","","","","","","","","","","","","","","",""
"3237.899999976158","","image-slider-response","255","2338038","0.0-253.0","A34GH9SAZ3NAGE","","","","","-50","","","","","","","","","","","","","","","","","","","","","",""
"null","","image-button-response","256","2343043","0.0-254.0","A34GH9SAZ3NAGE","img_art/3.jpg","null","","","","","","","","","","","","","","","","","","","","","","","","",""
"2441","","image-button-response","257","2345488","0.0-255.0","A34GH9SAZ3NAGE","img_art/3.jpg","0","","","","","","","","","","","","","","","","","","","","","","","","",""
"9319","","image-button-response","258","2354811","0.0-256.0-0.0","A34GH9SAZ3NAGE","img_art/3.jpg","3","","","","","","","","","","","","","","","","","","","","","","","","",""
"6541","","image-button-response","259","2361357","0.0-257.0-0.0","A34GH9SAZ3NAGE","img_art/3.jpg","4","","","","","","","","","","","","","","","","","","","","","","","","",""
"null","","html-keyboard-response","260","2361859","0.0-258.0","A34GH9SAZ3NAGE","<p style=""font-size: 48px;"">+</p>","","","","","null","allTrialResponses","500","1","30","img_art/3.jpg","-50","It seems like a mess. Like someone was beaten up and now there's blood all over them.","Jennifer,Kimberly,Amy,Sara,Maria,Megan","This looks like something a child created in 5 minutes.,-50,380,20","I like that it feels kind of simple but still chaotic,6,260,20","i like the colors particulairly the contrast of foreground to background. Exciting and thoughtful.,10,220,20","Random use of red and looks scary,-50,160,20","I struggle to see the art,-20,120,20","5 min scribble by a 3 year old,-46,200,20","Jennifer","This looks like something a child created in 5 minutes.,-50,380,20","Sara","Random use of red and looks scary,-50,160,20","Maria","I struggle to see the art,-20,120,20","4"
"3664","","image-button-response_instructions","261","2365534","0.0-259.0","A34GH9SAZ3NAGE","","0","instructions","","","","","","","","","","","","","","","","","","","","","","","",""
"1012","","image-button-response","262","2366554","0.0-260.0","A34GH9SAZ3NAGE","","0","","","","","","","","","","","","","","","","","","","","","","","","",""
