"rt","url","trial_type","trial_index","time_elapsed","internal_node_id","participant_id","stimulus","button_pressed","Name","responses","response","key_press","variableName","fixationTime","condition","trial","photo","subjectRating","subjectResponse","agentsNames","agent_1_Response","agent_2_Response","agent_3_Response","agent_4_Response","agent_5_Response","agent_6_Response","kept_1_name","kept_1_response","kept_2_name","kept_2_response","kept_3_name","kept_3_response","errorCounter"
"24291","external_page_harvard.html","external-html","0","24325","0.0-0.0","A34H7UVYQTC390","","","","","","","","","","","","","","","","","","","","","","","","","","",""
"1501","","image-button-response","1","25828","0.0-1.0","A34H7UVYQTC390","","1","","","","","","","","","","","","","","","","","","","","","","","","",""
"1395","","image-button-response","2","27227","0.0-2.0-0.0","A34H7UVYQTC390","","1","phone","","","","","","","","","","","","","","","","","","","","","","","",""
"4943","","survey-text","3","32172","0.0-3.0-0.0","A34H7UVYQTC390","","","","{""Q0"":""A34H7UVYQTC390""}","","","","","","","","","","","","","","","","","","","","","","",""
"2582","","image-button-response_instructions","4","34756","0.0-4.0","A34H7UVYQTC390","","0","instructions","","","","","","","","","","","","","","","","","","","","","","","",""
"6694","","image-button-response_instructions","5","41451","0.0-5.0","A34H7UVYQTC390","img_art/ins/popularity/ins1.png","0","instructions","","","","","","","","","","","","","","","","","","","","","","","",""
"4559","","image-button-response_instructions","6","46011","0.0-6.0","A34H7UVYQTC390","img_art/ins/popularity/ins2.png","0","instructions","","","","","","","","","","","","","","","","","","","","","","","",""
"3078","","image-button-response_instructions","7","49091","0.0-7.0","A34H7UVYQTC390","img_art/ins/popularity/ins2Extreme.png","0","instructions","","","","","","","","","","","","","","","","","","","","","","","",""
"9992","","image-button-response_instructions","8","59083","0.0-8.0","A34H7UVYQTC390","img_art/ins/popularity/ins3KEEPpop.PNG","0","instructions","","","","","","","","","","","","","","","","","","","","","","","",""
"2520","","image-button-response_instructions","9","61604","0.0-9.0","A34H7UVYQTC390","img_art/ins/popularity/ins3ANamepop.PNG","0","instructions","","","","","","","","","","","","","","","","","","","","","","","",""
"1631","","image-button-response_instructions","10","63235","0.0-10.0","A34H7UVYQTC390","img_art/ins/popularity/ins3ARatingpop.png","0","instructions","","","","","","","","","","","","","","","","","","","","","","","",""
"1999","","image-button-response_instructions","11","65235","0.0-11.0","A34H7UVYQTC390","img_art/ins/popularity/ins3ATextpop.png","0","instructions","","","","","","","","","","","","","","","","","","","","","","","",""
"2887","","image-button-response_instructions","12","68123","0.0-12.0","A34H7UVYQTC390","img_art/ins/popularity/ins3ALikespop.png","0","instructions","","","","","","","","","","","","","","","","","","","","","","","",""
"4432","","image-button-response_instructions","13","72555","0.0-13.0","A34H7UVYQTC390","img_art/ins/popularity/ins3KEEPpop.PNG","0","instructions","","","","","","","","","","","","","","","","","","","","","","","",""
"4751","","image-button-response_instructions","14","77307","0.0-14.0","A34H7UVYQTC390","img_art/ins/popularity/ins3_5RED.png","0","instructions","","","","","","","","","","","","","","","","","","","","","","","",""
"2399","","image-button-response_instructions","15","79707","0.0-15.0","A34H7UVYQTC390","img_art/ins/popularity/ins3KEEPpop.PNG","0","instructions","","","","","","","","","","","","","","","","","","","","","","","",""
"5607","","image-button-response_instructions","16","85315","0.0-16.0","A34H7UVYQTC390","img_art/ins/popularity/ins4KEEPpop.PNG","0","instructions","","","","","","","","","","","","","","","","","","","","","","","",""
"2199","","image-button-response_instructions","17","87515","0.0-17.0","A34H7UVYQTC390","img_art/ins/popularity/ins5KEEPpop.PNG","0","instructions","","","","","","","","","","","","","","","","","","","","","","","",""
"1128","","image-button-response_instructions","18","88643","0.0-18.0","A34H7UVYQTC390","","0","instructions","","","","","","","","","","","","","","","","","","","","","","","",""
"2858","","survey-text","19","91516","0.0-19.0-0.0","A34H7UVYQTC390","","","","{""Q0"":""but""}","","","","","","","","","","","","","","","","","","","","","","",""
"22782","","survey-text","20","114300","0.0-20.0-0.0","A34H7UVYQTC390","","","","{""Q0"":""It looks like a color smear, maybe something water related.""}","","","","","","","","","","","","","","","","","","","","","","",""
"9141.399999976158","","image-slider-response","21","123444","0.0-21.0","A34H7UVYQTC390","","","","","-11","","","","","","","","","","","","","","","","","","","","","",""
"null","","image-button-response","22","128448","0.0-22.0","A34H7UVYQTC390","img_art/ins/1.jpg","null","","","","","","","","","","","","","","","","","","","","","","","","",""
"2826","","image-button-response","23","131275","0.0-23.0","A34H7UVYQTC390","img_art/ins/1.jpg","1","","","","","","","","","","","","","","","","","","","","","","","","",""
"2775","","image-button-response","24","134051","0.0-24.0-0.0","A34H7UVYQTC390","img_art/ins/1.jpg","0","","","","","","","","","","","","","","","","","","","","","","","","",""
"1975","","image-button-response","25","136027","0.0-25.0-0.0","A34H7UVYQTC390","img_art/ins/1.jpg","0","","","","","","","","","","","","","","","","","","","","","","","","",""
"6751","","image-button-response","26","146155","0.0-25.1-0.1","A34H7UVYQTC390","img_art/ins/1.jpg","5","","","","","","","","","","","","","","","","","","","","","","","","",""
"null","","html-keyboard-response","27","147157","0.0-26.0","A34H7UVYQTC390","<p style=""font-size: 48px;"">+</p>","","","","","null","allTrialResponses","1000","1","-2","img_art/ins/1.jpg","-11","It looks like a color smear, maybe something water related.","Allison,Ashley,Beth,Dora,Erika,Jen","looks like a lot of things going on in the mist,20,20,20","I just don't get why these type of art would be popular,-32,40,20","This color reminds me of poo,-46,60,20","looks like what my niece in 3rd grade did this afternoon,-50,80,20","I like the sophisticated brushwork,40,100,20","It reminds me of a candy land dream I had,36,120,20","Ashley","I just don't get why these type of art would be popular,-32,40,20","Allison","looks like a lot of things going on in the mist,20,20,20","Jen","It reminds me of a candy land dream I had,36,120,20","2"
"14323","","survey-text","28","161483","0.0-27.0-0.0","A34H7UVYQTC390","","","","{""Q0"":""blocks of color, nice texture""}","","","","","","","","","","","","","","","","","","","","","","",""
"7094.600000023842","","image-slider-response","29","168579","0.0-28.0","A34H7UVYQTC390","","","","","11","","","","","","","","","","","","","","","","","","","","","",""
"1799","","image-button-response","30","173594","0.0-29.0","A34H7UVYQTC390","img_art/ins/2.jpg","0","","","","","","","","","","","","","","","","","","","","","","","","",""
"3936","","image-button-response","31","177532","0.0-30.0","A34H7UVYQTC390","img_art/ins/2.jpg","5","","","","","","","","","","","","","","","","","","","","","","","","",""
"990","","image-button-response","32","178523","0.0-31.0-0.0","A34H7UVYQTC390","img_art/ins/2.jpg","0","","","","","","","","","","","","","","","","","","","","","","","","",""
"13135","","image-button-response","33","191660","0.0-32.0-0.0","A34H7UVYQTC390","img_art/ins/2.jpg","4","","","","","","","","","","","","","","","","","","","","","","","","",""
"null","","html-keyboard-response","34","192666","0.0-33.0","A34H7UVYQTC390","<p style=""font-size: 48px;"">+</p>","","","","","null","allTrialResponses","1000","1","-1","img_art/ins/2.jpg","11","blocks of color, nice texture","Allison,Ashley,Katie,Jenna,Kara,Jen","I don't have strong feelings about this,10,20,20","Idk, it is just annoying,-32,40,20","too much color!,-28,180,20","One of my pet peevs,-48,140,20","I like the blocks of color arrangements,30,160,20","It reminds me of a fireplace,36,120,20","Jen","It reminds me of a fireplace,36,120,20","Allison","I don't have strong feelings about this,10,20,20","Kara","I like the blocks of color arrangements,30,160,20","2"
"22566","","survey-text","35","215235","0.0-34.0-0.0","A34H7UVYQTC390","","","","{""Q0"":""reminds me of an ice/snow storm with a sense of movement""}","","","","","","","","","","","","","","","","","","","","","","",""
"6007.600000023842","","image-slider-response","36","221244","0.0-35.0","A34H7UVYQTC390","","","","","10","","","","","","","","","","","","","","","","","","","","","",""
"null","","image-button-response","37","226262","0.0-36.0","A34H7UVYQTC390","img_art/ins/3.jpg","null","","","","","","","","","","","","","","","","","","","","","","","","",""
"3475","","image-button-response","38","229739","0.0-37.0","A34H7UVYQTC390","img_art/ins/3.jpg","5","","","","","","","","","","","","","","","","","","","","","","","","",""
"1727","","image-button-response","39","231467","0.0-38.0-0.0","A34H7UVYQTC390","img_art/ins/3.jpg","0","","","","","","","","","","","","","","","","","","","","","","","","",""
"5022","","image-button-response","40","236491","0.0-39.0-0.0","A34H7UVYQTC390","img_art/ins/3.jpg","3","","","","","","","","","","","","","","","","","","","","","","","","",""
"null","","html-keyboard-response","41","237004","0.0-40.0","A34H7UVYQTC390","<p style=""font-size: 48px;"">+</p>","","","","","null","allTrialResponses","500","1","0","img_art/ins/3.jpg","10","reminds me of an ice/snow storm with a sense of movement","Allison,Rose,Mary,Leslie,Kara,Jen","enjoy the different shades of blue,22,20,20","My daily routine, it's depressing,-20,240,20","I like the overlapping of brushes,41,220,20","It's an alright work,15,200,20","calming blue is very nice,36,160,20","I can feel a rainy day from this painting,18,120,20","Jen","I can feel a rainy day from this painting,18,120,20","Allison","enjoy the different shades of blue,22,20,20","Leslie","It's an alright work,15,200,20","2"
"3203","","image-button-response_instructions","42","240210","0.0-41.0","A34H7UVYQTC390","","0","instructions","","","","","","","","","","","","","","","","","","","","","","","",""
"6207","","survey-likert","43","246419","0.0-42.0-0.0","A34H7UVYQTC390","","","","{""Q0"":"""",""Q1"":0,""Q2"":1}","","","","","","","","","","","","","","","","","","","","","","",""
"3476","","survey-text","44","249899","0.0-43.0-0.0","A34H7UVYQTC390","","","","{""Q0"":""rock""}","","","","","","","","","","","","","","","","","","","","","","",""
"20126","","survey-text","45","270027","0.0-44.0-0.0","A34H7UVYQTC390","","","","{""Q0"":""seems like a storm at sea, with a ship on the right and a cliff/beach on the lft""}","","","","","","","","","","","","","","","","","","","","","","",""
"4878.299999952316","","image-slider-response","46","274907","0.0-45.0","A34H7UVYQTC390","","","","","5","","","","","","","","","","","","","","","","","","","","","",""
"null","","image-button-response","47","279923","0.0-46.0","A34H7UVYQTC390","img_art/21.jpg","null","","","","","","","","","","","","","","","","","","","","","","","","",""
"2413","","image-button-response","48","282340","0.0-47.0","A34H7UVYQTC390","img_art/21.jpg","3","","","","","","","","","","","","","","","","","","","","","","","","",""
"693","","image-button-response","49","283035","0.0-48.0-0.0","A34H7UVYQTC390","img_art/21.jpg","5","","","","","","","","","","","","","","","","","","","","","","","","",""
"1126","","image-button-response","50","284163","0.0-49.0-0.0","A34H7UVYQTC390","img_art/21.jpg","1","","","","","","","","","","","","","","","","","","","","","","","","",""
"null","","html-keyboard-response","51","285165","0.0-50.0","A34H7UVYQTC390","<p style=""font-size: 48px;"">+</p>","","","","","null","allTrialResponses","1000","1","1","img_art/21.jpg","5","seems like a storm at sea, with a ship on the right and a cliff/beach on the lft","Erica,Briana,Cheyenne,Melissa,Caitlin,Laura","Relaxing and easy to look at,27,80,20","Unfinished. Confusing to look at,-12,400,20","Don't see anything special about it,-21,200,20","feels like a harbor scene,11,240,20","Remove the rocks(?) on the lower right.,5,80,20","a serene, calm and eloquent storm,9,320,20","Melissa","feels like a harbor scene,11,240,20","Laura","a serene, calm and eloquent storm,9,320,20","Briana","Unfinished. Confusing to look at,-12,400,20","2"
"29283","","survey-text","52","314451","0.0-51.0-0.0","A34H7UVYQTC390","","","","{""Q0"":""seems like a finger painting of a person""}","","","","","","","","","","","","","","","","","","","","","","",""
"3702.6999999284744","","image-slider-response","53","318155","0.0-52.0","A34H7UVYQTC390","","","","","-12","","","","","","","","","","","","","","","","","","","","","",""
"null","","image-button-response","54","323162","0.0-53.0","A34H7UVYQTC390","img_art/2.jpg","null","","","","","","","","","","","","","","","","","","","","","","","","",""
"3280","","image-button-response","55","326444","0.0-54.0","A34H7UVYQTC390","img_art/2.jpg","5","","","","","","","","","","","","","","","","","","","","","","","","",""
"790","","image-button-response","56","327236","0.0-55.0-0.0","A34H7UVYQTC390","img_art/2.jpg","2","","","","","","","","","","","","","","","","","","","","","","","","",""
"486","","image-button-response","57","327724","0.0-56.0-0.0","A34H7UVYQTC390","img_art/2.jpg","1","","","","","","","","","","","","","","","","","","","","","","","","",""
"null","","html-keyboard-response","58","328726","0.0-57.0","A34H7UVYQTC390","<p style=""font-size: 48px;"">+</p>","","","","","null","allTrialResponses","1000","1","2","img_art/2.jpg","-12","seems like a finger painting of a person","Kristen,Briana,Mary,Melissa,Lindsey,Laura","smilely face, soulful,11,280,20","Childish smiley face,-19,400,20","This looks like a professional abstract drawing. I like the shapes.,7,180,20","appealing colors,4,240,20","Not a fan of the colors or the style.,-31,400,20","active and kinetic- simplified,14,320,20","Laura","active and kinetic- simplified,14,320,20","Mary","This looks like a professional abstract drawing. I like the shapes.,7,180,20","Briana","Childish smiley face,-19,400,20","2"
"18915","","survey-text","59","347643","0.0-58.0-0.0","A34H7UVYQTC390","","","","{""Q0"":""random clouds of mess""}","","","","","","","","","","","","","","","","","","","","","","",""
"4119","","image-slider-response","60","351763","0.0-59.0","A34H7UVYQTC390","","","","","-18","","","","","","","","","","","","","","","","","","","","","",""
"4695","","image-button-response","61","356767","0.0-60.0","A34H7UVYQTC390","img_art/27.jpg","3","","","","","","","","","","","","","","","","","","","","","","","","",""
"651","","image-button-response","62","357419","0.0-61.0","A34H7UVYQTC390","img_art/27.jpg","3","","","","","","","","","","","","","","","","","","","","","","","","",""
"2903","","image-button-response","63","360324","0.0-62.0-0.0","A34H7UVYQTC390","img_art/27.jpg","0","","","","","","","","","","","","","","","","","","","","","","","","",""
"3173","","image-button-response","64","363499","0.0-63.0-0.0","A34H7UVYQTC390","img_art/27.jpg","1","","","","","","","","","","","","","","","","","","","","","","","","",""
"null","","html-keyboard-response","65","364010","0.0-64.0","A34H7UVYQTC390","<p style=""font-size: 48px;"">+</p>","","","","","null","allTrialResponses","500","1","3","img_art/27.jpg","-18","random clouds of mess","Angela,Briana,Mary,Stephanie,Brittany,Laura","It's okay. Not really interesting to me.,-10,260,20","Unfinished something?,-30,400,20","I like the layer upon layer of different mediums used here.,21,180,20","The black sketchy over the colors doesn't fit.,-4,300,20","The colors are put together in an interesting way.,-9,40,20","feels like a bar scene, tucked away in the corner of a small town,-40,320,20","Stephanie","The black sketchy over the colors doesn't fit.,-4,300,20","Angela","It's okay. Not really interesting to me.,-10,260,20","Briana","Unfinished something?,-30,400,20","2"
"11319","","survey-text","66","375331","0.0-65.0-0.0","A34H7UVYQTC390","","","","{""Q0"":""someone's hand is exploding into an alien""}","","","","","","","","","","","","","","","","","","","","","","",""
"9855.5","","image-slider-response","67","385188","0.0-66.0","A34H7UVYQTC390","","","","","-16","","","","","","","","","","","","","","","","","","","","","",""
"null","","image-button-response","68","390190","0.0-67.0","A34H7UVYQTC390","img_art/4.jpg","null","","","","","","","","","","","","","","","","","","","","","","","","",""
"1998","","image-button-response","69","392188","0.0-68.0","A34H7UVYQTC390","img_art/4.jpg","2","","","","","","","","","","","","","","","","","","","","","","","","",""
"2629","","image-button-response","70","394819","0.0-69.0-0.0","A34H7UVYQTC390","img_art/4.jpg","0","","","","","","","","","","","","","","","","","","","","","","","","",""
"4654","","image-button-response","71","399475","0.0-70.0-0.0","A34H7UVYQTC390","img_art/4.jpg","4","","","","","","","","","","","","","","","","","","","","","","","","",""
"null","","html-keyboard-response","72","400979","0.0-71.0","A34H7UVYQTC390","<p style=""font-size: 48px;"">+</p>","","","","","null","allTrialResponses","1500","1","4","img_art/4.jpg","-16","someone's hand is exploding into an alien","Angela,Briana,Jasmine,Stephanie,Sydney,Isabella","Really like the colors, but don't like the object/squiggle in darker gold and black,4,260,20","Fingerpaint of a hand?,-30,400,20","It's quite meh to me,0,340,20","It looks like a hand someone scribbled over,-30,300,20","This piece catches my eye, but it's strange to me.,10,320,20","Looks like a creative hand,45,280,20","Jasmine","It's quite meh to me,0,340,20","Angela","Really like the colors, but don't like the object/squiggle in darker gold and black,4,260,20","Sydney","This piece catches my eye, but it's strange to me.,10,320,20","2"
"21301","","survey-text","73","422283","0.0-72.0-0.0","A34H7UVYQTC390","","","","{""Q0"":""someone skywrote over a waterfall""}","","","","","","","","","","","","","","","","","","","","","","",""
"3430.899999976158","","image-slider-response","74","425715","0.0-73.0","A34H7UVYQTC390","","","","","2","","","","","","","","","","","","","","","","","","","","","",""
"null","","image-button-response","75","430726","0.0-74.0","A34H7UVYQTC390","img_art/30.jpg","null","","","","","","","","","","","","","","","","","","","","","","","","",""
"394","","image-button-response","76","431123","0.0-75.0","A34H7UVYQTC390","img_art/30.jpg","2","","","","","","","","","","","","","","","","","","","","","","","","",""
"375","","image-button-response","77","431499","0.0-76.0-0.0","A34H7UVYQTC390","img_art/30.jpg","1","","","","","","","","","","","","","","","","","","","","","","","","",""
"710","","image-button-response","78","432211","0.0-77.0-0.0","A34H7UVYQTC390","img_art/30.jpg","3","","","","","","","","","","","","","","","","","","","","","","","","",""
"null","","html-keyboard-response","79","433713","0.0-78.0","A34H7UVYQTC390","<p style=""font-size: 48px;"">+</p>","","","","","null","allTrialResponses","1500","1","5","img_art/30.jpg","2","someone skywrote over a waterfall","Angela,Madeline,Jasmine,Abigail,Sydney,Kelsey","Really don't like this piece. It feels very lazy to me.,-31,260,20","A bit haphazard looking and lacking in vision,2,40,20","Pretty neutral about this one,0,340,20","Combination of colors arent good,-6,20,20","I love the colors, the style, and the uniqueness in this piece. I love everything.,50,320,20","dont like this much at all,-30,240,20","Jasmine","Pretty neutral about this one,0,340,20","Madeline","A bit haphazard looking and lacking in vision,2,40,20","Abigail","Combination of colors arent good,-6,20,20","2"
"2493","","survey-text","80","436211","0.0-79.0-0.0","A34H7UVYQTC390","","","","{""Q0"":""sky""}","","","","","","","","","","","","","","","","","","","","","","",""
"13551","","survey-text","81","449763","0.0-80.0-0.0","A34H7UVYQTC390","","","","{""Q0"":""a bird on something's flesh""}","","","","","","","","","","","","","","","","","","","","","","",""
"5246.5","","image-slider-response","82","455011","0.0-81.0","A34H7UVYQTC390","","","","","-20","","","","","","","","","","","","","","","","","","","","","",""
"null","","image-button-response","83","460013","0.0-82.0","A34H7UVYQTC390","img_art/6.jpg","null","","","","","","","","","","","","","","","","","","","","","","","","",""
"2550","","image-button-response","84","462563","0.0-83.0","A34H7UVYQTC390","img_art/6.jpg","5","","","","","","","","","","","","","","","","","","","","","","","","",""
"1350","","image-button-response","85","463915","0.0-84.0-0.0","A34H7UVYQTC390","img_art/6.jpg","3","","","","","","","","","","","","","","","","","","","","","","","","",""
"2911","","image-button-response","86","466827","0.0-85.0-0.0","A34H7UVYQTC390","img_art/6.jpg","1","","","","","","","","","","","","","","","","","","","","","","","","",""
"null","","html-keyboard-response","87","467829","0.0-86.0","A34H7UVYQTC390","<p style=""font-size: 48px;"">+</p>","","","","","null","allTrialResponses","1000","1","6","img_art/6.jpg","-20","a bird on something's flesh","Alexandria,Madeline,Jasmine,Abigail,Rachel,Monica","i like it but it is very neutral,9,80,20","Looks a bit like a pickle or something?,-16,40,20","Simple and clean,11,340,20","This picture is weird,-6,20,20","Reminds me of a plant poking through the soil. It reminds me of new life.,31,80,20","Maybe it's supposed to be a bird but it looks like a scary cloaked figure. it's just too simple and jarring,-23,360,20","Monica","Maybe it's supposed to be a bird but it looks like a scary cloaked figure. it's just too simple and jarring,-23,360,20","Abigail","This picture is weird,-6,20,20","Madeline","Looks a bit like a pickle or something?,-16,40,20","2"
"10836","","survey-text","88","478667","0.0-87.0-0.0","A34H7UVYQTC390","","","","{""Q0"":""a random scribble of red with some black""}","","","","","","","","","","","","","","","","","","","","","","",""
"6262.5","","image-slider-response","89","484931","0.0-88.0","A34H7UVYQTC390","","","","","-1","","","","","","","","","","","","","","","","","","","","","",""
"null","","image-button-response","90","489933","0.0-89.0","A34H7UVYQTC390","img_art/3.jpg","null","","","","","","","","","","","","","","","","","","","","","","","","",""
"6468","","image-button-response","91","496402","0.0-90.0","A34H7UVYQTC390","img_art/3.jpg","4","","","","","","","","","","","","","","","","","","","","","","","","",""
"1455","","image-button-response","92","497858","0.0-91.0-0.0","A34H7UVYQTC390","img_art/3.jpg","5","","","","","","","","","","","","","","","","","","","","","","","","",""
"2295","","image-button-response","93","500154","0.0-92.0-0.0","A34H7UVYQTC390","img_art/3.jpg","1","","","","","","","","","","","","","","","","","","","","","","","","",""
"null","","html-keyboard-response","94","501156","0.0-93.0","A34H7UVYQTC390","<p style=""font-size: 48px;"">+</p>","","","","","null","allTrialResponses","1000","1","7","img_art/3.jpg","-1","a random scribble of red with some black","Jenna,Madeline,Caroline,Abigail,Leah,Monica","unique & stylized. interesting. another one I could keep staring at.,50,360,20","Scribbly a bit too much,-30,40,20","The red makes me think of blood which makes me think of pain,-50,100,20","Reminded me of blood or something bad,-21,20,20","Scratchy scrawly all one color, looks like a mistake,-28,360,20","It looks like random scribbles by a child and not appealing,-38,360,20","Leah","Scratchy scrawly all one color, looks like a mistake,-28,360,20","Monica","It looks like random scribbles by a child and not appealing,-38,360,20","Madeline","Scribbly a bit too much,-30,40,20","2"
"24195","","survey-text","95","525354","0.0-94.0-0.0","A34H7UVYQTC390","","","","{""Q0"":""some form of street scene""}","","","","","","","","","","","","","","","","","","","","","","",""
"3470.600000023842","","image-slider-response","96","528826","0.0-95.0","A34H7UVYQTC390","","","","","7","","","","","","","","","","","","","","","","","","","","","",""
"null","","image-button-response","97","533831","0.0-96.0","A34H7UVYQTC390","img_art/19.jpg","null","","","","","","","","","","","","","","","","","","","","","","","","",""
"1306","","image-button-response","98","535138","0.0-97.0","A34H7UVYQTC390","img_art/19.jpg","5","","","","","","","","","","","","","","","","","","","","","","","","",""
"959","","image-button-response","99","536098","0.0-98.0-0.0","A34H7UVYQTC390","img_art/19.jpg","0","","","","","","","","","","","","","","","","","","","","","","","","",""
"1774","","image-button-response","100","537874","0.0-99.0-0.0","A34H7UVYQTC390","img_art/19.jpg","1","","","","","","","","","","","","","","","","","","","","","","","","",""
"null","","html-keyboard-response","101","539378","0.0-100.0","A34H7UVYQTC390","<p style=""font-size: 48px;"">+</p>","","","","","null","allTrialResponses","1500","1","8","img_art/19.jpg","7","some form of street scene","Andrea,Madeline,Sarah,Allison,Leah,Monica","Feels like a cafe in Paris.,35,240,20","Looks a bit too loose,-2,40,20","too much of a mix of lines and shading,-22,180,20","Messy mix of colors.,-5,140,20","Very abstract but I like it, it's busy, lots of colors,43,360,20","The shapes make me recall a city scene but it looks dirty,-22,360,20","Monica","The shapes make me recall a city scene but it looks dirty,-22,360,20","Andrea","Feels like a cafe in Paris.,35,240,20","Madeline","Looks a bit too loose,-2,40,20","2"
"10662","","survey-text","102","550042","0.0-101.0-0.0","A34H7UVYQTC390","","","","{""Q0"":""a duck is under attack by ants""}","","","","","","","","","","","","","","","","","","","","","","",""
"3390.600000023842","","image-slider-response","103","553435","0.0-102.0","A34H7UVYQTC390","","","","","-9","","","","","","","","","","","","","","","","","","","","","",""
"null","","image-button-response","104","558448","0.0-103.0","A34H7UVYQTC390","img_art/10.jpg","null","","","","","","","","","","","","","","","","","","","","","","","","",""
"1273","","image-button-response","105","559723","0.0-104.0","A34H7UVYQTC390","img_art/10.jpg","1","","","","","","","","","","","","","","","","","","","","","","","","",""
"5063","","image-button-response","106","564787","0.0-105.0-0.0","A34H7UVYQTC390","img_art/10.jpg","5","","","","","","","","","","","","","","","","","","","","","","","","",""
"6269","","image-button-response","107","571058","0.0-106.0-0.0","A34H7UVYQTC390","img_art/10.jpg","2","","","","","","","","","","","","","","","","","","","","","","","","",""
"null","","html-keyboard-response","108","572561","0.0-107.0","A34H7UVYQTC390","<p style=""font-size: 48px;"">+</p>","","","","","null","allTrialResponses","1500","1","9","img_art/10.jpg","-9","a duck is under attack by ants","Andrea,Madeline,Dominique,Sabrina,Victoria,Monica","Kraken, and I love it.,39,240,20","Looks a bit as though someone ran over it?,-13,40,20","A very conversational piece could be of many different ideas,38,400,20","I love the dark and edgy nature of this,50,120,20","absolutely beautiful piece of art,49,400,20","It doesn't look pleasing to the eye, it kind of looks like an animal but a dirty one,-38,360,20","Madeline","Looks a bit as though someone ran over it?,-13,40,20","Monica","It doesn't look pleasing to the eye, it kind of looks like an animal but a dirty one,-38,360,20","Dominique","A very conversational piece could be of many different ideas,38,400,20","2"
"17015","","survey-text","109","589578","0.0-108.0-0.0","A34H7UVYQTC390","","","","{""Q0"":""a bunch of squares of color that maybe are supposed to form a larger shape""}","","","","","","","","","","","","","","","","","","","","","","",""
"4390.799999952316","","image-slider-response","110","593970","0.0-109.0","A34H7UVYQTC390","","","","","-6","","","","","","","","","","","","","","","","","","","","","",""
"null","","image-button-response","111","598980","0.0-110.0","A34H7UVYQTC390","img_art/12.jpg","null","","","","","","","","","","","","","","","","","","","","","","","","",""
"1429","","image-button-response","112","600411","0.0-111.0","A34H7UVYQTC390","img_art/12.jpg","0","","","","","","","","","","","","","","","","","","","","","","","","",""
"2374","","image-button-response","113","602787","0.0-112.0-0.0","A34H7UVYQTC390","img_art/12.jpg","3","","","","","","","","","","","","","","","","","","","","","","","","",""
"4382","","image-button-response","114","607171","0.0-113.0-0.0","A34H7UVYQTC390","img_art/12.jpg","1","","","","","","","","","","","","","","","","","","","","","","","","",""
"null","","html-keyboard-response","115","607672","0.0-114.0","A34H7UVYQTC390","<p style=""font-size: 48px;"">+</p>","","","","","null","allTrialResponses","500","1","10","img_art/12.jpg","-6","a bunch of squares of color that maybe are supposed to form a larger shape","Michelle,Madeline,Dominique,Bailey,Haley,Monica","eww hate everything about this, looks like it belongs in a dentist's office,-14,280,20","Love the shapes here,12,40,20","I have seen some like this before very popular and full of life,42,400,20","Too many blocks. I can't see a purpose or a focal point,-44,360,20","Very interesting. Makes me want to look at it for a long time.,16,220,20","Reminds me of collages we made in elementary school. I like the contrast of the colors from top to bottom,43,360,20","Michelle","eww hate everything about this, looks like it belongs in a dentist's office,-14,280,20","Bailey","Too many blocks. I can't see a purpose or a focal point,-44,360,20","Madeline","Love the shapes here,12,40,20","2"
"2501","","survey-text","116","610179","0.0-115.0-0.0","A34H7UVYQTC390","","","","{""Q0"":""our""}","","","","","","","","","","","","","","","","","","","","","","",""
"24070","","survey-text","117","634250","0.0-116.0-0.0","A34H7UVYQTC390","","","","{""Q0"":""a world ripped apart by gods""}","","","","","","","","","","","","","","","","","","","","","","",""
"3518.5999999046326","","image-slider-response","118","637771","0.0-117.0","A34H7UVYQTC390","","","","","-5","","","","","","","","","","","","","","","","","","","","","",""
"null","","image-button-response","119","642778","0.0-118.0","A34H7UVYQTC390","img_art/8.jpg","null","","","","","","","","","","","","","","","","","","","","","","","","",""
"1119","","image-button-response","120","643899","0.0-119.0","A34H7UVYQTC390","img_art/8.jpg","0","","","","","","","","","","","","","","","","","","","","","","","","",""
"895","","image-button-response","121","644795","0.0-120.0-0.0","A34H7UVYQTC390","img_art/8.jpg","4","","","","","","","","","","","","","","","","","","","","","","","","",""
"2469","","image-button-response","122","647266","0.0-121.0-0.0","A34H7UVYQTC390","img_art/8.jpg","2","","","","","","","","","","","","","","","","","","","","","","","","",""
"null","","html-keyboard-response","123","647768","0.0-122.0","A34H7UVYQTC390","<p style=""font-size: 48px;"">+</p>","","","","","null","allTrialResponses","500","1","11","img_art/8.jpg","-5","a world ripped apart by gods","Michelle,Madeline,Mikayla,Bailey,Marissa,Natalie","I appreciate the complexity of this piece but it's too cubist for me,3,280,20","Very nice detail and colors!,10,40,20","Its kinda like an optical illusion.,22,300,20","Not a fan of abstract looking pieces with too many focal points. The tunnel and face, for example,-31,360,20","I can't tell if this is supposed to portray just city life or a town crumbling,-5,160,20","looks nice, like the details,25,400,20","Michelle","I appreciate the complexity of this piece but it's too cubist for me,3,280,20","Marissa","I can't tell if this is supposed to portray just city life or a town crumbling,-5,160,20","Mikayla","Its kinda like an optical illusion.,22,300,20","2"
"16343","","survey-text","124","664114","0.0-123.0-0.0","A34H7UVYQTC390","","","","{""Q0"":""ghost trees over a courtyard, like a vision in fog""}","","","","","","","","","","","","","","","","","","","","","","",""
"6190.600000023842","","image-slider-response","125","670306","0.0-124.0","A34H7UVYQTC390","","","","","8","","","","","","","","","","","","","","","","","","","","","",""
"null","","image-button-response","126","675308","0.0-125.0","A34H7UVYQTC390","img_art/17.jpg","null","","","","","","","","","","","","","","","","","","","","","","","","",""
"2133","","image-button-response","127","677443","0.0-126.0","A34H7UVYQTC390","img_art/17.jpg","2","","","","","","","","","","","","","","","","","","","","","","","","",""
"1527","","image-button-response","128","678971","0.0-127.0-0.0","A34H7UVYQTC390","img_art/17.jpg","1","","","","","","","","","","","","","","","","","","","","","","","","",""
"630","","image-button-response","129","679602","0.0-128.0-0.0","A34H7UVYQTC390","img_art/17.jpg","0","","","","","","","","","","","","","","","","","","","","","","","","",""
"null","","html-keyboard-response","130","681104","0.0-129.0","A34H7UVYQTC390","<p style=""font-size: 48px;"">+</p>","","","","","null","allTrialResponses","1500","1","12","img_art/17.jpg","8","ghost trees over a courtyard, like a vision in fog","Michelle,Brianna,Mikayla,Alexis,Marissa,Erin","I can tell there are tress and maybe some doors but I'm not a fan of the style,-2,280,20","It's nice and realistic looking.,12,20,20","Doesnt really do anythingb for me.,4,300,20","Love the color and nature motif,36,100,20","This reminds me of spring,24,160,20","Windows indoor tree, weird palette,-11,120,20","Mikayla","Doesnt really do anythingb for me.,4,300,20","Brianna","It's nice and realistic looking.,12,20,20","Michelle","I can tell there are tress and maybe some doors but I'm not a fan of the style,-2,280,20","2"
"17183","","survey-text","131","698290","0.0-130.0-0.0","A34H7UVYQTC390","","","","{""Q0"":""someone crossed off their picture of the floor and the tools on it""}","","","","","","","","","","","","","","","","","","","","","","",""
"2998.2999999523163","","image-slider-response","132","701290","0.0-131.0","A34H7UVYQTC390","","","","","-10","","","","","","","","","","","","","","","","","","","","","",""
"null","","image-button-response","133","706300","0.0-132.0","A34H7UVYQTC390","img_art/29.jpg","null","","","","","","","","","","","","","","","","","","","","","","","","",""
"1268","","image-button-response","134","707571","0.0-133.0","A34H7UVYQTC390","img_art/29.jpg","1","","","","","","","","","","","","","","","","","","","","","","","","",""
"830","","image-button-response","135","708402","0.0-134.0-0.0","A34H7UVYQTC390","img_art/29.jpg","0","","","","","","","","","","","","","","","","","","","","","","","","",""
"5687","","image-button-response","136","714091","0.0-135.0-0.0","A34H7UVYQTC390","img_art/29.jpg","4","","","","","","","","","","","","","","","","","","","","","","","","",""
"null","","html-keyboard-response","137","714599","0.0-136.0","A34H7UVYQTC390","<p style=""font-size: 48px;"">+</p>","","","","","null","allTrialResponses","500","1","13","img_art/29.jpg","-10","someone crossed off their picture of the floor and the tools on it","Michelle,Brianna,Mikayla,Danielle,Hailey,Jacqueline","The texture really stands out, this is an interesting composition,6,280,20","It has a red X on there, and x's mean bad in my perspective,-29,20,20","Its kinda scary,-35,300,20","Quite ugly in my opinion,-30,340,20","a hot fireplace with things to burn. warm,12,200,20","This is ugly as fuck,-50,300,20","Brianna","It has a red X on there, and x's mean bad in my perspective,-29,20,20","Michelle","The texture really stands out, this is an interesting composition,6,280,20","Hailey","a hot fireplace with things to burn. warm,12,200,20","2"
"16343","","survey-text","138","730946","0.0-137.0-0.0","A34H7UVYQTC390","","","","{""Q0"":""a human and a mouse in a large blender of doom""}","","","","","","","","","","","","","","","","","","","","","","",""
"5222.399999976158","","image-slider-response","139","736170","0.0-138.0","A34H7UVYQTC390","","","","","-15","","","","","","","","","","","","","","","","","","","","","",""
"null","","image-button-response","140","741172","0.0-139.0","A34H7UVYQTC390","img_art/28.jpg","null","","","","","","","","","","","","","","","","","","","","","","","","",""
"3812","","image-button-response","141","744986","0.0-140.0","A34H7UVYQTC390","img_art/28.jpg","5","","","","","","","","","","","","","","","","","","","","","","","","",""
"1102","","image-button-response","142","746090","0.0-141.0-0.0","A34H7UVYQTC390","img_art/28.jpg","0","","","","","","","","","","","","","","","","","","","","","","","","",""
"1824","","image-button-response","143","747914","0.0-142.0-0.0","A34H7UVYQTC390","img_art/28.jpg","2","","","","","","","","","","","","","","","","","","","","","","","","",""
"null","","html-keyboard-response","144","748416","0.0-143.0","A34H7UVYQTC390","<p style=""font-size: 48px;"">+</p>","","","","","null","allTrialResponses","500","1","14","img_art/28.jpg","-15","a human and a mouse in a large blender of doom","Michelle,Brianna,Nicole,Olivia,Hailey,Mariah","This piece is depressing to me, reminds me of German paintings,-6,280,20","My grandparents would like this, maybe my great grandparents. It's not my style.,-30,20,20","The lack of color variance leaves it looking ugly even if I like the brush strokes,-10,20,20","conversating means hope,15,40,20","an old woman in a wheelchair. sad,-35,200,20","Colors are pleasing, shapes are vaguely unpleasant. Kidneys at a smoky bar.,5,140,20","Mariah","Colors are pleasing, shapes are vaguely unpleasant. Kidneys at a smoky bar.,5,140,20","Michelle","This piece is depressing to me, reminds me of German paintings,-6,280,20","Nicole","The lack of color variance leaves it looking ugly even if I like the brush strokes,-10,20,20","2"
"9551","","survey-text","145","757970","0.0-144.0-0.0","A34H7UVYQTC390","","","","{""Q0"":""an orange jumping off a building in the city""}","","","","","","","","","","","","","","","","","","","","","","",""
"3486.7999999523163","","image-slider-response","146","761458","0.0-145.0","A34H7UVYQTC390","","","","","-5","","","","","","","","","","","","","","","","","","","","","",""
"4494","","image-button-response","147","766460","0.0-146.0","A34H7UVYQTC390","img_art/22.jpg","0","","","","","","","","","","","","","","","","","","","","","","","","",""
"484","","image-button-response","148","766946","0.0-147.0","A34H7UVYQTC390","img_art/22.jpg","0","","","","","","","","","","","","","","","","","","","","","","","","",""
"422","","image-button-response","149","767370","0.0-148.0-0.0","A34H7UVYQTC390","img_art/22.jpg","1","","","","","","","","","","","","","","","","","","","","","","","","",""
"2871","","image-button-response","150","770242","0.0-149.0-0.0","A34H7UVYQTC390","img_art/22.jpg","4","","","","","","","","","","","","","","","","","","","","","","","","",""
"null","","html-keyboard-response","151","771244","0.0-150.0","A34H7UVYQTC390","<p style=""font-size: 48px;"">+</p>","","","","","null","allTrialResponses","1000","1","15","img_art/22.jpg","-5","an orange jumping off a building in the city","Michelle,Courtney,Nicole,Meghan,Samantha,Mariah","Not a huge fan of the blocks, also very abstract, I have no idea what it is,8,280,20","Looks hot where ever that is.,-8,280,20","The warm and color colors together in this way feels exciting,39,20,20","really beautiful colors and contrast,30,220,20","Pretty colors but something seems sinister about it,25,140,20","The colors are pleasant, the shapes are inviting.,21,140,20","Michelle","Not a huge fan of the blocks, also very abstract, I have no idea what it is,8,280,20","Courtney","Looks hot where ever that is.,-8,280,20","Samantha","Pretty colors but something seems sinister about it,25,140,20","2"
"2601","","survey-text","152","773850","0.0-151.0-0.0","A34H7UVYQTC390","","","","{""Q0"":""course""}","","","","","","","","","","","","","","","","","","","","","","",""
"7126","","survey-text","153","780978","0.0-152.0-0.0","A34H7UVYQTC390","","","","{""Q0"":""a pear is under attack""}","","","","","","","","","","","","","","","","","","","","","","",""
"3583.2000000476837","","image-slider-response","154","784562","0.0-153.0","A34H7UVYQTC390","","","","","-6","","","","","","","","","","","","","","","","","","","","","",""
"null","","image-button-response","155","789572","0.0-154.0","A34H7UVYQTC390","img_art/5.jpg","null","","","","","","","","","","","","","","","","","","","","","","","","",""
"2107","","image-button-response","156","791682","0.0-155.0","A34H7UVYQTC390","img_art/5.jpg","3","","","","","","","","","","","","","","","","","","","","","","","","",""
"975","","image-button-response","157","792658","0.0-156.0-0.0","A34H7UVYQTC390","img_art/5.jpg","0","","","","","","","","","","","","","","","","","","","","","","","","",""
"2382","","image-button-response","158","795042","0.0-157.0-0.0","A34H7UVYQTC390","img_art/5.jpg","1","","","","","","","","","","","","","","","","","","","","","","","","",""
"null","","html-keyboard-response","159","796550","0.0-158.0","A34H7UVYQTC390","<p style=""font-size: 48px;"">+</p>","","","","","null","allTrialResponses","1500","1","16","img_art/5.jpg","-6","a pear is under attack","Michelle,Courtney,Miranda,Maria,Samantha,Kimberly","What is this? It looks like no effort was put into this work,-2,280,20","A rabbits head.,4,280,20","This either looks like a bell or aliens finishing the pyramids,-34,320,20","this feels like something I should like, but I'm not feeling the execution,-10,120,20","I cant explain why i like this so much but it really calls out to me,50,140,20","It feels positive and kind of uplifting,24,260,20","Maria","this feels like something I should like, but I'm not feeling the execution,-10,120,20","Michelle","What is this? It looks like no effort was put into this work,-2,280,20","Courtney","A rabbits head.,4,280,20","2"
"15337","","survey-text","160","811890","0.0-159.0-0.0","A34H7UVYQTC390","","","","{""Q0"":""poor bear is shocked by the mess in the sky""}","","","","","","","","","","","","","","","","","","","","","","",""
"3230.600000023842","","image-slider-response","161","815121","0.0-160.0","A34H7UVYQTC390","","","","","-10","","","","","","","","","","","","","","","","","","","","","",""
"null","","image-button-response","162","820127","0.0-161.0","A34H7UVYQTC390","img_art/16.jpg","null","","","","","","","","","","","","","","","","","","","","","","","","",""
"466","","image-button-response","163","820594","0.0-162.0","A34H7UVYQTC390","img_art/16.jpg","1","","","","","","","","","","","","","","","","","","","","","","","","",""
"2454","","image-button-response","164","823050","0.0-163.0-0.0","A34H7UVYQTC390","img_art/16.jpg","3","","","","","","","","","","","","","","","","","","","","","","","","",""
"1070","","image-button-response","165","824122","0.0-164.0-0.0","A34H7UVYQTC390","img_art/16.jpg","4","","","","","","","","","","","","","","","","","","","","","","","","",""
"null","","html-keyboard-response","166","825624","0.0-165.0","A34H7UVYQTC390","<p style=""font-size: 48px;"">+</p>","","","","","null","allTrialResponses","1500","1","17","img_art/16.jpg","-10","poor bear is shocked by the mess in the sky","Michelle,Courtney,Emily,Maria,Kayla,Anna","I'm a fan of collage and of reminiscing about childhood so this was nice,10,280,20","Hmm i don't know what going on here.,1,280,20","Looks like a kid did itt and ti looks disturbing.,-45,40,20","feel a little creeped out,-20,120,20","Looks upsetting. Like it's actually graphic violence but you can't tell.,-24,180,20","It's edgy but cool,10,300,20","Courtney","Hmm i don't know what going on here.,1,280,20","Maria","feel a little creeped out,-20,120,20","Kayla","Looks upsetting. Like it's actually graphic violence but you can't tell.,-24,180,20","2"
"21999","","survey-text","167","847626","0.0-166.0-0.0","A34H7UVYQTC390","","","","{""Q0"":""a set of highways/raised train tracks that look like music over smoke""}","","","","","","","","","","","","","","","","","","","","","","",""
"4038.6999999284744","","image-slider-response","168","851666","0.0-167.0","A34H7UVYQTC390","","","","","12","","","","","","","","","","","","","","","","","","","","","",""
"null","","image-button-response","169","856668","0.0-168.0","A34H7UVYQTC390","img_art/11.jpg","null","","","","","","","","","","","","","","","","","","","","","","","","",""
"2045","","image-button-response","170","858714","0.0-169.0","A34H7UVYQTC390","img_art/11.jpg","4","","","","","","","","","","","","","","","","","","","","","","","","",""
"1294","","image-button-response","171","860010","0.0-170.0-0.0","A34H7UVYQTC390","img_art/11.jpg","5","","","","","","","","","","","","","","","","","","","","","","","","",""
"1191","","image-button-response","172","861202","0.0-171.0-0.0","A34H7UVYQTC390","img_art/11.jpg","2","","","","","","","","","","","","","","","","","","","","","","","","",""
"null","","html-keyboard-response","173","862704","0.0-172.0","A34H7UVYQTC390","<p style=""font-size: 48px;"">+</p>","","","","","null","allTrialResponses","1500","1","18","img_art/11.jpg","12","a set of highways/raised train tracks that look like music over smoke","Elizabeth,Courtney,Vanessa,Maria,Kayla,Lauren","Very unique piece of art,50,20,20","Thats a creepy old rollercoasters abandoned,-2,280,20","It makes me think of a rainy day and I like the colors. Also like the wavy lines.,22,380,20","I enjoy the kandinsky-like general vibe, but the grey brings me down a bit,27,120,20","I like that it could be train tracks, or telephone wires, etc. It's always a means of getting from a to b.,15,180,20","I like how this piece can be interpreted in different ways, such as a village on hilly terrain.,10,340,20","Kayla","I like that it could be train tracks, or telephone wires, etc. It's always a means of getting from a to b.,15,180,20","Lauren","I like how this piece can be interpreted in different ways, such as a village on hilly terrain.,10,340,20","Vanessa","It makes me think of a rainy day and I like the colors. Also like the wavy lines.,22,380,20","2"
"11895","","survey-text","174","874602","0.0-173.0-0.0","A34H7UVYQTC390","","","","{""Q0"":""water rushing through greenery""}","","","","","","","","","","","","","","","","","","","","","","",""
"3550","","image-slider-response","175","878154","0.0-174.0","A34H7UVYQTC390","","","","","5","","","","","","","","","","","","","","","","","","","","","",""
"null","","image-button-response","176","883171","0.0-175.0","A34H7UVYQTC390","img_art/24.jpg","null","","","","","","","","","","","","","","","","","","","","","","","","",""
"2589","","image-button-response","177","885762","0.0-176.0","A34H7UVYQTC390","img_art/24.jpg","5","","","","","","","","","","","","","","","","","","","","","","","","",""
"2911","","image-button-response","178","888675","0.0-177.0-0.0","A34H7UVYQTC390","img_art/24.jpg","2","","","","","","","","","","","","","","","","","","","","","","","","",""
"7861","","image-button-response","179","896538","0.0-178.0-0.0","A34H7UVYQTC390","img_art/24.jpg","1","","","","","","","","","","","","","","","","","","","","","","","","",""
"null","","html-keyboard-response","180","897540","0.0-179.0","A34H7UVYQTC390","<p style=""font-size: 48px;"">+</p>","","","","","null","allTrialResponses","1000","1","19","img_art/24.jpg","5","water rushing through greenery","Heather,Christina,Vanessa,Destiny,Kayla,Lauren","i feel peace and wanting. i love waterfalls,50,260,20","I like how it looks like a waterfall in an exotic place,50,240,20","I love the colors, but I wish the water was less abstract.,17,380,20","brick wall waterfall girl you think you got it all,50,360,20","It looks like a poor dead bunny in a field of flowers. I don't want the bunny to be dead.,-37,180,20","Invokes a strong sense of nature, since the piece can interpreted as a stream or an abstracted bird.,40,340,20","Lauren","Invokes a strong sense of nature, since the piece can interpreted as a stream or an abstracted bird.,40,340,20","Vanessa","I love the colors, but I wish the water was less abstract.,17,380,20","Christina","I like how it looks like a waterfall in an exotic place,50,240,20","2"
"7203","","survey-text","181","904746","0.0-180.0-0.0","A34H7UVYQTC390","","","","{""Q0"":""a smear of warm tones""}","","","","","","","","","","","","","","","","","","","","","","",""
"4102.600000023842","","image-slider-response","182","908850","0.0-181.0","A34H7UVYQTC390","","","","","1","","","","","","","","","","","","","","","","","","","","","",""
"null","","image-button-response","183","913859","0.0-182.0","A34H7UVYQTC390","img_art/1.jpg","null","","","","","","","","","","","","","","","","","","","","","","","","",""
"1326","","image-button-response","184","915187","0.0-183.0","A34H7UVYQTC390","img_art/1.jpg","1","","","","","","","","","","","","","","","","","","","","","","","","",""
"1334","","image-button-response","185","916522","0.0-184.0-0.0","A34H7UVYQTC390","img_art/1.jpg","3","","","","","","","","","","","","","","","","","","","","","","","","",""
"3199","","image-button-response","186","919722","0.0-185.0-0.0","A34H7UVYQTC390","img_art/1.jpg","0","","","","","","","","","","","","","","","","","","","","","","","","",""
"null","","html-keyboard-response","187","921224","0.0-186.0","A34H7UVYQTC390","<p style=""font-size: 48px;"">+</p>","","","","","null","allTrialResponses","1500","1","20","img_art/1.jpg","1","a smear of warm tones","Breanna,Christina,Vanessa,Ashley,Margaret,Lauren","Makes me feel confused,-6,380,20","nice colors but kinds of blah,1,240,20","I don't like how this one makes me feel.,-32,380,20","More passable, colorful, abstract.,13,320,20","basic reminds me of something a school would have on the wall,-7,100,20","This image doesn't invoke much in me.,0,340,20","Christina","nice colors but kinds of blah,1,240,20","Ashley","More passable, colorful, abstract.,13,320,20","Breanna","Makes me feel confused,-6,380,20","2"
"1404","","survey-text","188","922634","0.0-187.0-0.0","A34H7UVYQTC390","","","","{""Q0"":""we""}","","","","","","","","","","","","","","","","","","","","","","",""
"14879","","survey-text","189","937514","0.0-188.0-0.0","A34H7UVYQTC390","","","","{""Q0"":""a boat collapsing, people in danger""}","","","","","","","","","","","","","","","","","","","","","","",""
"2630.600000023842","","image-slider-response","190","940146","0.0-189.0","A34H7UVYQTC390","","","","","-6","","","","","","","","","","","","","","","","","","","","","",""
"null","","image-button-response","191","945155","0.0-190.0","A34H7UVYQTC390","img_art/18.jpg","null","","","","","","","","","","","","","","","","","","","","","","","","",""
"2686","","image-button-response","192","947842","0.0-191.0","A34H7UVYQTC390","img_art/18.jpg","2","","","","","","","","","","","","","","","","","","","","","","","","",""
"1198","","image-button-response","193","949042","0.0-192.0-0.0","A34H7UVYQTC390","img_art/18.jpg","1","","","","","","","","","","","","","","","","","","","","","","","","",""
"863","","image-button-response","194","949906","0.0-193.0-0.0","A34H7UVYQTC390","img_art/18.jpg","0","","","","","","","","","","","","","","","","","","","","","","","","",""
"null","","html-keyboard-response","195","950907","0.0-194.0","A34H7UVYQTC390","<p style=""font-size: 48px;"">+</p>","","","","","null","allTrialResponses","1000","1","21","img_art/18.jpg","-6","a boat collapsing, people in danger","Breanna,Christina,Makayla,Ashley,Cassidy,Alyssa","Makes me feel confused,16,380,20","it looks dreary and not uplifting,-10,240,20","I'm not partial to the design, unsettling,2,80,20","Resembles a ship at sea, storm of activity.,28,320,20","nice balance of color. The different sizes and types of strokes give a lot to look at,18,140,20","There are alot of elements to this painting and a good mix of colors,32,160,20","Makayla","I'm not partial to the design, unsettling,2,80,20","Christina","it looks dreary and not uplifting,-10,240,20","Breanna","Makes me feel confused,16,380,20","2"
"21379","","survey-text","196","972289","0.0-195.0-0.0","A34H7UVYQTC390","","","","{""Q0"":""rain splatter on a wall""}","","","","","","","","","","","","","","","","","","","","","","",""
"5558.800000071526","","image-slider-response","197","977849","0.0-196.0","A34H7UVYQTC390","","","","","6","","","","","","","","","","","","","","","","","","","","","",""
"null","","image-button-response","198","982855","0.0-197.0","A34H7UVYQTC390","img_art/13.jpg","null","","","","","","","","","","","","","","","","","","","","","","","","",""
"153","","image-button-response","199","983009","0.0-198.0","A34H7UVYQTC390","img_art/13.jpg","2","","","","","","","","","","","","","","","","","","","","","","","","",""
"887","","image-button-response","200","983897","0.0-199.0-0.0","A34H7UVYQTC390","img_art/13.jpg","3","","","","","","","","","","","","","","","","","","","","","","","","",""
"6415","","image-button-response","201","990313","0.0-200.0-0.0","A34H7UVYQTC390","img_art/13.jpg","0","","","","","","","","","","","","","","","","","","","","","","","","",""
"null","","html-keyboard-response","202","991315","0.0-201.0","A34H7UVYQTC390","<p style=""font-size: 48px;"">+</p>","","","","","null","allTrialResponses","1000","1","22","img_art/13.jpg","6","rain splatter on a wall","Breanna,Christina,Makayla,Amber,Kylie,Kathryn","Makes me feel nice and calm,18,380,20","i like the colors but it looks like something that would hang in a hotel,18,240,20","Reminds me of the aquarium,4,80,20","Reminds me of rain running down a window.,35,200,20","Very abstract and soothing,40,300,20","Reminds me of depression anxiety, but negativity is dampened by motion. It's trying to release itself through expression.,-10,140,20","Makayla","Reminds me of the aquarium,4,80,20","Amber","Reminds me of rain running down a window.,35,200,20","Breanna","Makes me feel nice and calm,18,380,20","2"
"21666","","survey-text","203","1012985","0.0-202.0-0.0","A34H7UVYQTC390","","","","{""Q0"":""smeared version of an outdoor courtyard scene""}","","","","","","","","","","","","","","","","","","","","","","",""
"3998.600000023842","","image-slider-response","204","1016985","0.0-203.0","A34H7UVYQTC390","","","","","2","","","","","","","","","","","","","","","","","","","","","",""
"null","","image-button-response","205","1021987","0.0-204.0","A34H7UVYQTC390","img_art/26.jpg","null","","","","","","","","","","","","","","","","","","","","","","","","",""
"1470","","image-button-response","206","1023458","0.0-205.0","A34H7UVYQTC390","img_art/26.jpg","0","","","","","","","","","","","","","","","","","","","","","","","","",""
"854","","image-button-response","207","1024313","0.0-206.0-0.0","A34H7UVYQTC390","img_art/26.jpg","3","","","","","","","","","","","","","","","","","","","","","","","","",""
"5103","","image-button-response","208","1029418","0.0-207.0-0.0","A34H7UVYQTC390","img_art/26.jpg","2","","","","","","","","","","","","","","","","","","","","","","","","",""
"null","","html-keyboard-response","209","1030420","0.0-208.0","A34H7UVYQTC390","<p style=""font-size: 48px;"">+</p>","","","","","null","allTrialResponses","1000","1","23","img_art/26.jpg","2","smeared version of an outdoor courtyard scene","Breanna,Chelsea,Makayla,Amber,Kaylee,Crystal","Splash of paint in an ordered way,7,380,20","I wish it were more pastel but I think it is relaxing to look at.,30,180,20","Reminds me of a European street, I desire to walk in this picture,28,80,20","The colors are muted.,1,200,20","cool cozy town vibes,50,200,20","Do not like water colors at all,-50,300,20","Breanna","Splash of paint in an ordered way,7,380,20","Amber","The colors are muted.,1,200,20","Makayla","Reminds me of a European street, I desire to walk in this picture,28,80,20","2"
"16498","","survey-text","210","1046921","0.0-209.0-0.0","A34H7UVYQTC390","","","","{""Q0"":""reminds me of the volcano goddess in Moana""}","","","","","","","","","","","","","","","","","","","","","","",""
"4262.700000047684","","image-slider-response","211","1051185","0.0-210.0","A34H7UVYQTC390","","","","","2","","","","","","","","","","","","","","","","","","","","","",""
"null","","image-button-response","212","1056187","0.0-211.0","A34H7UVYQTC390","img_art/9.jpg","null","","","","","","","","","","","","","","","","","","","","","","","","",""
"797","","image-button-response","213","1056985","0.0-212.0","A34H7UVYQTC390","img_art/9.jpg","3","","","","","","","","","","","","","","","","","","","","","","","","",""
"887","","image-button-response","214","1057874","0.0-213.0-0.0","A34H7UVYQTC390","img_art/9.jpg","5","","","","","","","","","","","","","","","","","","","","","","","","",""
"5887","","image-button-response","215","1063762","0.0-214.0-0.0","A34H7UVYQTC390","img_art/9.jpg","4","","","","","","","","","","","","","","","","","","","","","","","","",""
"null","","html-keyboard-response","216","1064275","0.0-215.0","A34H7UVYQTC390","<p style=""font-size: 48px;"">+</p>","","","","","null","allTrialResponses","500","1","24","img_art/9.jpg","2","reminds me of the volcano goddess in Moana","Breanna,Tiffany,Makayla,Amber,Kaitlin,Catherine","It's a mix of paint splash and scribbling,-33,380,20","The piece of art makes me happy, it reminds me of a lively carnival.,15,360,20","Looks like a monster's teeth , unsettling,-18,80,20","looks like sleeping beauty in a garden,10,200,20","this looks to be a child nightmare,-10,60,20","Cozy, In her own world. feminine .,30,160,20","Amber","looks like sleeping beauty in a garden,10,200,20","Catherine","Cozy, In her own world. feminine .,30,160,20","Kaitlin","this looks to be a child nightmare,-10,60,20","2"
"30610","","survey-text","217","1094889","0.0-216.0-0.0","A34H7UVYQTC390","","","","{""Q0"":""insects attacking fish""}","","","","","","","","","","","","","","","","","","","","","","",""
"7175.5","","image-slider-response","218","1102066","0.0-217.0","A34H7UVYQTC390","","","","","-8","","","","","","","","","","","","","","","","","","","","","",""
"null","","image-button-response","219","1107074","0.0-218.0","A34H7UVYQTC390","img_art/15.jpg","null","","","","","","","","","","","","","","","","","","","","","","","","",""
"1509","","image-button-response","220","1108586","0.0-219.0","A34H7UVYQTC390","img_art/15.jpg","4","","","","","","","","","","","","","","","","","","","","","","","","",""
"590","","image-button-response","221","1109178","0.0-220.0-0.0","A34H7UVYQTC390","img_art/15.jpg","5","","","","","","","","","","","","","","","","","","","","","","","","",""
"2903","","image-button-response","222","1112083","0.0-221.0-0.0","A34H7UVYQTC390","img_art/15.jpg","1","","","","","","","","","","","","","","","","","","","","","","","","",""
"null","","html-keyboard-response","223","1113585","0.0-222.0","A34H7UVYQTC390","<p style=""font-size: 48px;"">+</p>","","","","","null","allTrialResponses","1500","1","25","img_art/15.jpg","-8","insects attacking fish","Claire,Alexandra,Emma,Amber,Kaitlin,Catherine","it's alright but a little cluttered,14,260,20","This is sort of ugly, but I do like the design.,10,60,20","Don't love it but it's cute,16,60,20","Reminds me of blueberry bushes.,7,200,20","This one seems a bit frightening,-19,60,20","ants on the ground playing with bubble gum. They may be thinking of how they can use it to build something,-30,160,20","Kaitlin","This one seems a bit frightening,-19,60,20","Catherine","ants on the ground playing with bubble gum. They may be thinking of how they can use it to build something,-30,160,20","Alexandra","This is sort of ugly, but I do like the design.,10,60,20","2"
"2514","","survey-text","224","1116106","0.0-223.0-0.0","A34H7UVYQTC390","","","","{""Q0"":""table""}","","","","","","","","","","","","","","","","","","","","","","",""
"12861","","survey-text","225","1128969","0.0-224.0-0.0","A34H7UVYQTC390","","","","{""Q0"":""a jazz band exploding into confetti""}","","","","","","","","","","","","","","","","","","","","","","",""
"2567.2999999523163","","image-slider-response","226","1131538","0.0-225.0","A34H7UVYQTC390","","","","","2","","","","","","","","","","","","","","","","","","","","","",""
"null","","image-button-response","227","1136540","0.0-226.0","A34H7UVYQTC390","img_art/23.jpg","null","","","","","","","","","","","","","","","","","","","","","","","","",""
"652","","image-button-response","228","1137193","0.0-227.0","A34H7UVYQTC390","img_art/23.jpg","5","","","","","","","","","","","","","","","","","","","","","","","","",""
"784","","image-button-response","229","1137978","0.0-228.0-0.0","A34H7UVYQTC390","img_art/23.jpg","4","","","","","","","","","","","","","","","","","","","","","","","","",""
"10110","","image-button-response","230","1148090","0.0-229.0-0.0","A34H7UVYQTC390","img_art/23.jpg","1","","","","","","","","","","","","","","","","","","","","","","","","",""
"null","","html-keyboard-response","231","1149091","0.0-230.0","A34H7UVYQTC390","<p style=""font-size: 48px;"">+</p>","","","","","null","allTrialResponses","1000","1","26","img_art/23.jpg","2","a jazz band exploding into confetti","Kelly,Alexandra,Katelyn,Chloe,Kaitlin,Catherine","Love this. I love the white, really pops with the colors surrounding it.,44,220,20","This is my favorite of them all. I love the colors.,41,60,20","Makes me want to stare at it for hours. Like there is something deeper to find.,37,100,20","Poster shop camp.,-40,220,20","i cannot breath in this,-10,60,20","Partying, dancing, delusion, kaus.,10,160,20","Catherine","Partying, dancing, delusion, kaus.,10,160,20","Kaitlin","i cannot breath in this,-10,60,20","Alexandra","This is my favorite of them all. I love the colors.,41,60,20","2"
"12522","","survey-text","232","1161617","0.0-231.0-0.0","A34H7UVYQTC390","","","","{""Q0"":""impression of a tree's feelings""}","","","","","","","","","","","","","","","","","","","","","","",""
"3910.5","","image-slider-response","233","1165529","0.0-232.0","A34H7UVYQTC390","","","","","8","","","","","","","","","","","","","","","","","","","","","",""
"null","","image-button-response","234","1170531","0.0-233.0","A34H7UVYQTC390","img_art/14.jpg","null","","","","","","","","","","","","","","","","","","","","","","","","",""
"1581","","image-button-response","235","1172114","0.0-234.0","A34H7UVYQTC390","img_art/14.jpg","5","","","","","","","","","","","","","","","","","","","","","","","","",""
"918","","image-button-response","236","1173034","0.0-235.0-0.0","A34H7UVYQTC390","img_art/14.jpg","0","","","","","","","","","","","","","","","","","","","","","","","","",""
"2326","","image-button-response","237","1175362","0.0-236.0-0.0","A34H7UVYQTC390","img_art/14.jpg","3","","","","","","","","","","","","","","","","","","","","","","","","",""
"null","","html-keyboard-response","238","1176363","0.0-237.0","A34H7UVYQTC390","<p style=""font-size: 48px;"">+</p>","","","","","null","allTrialResponses","1000","1","27","img_art/14.jpg","8","impression of a tree's feelings","Alicia,Alexandra,Angelica,Cynthia,Kaitlin,Catherine","ok, gloomy though.,12,120,20","Pretty, dainty, unique,22,60,20","This is poorly done and not aesthetically appealing.,-2,280,20","unsure and dull feeling,-1,320,20","this would make a very beautiful art project,22,60,20","Tornado, nature. trees falling and displaced creatures. Love the colors though.,1,160,20","Catherine","Tornado, nature. trees falling and displaced creatures. Love the colors though.,1,160,20","Alicia","ok, gloomy though.,12,120,20","Cynthia","unsure and dull feeling,-1,320,20","2"
"14025","","survey-text","239","1190393","0.0-238.0-0.0","A34H7UVYQTC390","","","","{""Q0"":""skull bike exploding out of a tractor""}","","","","","","","","","","","","","","","","","","","","","","",""
"3454.6999999284744","","image-slider-response","240","1193849","0.0-239.0","A34H7UVYQTC390","","","","","-5","","","","","","","","","","","","","","","","","","","","","",""
"null","","image-button-response","241","1198851","0.0-240.0","A34H7UVYQTC390","img_art/20.jpg","null","","","","","","","","","","","","","","","","","","","","","","","","",""
"1565","","image-button-response","242","1200417","0.0-241.0","A34H7UVYQTC390","img_art/20.jpg","4","","","","","","","","","","","","","","","","","","","","","","","","",""
"832","","image-button-response","243","1201251","0.0-242.0-0.0","A34H7UVYQTC390","img_art/20.jpg","3","","","","","","","","","","","","","","","","","","","","","","","","",""
"1229","","image-button-response","244","1202481","0.0-243.0-0.0","A34H7UVYQTC390","img_art/20.jpg","2","","","","","","","","","","","","","","","","","","","","","","","","",""
"null","","html-keyboard-response","245","1202984","0.0-244.0","A34H7UVYQTC390","<p style=""font-size: 48px;"">+</p>","","","","","null","allTrialResponses","500","1","28","img_art/20.jpg","-5","skull bike exploding out of a tractor","Alicia,Madison,Katherine,Cynthia,Leslie,Catherine","Very cool, and calming (again) Love it.,47,120,20","This is not abstract art, it is representative.,0,60,20","More dark colors and blurry objects.,13,120,20","Curious about what lies here,10,320,20","This elicits no reaction in me.,0,380,20","Interesting. Empty place, wondering what happened, leaving what you used to know.,10,160,20","Leslie","This elicits no reaction in me.,0,380,20","Cynthia","Curious about what lies here,10,320,20","Katherine","More dark colors and blurry objects.,13,120,20","2"
"13701","","survey-text","246","1216689","0.0-245.0-0.0","A34H7UVYQTC390","","","","{""Q0"":""bunch of random stuff stuck in concrete""}","","","","","","","","","","","","","","","","","","","","","","",""
"5287.100000023842","","image-slider-response","247","1221977","0.0-246.0","A34H7UVYQTC390","","","","","-3","","","","","","","","","","","","","","","","","","","","","",""
"null","","image-button-response","248","1226985","0.0-247.0","A34H7UVYQTC390","img_art/7.jpg","null","","","","","","","","","","","","","","","","","","","","","","","","",""
"726","","image-button-response","249","1227714","0.0-248.0","A34H7UVYQTC390","img_art/7.jpg","4","","","","","","","","","","","","","","","","","","","","","","","","",""
"422","","image-button-response","250","1228138","0.0-249.0-0.0","A34H7UVYQTC390","img_art/7.jpg","5","","","","","","","","","","","","","","","","","","","","","","","","",""
"1414","","image-button-response","251","1229553","0.0-250.0-0.0","A34H7UVYQTC390","img_art/7.jpg","2","","","","","","","","","","","","","","","","","","","","","","","","",""
"null","","html-keyboard-response","252","1231054","0.0-251.0","A34H7UVYQTC390","<p style=""font-size: 48px;"">+</p>","","","","","null","allTrialResponses","1500","1","29","img_art/7.jpg","-3","bunch of random stuff stuck in concrete","Shelby,Savannah,Katherine,Cynthia,Leslie,Hannah","This feels very earthy and grounded,20,240,20","More saturated color, even more interpretations to have.,44,200,20","Reminds me of bugs, I hate bugs,-7,120,20","time and change,1,320,20","This elicits no reaction in me.,0,380,20","Looks almost like a photograph of nature.,11,240,20","Leslie","This elicits no reaction in me.,0,380,20","Hannah","Looks almost like a photograph of nature.,11,240,20","Katherine","Reminds me of bugs, I hate bugs,-7,120,20","2"
"15247","","survey-text","253","1246305","0.0-252.0-0.0","A34H7UVYQTC390","","","","{""Q0"":""skeleton warrior escaping a cemetary""}","","","","","","","","","","","","","","","","","","","","","","",""
"4790.400000095367","","image-slider-response","254","1251097","0.0-253.0","A34H7UVYQTC390","","","","","-2","","","","","","","","","","","","","","","","","","","","","",""
"null","","image-button-response","255","1256099","0.0-254.0","A34H7UVYQTC390","img_art/25.jpg","null","","","","","","","","","","","","","","","","","","","","","","","","",""
"1805","","image-button-response","256","1257906","0.0-255.0","A34H7UVYQTC390","img_art/25.jpg","5","","","","","","","","","","","","","","","","","","","","","","","","",""
"4293","","image-button-response","257","1262201","0.0-256.0-0.0","A34H7UVYQTC390","img_art/25.jpg","3","","","","","","","","","","","","","","","","","","","","","","","","",""
"3287","","image-button-response","258","1265489","0.0-257.0-0.0","A34H7UVYQTC390","img_art/25.jpg","0","","","","","","","","","","","","","","","","","","","","","","","","",""
"null","","html-keyboard-response","259","1267000","0.0-258.0","A34H7UVYQTC390","<p style=""font-size: 48px;"">+</p>","","","","","null","allTrialResponses","1500","1","30","img_art/25.jpg","-2","skeleton warrior escaping a cemetary","Paige,Molly,Katherine,Alexa,Leslie,Hannah","reminds me of ancient history which makes me happy,40,60,20","Well-designed, interesting.,30,340,20","That's pretty awesome. I love the green and black combo, reminds me of one of those cartoon creepy movies,47,120,20","It's really neat and cool looking,20,40,20","I feel like I'm looking at something larger than myself.,30,380,20","Looks like a voodoo figure in a New Orleans cemetery at night.,-5,240,20","Hannah","Looks like a voodoo figure in a New Orleans cemetery at night.,-5,240,20","Alexa","It's really neat and cool looking,20,40,20","Paige","reminds me of ancient history which makes me happy,40,60,20","2"
"1540","","image-button-response_instructions","260","1268545","0.0-259.0","A34H7UVYQTC390","","0","instructions","","","","","","","","","","","","","","","","","","","","","","","",""
"909","","image-button-response","261","1269457","0.0-260.0","A34H7UVYQTC390","","0","","","","","","","","","","","","","","","","","","","","","","","","",""
