"rt","url","trial_type","trial_index","time_elapsed","internal_node_id","participant_id","stimulus","button_pressed","Name","responses","response","key_press","variableName","fixationTime","condition","trial","photo","subjectRating","subjectResponse","agentsNames","agent_1_Response","agent_2_Response","agent_3_Response","agent_4_Response","agent_5_Response","agent_6_Response","kept_1_name","kept_1_response","kept_2_name","kept_2_response","kept_3_name","kept_3_response","errorCounter"
"15395","external_page_harvard.html","external-html","0","15472","0.0-0.0","A34XULBZ8UVPMG","","","","","","","","","","","","","","","","","","","","","","","","","","",""
"1347","","image-button-response","1","16822","0.0-1.0","A34XULBZ8UVPMG","","1","","","","","","","","","","","","","","","","","","","","","","","","",""
"3637","","image-button-response","2","20468","0.0-2.0-0.0","A34XULBZ8UVPMG","","1","phone","","","","","","","","","","","","","","","","","","","","","","","",""
"5635","","survey-text","3","26106","0.0-3.0-0.0","A34XULBZ8UVPMG","","","","{""Q0"":""A34XULBZ8UVPMG""}","","","","","","","","","","","","","","","","","","","","","","",""
"3515","","image-button-response_instructions","4","29626","0.0-4.0","A34XULBZ8UVPMG","","0","instructions","","","","","","","","","","","","","","","","","","","","","","","",""
"8079","","image-button-response_instructions","5","37706","0.0-5.0","A34XULBZ8UVPMG","img_art/ins/popularity/ins1.png","0","instructions","","","","","","","","","","","","","","","","","","","","","","","",""
"4209","","image-button-response_instructions","6","41917","0.0-6.0","A34XULBZ8UVPMG","img_art/ins/popularity/ins2.png","0","instructions","","","","","","","","","","","","","","","","","","","","","","","",""
"3180","","image-button-response_instructions","7","45099","0.0-7.0","A34XULBZ8UVPMG","img_art/ins/popularity/ins2Extreme.png","0","instructions","","","","","","","","","","","","","","","","","","","","","","","",""
"14962","","image-button-response_instructions","8","60062","0.0-8.0","A34XULBZ8UVPMG","img_art/ins/popularity/ins3KEEPpop.PNG","0","instructions","","","","","","","","","","","","","","","","","","","","","","","",""
"1720","","image-button-response_instructions","9","61784","0.0-9.0","A34XULBZ8UVPMG","img_art/ins/popularity/ins3ANamepop.PNG","0","instructions","","","","","","","","","","","","","","","","","","","","","","","",""
"3121","","image-button-response_instructions","10","64907","0.0-10.0","A34XULBZ8UVPMG","img_art/ins/popularity/ins3ARatingpop.png","0","instructions","","","","","","","","","","","","","","","","","","","","","","","",""
"2456","","image-button-response_instructions","11","67365","0.0-11.0","A34XULBZ8UVPMG","img_art/ins/popularity/ins3ATextpop.png","0","instructions","","","","","","","","","","","","","","","","","","","","","","","",""
"4590","","image-button-response_instructions","12","71958","0.0-12.0","A34XULBZ8UVPMG","img_art/ins/popularity/ins3ALikespop.png","0","instructions","","","","","","","","","","","","","","","","","","","","","","","",""
"6079","","image-button-response_instructions","13","78039","0.0-13.0","A34XULBZ8UVPMG","img_art/ins/popularity/ins3KEEPpop.PNG","0","instructions","","","","","","","","","","","","","","","","","","","","","","","",""
"52294","","image-button-response_instructions","14","130336","0.0-14.0","A34XULBZ8UVPMG","img_art/ins/popularity/ins3_5RED.png","0","instructions","","","","","","","","","","","","","","","","","","","","","","","",""
"2745","","image-button-response_instructions","15","133085","0.0-15.0","A34XULBZ8UVPMG","img_art/ins/popularity/ins3KEEPpop.PNG","0","instructions","","","","","","","","","","","","","","","","","","","","","","","",""
"4495","","image-button-response_instructions","16","137582","0.0-16.0","A34XULBZ8UVPMG","img_art/ins/popularity/ins4KEEPpop.PNG","0","instructions","","","","","","","","","","","","","","","","","","","","","","","",""
"2324","","image-button-response_instructions","17","139908","0.0-17.0","A34XULBZ8UVPMG","img_art/ins/popularity/ins5KEEPpop.PNG","0","instructions","","","","","","","","","","","","","","","","","","","","","","","",""
"1341","","image-button-response_instructions","18","141250","0.0-18.0","A34XULBZ8UVPMG","","0","instructions","","","","","","","","","","","","","","","","","","","","","","","",""
"14833","","survey-text","19","156113","0.0-19.0-0.0","A34XULBZ8UVPMG","","","","{""Q0"":""but""}","","","","","","","","","","","","","","","","","","","","","","",""
"29519","","survey-text","20","185635","0.0-20.0-0.0","A34XULBZ8UVPMG","","","","{""Q0"":""I find this piece cheery and bright. I appreciate the expressive mark marking.""}","","","","","","","","","","","","","","","","","","","","","","",""
"4440","","image-slider-response","21","190078","0.0-21.0","A34XULBZ8UVPMG","","","","","18","","","","","","","","","","","","","","","","","","","","","",""
"null","","image-button-response","22","195084","0.0-22.0","A34XULBZ8UVPMG","img_art/ins/1.jpg","null","","","","","","","","","","","","","","","","","","","","","","","","",""
"222","","image-button-response","23","195310","0.0-23.0","A34XULBZ8UVPMG","img_art/ins/1.jpg","4","","","","","","","","","","","","","","","","","","","","","","","","",""
"2392","","image-button-response","24","197705","0.0-24.0-0.0","A34XULBZ8UVPMG","img_art/ins/1.jpg","5","","","","","","","","","","","","","","","","","","","","","","","","",""
"8974","","image-button-response","25","206683","0.0-25.0-0.0","A34XULBZ8UVPMG","img_art/ins/1.jpg","0","","","","","","","","","","","","","","","","","","","","","","","","",""
"null","","html-keyboard-response","26","208188","0.0-26.0","A34XULBZ8UVPMG","<p style=""font-size: 48px;"">+</p>","","","","","null","allTrialResponses","1500","1","-2","img_art/ins/1.jpg","18","I find this piece cheery and bright. I appreciate the expressive mark marking.","Allison,Ashley,Beth,Dora,Erika,Jen","looks like a lot of things going on in the mist,20,20,20","I just don't get why these type of art would be popular,-32,40,20","This color reminds me of poo,-46,60,20","looks like what my niece in 3rd grade did this afternoon,-50,80,20","I like the sophisticated brushwork,40,100,20","It reminds me of a candy land dream I had,36,120,20","Erika","I like the sophisticated brushwork,40,100,20","Jen","It reminds me of a candy land dream I had,36,120,20","Allison","looks like a lot of things going on in the mist,20,20,20","0"
"30255","","survey-text","27","238456","0.0-27.0-0.0","A34XULBZ8UVPMG","","","","{""Q0"":""I love the color palette and thick application of paint. Reminds me of De Kooning.""}","","","","","","","","","","","","","","","","","","","","","","",""
"7297","","image-slider-response","28","245755","0.0-28.0","A34XULBZ8UVPMG","","","","","37","","","","","","","","","","","","","","","","","","","","","",""
"null","","image-button-response","29","250759","0.0-29.0","A34XULBZ8UVPMG","img_art/ins/2.jpg","null","","","","","","","","","","","","","","","","","","","","","","","","",""
"9361","","image-button-response","30","260123","0.0-30.0","A34XULBZ8UVPMG","img_art/ins/2.jpg","1","","","","","","","","","","","","","","","","","","","","","","","","",""
"5044","","image-button-response","31","265170","0.0-31.0-0.0","A34XULBZ8UVPMG","img_art/ins/2.jpg","4","","","","","","","","","","","","","","","","","","","","","","","","",""
"2063","","image-button-response","32","267236","0.0-32.0-0.0","A34XULBZ8UVPMG","img_art/ins/2.jpg","5","","","","","","","","","","","","","","","","","","","","","","","","",""
"null","","html-keyboard-response","33","268239","0.0-33.0","A34XULBZ8UVPMG","<p style=""font-size: 48px;"">+</p>","","","","","null","allTrialResponses","1000","1","-1","img_art/ins/2.jpg","37","I love the color palette and thick application of paint. Reminds me of De Kooning.","Allison,Kara,Katie,Jenna,Erika,Jen","I don't have strong feelings about this,10,20,20","I like the blocks of color arrangements,30,160,20","too much color!,-28,180,20","One of my pet peevs,-48,140,20","I would never be able to compose a sophisticated pallete like this,48,100,20","It reminds me of a fireplace,36,120,20","Kara","I like the blocks of color arrangements,30,160,20","Erika","I would never be able to compose a sophisticated pallete like this,48,100,20","Jen","It reminds me of a fireplace,36,120,20","0"
"20136","","survey-text","34","288389","0.0-34.0-0.0","A34XULBZ8UVPMG","","","","{""Q0"":""The colors remind me of a snowy day. A very moody composition.""}","","","","","","","","","","","","","","","","","","","","","","",""
"5624","","image-slider-response","35","294015","0.0-35.0","A34XULBZ8UVPMG","","","","","18","","","","","","","","","","","","","","","","","","","","","",""
"2129","","image-button-response","36","299019","0.0-36.0","A34XULBZ8UVPMG","img_art/ins/3.jpg","0","","","","","","","","","","","","","","","","","","","","","","","","",""
"1802","","image-button-response","37","300824","0.0-37.0","A34XULBZ8UVPMG","img_art/ins/3.jpg","0","","","","","","","","","","","","","","","","","","","","","","","","",""
"7258","","image-button-response","38","308083","0.0-38.0-0.0","A34XULBZ8UVPMG","img_art/ins/3.jpg","4","","","","","","","","","","","","","","","","","","","","","","","","",""
"751","","image-button-response","39","308837","0.0-39.0-0.0","A34XULBZ8UVPMG","img_art/ins/3.jpg","1","","","","","","","","","","","","","","","","","","","","","","","","",""
"null","","html-keyboard-response","40","309340","0.0-40.0","A34XULBZ8UVPMG","<p style=""font-size: 48px;"">+</p>","","","","","null","allTrialResponses","500","1","0","img_art/ins/3.jpg","18","The colors remind me of a snowy day. A very moody composition.","Mary,Kara,Rose,Leslie,Erika,Jen","I like the overlapping of brushes,41,220,20","calming blue is very nice,36,160,20","My daily routine, it's depressing,-20,240,20","It's an alright work,15,200,20","I feel connected to the artist,40,100,20","I can feel a rainy day from this painting,18,120,20","Mary","I like the overlapping of brushes,41,220,20","Erika","I feel connected to the artist,40,100,20","Kara","calming blue is very nice,36,160,20","0"
"4311","","image-button-response_instructions","41","313664","0.0-41.0","A34XULBZ8UVPMG","","0","instructions","","","","","","","","","","","","","","","","","","","","","","","",""
"11911","","survey-likert","42","325577","0.0-42.0-0.0","A34XULBZ8UVPMG","","","","{""Q0"":"""",""Q1"":0,""Q2"":1}","","","","","","","","","","","","","","","","","","","","","","",""
"6853","","survey-text","43","332436","0.0-43.0-0.0","A34XULBZ8UVPMG","","","","{""Q0"":""rock""}","","","","","","","","","","","","","","","","","","","","","","",""
"33141","","survey-text","44","365579","0.0-44.0-0.0","A34XULBZ8UVPMG","","","","{""Q0"":""I don’t particularly like the colors. I do appreciate the hazy, soft mood.""}","","","","","","","","","","","","","","","","","","","","","","",""
"6073","","image-slider-response","45","371653","0.0-45.0","A34XULBZ8UVPMG","","","","","-10","","","","","","","","","","","","","","","","","","","","","",""
"3967","","image-button-response","46","376681","0.0-46.0","A34XULBZ8UVPMG","img_art/22.jpg","3","","","","","","","","","","","","","","","","","","","","","","","","",""
"3561","","image-button-response","47","380244","0.0-47.0","A34XULBZ8UVPMG","img_art/22.jpg","3","","","","","","","","","","","","","","","","","","","","","","","","",""
"3645","","image-button-response","48","383891","0.0-48.0-0.0","A34XULBZ8UVPMG","img_art/22.jpg","1","","","","","","","","","","","","","","","","","","","","","","","","",""
"3833","","image-button-response","49","387728","0.0-49.0-0.0","A34XULBZ8UVPMG","img_art/22.jpg","5","","","","","","","","","","","","","","","","","","","","","","","","",""
"null","","html-keyboard-response","50","388732","0.0-50.0","A34XULBZ8UVPMG","<p style=""font-size: 48px;"">+</p>","","","","","null","allTrialResponses","1000","1","1","img_art/22.jpg","-10","I don’t particularly like the colors. I do appreciate the hazy, soft mood.","Brooke,Michelle,Claire,Katelyn,Tiffany,Crystal","Like this one, like a sunset,30,60,20","Not a huge fan of the blocks, also very abstract, I have no idea what it is,8,280,20","I enjoy the colors used,24,260,20","I usually dont like blurry pieces but the colors are amazing in this,14,100,20","The painting makes me feel a little sad.,12,360,20","Beautiful use of chalk or pastels. Love the abstract nature.,35,300,20","Katelyn","I usually dont like blurry pieces but the colors are amazing in this,14,100,20","Michelle","Not a huge fan of the blocks, also very abstract, I have no idea what it is,8,280,20","Crystal","Beautiful use of chalk or pastels. Love the abstract nature.,35,300,20","0"
"36481","","survey-text","51","425228","0.0-51.0-0.0","A34XULBZ8UVPMG","","","","{""Q0"":""What a beautiful painting! The colors are gorgeous and I love the expressive range of shapes.""}","","","","","","","","","","","","","","","","","","","","","","",""
"4801","","image-slider-response","52","430031","0.0-52.0","A34XULBZ8UVPMG","","","","","38","","","","","","","","","","","","","","","","","","","","","",""
"null","","image-button-response","53","435035","0.0-53.0","A34XULBZ8UVPMG","img_art/2.jpg","null","","","","","","","","","","","","","","","","","","","","","","","","",""
"8740","","image-button-response","54","443778","0.0-54.0","A34XULBZ8UVPMG","img_art/2.jpg","4","","","","","","","","","","","","","","","","","","","","","","","","",""
"4739","","image-button-response","55","448519","0.0-55.0-0.0","A34XULBZ8UVPMG","img_art/2.jpg","5","","","","","","","","","","","","","","","","","","","","","","","","",""
"2069","","image-button-response","56","450591","0.0-56.0-0.0","A34XULBZ8UVPMG","img_art/2.jpg","0","","","","","","","","","","","","","","","","","","","","","","","","",""
"null","","html-keyboard-response","57","452095","0.0-57.0","A34XULBZ8UVPMG","<p style=""font-size: 48px;"">+</p>","","","","","null","allTrialResponses","1500","1","2","img_art/2.jpg","38","What a beautiful painting! The colors are gorgeous and I love the expressive range of shapes.","Erika,Michelle,Kelsey,Katelyn,Amanda,Crystal","Indistinct and too bright,-21,100,20","Don't like the puke green color and also too abstact,-14,280,20","i dont like it, no thank you,-28,240,20","Looks childish and i dont like the texture,-25,100,20","Very simple and childish,40,180,20","Looks contrived and like someone tried to hard to make it abstract,-31,300,20","Amanda","Very simple and childish,40,180,20","Crystal","Looks contrived and like someone tried to hard to make it abstract,-31,300,20","Erika","Indistinct and too bright,-21,100,20","0"
"19702","","survey-text","58","471812","0.0-58.0-0.0","A34XULBZ8UVPMG","","","","{""Q0"":""This feels quite angry to me. I don’t like the dark colors. ""}","","","","","","","","","","","","","","","","","","","","","","",""
"2457","","image-slider-response","59","474271","0.0-59.0","A34XULBZ8UVPMG","","","","","-18","","","","","","","","","","","","","","","","","","","","","",""
"4092","","image-button-response","60","479286","0.0-60.0","A34XULBZ8UVPMG","img_art/23.jpg","2","","","","","","","","","","","","","","","","","","","","","","","","",""
"108","","image-button-response","61","479400","0.0-61.0","A34XULBZ8UVPMG","img_art/23.jpg","5","","","","","","","","","","","","","","","","","","","","","","","","",""
"2539","","image-button-response","62","481941","0.0-62.0-0.0","A34XULBZ8UVPMG","img_art/23.jpg","2","","","","","","","","","","","","","","","","","","","","","","","","",""
"4209","","image-button-response","63","486154","0.0-63.0-0.0","A34XULBZ8UVPMG","img_art/23.jpg","4","","","","","","","","","","","","","","","","","","","","","","","","",""
"null","","html-keyboard-response","64","486658","0.0-64.0","A34XULBZ8UVPMG","<p style=""font-size: 48px;"">+</p>","","","","","null","allTrialResponses","500","1","3","img_art/23.jpg","-18","This feels quite angry to me. I don’t like the dark colors. ","Erika,Jordan,Alexis,Caitlin,Amanda,Crystal","Very intense and unique,3,100,20","NO, I don't get it,-50,20,20","Pretty cool. I love the white, reminds me of people lined up.,28,100,20","SOME thought was put into this one.,5,80,20","One of my favorites, love the colors and how the white looks like humans,50,180,20","I love the funky colors accompanied by perhaps dancing silhouettes. I love the white against the chaotic surroundings.,50,300,20","Crystal","I love the funky colors accompanied by perhaps dancing silhouettes. I love the white against the chaotic surroundings.,50,300,20","Alexis","Pretty cool. I love the white, reminds me of people lined up.,28,100,20","Amanda","One of my favorites, love the colors and how the white looks like humans,50,180,20","0"
"35070","","survey-text","65","521745","0.0-65.0-0.0","A34XULBZ8UVPMG","","","","{""Q0"":""I don’t like the earthy colors. This feels very flat to me. Maybe it would look different in person.""}","","","","","","","","","","","","","","","","","","","","","","",""
"2535","","image-slider-response","66","524282","0.0-66.0","A34XULBZ8UVPMG","","","","","-15","","","","","","","","","","","","","","","","","","","","","",""
"null","","image-button-response","67","529286","0.0-67.0","A34XULBZ8UVPMG","img_art/7.jpg","null","","","","","","","","","","","","","","","","","","","","","","","","",""
"188","","image-button-response","68","529477","0.0-68.0","A34XULBZ8UVPMG","img_art/7.jpg","5","","","","","","","","","","","","","","","","","","","","","","","","",""
"4260","","image-button-response","69","533740","0.0-69.0-0.0","A34XULBZ8UVPMG","img_art/7.jpg","1","","","","","","","","","","","","","","","","","","","","","","","","",""
"2873","","image-button-response","70","536616","0.0-70.0-0.0","A34XULBZ8UVPMG","img_art/7.jpg","0","","","","","","","","","","","","","","","","","","","","","","","","",""
"null","","html-keyboard-response","71","537620","0.0-71.0","A34XULBZ8UVPMG","<p style=""font-size: 48px;"">+</p>","","","","","null","allTrialResponses","1000","1","4","img_art/7.jpg","-15","I don’t like the earthy colors. This feels very flat to me. Maybe it would look different in person.","Cassandra,Samantha,Alexis,Briana,Amanda,Crystal","Just neutral...looks like sand at the beach.,3,120,20","Makes me want to feel it,19,140,20","Looks like bad wallpaper,-29,100,20","Are these ancient cave paintings?,-7,400,20","I hate everything about this painting from the cors to it looking like a war,-50,180,20","I thought I was looking at a satellite image of mars.,21,300,20","Crystal","I thought I was looking at a satellite image of mars.,21,300,20","Samantha","Makes me want to feel it,19,140,20","Cassandra","Just neutral...looks like sand at the beach.,3,120,20","0"
"32517","","survey-text","72","570153","0.0-72.0-0.0","A34XULBZ8UVPMG","","","","{""Q0"":""So moody. I love the color and the soft brushstrokes. Beautiful!""}","","","","","","","","","","","","","","","","","","","","","","",""
"2392","","image-slider-response","73","572547","0.0-73.0","A34XULBZ8UVPMG","","","","","45","","","","","","","","","","","","","","","","","","","","","",""
"4347","","image-button-response","74","577552","0.0-74.0","A34XULBZ8UVPMG","img_art/21.jpg","0","","","","","","","","","","","","","","","","","","","","","","","","",""
"4949","","image-button-response","75","582504","0.0-75.0","A34XULBZ8UVPMG","img_art/21.jpg","1","","","","","","","","","","","","","","","","","","","","","","","","",""
"661","","image-button-response","76","583167","0.0-76.0-0.0","A34XULBZ8UVPMG","img_art/21.jpg","0","","","","","","","","","","","","","","","","","","","","","","","","",""
"983","","image-button-response","77","584153","0.0-77.0-0.0","A34XULBZ8UVPMG","img_art/21.jpg","0","","","","","","","","","","","","","","","","","","","","","","","","",""
"1729","","image-button-response","78","589197","0.0-77.1-0.1","A34XULBZ8UVPMG","img_art/21.jpg","2","","","","","","","","","","","","","","","","","","","","","","","","",""
"null","","html-keyboard-response","79","590200","0.0-78.0","A34XULBZ8UVPMG","<p style=""font-size: 48px;"">+</p>","","","","","null","allTrialResponses","1000","1","5","img_art/21.jpg","45","So moody. I love the color and the soft brushstrokes. Beautiful!","Cassandra,Samantha,Ashley,Kaitlin,Breanna,Crystal","I liked it...it looked like a storm raging.,12,120,20","Love the colors and the relationship between the light and storm,50,140,20","Disturbing, land meets ocean, lvoely really.,43,320,20","waterpaint is attractive,13,60,20","Can't understand what it is,-27,380,20","Feels like a clash between land and sea,31,300,20","Samantha","Love the colors and the relationship between the light and storm,50,140,20","Cassandra","I liked it...it looked like a storm raging.,12,120,20","Ashley","Disturbing, land meets ocean, lvoely really.,43,320,20","2"
"13491","","survey-text","80","603712","0.0-79.0-0.0","A34XULBZ8UVPMG","","","","{""Q0"":""sky""}","","","","","","","","","","","","","","","","","","","","","","",""
"34016","","survey-text","81","637730","0.0-80.0-0.0","A34XULBZ8UVPMG","","","","{""Q0"":""The shapes in the foreground remind me of bones, which I find disturbing. The painting feels very masculine.""}","","","","","","","","","","","","","","","","","","","","","","",""
"3140","","image-slider-response","82","640872","0.0-81.0","A34XULBZ8UVPMG","","","","","-33","","","","","","","","","","","","","","","","","","","","","",""
"null","","image-button-response","83","645881","0.0-82.0","A34XULBZ8UVPMG","img_art/20.jpg","null","","","","","","","","","","","","","","","","","","","","","","","","",""
"473","","image-button-response","84","646357","0.0-83.0","A34XULBZ8UVPMG","img_art/20.jpg","2","","","","","","","","","","","","","","","","","","","","","","","","",""
"5092","","image-button-response","85","651451","0.0-84.0-0.0","A34XULBZ8UVPMG","img_art/20.jpg","1","","","","","","","","","","","","","","","","","","","","","","","","",""
"11160","","image-button-response","86","662614","0.0-85.0-0.0","A34XULBZ8UVPMG","img_art/20.jpg","0","","","","","","","","","","","","","","","","","","","","","","","","",""
"null","","html-keyboard-response","87","663118","0.0-86.0","A34XULBZ8UVPMG","<p style=""font-size: 48px;"">+</p>","","","","","null","allTrialResponses","500","1","6","img_art/20.jpg","-33","The shapes in the foreground remind me of bones, which I find disturbing. The painting feels very masculine.","Cassandra,Samantha,Ashley,Marissa,Autumn,Mackenzie","I liked this...I liked the blue and the black and I liked the smoothness to it.,31,120,20","Use of white on foreground is too big and steals eyes away from rest of painting,2,140,20","Painting within a painting, abstract.,32,320,20","I feel intrigued and impressed,34,160,20","It's ok. Very abstract.,18,340,20","Shapes are fun to interpret,21,20,20","Ashley","Painting within a painting, abstract.,32,320,20","Samantha","Use of white on foreground is too big and steals eyes away from rest of painting,2,140,20","Cassandra","I liked this...I liked the blue and the black and I liked the smoothness to it.,31,120,20","2"
"50606","","survey-text","88","713740","0.0-87.0-0.0","A34XULBZ8UVPMG","","","","{""Q0"":""I don’t particularly like the colors, but I find the figure intriguing. It reminds me of a goddess figure.""}","","","","","","","","","","","","","","","","","","","","","","",""
"3009","","image-slider-response","89","716751","0.0-88.0","A34XULBZ8UVPMG","","","","","13","","","","","","","","","","","","","","","","","","","","","",""
"4482","","image-button-response","90","721756","0.0-89.0","A34XULBZ8UVPMG","img_art/25.jpg","5","","","","","","","","","","","","","","","","","","","","","","","","",""
"2494","","image-button-response","91","724253","0.0-90.0","A34XULBZ8UVPMG","img_art/25.jpg","2","","","","","","","","","","","","","","","","","","","","","","","","",""
"3450","","image-button-response","92","727706","0.0-91.0-0.0","A34XULBZ8UVPMG","img_art/25.jpg","4","","","","","","","","","","","","","","","","","","","","","","","","",""
"1843","","image-button-response","93","729552","0.0-92.0-0.0","A34XULBZ8UVPMG","img_art/25.jpg","3","","","","","","","","","","","","","","","","","","","","","","","","",""
"null","","html-keyboard-response","94","730556","0.0-93.0","A34XULBZ8UVPMG","<p style=""font-size: 48px;"">+</p>","","","","","null","allTrialResponses","1000","1","7","img_art/25.jpg","13","I don’t particularly like the colors, but I find the figure intriguing. It reminds me of a goddess figure.","Cassandra,Samantha,Ashley,Morgan,Taylor,Amber","I hate the colors and the scene,-46,120,20","It is interesting but too creapy for me,-29,140,20","haunting, a lovely impression.,50,320,20","Ancient gods above you.,20,380,20","It makes me feel a little uneasy, but I like the painting,11,340,20","Regal. Reminds me of Egyptian art.,11,200,20","Ashley","haunting, a lovely impression.,50,320,20","Taylor","It makes me feel a little uneasy, but I like the painting,11,340,20","Morgan","Ancient gods above you.,20,380,20","2"
"15224","","survey-text","95","745797","0.0-94.0-0.0","A34XULBZ8UVPMG","","","","{""Q0"":""Very expressive and bold. I like the monochrome palette. ""}","","","","","","","","","","","","","","","","","","","","","","",""
"5615","","image-slider-response","96","751414","0.0-95.0","A34XULBZ8UVPMG","","","","","13","","","","","","","","","","","","","","","","","","","","","",""
"null","","image-button-response","97","756419","0.0-96.0","A34XULBZ8UVPMG","img_art/3.jpg","null","","","","","","","","","","","","","","","","","","","","","","","","",""
"10075","","image-button-response","98","766496","0.0-97.0","A34XULBZ8UVPMG","img_art/3.jpg","3","","","","","","","","","","","","","","","","","","","","","","","","",""
"7445","","image-button-response","99","773942","0.0-98.0-0.0","A34XULBZ8UVPMG","img_art/3.jpg","5","","","","","","","","","","","","","","","","","","","","","","","","",""
"640","","image-button-response","100","774584","0.0-99.0-0.0","A34XULBZ8UVPMG","img_art/3.jpg","1","","","","","","","","","","","","","","","","","","","","","","","","",""
"null","","html-keyboard-response","101","776094","0.0-100.0","A34XULBZ8UVPMG","<p style=""font-size: 48px;"">+</p>","","","","","null","allTrialResponses","1500","1","8","img_art/3.jpg","13","Very expressive and bold. I like the monochrome palette. ","Chelsea,Natalie,Ashley,Morgan,Taylor,Kayla","It looks like scribbles.,-40,180,20","my response to the picture is a lot of red, danger,,-21,400,20","Reminds of John Lenonn's art a bit.,27,320,20","Somewhere between a child's art and a poorly drawn battle map.,8,380,20","It doesn't make me think of art,-20,340,20","Really have no idea what I'm looking at.,1,180,20","Morgan","Somewhere between a child's art and a poorly drawn battle map.,8,380,20","Kayla","Really have no idea what I'm looking at.,1,180,20","Natalie","my response to the picture is a lot of red, danger,,-21,400,20","2"
"36229","","survey-text","102","812341","0.0-101.0-0.0","A34XULBZ8UVPMG","","","","{""Q0"":""The colors are very faded. This isn’t appealing to me at all.""}","","","","","","","","","","","","","","","","","","","","","","",""
"6049","","image-slider-response","103","818392","0.0-102.0","A34XULBZ8UVPMG","","","","","-35","","","","","","","","","","","","","","","","","","","","","",""
"3836","","image-button-response","104","823395","0.0-103.0","A34XULBZ8UVPMG","img_art/30.jpg","2","","","","","","","","","","","","","","","","","","","","","","","","",""
"1251","","image-button-response","105","824649","0.0-104.0","A34XULBZ8UVPMG","img_art/30.jpg","3","","","","","","","","","","","","","","","","","","","","","","","","",""
"6489","","image-button-response","106","831140","0.0-105.0-0.0","A34XULBZ8UVPMG","img_art/30.jpg","5","","","","","","","","","","","","","","","","","","","","","","","","",""
"905","","image-button-response","107","832048","0.0-106.0-0.0","A34XULBZ8UVPMG","img_art/30.jpg","2","","","","","","","","","","","","","","","","","","","","","","","","",""
"null","","html-keyboard-response","108","833551","0.0-107.0","A34XULBZ8UVPMG","<p style=""font-size: 48px;"">+</p>","","","","","null","allTrialResponses","1500","1","9","img_art/30.jpg","-35","The colors are very faded. This isn’t appealing to me at all.","Kelly,Natalie,Victoria,Morgan,Cynthia,Kayla","The red helps it to pop.,13,220,20","the colors look nice,19,400,20","to dark and dreary,-28,400,20","Sleek eel in the abstract ocean.,30,380,20","fun and imaginative,12,320,20","It's soothing- the page is full, but there aren't too many things happening.,23,180,20","Morgan","Sleek eel in the abstract ocean.,30,380,20","Kayla","It's soothing- the page is full, but there aren't too many things happening.,23,180,20","Victoria","to dark and dreary,-28,400,20","2"
"32852","","survey-text","109","866420","0.0-108.0-0.0","A34XULBZ8UVPMG","","","","{""Q0"":""I love the figure in the center and the colors. There is a suggestion of a bird or peacock. ""}","","","","","","","","","","","","","","","","","","","","","","",""
"6881","","image-slider-response","110","873303","0.0-109.0","A34XULBZ8UVPMG","","","","","23","","","","","","","","","","","","","","","","","","","","","",""
"4431","","image-button-response","111","878307","0.0-110.0","A34XULBZ8UVPMG","img_art/9.jpg","4","","","","","","","","","","","","","","","","","","","","","","","","",""
"1360","","image-button-response","112","879669","0.0-111.0","A34XULBZ8UVPMG","img_art/9.jpg","5","","","","","","","","","","","","","","","","","","","","","","","","",""
"1730","","image-button-response","113","881401","0.0-112.0-0.0","A34XULBZ8UVPMG","img_art/9.jpg","2","","","","","","","","","","","","","","","","","","","","","","","","",""
"642","","image-button-response","114","882046","0.0-113.0-0.0","A34XULBZ8UVPMG","img_art/9.jpg","4","","","","","","","","","","","","","","","","","","","","","","","","",""
"null","","html-keyboard-response","115","882550","0.0-114.0","A34XULBZ8UVPMG","<p style=""font-size: 48px;"">+</p>","","","","","null","allTrialResponses","500","1","10","img_art/9.jpg","23","I love the figure in the center and the colors. There is a suggestion of a bird or peacock. ","Jacqueline,Angelica,Victoria,Morgan,Mary,Kayla","Looks like a sloppy iguana.,-11,300,20","The colors and image is ugly.,-7,280,20","reminds me of a story book,18,400,20","The mouth of an ugly beast.,-25,380,20","How neat is this piece?  I love the angry expressive lines. Emotion is captured in it.,26,180,20","It's nice. Peaceful. Calming.,11,180,20","Kayla","It's nice. Peaceful. Calming.,11,180,20","Victoria","reminds me of a story book,18,400,20","Mary","How neat is this piece?  I love the angry expressive lines. Emotion is captured in it.,26,180,20","2"
"6877","","survey-text","116","889450","0.0-115.0-0.0","A34XULBZ8UVPMG","","","","{""Q0"":""our""}","","","","","","","","","","","","","","","","","","","","","","",""
"25712","","survey-text","117","915163","0.0-116.0-0.0","A34XULBZ8UVPMG","","","","{""Q0"":""The shapes and colors feel very organic. I’d like to see this in person.""}","","","","","","","","","","","","","","","","","","","","","","",""
"4104","","image-slider-response","118","919269","0.0-117.0","A34XULBZ8UVPMG","","","","","18","","","","","","","","","","","","","","","","","","","","","",""
"null","","image-button-response","119","924274","0.0-118.0","A34XULBZ8UVPMG","img_art/28.jpg","null","","","","","","","","","","","","","","","","","","","","","","","","",""
"2172","","image-button-response","120","926449","0.0-119.0","A34XULBZ8UVPMG","img_art/28.jpg","5","","","","","","","","","","","","","","","","","","","","","","","","",""
"3227","","image-button-response","121","929679","0.0-120.0-0.0","A34XULBZ8UVPMG","img_art/28.jpg","0","","","","","","","","","","","","","","","","","","","","","","","","",""
"1457","","image-button-response","122","931139","0.0-121.0-0.0","A34XULBZ8UVPMG","img_art/28.jpg","2","","","","","","","","","","","","","","","","","","","","","","","","",""
"null","","html-keyboard-response","123","931644","0.0-122.0","A34XULBZ8UVPMG","<p style=""font-size: 48px;"">+</p>","","","","","null","allTrialResponses","500","1","11","img_art/28.jpg","18","The shapes and colors feel very organic. I’d like to see this in person.","Kathryn,Jasmine,Victoria,Kaitlyn,Mary,Kayla","My immediate reaction was to think of smog. It recalls choking on dirty air.,-20,140,20","Colors too dull for me,-10,340,20","drab and dreary,-21,400,20","Not sure what way this picture is suppose to be oriented,-5,80,20","The colors are really ugly. They do not compliment each other well.,-45,180,20","Don't love it, don't hate it. It's just there.,1,180,20","Kayla","Don't love it, don't hate it. It's just there.,1,180,20","Kathryn","My immediate reaction was to think of smog. It recalls choking on dirty air.,-20,140,20","Victoria","drab and dreary,-21,400,20","2"
"22286","","survey-text","124","953946","0.0-123.0-0.0","A34XULBZ8UVPMG","","","","{""Q0"":""This is so bold and really makes me curious. Is that figure supposed to be a bird or a man? ""}","","","","","","","","","","","","","","","","","","","","","","",""
"3820","","image-slider-response","125","957769","0.0-124.0","A34XULBZ8UVPMG","","","","","18","","","","","","","","","","","","","","","","","","","","","",""
"2131","","image-button-response","126","962773","0.0-125.0","A34XULBZ8UVPMG","img_art/6.jpg","0","","","","","","","","","","","","","","","","","","","","","","","","",""
"1313","","image-button-response","127","964089","0.0-126.0","A34XULBZ8UVPMG","img_art/6.jpg","2","","","","","","","","","","","","","","","","","","","","","","","","",""
"1193","","image-button-response","128","965284","0.0-127.0-0.0","A34XULBZ8UVPMG","img_art/6.jpg","0","","","","","","","","","","","","","","","","","","","","","","","","",""
"1172","","image-button-response","129","966459","0.0-128.0-0.0","A34XULBZ8UVPMG","img_art/6.jpg","5","","","","","","","","","","","","","","","","","","","","","","","","",""
"null","","html-keyboard-response","130","967462","0.0-129.0","A34XULBZ8UVPMG","<p style=""font-size: 48px;"">+</p>","","","","","null","allTrialResponses","1000","1","12","img_art/6.jpg","18","This is so bold and really makes me curious. Is that figure supposed to be a bird or a man? ","Kathryn,Savannah,Victoria,Gabrielle,Mikayla,Kayla","This piece feels hopeful, like an oasis in the desert.,20,140,20","Despite how simple it is, this piece has clear meaning.,34,200,20","makes me think of nature,30,400,20","simplistic but reminds me of a crow in a field,-10,160,20","Not very exciting.,-34,300,20","Little birdie in a desert. Seeking better frontiers.,13,180,20","Victoria","makes me think of nature,30,400,20","Kathryn","This piece feels hopeful, like an oasis in the desert.,20,140,20","Kayla","Little birdie in a desert. Seeking better frontiers.,13,180,20","2"
"20637","","survey-text","131","988120","0.0-130.0-0.0","A34XULBZ8UVPMG","","","","{""Q0"":""A simple scene. I don’t feel too much when I look at it. I like the expressive, active brush strokes.""}","","","","","","","","","","","","","","","","","","","","","","",""
"2585.9999999998836","","image-slider-response","132","990709","0.0-131.0","A34XULBZ8UVPMG","","","","","12","","","","","","","","","","","","","","","","","","","","","",""
"4927","","image-button-response","133","995713","0.0-132.0","A34XULBZ8UVPMG","img_art/26.jpg","4","","","","","","","","","","","","","","","","","","","","","","","","",""
"1412","","image-button-response","134","997127","0.0-133.0","A34XULBZ8UVPMG","img_art/26.jpg","3","","","","","","","","","","","","","","","","","","","","","","","","",""
"609","","image-button-response","135","997739","0.0-134.0-0.0","A34XULBZ8UVPMG","img_art/26.jpg","4","","","","","","","","","","","","","","","","","","","","","","","","",""
"1632","","image-button-response","136","999375","0.0-135.0-0.0","A34XULBZ8UVPMG","img_art/26.jpg","0","","","","","","","","","","","","","","","","","","","","","","","","",""
"null","","html-keyboard-response","137","1000379","0.0-136.0","A34XULBZ8UVPMG","<p style=""font-size: 48px;"">+</p>","","","","","null","allTrialResponses","1000","1","13","img_art/26.jpg","12","A simple scene. I don’t feel too much when I look at it. I like the expressive, active brush strokes.","Kathryn,Madison,Victoria,Isabella,Andrea,Kayla","This piece feels pretty chill like it's just a normal day in the city.,10,140,20","Colors look glum; photograph is not properly contrasted and does not reflect the appropriate amount of natural light.,-10,60,20","feels a tad old,30,400,20","Colors are full and reminds me of a messy room,-9,280,20","I get the feeling of a small old world street.,24,240,20","Looks like the suburbs. I live in those.,13,180,20","Isabella","Colors are full and reminds me of a messy room,-9,280,20","Andrea","I get the feeling of a small old world street.,24,240,20","Kathryn","This piece feels pretty chill like it's just a normal day in the city.,10,140,20","2"
"19619","","survey-text","138","1020016","0.0-137.0-0.0","A34XULBZ8UVPMG","","","","{""Q0"":""Gorgeous and reminds me of being out in nature. Very relaxing.""}","","","","","","","","","","","","","","","","","","","","","","",""
"3867","","image-slider-response","139","1023886","0.0-138.0","A34XULBZ8UVPMG","","","","","16","","","","","","","","","","","","","","","","","","","","","",""
"3126","","image-button-response","140","1028890","0.0-139.0","A34XULBZ8UVPMG","img_art/24.jpg","3","","","","","","","","","","","","","","","","","","","","","","","","",""
"770","","image-button-response","141","1029663","0.0-140.0","A34XULBZ8UVPMG","img_art/24.jpg","5","","","","","","","","","","","","","","","","","","","","","","","","",""
"661","","image-button-response","142","1030327","0.0-141.0-0.0","A34XULBZ8UVPMG","img_art/24.jpg","4","","","","","","","","","","","","","","","","","","","","","","","","",""
"716","","image-button-response","143","1031046","0.0-142.0-0.0","A34XULBZ8UVPMG","img_art/24.jpg","3","","","","","","","","","","","","","","","","","","","","","","","","",""
"null","","html-keyboard-response","144","1032049","0.0-143.0","A34XULBZ8UVPMG","<p style=""font-size: 48px;"">+</p>","","","","","null","allTrialResponses","1000","1","14","img_art/24.jpg","16","Gorgeous and reminds me of being out in nature. Very relaxing.","Kathryn,Katherine,Melissa,Isabella,Andrea,Molly","This is clear and healthy. It makes me think of unspoiled nature.,20,140,20","The combination of nature / realism with abstract colors is unique.,39,120,20","feels overdone, but still executed well,0,240,20","A peaceful day by the river,42,280,20","Waterfall, and I love the coloring.,48,240,20","Extraordinary and unusual.,30,340,20","Molly","Extraordinary and unusual.,30,340,20","Andrea","Waterfall, and I love the coloring.,48,240,20","Isabella","A peaceful day by the river,42,280,20","2"
"184554","","survey-text","145","1216621","0.0-144.0-0.0","A34XULBZ8UVPMG","","","","{""Q0"":""I do not like the splatter. This feels very angry and masculine. ""}","","","","","","","","","","","","","","","","","","","","","","",""
"4520","","image-slider-response","146","1221143","0.0-145.0","A34XULBZ8UVPMG","","","","","-42","","","","","","","","","","","","","","","","","","","","","",""
"3871","","image-button-response","147","1226146","0.0-146.0","A34XULBZ8UVPMG","img_art/13.jpg","0","","","","","","","","","","","","","","","","","","","","","","","","",""
"2895","","image-button-response","148","1229043","0.0-147.0","A34XULBZ8UVPMG","img_art/13.jpg","2","","","","","","","","","","","","","","","","","","","","","","","","",""
"995","","image-button-response","149","1230042","0.0-148.0-0.0","A34XULBZ8UVPMG","img_art/13.jpg","0","","","","","","","","","","","","","","","","","","","","","","","","",""
"6666","","image-button-response","150","1236711","0.0-149.0-0.0","A34XULBZ8UVPMG","img_art/13.jpg","1","","","","","","","","","","","","","","","","","","","","","","","","",""
"null","","html-keyboard-response","151","1237713","0.0-150.0","A34XULBZ8UVPMG","<p style=""font-size: 48px;"">+</p>","","","","","null","allTrialResponses","1000","1","15","img_art/13.jpg","-42","I do not like the splatter. This feels very angry and masculine. ","Monica,Hailey,Leslie,Isabella,Andrea,Molly","It's like any other splatter paint art piece, nothing special,1,360,20","warm splash of salt water from ocean,16,200,20","This elicits no reaction in me.,0,380,20","Rain drops on a window,35,280,20","Raindrops on a window. Makes me feel like traveling.,31,240,20","Incredible, curious.,20,340,20","Leslie","This elicits no reaction in me.,0,380,20","Monica","It's like any other splatter paint art piece, nothing special,1,360,20","Hailey","warm splash of salt water from ocean,16,200,20","2"
"10849","","survey-text","152","1248588","0.0-151.0-0.0","A34XULBZ8UVPMG","","","","{""Q0"":""course""}","","","","","","","","","","","","","","","","","","","","","","",""
"35360","","survey-text","153","1283950","0.0-152.0-0.0","A34XULBZ8UVPMG","","","","{""Q0"":""Reminds me of childhood memories you can’t quite grasp.""}","","","","","","","","","","","","","","","","","","","","","","",""
"2687","","image-slider-response","154","1286639","0.0-153.0","A34XULBZ8UVPMG","","","","","23","","","","","","","","","","","","","","","","","","","","","",""
"null","","image-button-response","155","1291643","0.0-154.0","A34XULBZ8UVPMG","img_art/16.jpg","null","","","","","","","","","","","","","","","","","","","","","","","","",""
"1700","","image-button-response","156","1293346","0.0-155.0","A34XULBZ8UVPMG","img_art/16.jpg","2","","","","","","","","","","","","","","","","","","","","","","","","",""
"8322","","image-button-response","157","1301669","0.0-156.0-0.0","A34XULBZ8UVPMG","img_art/16.jpg","3","","","","","","","","","","","","","","","","","","","","","","","","",""
"1309","","image-button-response","158","1302982","0.0-157.0-0.0","A34XULBZ8UVPMG","img_art/16.jpg","1","","","","","","","","","","","","","","","","","","","","","","","","",""
"null","","html-keyboard-response","159","1303486","0.0-158.0","A34XULBZ8UVPMG","<p style=""font-size: 48px;"">+</p>","","","","","null","allTrialResponses","500","1","16","img_art/16.jpg","23","Reminds me of childhood memories you can’t quite grasp.","Monica,Hailey,Leslie,Olivia,Rachel,Katie","Don't know if there's a meaning but I like how seemingly random objects were stuck together and called art,20,360,20","cute and warm. i like the bear,15,200,20","This is making me feel nervous in an enjoyable way.,20,380,20","childhood horror,3,40,20","Not pleasing to the eyes. I do like that the gun is broken though.,-28,80,20","Upsetting and disturbing. Random bear and indistinguishable objects. None of it goes together. Too chaotic and random,-50,160,20","Leslie","This is making me feel nervous in an enjoyable way.,20,380,20","Olivia","childhood horror,3,40,20","Hailey","cute and warm. i like the bear,15,200,20","2"
"11798","","survey-text","160","1315303","0.0-159.0-0.0","A34XULBZ8UVPMG","","","","{""Q0"":""Very hazy and pleasant to look at.""}","","","","","","","","","","","","","","","","","","","","","","",""
"3232","","image-slider-response","161","1318538","0.0-160.0","A34XULBZ8UVPMG","","","","","11","","","","","","","","","","","","","","","","","","","","","",""
"2185","","image-button-response","162","1323542","0.0-161.0","A34XULBZ8UVPMG","img_art/1.jpg","0","","","","","","","","","","","","","","","","","","","","","","","","",""
"827","","image-button-response","163","1324373","0.0-162.0","A34XULBZ8UVPMG","img_art/1.jpg","3","","","","","","","","","","","","","","","","","","","","","","","","",""
"983","","image-button-response","164","1325358","0.0-163.0-0.0","A34XULBZ8UVPMG","img_art/1.jpg","0","","","","","","","","","","","","","","","","","","","","","","","","",""
"3025","","image-button-response","165","1328386","0.0-164.0-0.0","A34XULBZ8UVPMG","img_art/1.jpg","5","","","","","","","","","","","","","","","","","","","","","","","","",""
"null","","html-keyboard-response","166","1329891","0.0-165.0","A34XULBZ8UVPMG","<p style=""font-size: 48px;"">+</p>","","","","","null","allTrialResponses","1500","1","17","img_art/1.jpg","11","Very hazy and pleasant to look at.","Sabrina,Hailey,Leslie,Olivia,Bailey,Laura","I love the calming comfort and safe feeling of this,50,120,20","colors that are fairly warm. its ok,8,200,20","The use of reds, blues, and yellows together reminds me of fire. Very interesting to look at.,40,380,20","feels like there is meaning,9,40,20","A bit of a smokey mess, but it does have an air of mystery I like,7,360,20","soft and touchable, muddled,15,320,20","Olivia","feels like there is meaning,9,40,20","Sabrina","I love the calming comfort and safe feeling of this,50,120,20","Laura","soft and touchable, muddled,15,320,20","2"
"43301","","survey-text","167","1373207","0.0-166.0-0.0","A34XULBZ8UVPMG","","","","{""Q0"":""The colors are beautiful together. I like the thin lines over the bold brushstrokes in the background.""}","","","","","","","","","","","","","","","","","","","","","","",""
"3217","","image-slider-response","168","1376427","0.0-167.0","A34XULBZ8UVPMG","","","","","36","","","","","","","","","","","","","","","","","","","","","",""
"null","","image-button-response","169","1381434","0.0-168.0","A34XULBZ8UVPMG","img_art/27.jpg","null","","","","","","","","","","","","","","","","","","","","","","","","",""
"1881","","image-button-response","170","1383326","0.0-169.0","A34XULBZ8UVPMG","img_art/27.jpg","4","","","","","","","","","","","","","","","","","","","","","","","","",""
"3311","","image-button-response","171","1386640","0.0-170.0-0.0","A34XULBZ8UVPMG","img_art/27.jpg","3","","","","","","","","","","","","","","","","","","","","","","","","",""
"2987","","image-button-response","172","1389629","0.0-171.0-0.0","A34XULBZ8UVPMG","img_art/27.jpg","1","","","","","","","","","","","","","","","","","","","","","","","","",""
"null","","html-keyboard-response","173","1391134","0.0-172.0","A34XULBZ8UVPMG","<p style=""font-size: 48px;"">+</p>","","","","","null","allTrialResponses","1500","1","18","img_art/27.jpg","36","The colors are beautiful together. I like the thin lines over the bold brushstrokes in the background.","Sabrina,Gabriela,Megan,Olivia,Vanessa,Laura","Love the representation of home,22,120,20","I like hoe it looks like a fall day in a city,45,140,20","Nice back ground with childish scribble on top,-30,200,20","city at sunset brings happyness,10,40,20","Colors make me think of fall, but I don't like how the picture was done or the weird lines across the background,6,380,20","feels like a bar scene, tucked away in the corner of a small town,-40,320,20","Vanessa","Colors make me think of fall, but I don't like how the picture was done or the weird lines across the background,6,380,20","Olivia","city at sunset brings happyness,10,40,20","Gabriela","I like hoe it looks like a fall day in a city,45,140,20","2"
"71965","","survey-text","174","1463116","0.0-173.0-0.0","A34XULBZ8UVPMG","","","","{""Q0"":""Very playful and cute. Reminds me of a coastal city.""}","","","","","","","","","","","","","","","","","","","","","","",""
"2920","","image-slider-response","175","1466038","0.0-174.0","A34XULBZ8UVPMG","","","","","21","","","","","","","","","","","","","","","","","","","","","",""
"4512","","image-button-response","176","1471042","0.0-175.0","A34XULBZ8UVPMG","img_art/19.jpg","3","","","","","","","","","","","","","","","","","","","","","","","","",""
"228","","image-button-response","177","1471273","0.0-176.0","A34XULBZ8UVPMG","img_art/19.jpg","3","","","","","","","","","","","","","","","","","","","","","","","","",""
"1773","","image-button-response","178","1473049","0.0-177.0-0.0","A34XULBZ8UVPMG","img_art/19.jpg","5","","","","","","","","","","","","","","","","","","","","","","","","",""
"1009","","image-button-response","179","1474061","0.0-178.0-0.0","A34XULBZ8UVPMG","img_art/19.jpg","2","","","","","","","","","","","","","","","","","","","","","","","","",""
"null","","html-keyboard-response","180","1474565","0.0-179.0","A34XULBZ8UVPMG","<p style=""font-size: 48px;"">+</p>","","","","","null","allTrialResponses","500","1","19","img_art/19.jpg","21","Very playful and cute. Reminds me of a coastal city.","Mariah,Gabriela,Anna,Olivia,Vanessa,Emma","I like the watercolor and colors, do not like the deconstructed city scene feel.,0,140,20","it looks messy and non-unique.,-9,140,20","I like the shapes.,22,300,20","city life energy,8,40,20","Again, this is too abstract.,-10,380,20","Interesting, leaves you wondering what it is,40,60,20","Olivia","city life energy,8,40,20","Emma","Interesting, leaves you wondering what it is,40,60,20","Anna","I like the shapes.,22,300,20","2"
"41285","","survey-text","181","1515867","0.0-180.0-0.0","A34XULBZ8UVPMG","","","","{""Q0"":""Love the energy of the lines.""}","","","","","","","","","","","","","","","","","","","","","","",""
"2968.000000000233","","image-slider-response","182","1518840","0.0-181.0","A34XULBZ8UVPMG","","","","","15","","","","","","","","","","","","","","","","","","","","","",""
"null","","image-button-response","183","1523847","0.0-182.0","A34XULBZ8UVPMG","img_art/18.jpg","null","","","","","","","","","","","","","","","","","","","","","","","","",""
"188","","image-button-response","184","1524039","0.0-183.0","A34XULBZ8UVPMG","img_art/18.jpg","0","","","","","","","","","","","","","","","","","","","","","","","","",""
"5445","","image-button-response","185","1529486","0.0-184.0-0.0","A34XULBZ8UVPMG","img_art/18.jpg","2","","","","","","","","","","","","","","","","","","","","","","","","",""
"5025","","image-button-response","186","1534517","0.0-185.0-0.0","A34XULBZ8UVPMG","img_art/18.jpg","5","","","","","","","","","","","","","","","","","","","","","","","","",""
"null","","html-keyboard-response","187","1535023","0.0-186.0","A34XULBZ8UVPMG","<p style=""font-size: 48px;"">+</p>","","","","","null","allTrialResponses","500","1","20","img_art/18.jpg","15","Love the energy of the lines.","Amy,Leah,Anna,Olivia,Chloe,Emma","So much going on. Frightening and tumultous, brave and inspiring. I'd like to spend the rest of my life interpreting it.,30,220,20","I really like it, like hells drivers,43,360,20","I could spend a long time looking at it and see different things in the shapes.,21,300,20","death rides in life,-25,40,20","Evocative but cheesy.,-20,220,20","Vaguely creepy ........,-20,60,20","Amy","So much going on. Frightening and tumultous, brave and inspiring. I'd like to spend the rest of my life interpreting it.,30,220,20","Anna","I could spend a long time looking at it and see different things in the shapes.,21,300,20","Emma","Vaguely creepy ........,-20,60,20","2"
"5657","","survey-text","188","1540724","0.0-187.0-0.0","A34XULBZ8UVPMG","","","","{""Q0"":""we""}","","","","","","","","","","","","","","","","","","","","","","",""
"59788","","survey-text","189","1600515","0.0-188.0-0.0","A34XULBZ8UVPMG","","","","{""Q0"":""Very expressive strokes. I wonder what the artist what thinking of. It seems suggestive of an object.""}","","","","","","","","","","","","","","","","","","","","","","",""
"4455.000000000233","","image-slider-response","190","1604973","0.0-189.0","A34XULBZ8UVPMG","","","","","27","","","","","","","","","","","","","","","","","","","","","",""
"2794","","image-button-response","191","1609978","0.0-190.0","A34XULBZ8UVPMG","img_art/4.jpg","3","","","","","","","","","","","","","","","","","","","","","","","","",""
"1605","","image-button-response","192","1611586","0.0-191.0","A34XULBZ8UVPMG","img_art/4.jpg","4","","","","","","","","","","","","","","","","","","","","","","","","",""
"991","","image-button-response","193","1612580","0.0-192.0-0.0","A34XULBZ8UVPMG","img_art/4.jpg","3","","","","","","","","","","","","","","","","","","","","","","","","",""
"3922","","image-button-response","194","1616505","0.0-193.0-0.0","A34XULBZ8UVPMG","img_art/4.jpg","0","","","","","","","","","","","","","","","","","","","","","","","","",""
"null","","html-keyboard-response","195","1617009","0.0-194.0","A34XULBZ8UVPMG","<p style=""font-size: 48px;"">+</p>","","","","","null","allTrialResponses","500","1","21","img_art/4.jpg","27","Very expressive strokes. I wonder what the artist what thinking of. It seems suggestive of an object.","Amy,Courtney,Anna,Paige,Erica,Emma","disturbing and uncomfortable.,10,220,20","A leaning trophy,-9,280,20","It doesn't make me feel anything it just looks like a kid did it.,-30,300,20","the colors are calming,31,60,20","Easy and relaxing,23,80,20","Interesting but maybe a little creepy,0,60,20","Erica","Easy and relaxing,23,80,20","Paige","the colors are calming,31,60,20","Amy","disturbing and uncomfortable.,10,220,20","2"
"17845","","survey-text","196","1634874","0.0-195.0-0.0","A34XULBZ8UVPMG","","","","{""Q0"":""Very cool pattern and texture. Almost floral. ""}","","","","","","","","","","","","","","","","","","","","","","",""
"3823","","image-slider-response","197","1638699","0.0-196.0","A34XULBZ8UVPMG","","","","","30","","","","","","","","","","","","","","","","","","","","","",""
"2874","","image-button-response","198","1643704","0.0-197.0","A34XULBZ8UVPMG","img_art/15.jpg","0","","","","","","","","","","","","","","","","","","","","","","","","",""
"4817","","image-button-response","199","1648525","0.0-198.0","A34XULBZ8UVPMG","img_art/15.jpg","0","","","","","","","","","","","","","","","","","","","","","","","","",""
"1901","","image-button-response","200","1650429","0.0-199.0-0.0","A34XULBZ8UVPMG","img_art/15.jpg","1","","","","","","","","","","","","","","","","","","","","","","","","",""
"3308","","image-button-response","201","1653740","0.0-200.0-0.0","A34XULBZ8UVPMG","img_art/15.jpg","2","","","","","","","","","","","","","","","","","","","","","","","","",""
"null","","html-keyboard-response","202","1654745","0.0-201.0","A34XULBZ8UVPMG","<p style=""font-size: 48px;"">+</p>","","","","","null","allTrialResponses","1000","1","22","img_art/15.jpg","30","Very cool pattern and texture. Almost floral. ","Amy,Alexandria,Brittany,Paige,Erica,Kaylee","basic colors and pleasing shapes providing a calming effect,15,220,20","it looks like trees but they are up to interpretation,16,80,20","Color scheme and design are rather boring.,-10,40,20","I feel nothing when looking at this,1,60,20","dark and I can not see a meaning behind it,-31,80,20","some trees in the forest,15,200,20","Amy","basic colors and pleasing shapes providing a calming effect,15,220,20","Alexandria","it looks like trees but they are up to interpretation,16,80,20","Brittany","Color scheme and design are rather boring.,-10,40,20","2"
"40694","","survey-text","203","1695458","0.0-202.0-0.0","A34XULBZ8UVPMG","","","","{""Q0"":""Feels hazy and suggestive of something aquatic. I like that there is very little color.""}","","","","","","","","","","","","","","","","","","","","","","",""
"2706","","image-slider-response","204","1698167","0.0-203.0","A34XULBZ8UVPMG","","","","","31","","","","","","","","","","","","","","","","","","","","","",""
"4375","","image-button-response","205","1703170","0.0-204.0","A34XULBZ8UVPMG","img_art/10.jpg","0","","","","","","","","","","","","","","","","","","","","","","","","",""
"2321","","image-button-response","206","1705495","0.0-205.0","A34XULBZ8UVPMG","img_art/10.jpg","2","","","","","","","","","","","","","","","","","","","","","","","","",""
"795","","image-button-response","207","1706293","0.0-206.0-0.0","A34XULBZ8UVPMG","img_art/10.jpg","1","","","","","","","","","","","","","","","","","","","","","","","","",""
"570","","image-button-response","208","1706866","0.0-207.0-0.0","A34XULBZ8UVPMG","img_art/10.jpg","0","","","","","","","","","","","","","","","","","","","","","","","","",""
"null","","html-keyboard-response","209","1707371","0.0-208.0","A34XULBZ8UVPMG","<p style=""font-size: 48px;"">+</p>","","","","","null","allTrialResponses","500","1","23","img_art/10.jpg","31","Feels hazy and suggestive of something aquatic. I like that there is very little color.","Amy,Alexandria,Brittany,Angela,Destiny,Sara","Highly abstract and yet the shapes and colors provide an emotional accessibility for me.,20,220,20","it reminds me of a musical instrument,19,80,20","The design is dynamic and interesting.,14,40,20","This makes me think of a city, specifically London.,20,260,20","The more I look the more I like. Reminds me of a rollercoaster and a war scene. A lot going on which is unnerving, like a rollercoaster but still fun,22,360,20","I don't like the colors,-20,160,20","Brittany","The design is dynamic and interesting.,14,40,20","Alexandria","it reminds me of a musical instrument,19,80,20","Amy","Highly abstract and yet the shapes and colors provide an emotional accessibility for me.,20,220,20","2"
"28037","","survey-text","210","1735430","0.0-209.0-0.0","A34XULBZ8UVPMG","","","","{""Q0"":""A bright yet soothing composition. The pastel wash in the background is pleasant.""}","","","","","","","","","","","","","","","","","","","","","","",""
"2619","","image-slider-response","211","1738051","0.0-210.0","A34XULBZ8UVPMG","","","","","35","","","","","","","","","","","","","","","","","","","","","",""
"3755","","image-button-response","212","1743056","0.0-211.0","A34XULBZ8UVPMG","img_art/14.jpg","4","","","","","","","","","","","","","","","","","","","","","","","","",""
"2142","","image-button-response","213","1745201","0.0-212.0","A34XULBZ8UVPMG","img_art/14.jpg","1","","","","","","","","","","","","","","","","","","","","","","","","",""
"1094","","image-button-response","214","1746297","0.0-213.0-0.0","A34XULBZ8UVPMG","img_art/14.jpg","4","","","","","","","","","","","","","","","","","","","","","","","","",""
"763","","image-button-response","215","1747063","0.0-214.0-0.0","A34XULBZ8UVPMG","img_art/14.jpg","2","","","","","","","","","","","","","","","","","","","","","","","","",""
"null","","html-keyboard-response","216","1748068","0.0-215.0","A34XULBZ8UVPMG","<p style=""font-size: 48px;"">+</p>","","","","","null","allTrialResponses","1000","1","24","img_art/14.jpg","35","A bright yet soothing composition. The pastel wash in the background is pleasant.","Amy,Alexandria,Brittany,Shannon,Lindsey,Nicole","In others I might say the colors are garish. Here it works perfectly. The balance is wondrous and unlimiting.,25,220,20","looks like it's symbolizing rebirth which is hopeful,22,80,20","The colors are good and the design is intriguing.,15,40,20","I like this picture because it looks like a tree and the colors used look cool.,20,220,20","Warm, positive, growth.,8,400,20","This reminds me of the Lion King somehow! Feels inspiring,30,20,20","Alexandria","looks like it's symbolizing rebirth which is hopeful,22,80,20","Lindsey","Warm, positive, growth.,8,400,20","Brittany","The colors are good and the design is intriguing.,15,40,20","2"
"36476","","survey-text","217","1784563","0.0-216.0-0.0","A34XULBZ8UVPMG","","","","{""Q0"":""Beautiful line work, very organic. I don’t like the colors though. ""}","","","","","","","","","","","","","","","","","","","","","","",""
"17371","","image-slider-response","218","1801936","0.0-217.0","A34XULBZ8UVPMG","","","","","9","","","","","","","","","","","","","","","","","","","","","",""
"4903","","image-button-response","219","1806940","0.0-218.0","A34XULBZ8UVPMG","img_art/17.jpg","5","","","","","","","","","","","","","","","","","","","","","","","","",""
"608","","image-button-response","220","1807551","0.0-219.0","A34XULBZ8UVPMG","img_art/17.jpg","5","","","","","","","","","","","","","","","","","","","","","","","","",""
"2525","","image-button-response","221","1810078","0.0-220.0-0.0","A34XULBZ8UVPMG","img_art/17.jpg","1","","","","","","","","","","","","","","","","","","","","","","","","",""
"951","","image-button-response","222","1811032","0.0-221.0-0.0","A34XULBZ8UVPMG","img_art/17.jpg","2","","","","","","","","","","","","","","","","","","","","","","","","",""
"null","","html-keyboard-response","223","1812536","0.0-222.0","A34XULBZ8UVPMG","<p style=""font-size: 48px;"">+</p>","","","","","null","allTrialResponses","1500","1","25","img_art/17.jpg","9","Beautiful line work, very organic. I don’t like the colors though. ","Makayla,Alexandria,Brittany,Abigail,Lindsey,Jenna","I feel okay , it's like a tree,28,80,20","it looks very intricate and colorful,50,80,20","I like the colors and the design.,20,40,20","Really love the branches. The bottom made it not perfect,42,20,20","Pretty composition and I like the colors.,20,400,20","stunning. makes me feel happy, hopeful, serene, and a little wistful.,50,360,20","Jenna","stunning. makes me feel happy, hopeful, serene, and a little wistful.,50,360,20","Alexandria","it looks very intricate and colorful,50,80,20","Brittany","I like the colors and the design.,20,40,20","2"
"8466","","survey-text","224","1821032","0.0-223.0-0.0","A34XULBZ8UVPMG","","","","{""Q0"":""table""}","","","","","","","","","","","","","","","","","","","","","","",""
"9357","","survey-text","225","1830391","0.0-224.0-0.0","A34XULBZ8UVPMG","","","","{""Q0"":""Reminds me of a patchwork quilt. ""}","","","","","","","","","","","","","","","","","","","","","","",""
"141506","","image-slider-response","226","1971899","0.0-225.0","A34XULBZ8UVPMG","","","","","-44","","","","","","","","","","","","","","","","","","","","","",""
"4335","","image-button-response","227","1976903","0.0-226.0","A34XULBZ8UVPMG","img_art/12.jpg","0","","","","","","","","","","","","","","","","","","","","","","","","",""
"1694","","image-button-response","228","1978601","0.0-227.0","A34XULBZ8UVPMG","img_art/12.jpg","4","","","","","","","","","","","","","","","","","","","","","","","","",""
"1525","","image-button-response","229","1980129","0.0-228.0-0.0","A34XULBZ8UVPMG","img_art/12.jpg","0","","","","","","","","","","","","","","","","","","","","","","","","",""
"1450","","image-button-response","230","1981582","0.0-229.0-0.0","A34XULBZ8UVPMG","img_art/12.jpg","2","","","","","","","","","","","","","","","","","","","","","","","","",""
"null","","html-keyboard-response","231","1982585","0.0-230.0","A34XULBZ8UVPMG","<p style=""font-size: 48px;"">+</p>","","","","","null","allTrialResponses","1000","1","26","img_art/12.jpg","-44","Reminds me of a patchwork quilt. ","Meghan,Alexandria,Brittany,Alyssa,Julia,Jenna","I don't like the pattern or color choice,-41,220,20","don't feel a lot but it seems very simple,-6,80,20","Too blocky and not interesting enough.,-15,40,20","Its cool,reminiscent of Andy Warhol type of style,10,160,20","this is pretty, but I wouldn't hang it on my wall.,15,40,20","interesting, but feels like someone cut up a picture and pasted it together wrong. want to see the original,15,360,20","Julia","this is pretty, but I wouldn't hang it on my wall.,15,40,20","Meghan","I don't like the pattern or color choice,-41,220,20","Brittany","Too blocky and not interesting enough.,-15,40,20","2"
"18313","","survey-text","232","2000920","0.0-231.0-0.0","A34XULBZ8UVPMG","","","","{""Q0"":""Feels haphazard and discordant. I don’t like this at all.""}","","","","","","","","","","","","","","","","","","","","","","",""
"3825","","image-slider-response","233","2004747","0.0-232.0","A34XULBZ8UVPMG","","","","","-48","","","","","","","","","","","","","","","","","","","","","",""
"2805","","image-button-response","234","2009752","0.0-233.0","A34XULBZ8UVPMG","img_art/29.jpg","0","","","","","","","","","","","","","","","","","","","","","","","","",""
"897","","image-button-response","235","2010653","0.0-234.0","A34XULBZ8UVPMG","img_art/29.jpg","0","","","","","","","","","","","","","","","","","","","","","","","","",""
"535","","image-button-response","236","2011190","0.0-235.0-0.0","A34XULBZ8UVPMG","img_art/29.jpg","1","","","","","","","","","","","","","","","","","","","","","","","","",""
"819","","image-button-response","237","2012012","0.0-236.0-0.0","A34XULBZ8UVPMG","img_art/29.jpg","5","","","","","","","","","","","","","","","","","","","","","","","","",""
"null","","html-keyboard-response","238","2012516","0.0-237.0","A34XULBZ8UVPMG","<p style=""font-size: 48px;"">+</p>","","","","","null","allTrialResponses","500","1","27","img_art/29.jpg","-48","Feels haphazard and discordant. I don’t like this at all.","Meghan,Alexandra,Brittany,Stephanie,Julia,Shelby","feels random and not thoughtout,-37,220,20","I don't like this. It is ugly and dark,-29,60,20","It looks likes there's a lot going on, but they don't fit together.,2,40,20","Looks like a murder,-50,300,20","it looks like a top-down battle arena,26,40,20","Doesnt say much for me,0,240,20","Meghan","feels random and not thoughtout,-37,220,20","Alexandra","I don't like this. It is ugly and dark,-29,60,20","Shelby","Doesnt say much for me,0,240,20","2"
"16959","","survey-text","239","2029494","0.0-238.0-0.0","A34XULBZ8UVPMG","","","","{""Q0"":""Simple, childlike, and pleasant. ""}","","","","","","","","","","","","","","","","","","","","","","",""
"4703","","image-slider-response","240","2034199","0.0-239.0","A34XULBZ8UVPMG","","","","","46","","","","","","","","","","","","","","","","","","","","","",""
"3951","","image-button-response","241","2039204","0.0-240.0","A34XULBZ8UVPMG","img_art/5.jpg","0","","","","","","","","","","","","","","","","","","","","","","","","",""
"515","","image-button-response","242","2039723","0.0-241.0","A34XULBZ8UVPMG","img_art/5.jpg","5","","","","","","","","","","","","","","","","","","","","","","","","",""
"871","","image-button-response","243","2040596","0.0-242.0-0.0","A34XULBZ8UVPMG","img_art/5.jpg","0","","","","","","","","","","","","","","","","","","","","","","","","",""
"10631","","image-button-response","244","2051231","0.0-243.0-0.0","A34XULBZ8UVPMG","img_art/5.jpg","1","","","","","","","","","","","","","","","","","","","","","","","","",""
"null","","html-keyboard-response","245","2052235","0.0-244.0","A34XULBZ8UVPMG","<p style=""font-size: 48px;"">+</p>","","","","","null","allTrialResponses","1000","1","28","img_art/5.jpg","46","Simple, childlike, and pleasant. ","Meghan,Alexandra,Jamie,Sarah,Emily,Shelby","I like it but I don't know why,15,220,20","This looks like a twelve year old did it,-40,60,20","Don't really see it and yellow/pink don't go well together,-35,320,20","looks very childish,-35,180,20","Complete garbage. Looks like a kid drew it.,-50,40,20","This feels joyful,39,240,20","Shelby","This feels joyful,39,240,20","Meghan","I like it but I don't know why,15,220,20","Alexandra","This looks like a twelve year old did it,-40,60,20","2"
"19683","","survey-text","246","2071941","0.0-245.0-0.0","A34XULBZ8UVPMG","","","","{""Q0"":""Lots of movement, almost feels musical.""}","","","","","","","","","","","","","","","","","","","","","","",""
"1679.0000000002328","","image-slider-response","247","2073623","0.0-246.0","A34XULBZ8UVPMG","","","","","8","","","","","","","","","","","","","","","","","","","","","",""
"null","","image-button-response","248","2078628","0.0-247.0","A34XULBZ8UVPMG","img_art/11.jpg","null","","","","","","","","","","","","","","","","","","","","","","","","",""
"1446","","image-button-response","249","2080077","0.0-248.0","A34XULBZ8UVPMG","img_art/11.jpg","3","","","","","","","","","","","","","","","","","","","","","","","","",""
"1752","","image-button-response","250","2081832","0.0-249.0-0.0","A34XULBZ8UVPMG","img_art/11.jpg","5","","","","","","","","","","","","","","","","","","","","","","","","",""
"1203","","image-button-response","251","2083039","0.0-250.0-0.0","A34XULBZ8UVPMG","img_art/11.jpg","2","","","","","","","","","","","","","","","","","","","","","","","","",""
"null","","html-keyboard-response","252","2084043","0.0-251.0","A34XULBZ8UVPMG","<p style=""font-size: 48px;"">+</p>","","","","","null","allTrialResponses","1000","1","29","img_art/11.jpg","8","Lots of movement, almost feels musical.","Meghan,Alexandra,Cheyenne,Erin,Madeline,Shelby","makes me feel dizzy,-37,220,20","I normally would not like this photo, but the design is nice.,21,60,20","Very good use of colors,44,200,20","Frank Lloyd Wright, music,24,120,20","I like the vibe of the painting,-3,40,20","The movement in this one is extremely pleasent,40,240,20","Erin","Frank Lloyd Wright, music,24,120,20","Shelby","The movement in this one is extremely pleasent,40,240,20","Cheyenne","Very good use of colors,44,200,20","2"
"26342","","survey-text","253","2110406","0.0-252.0-0.0","A34XULBZ8UVPMG","","","","{""Q0"":""I wish this was a little more abstract. I feels dated, somehow.""}","","","","","","","","","","","","","","","","","","","","","","",""
"3404.9999999995343","","image-slider-response","254","2113814","0.0-253.0","A34XULBZ8UVPMG","","","","","7","","","","","","","","","","","","","","","","","","","","","",""
"4192","","image-button-response","255","2118818","0.0-254.0","A34XULBZ8UVPMG","img_art/8.jpg","1","","","","","","","","","","","","","","","","","","","","","","","","",""
"1725","","image-button-response","256","2120546","0.0-255.0","A34XULBZ8UVPMG","img_art/8.jpg","1","","","","","","","","","","","","","","","","","","","","","","","","",""
"577","","image-button-response","257","2121127","0.0-256.0-0.0","A34XULBZ8UVPMG","img_art/8.jpg","0","","","","","","","","","","","","","","","","","","","","","","","","",""
"1143","","image-button-response","258","2122273","0.0-257.0-0.0","A34XULBZ8UVPMG","img_art/8.jpg","4","","","","","","","","","","","","","","","","","","","","","","","","",""
"null","","html-keyboard-response","259","2122777","0.0-258.0","A34XULBZ8UVPMG","<p style=""font-size: 48px;"">+</p>","","","","","null","allTrialResponses","500","1","30","img_art/8.jpg","7","I wish this was a little more abstract. I feels dated, somehow.","Kristen,Caroline,Cheyenne,Erin,Danielle,Shelby","mothe nature/godess, watching over you,21,280,20","I love the colors in it and also the faces and door ways. Made me feel hopeful,35,100,20","Has nice depth to it.,12,200,20","Lots of depth, faces, city, arch,3,120,20","Enjoy this, it looks like a rushing water pool, surrounded by mountains and buildings, hiding details such as faces.,30,340,20","Too much going on, too many colors, makes me feel uneasy,-20,240,20","Caroline","I love the colors in it and also the faces and door ways. Made me feel hopeful,35,100,20","Kristen","mothe nature/godess, watching over you,21,280,20","Danielle","Enjoy this, it looks like a rushing water pool, surrounded by mountains and buildings, hiding details such as faces.,30,340,20","2"
"1938","","image-button-response_instructions","260","2124735","0.0-259.0","A34XULBZ8UVPMG","","0","instructions","","","","","","","","","","","","","","","","","","","","","","","",""
"1469","","image-button-response","261","2126213","0.0-260.0","A34XULBZ8UVPMG","","0","","","","","","","","","","","","","","","","","","","","","","","","",""
