"rt","url","trial_type","trial_index","time_elapsed","internal_node_id","participant_id","stimulus","button_pressed","Name","responses","response","key_press","variableName","fixationTime","condition","trial","photo","subjectRating","subjectResponse","agentsNames","agent_1_Response","agent_2_Response","agent_3_Response","agent_4_Response","agent_5_Response","agent_6_Response","kept_1_name","kept_1_response","kept_2_name","kept_2_response","kept_3_name","kept_3_response","errorCounter"
"49811","external_page_harvard.html","external-html","0","50033","0.0-0.0","A35KHUV798F28S","","","","","","","","","","","","","","","","","","","","","","","","","","",""
"1531","","image-button-response","1","51567","0.0-1.0","A35KHUV798F28S","","1","","","","","","","","","","","","","","","","","","","","","","","","",""
"1325","","image-button-response","2","52899","0.0-2.0-0.0","A35KHUV798F28S","","1","phone","","","","","","","","","","","","","","","","","","","","","","","",""
"5275","","survey-text","3","58175","0.0-3.0-0.0","A35KHUV798F28S","","","","{""Q0"":""A35KHUV798F28S""}","","","","","","","","","","","","","","","","","","","","","","",""
"89597","","image-button-response_instructions","4","147775","0.0-4.0","A35KHUV798F28S","","0","instructions","","","","","","","","","","","","","","","","","","","","","","","",""
"3670","","image-button-response_instructions","5","151446","0.0-5.0","A35KHUV798F28S","img_art/ins/popularity/ins1.png","0","instructions","","","","","","","","","","","","","","","","","","","","","","","",""
"3123","","image-button-response_instructions","6","154571","0.0-6.0","A35KHUV798F28S","img_art/ins/popularity/ins2.png","0","instructions","","","","","","","","","","","","","","","","","","","","","","","",""
"1423","","image-button-response_instructions","7","155994","0.0-7.0","A35KHUV798F28S","img_art/ins/popularity/ins2Extreme.png","0","instructions","","","","","","","","","","","","","","","","","","","","","","","",""
"1988","","image-button-response_instructions","8","157983","0.0-8.0","A35KHUV798F28S","img_art/ins/popularity/ins3KEEPpop.PNG","0","instructions","","","","","","","","","","","","","","","","","","","","","","","",""
"1918","","image-button-response_instructions","9","159903","0.0-9.0","A35KHUV798F28S","img_art/ins/popularity/ins3ANamepop.PNG","0","instructions","","","","","","","","","","","","","","","","","","","","","","","",""
"1330","","image-button-response_instructions","10","161235","0.0-10.0","A35KHUV798F28S","img_art/ins/popularity/ins3ARatingpop.png","0","instructions","","","","","","","","","","","","","","","","","","","","","","","",""
"1631","","image-button-response_instructions","11","162867","0.0-11.0","A35KHUV798F28S","img_art/ins/popularity/ins3ATextpop.png","0","instructions","","","","","","","","","","","","","","","","","","","","","","","",""
"1123","","image-button-response_instructions","12","163991","0.0-12.0","A35KHUV798F28S","img_art/ins/popularity/ins3ALikespop.png","0","instructions","","","","","","","","","","","","","","","","","","","","","","","",""
"427624","","image-button-response_instructions","13","591617","0.0-13.0","A35KHUV798F28S","img_art/ins/popularity/ins3KEEPpop.PNG","0","instructions","","","","","","","","","","","","","","","","","","","","","","","",""
"3032","","image-button-response_instructions","14","594651","0.0-14.0","A35KHUV798F28S","img_art/ins/popularity/ins3_5RED.png","0","instructions","","","","","","","","","","","","","","","","","","","","","","","",""
"697","","image-button-response_instructions","15","595349","0.0-15.0","A35KHUV798F28S","img_art/ins/popularity/ins3KEEPpop.PNG","0","instructions","","","","","","","","","","","","","","","","","","","","","","","",""
"887","","image-button-response_instructions","16","596237","0.0-16.0","A35KHUV798F28S","img_art/ins/popularity/ins4KEEPpop.PNG","0","instructions","","","","","","","","","","","","","","","","","","","","","","","",""
"888","","image-button-response_instructions","17","597126","0.0-17.0","A35KHUV798F28S","img_art/ins/popularity/ins5KEEPpop.PNG","0","instructions","","","","","","","","","","","","","","","","","","","","","","","",""
"918","","image-button-response_instructions","18","598045","0.0-18.0","A35KHUV798F28S","","0","instructions","","","","","","","","","","","","","","","","","","","","","","","",""
"5352","","survey-text","19","603425","0.0-19.0-0.0","A35KHUV798F28S","","","","{""Q0"":""but""}","","","","","","","","","","","","","","","","","","","","","","",""
"6584","","survey-text","20","610011","0.0-20.0-0.0","A35KHUV798F28S","","","","{""Q0"":""very sloppy""}","","","","","","","","","","","","","","","","","","","","","","",""
"4589.199999928474","","image-slider-response","21","614603","0.0-21.0","A35KHUV798F28S","","","","","-29","","","","","","","","","","","","","","","","","","","","","",""
"null","","image-button-response","22","619606","0.0-22.0","A35KHUV798F28S","img_art/ins/1.jpg","null","","","","","","","","","","","","","","","","","","","","","","","","",""
"1357","","image-button-response","23","620965","0.0-23.0","A35KHUV798F28S","img_art/ins/1.jpg","4","","","","","","","","","","","","","","","","","","","","","","","","",""
"1636","","image-button-response","24","622604","0.0-24.0-0.0","A35KHUV798F28S","img_art/ins/1.jpg","3","","","","","","","","","","","","","","","","","","","","","","","","",""
"2429","","image-button-response","25","625035","0.0-25.0-0.0","A35KHUV798F28S","img_art/ins/1.jpg","0","","","","","","","","","","","","","","","","","","","","","","","","",""
"null","","html-keyboard-response","26","626537","0.0-26.0","A35KHUV798F28S","<p style=""font-size: 48px;"">+</p>","","","","","null","allTrialResponses","1500","1","-2","img_art/ins/1.jpg","-29","very sloppy","Allison,Ashley,Beth,Dora,Erika,Jen","looks like a lot of things going on in the mist,20,20,20","I just don't get why these type of art would be popular,-32,40,20","This color reminds me of poo,-46,60,20","looks like what my niece in 3rd grade did this afternoon,-50,80,20","I like the sophisticated brushwork,40,100,20","It reminds me of a candy land dream I had,36,120,20","Erika","I like the sophisticated brushwork,40,100,20","Dora","looks like what my niece in 3rd grade did this afternoon,-50,80,20","Allison","looks like a lot of things going on in the mist,20,20,20","0"
"11681","","survey-text","27","638223","0.0-27.0-0.0","A35KHUV798F28S","","","","{""Q0"":""looks like warm colors were used, feels hot""}","","","","","","","","","","","","","","","","","","","","","","",""
"3129.3000000715256","","image-slider-response","28","641354","0.0-28.0","A35KHUV798F28S","","","","","-11","","","","","","","","","","","","","","","","","","","","","",""
"3877","","image-button-response","29","646356","0.0-29.0","A35KHUV798F28S","img_art/ins/2.jpg","0","","","","","","","","","","","","","","","","","","","","","","","","",""
"1036","","image-button-response","30","647394","0.0-30.0","A35KHUV798F28S","img_art/ins/2.jpg","3","","","","","","","","","","","","","","","","","","","","","","","","",""
"1231","","image-button-response","31","648628","0.0-31.0-0.0","A35KHUV798F28S","img_art/ins/2.jpg","0","","","","","","","","","","","","","","","","","","","","","","","","",""
"1379","","image-button-response","32","650009","0.0-32.0-0.0","A35KHUV798F28S","img_art/ins/2.jpg","4","","","","","","","","","","","","","","","","","","","","","","","","",""
"null","","html-keyboard-response","33","651517","0.0-33.0","A35KHUV798F28S","<p style=""font-size: 48px;"">+</p>","","","","","null","allTrialResponses","1500","1","-1","img_art/ins/2.jpg","-11","looks like warm colors were used, feels hot","Allison,Jenna,Kara,Dora,Erika,Katie","I don't have strong feelings about this,10,20,20","One of my pet peevs,-48,140,20","I like the blocks of color arrangements,30,160,20","looks too angry,-50,80,20","I would never be able to compose a sophisticated pallete like this,48,100,20","too much color!,-28,180,20","Dora","looks too angry,-50,80,20","Allison","I don't have strong feelings about this,10,20,20","Erika","I would never be able to compose a sophisticated pallete like this,48,100,20","0"
"3434","","survey-text","34","654955","0.0-34.0-0.0","A35KHUV798F28S","","","","{""Q0"":""so ugly""}","","","","","","","","","","","","","","","","","","","","","","",""
"3947.899999976158","","image-slider-response","35","658905","0.0-35.0","A35KHUV798F28S","","","","","-50","","","","","","","","","","","","","","","","","","","","","",""
"4892","","image-button-response","36","663908","0.0-36.0","A35KHUV798F28S","img_art/ins/3.jpg","4","","","","","","","","","","","","","","","","","","","","","","","","",""
"309","","image-button-response","37","664218","0.0-37.0","A35KHUV798F28S","img_art/ins/3.jpg","4","","","","","","","","","","","","","","","","","","","","","","","","",""
"997","","image-button-response","38","665216","0.0-38.0-0.0","A35KHUV798F28S","img_art/ins/3.jpg","3","","","","","","","","","","","","","","","","","","","","","","","","",""
"946","","image-button-response","39","666165","0.0-39.0-0.0","A35KHUV798F28S","img_art/ins/3.jpg","0","","","","","","","","","","","","","","","","","","","","","","","","",""
"null","","html-keyboard-response","40","666678","0.0-40.0","A35KHUV798F28S","<p style=""font-size: 48px;"">+</p>","","","","","null","allTrialResponses","500","1","0","img_art/ins/3.jpg","-50","so ugly","Allison,Leslie,Mary,Dora,Erika,Rose","enjoy the different shades of blue,22,20,20","It's an alright work,15,200,20","I like the overlapping of brushes,41,220,20","My worst nightmare,-42,80,20","I feel connected to the artist,40,100,20","My daily routine, it's depressing,-20,240,20","Erika","I feel connected to the artist,40,100,20","Dora","My worst nightmare,-42,80,20","Allison","enjoy the different shades of blue,22,20,20","0"
"2479","","image-button-response_instructions","41","669162","0.0-41.0","A35KHUV798F28S","","0","instructions","","","","","","","","","","","","","","","","","","","","","","","",""
"7289","","survey-likert","42","676452","0.0-42.0-0.0","A35KHUV798F28S","","","","{""Q0"":"""",""Q1"":0,""Q2"":1}","","","","","","","","","","","","","","","","","","","","","","",""
"8254","","survey-text","43","684711","0.0-43.0-0.0","A35KHUV798F28S","","","","{""Q0"":""rock""}","","","","","","","","","","","","","","","","","","","","","","",""
"25015","","survey-text","44","709727","0.0-44.0-0.0","A35KHUV798F28S","","","","{""Q0"":""rustic masterpiece""}","","","","","","","","","","","","","","","","","","","","","","",""
"3068","","image-slider-response","45","712798","0.0-45.0","A35KHUV798F28S","","","","","37","","","","","","","","","","","","","","","","","","","","","",""
"4564","","image-button-response","46","717822","0.0-46.0","A35KHUV798F28S","img_art/8.jpg","3","","","","","","","","","","","","","","","","","","","","","","","","",""
"1182","","image-button-response","47","719006","0.0-47.0","A35KHUV798F28S","img_art/8.jpg","3","","","","","","","","","","","","","","","","","","","","","","","","",""
"882","","image-button-response","48","719888","0.0-48.0-0.0","A35KHUV798F28S","img_art/8.jpg","0","","","","","","","","","","","","","","","","","","","","","","","","",""
"1187","","image-button-response","49","721078","0.0-49.0-0.0","A35KHUV798F28S","img_art/8.jpg","4","","","","","","","","","","","","","","","","","","","","","","","","",""
"null","","html-keyboard-response","50","722580","0.0-50.0","A35KHUV798F28S","<p style=""font-size: 48px;"">+</p>","","","","","null","allTrialResponses","1500","1","1","img_art/8.jpg","37","rustic masterpiece","Heather,Danielle,Cassidy,Chelsea,Kathryn,Brianna","woman looking over a the community,1,260,20","Enjoy this, it looks like a rushing water pool, surrounded by mountains and buildings, hiding details such as faces.,30,340,20","I like the colors,10,140,20","It looks like it took a lot of time to complete.,34,180,20","The angle makes it kind of disorienting but I enjoy the fantastical colors and imagery. It's like a dream.,10,140,20","It's very odd and I don't really like it,-30,20,20","Chelsea","It looks like it took a lot of time to complete.,34,180,20","Heather","woman looking over a the community,1,260,20","Kathryn","The angle makes it kind of disorienting but I enjoy the fantastical colors and imagery. It's like a dream.,10,140,20","0"
"13265","","survey-text","51","735848","0.0-51.0-0.0","A35KHUV798F28S","","","","{""Q0"":""pointless and confusing""}","","","","","","","","","","","","","","","","","","","","","","",""
"5223.899999976158","","image-slider-response","52","741074","0.0-52.0","A35KHUV798F28S","","","","","-32","","","","","","","","","","","","","","","","","","","","","",""
"4958","","image-button-response","53","746076","0.0-53.0","A35KHUV798F28S","img_art/22.jpg","1","","","","","","","","","","","","","","","","","","","","","","","","",""
"713","","image-button-response","54","746790","0.0-54.0","A35KHUV798F28S","img_art/22.jpg","1","","","","","","","","","","","","","","","","","","","","","","","","",""
"740","","image-button-response","55","747532","0.0-55.0-0.0","A35KHUV798F28S","img_art/22.jpg","2","","","","","","","","","","","","","","","","","","","","","","","","",""
"1050","","image-button-response","56","748583","0.0-56.0-0.0","A35KHUV798F28S","img_art/22.jpg","4","","","","","","","","","","","","","","","","","","","","","","","","",""
"null","","html-keyboard-response","57","750085","0.0-57.0","A35KHUV798F28S","<p style=""font-size: 48px;"">+</p>","","","","","null","allTrialResponses","1500","1","2","img_art/22.jpg","-32","pointless and confusing","Heather,Andrea,Caitlin,Chelsea,Kathryn,Briana","i think its pretty but im not sure what i see,1,260,20","I don't feel much of anything.,0,240,20","Looks like the kind of art I would see at the doctor's office.,-5,80,20","The colors clash, and I don't know what is happening.,-23,180,20","This piece gives off a cool vibe. Reminds me of being out in the city at night.,20,140,20","Bright colors feel warm,22,400,20","Andrea","I don't feel much of anything.,0,240,20","Caitlin","Looks like the kind of art I would see at the doctor's office.,-5,80,20","Kathryn","This piece gives off a cool vibe. Reminds me of being out in the city at night.,20,140,20","0"
"5975","","survey-text","58","756063","0.0-58.0-0.0","A35KHUV798F28S","","","","{""Q0"":""looks unfinished""}","","","","","","","","","","","","","","","","","","","","","","",""
"2417.100000023842","","image-slider-response","59","758482","0.0-59.0","A35KHUV798F28S","","","","","8","","","","","","","","","","","","","","","","","","","","","",""
"null","","image-button-response","60","763485","0.0-60.0","A35KHUV798F28S","img_art/26.jpg","null","","","","","","","","","","","","","","","","","","","","","","","","",""
"440","","image-button-response","61","763927","0.0-61.0","A35KHUV798F28S","img_art/26.jpg","2","","","","","","","","","","","","","","","","","","","","","","","","",""
"528","","image-button-response","62","764456","0.0-62.0-0.0","A35KHUV798F28S","img_art/26.jpg","1","","","","","","","","","","","","","","","","","","","","","","","","",""
"514","","image-button-response","63","764971","0.0-63.0-0.0","A35KHUV798F28S","img_art/26.jpg","0","","","","","","","","","","","","","","","","","","","","","","","","",""
"null","","html-keyboard-response","64","765973","0.0-64.0","A35KHUV798F28S","<p style=""font-size: 48px;"">+</p>","","","","","null","allTrialResponses","1000","1","3","img_art/26.jpg","8","looks unfinished","Anna,Andrea,Caitlin,Erin,Kathryn,Angelica","It looks like a watercolor I did when I was 6.,-30,300,20","I get the feeling of a small old world street.,24,240,20","At least it is a bit of scenery.,10,80,20","City scene in a park,23,120,20","This piece feels pretty chill like it's just a normal day in the city.,10,140,20","It's not ugly but not beautiful at all.,-3,280,20","Caitlin","At least it is a bit of scenery.,10,80,20","Andrea","I get the feeling of a small old world street.,24,240,20","Anna","It looks like a watercolor I did when I was 6.,-30,300,20","0"
"11620","","survey-text","65","777596","0.0-65.0-0.0","A35KHUV798F28S","","","","{""Q0"":""mosaic like but no clear image""}","","","","","","","","","","","","","","","","","","","","","","",""
"3934.3000000715256","","image-slider-response","66","781532","0.0-66.0","A35KHUV798F28S","","","","","-11","","","","","","","","","","","","","","","","","","","","","",""
"4754","","image-button-response","67","786535","0.0-67.0","A35KHUV798F28S","img_art/12.jpg","3","","","","","","","","","","","","","","","","","","","","","","","","",""
"408","","image-button-response","68","786944","0.0-68.0","A35KHUV798F28S","img_art/12.jpg","3","","","","","","","","","","","","","","","","","","","","","","","","",""
"781","","image-button-response","69","787728","0.0-69.0-0.0","A35KHUV798F28S","img_art/12.jpg","0","","","","","","","","","","","","","","","","","","","","","","","","",""
"350","","image-button-response","70","788081","0.0-70.0-0.0","A35KHUV798F28S","img_art/12.jpg","1","","","","","","","","","","","","","","","","","","","","","","","","",""
"null","","html-keyboard-response","71","788584","0.0-71.0","A35KHUV798F28S","<p style=""font-size: 48px;"">+</p>","","","","","null","allTrialResponses","500","1","4","img_art/12.jpg","-11","mosaic like but no clear image","Anna,Andrea,Caitlin,Cassandra,Tiffany,Amber","Therapist wall art.,10,300,20","It just feels like a jigsaw puzzle,-4,240,20","Just wish it was more colorful.,20,80,20","Neutral...just blocks.,3,120,20","The painting makes me uncomfortable. The smears in the boxes feel like a giant mess.,-16,360,20","Like how all the colors seem to blend together.,15,200,20","Cassandra","Neutral...just blocks.,3,120,20","Anna","Therapist wall art.,10,300,20","Andrea","It just feels like a jigsaw puzzle,-4,240,20","0"
"10699","","survey-text","72","799286","0.0-72.0-0.0","A35KHUV798F28S","","","","{""Q0"":""I do think the white placement is nice""}","","","","","","","","","","","","","","","","","","","","","","",""
"2003.7000000476837","","image-slider-response","73","801292","0.0-73.0","A35KHUV798F28S","","","","","13","","","","","","","","","","","","","","","","","","","","","",""
"null","","image-button-response","74","806734","0.0-74.0","A35KHUV798F28S","img_art/23.jpg","null","","","","","","","","","","","","","","","","","","","","","","","","",""
"3904","","image-button-response","75","810640","0.0-75.0","A35KHUV798F28S","img_art/23.jpg","4","","","","","","","","","","","","","","","","","","","","","","","","",""
"237","","image-button-response","76","810880","0.0-76.0-0.0","A35KHUV798F28S","img_art/23.jpg","5","","","","","","","","","","","","","","","","","","","","","","","","",""
"463","","image-button-response","77","811344","0.0-77.0-0.0","A35KHUV798F28S","img_art/23.jpg","2","","","","","","","","","","","","","","","","","","","","","","","","",""
"null","","html-keyboard-response","78","812845","0.0-78.0","A35KHUV798F28S","<p style=""font-size: 48px;"">+</p>","","","","","null","allTrialResponses","1500","1","5","img_art/23.jpg","13","I do think the white placement is nice","Anna,Andrea,Alexis,Cassandra,Monica,Morgan","I love the colors and the contrast.,50,300,20","I see souls in torment and that makes me feel uneasy.,-21,240,20","Pretty cool. I love the white, reminds me of people lined up.,28,100,20","I had a very neutral feeling to this,no feelings at all.,1,120,20","I like the sharp contrast of the white on the colorful background,27,360,20","Unicorns flying through a colorful space.,25,380,20","Monica","I like the sharp contrast of the white on the colorful background,27,360,20","Morgan","Unicorns flying through a colorful space.,25,380,20","Alexis","Pretty cool. I love the white, reminds me of people lined up.,28,100,20","0"
"2781","","survey-text","79","815638","0.0-79.0-0.0","A35KHUV798F28S","","","","{""Q0"":""sky""}","","","","","","","","","","","","","","","","","","","","","","",""
"8371","","survey-text","80","824011","0.0-80.0-0.0","A35KHUV798F28S","","","","{""Q0"":""I think it is intricate""}","","","","","","","","","","","","","","","","","","","","","","",""
"4479.899999976158","","image-slider-response","81","828492","0.0-81.0","A35KHUV798F28S","","","","","4","","","","","","","","","","","","","","","","","","","","","",""
"null","","image-button-response","82","833495","0.0-82.0","A35KHUV798F28S","img_art/10.jpg","null","","","","","","","","","","","","","","","","","","","","","","","","",""
"435","","image-button-response","83","833932","0.0-83.0","A35KHUV798F28S","img_art/10.jpg","0","","","","","","","","","","","","","","","","","","","","","","","","",""
"606","","image-button-response","84","834540","0.0-84.0-0.0","A35KHUV798F28S","img_art/10.jpg","3","","","","","","","","","","","","","","","","","","","","","","","","",""
"462","","image-button-response","85","835004","0.0-85.0-0.0","A35KHUV798F28S","img_art/10.jpg","5","","","","","","","","","","","","","","","","","","","","","","","","",""
"null","","html-keyboard-response","86","836005","0.0-86.0","A35KHUV798F28S","<p style=""font-size: 48px;"">+</p>","","","","","null","allTrialResponses","1000","1","6","img_art/10.jpg","4","I think it is intricate","Lindsey,Elizabeth,Alexis,Erika,Monica,Morgan","Looks like a violin. Not a fan of the smudges and smears, but my initial reaction was positive.,11,400,20","Has an air of mystery around it,39,20,20","Too abstract and it doesn't really remind me of anything,-40,100,20","Good texture, expressive,18,100,20","It doesn't look pleasing to the eye, it kind of looks like an animal but a dirty one,-38,360,20","Roller coaster on an island.,9,380,20","Lindsey","Looks like a violin. Not a fan of the smudges and smears, but my initial reaction was positive.,11,400,20","Erika","Good texture, expressive,18,100,20","Morgan","Roller coaster on an island.,9,380,20","0"
"12193","","survey-text","87","848202","0.0-87.0-0.0","A35KHUV798F28S","","","","{""Q0"":""someone took a picture of a rock and called it art""}","","","","","","","","","","","","","","","","","","","","","","",""
"3412.7000000476837","","image-slider-response","88","851616","0.0-88.0","A35KHUV798F28S","","","","","-44","","","","","","","","","","","","","","","","","","","","","",""
"null","","image-button-response","89","856619","0.0-89.0","A35KHUV798F28S","img_art/7.jpg","null","","","","","","","","","","","","","","","","","","","","","","","","",""
"412","","image-button-response","90","857032","0.0-90.0","A35KHUV798F28S","img_art/7.jpg","3","","","","","","","","","","","","","","","","","","","","","","","","",""
"317","","image-button-response","91","857352","0.0-91.0-0.0","A35KHUV798F28S","img_art/7.jpg","4","","","","","","","","","","","","","","","","","","","","","","","","",""
"850","","image-button-response","92","858204","0.0-92.0-0.0","A35KHUV798F28S","img_art/7.jpg","5","","","","","","","","","","","","","","","","","","","","","","","","",""
"null","","html-keyboard-response","93","858710","0.0-93.0","A35KHUV798F28S","<p style=""font-size: 48px;"">+</p>","","","","","null","allTrialResponses","500","1","7","img_art/7.jpg","-44","someone took a picture of a rock and called it art","Lindsey,Sabrina,Emma,Erika,Alexa,Morgan","It's dirty. I don't mind the colors so much as the way they are put together in this dirty-looking pattern.,-41,400,20","Not getting the vibe i would like from this,-30,120,20","Cool, makes me think of archeology,15,60,20","Detail oriented, like cracked paint wall,15,100,20","Not a fan of the pattern or colors,-40,40,20","Dead bugs on an insect battleground.,-10,380,20","Erika","Detail oriented, like cracked paint wall,15,100,20","Alexa","Not a fan of the pattern or colors,-40,40,20","Morgan","Dead bugs on an insect battleground.,-10,380,20","0"
"6266","","survey-text","94","864980","0.0-94.0-0.0","A35KHUV798F28S","","","","{""Q0"":""so ugly""}","","","","","","","","","","","","","","","","","","","","","","",""
"3050.1999999284744","","image-slider-response","95","868032","0.0-95.0","A35KHUV798F28S","","","","","-39","","","","","","","","","","","","","","","","","","","","","",""
"null","","image-button-response","96","873039","0.0-96.0","A35KHUV798F28S","img_art/19.jpg","null","","","","","","","","","","","","","","","","","","","","","","","","",""
"463","","image-button-response","97","873504","0.0-97.0","A35KHUV798F28S","img_art/19.jpg","1","","","","","","","","","","","","","","","","","","","","","","","","",""
"414","","image-button-response","98","873921","0.0-98.0-0.0","A35KHUV798F28S","img_art/19.jpg","0","","","","","","","","","","","","","","","","","","","","","","","","",""
"621","","image-button-response","99","874544","0.0-99.0-0.0","A35KHUV798F28S","img_art/19.jpg","3","","","","","","","","","","","","","","","","","","","","","","","","",""
"null","","html-keyboard-response","100","875546","0.0-100.0","A35KHUV798F28S","<p style=""font-size: 48px;"">+</p>","","","","","null","allTrialResponses","1000","1","8","img_art/19.jpg","-39","so ugly","Gabrielle,Haley,Alexandria,Erika,Alexa,Morgan","not professional looking but not bad either,13,160,20","I like this as a whole, but the longer I look at it, the less it pleases me,-10,220,20","it draws my eye and my mind fills in the spaces,14,80,20","Very dreamlike,26,100,20","It has a chaotic energy about it that draws me in,40,40,20","Messy pantry full of food.,5,380,20","Haley","I like this as a whole, but the longer I look at it, the less it pleases me,-10,220,20","Gabrielle","not professional looking but not bad either,13,160,20","Erika","Very dreamlike,26,100,20","0"
"19451","","survey-text","101","895001","0.0-101.0-0.0","A35KHUV798F28S","","","","{""Q0"":""My 2 year old paints better than this""}","","","","","","","","","","","","","","","","","","","","","","",""
"4333","","image-slider-response","102","899336","0.0-102.0","A35KHUV798F28S","","","","","-31","","","","","","","","","","","","","","","","","","","","","",""
"null","","image-button-response","103","904339","0.0-103.0","A35KHUV798F28S","img_art/14.jpg","null","","","","","","","","","","","","","","","","","","","","","","","","",""
"414","","image-button-response","104","904756","0.0-104.0","A35KHUV798F28S","img_art/14.jpg","4","","","","","","","","","","","","","","","","","","","","","","","","",""
"755","","image-button-response","105","905513","0.0-105.0-0.0","A35KHUV798F28S","img_art/14.jpg","1","","","","","","","","","","","","","","","","","","","","","","","","",""
"686","","image-button-response","106","906200","0.0-106.0-0.0","A35KHUV798F28S","img_art/14.jpg","0","","","","","","","","","","","","","","","","","","","","","","","","",""
"null","","html-keyboard-response","107","907742","0.0-107.0","A35KHUV798F28S","<p style=""font-size: 48px;"">+</p>","","","","","null","allTrialResponses","1000","1","9","img_art/14.jpg","-31","My 2 year old paints better than this","Gabrielle,Haley,Amanda,Erika,Sierra,Mackenzie","the colors are peaceful and nature colors, soft,37,160,20","I like the colors in the background, but not the bottom/center. It almost looks sloppy.,-20,220,20","Gorgeous use of water color,50,180,20","It's alright, something I'd see in a guest bedroom,10,100,20","it put me on edge.,-11,260,20","I like the combination of colors and textures.,35,20,20","Sierra","it put me on edge.,-11,260,20","Haley","I like the colors in the background, but not the bottom/center. It almost looks sloppy.,-20,220,20","Gabrielle","the colors are peaceful and nature colors, soft,37,160,20","0"
"15781","","survey-text","108","923532","0.0-108.0-0.0","A35KHUV798F28S","","","","{""Q0"":""DIsgusting and angry""}","","","","","","","","","","","","","","","","","","","","","","",""
"3501.9000000953674","","image-slider-response","109","927036","0.0-109.0","A35KHUV798F28S","","","","","-26","","","","","","","","","","","","","","","","","","","","","",""
"1455","","image-button-response","110","932038","0.0-110.0","A35KHUV798F28S","img_art/3.jpg","1","","","","","","","","","","","","","","","","","","","","","","","","",""
"428","","image-button-response","111","932468","0.0-111.0","A35KHUV798F28S","img_art/3.jpg","4","","","","","","","","","","","","","","","","","","","","","","","","",""
"351","","image-button-response","112","932820","0.0-112.0-0.0","A35KHUV798F28S","img_art/3.jpg","3","","","","","","","","","","","","","","","","","","","","","","","","",""
"446","","image-button-response","113","933269","0.0-113.0-0.0","A35KHUV798F28S","img_art/3.jpg","5","","","","","","","","","","","","","","","","","","","","","","","","",""
"null","","html-keyboard-response","114","933771","0.0-114.0","A35KHUV798F28S","<p style=""font-size: 48px;"">+</p>","","","","","null","allTrialResponses","500","1","10","img_art/3.jpg","-26","DIsgusting and angry","Gabrielle,Haley,Kelly,Margaret,Sierra,Paige","7th grade art, not much effort to do this.,-39,160,20","Too messy and structure-less,-10,220,20","Reminds me of blood.,-28,220,20","seems distressing. a blood scene,-3,100,20","scattered and angry,-26,260,20","seems too angry,-50,60,20","Sierra","scattered and angry,-26,260,20","Margaret","seems distressing. a blood scene,-3,100,20","Paige","seems too angry,-50,60,20","0"
"6197","","survey-text","115","939974","0.0-115.0-0.0","A35KHUV798F28S","","","","{""Q0"":""our""}","","","","","","","","","","","","","","","","","","","","","","",""
"11258","","survey-text","116","951235","0.0-116.0-0.0","A35KHUV798F28S","","","","{""Q0"":""Window to the soul, colors are ugly""}","","","","","","","","","","","","","","","","","","","","","","",""
"3699.399999976158","","image-slider-response","117","954936","0.0-117.0","A35KHUV798F28S","","","","","-20","","","","","","","","","","","","","","","","","","","","","",""
"null","","image-button-response","118","959939","0.0-118.0","A35KHUV798F28S","img_art/2.jpg","null","","","","","","","","","","","","","","","","","","","","","","","","",""
"500","","image-button-response","119","960440","0.0-119.0","A35KHUV798F28S","img_art/2.jpg","1","","","","","","","","","","","","","","","","","","","","","","","","",""
"542","","image-button-response","120","960984","0.0-120.0-0.0","A35KHUV798F28S","img_art/2.jpg","5","","","","","","","","","","","","","","","","","","","","","","","","",""
"510","","image-button-response","121","961497","0.0-121.0-0.0","A35KHUV798F28S","img_art/2.jpg","3","","","","","","","","","","","","","","","","","","","","","","","","",""
"null","","html-keyboard-response","122","961999","0.0-122.0","A35KHUV798F28S","<p style=""font-size: 48px;"">+</p>","","","","","null","allTrialResponses","500","1","11","img_art/2.jpg","-20","Window to the soul, colors are ugly","Destiny,Leah,Lauren,Margaret,Sierra,Paige","omg she's so cute look at that little smile those eyelashes ugh love it,30,360,20","Kind of looks upside down, I need a focal point,-29,360,20","I feel that its too abstract for me to understand what I'm looking at.,-15,340,20","doesn't do anything for me,-7,100,20","looks like a happy child,15,260,20","Unhappy. I do not like it,-5,60,20","Leah","Kind of looks upside down, I need a focal point,-29,360,20","Paige","Unhappy. I do not like it,-5,60,20","Margaret","doesn't do anything for me,-7,100,20","0"
"8519","","survey-text","123","970522","0.0-123.0-0.0","A35KHUV798F28S","","","","{""Q0"":""drawing a hand gone wrong""}","","","","","","","","","","","","","","","","","","","","","","",""
"3396","","image-slider-response","124","973920","0.0-124.0","A35KHUV798F28S","","","","","-26","","","","","","","","","","","","","","","","","","","","","",""
"1138","","image-button-response","125","979744","0.0-125.0","A35KHUV798F28S","img_art/4.jpg","1","","","","","","","","","","","","","","","","","","","","","","","","",""
"3994","","image-button-response","126","983740","0.0-126.0","A35KHUV798F28S","img_art/4.jpg","2","","","","","","","","","","","","","","","","","","","","","","","","",""
"434","","image-button-response","127","984177","0.0-127.0-0.0","A35KHUV798F28S","img_art/4.jpg","1","","","","","","","","","","","","","","","","","","","","","","","","",""
"541","","image-button-response","128","984721","0.0-128.0-0.0","A35KHUV798F28S","img_art/4.jpg","0","","","","","","","","","","","","","","","","","","","","","","","","",""
"null","","html-keyboard-response","129","985223","0.0-129.0","A35KHUV798F28S","<p style=""font-size: 48px;"">+</p>","","","","","null","allTrialResponses","500","1","12","img_art/4.jpg","-26","drawing a hand gone wrong","Sarah,Leah,Jennifer,Margaret,Kristen,Paige","too many red/yellow shades, its impact without a reason,-27,180,20","To me just looking at paint scrawls,-41,360,20","Ugly and bland compared to the other pieces.,-33,380,20","doesn't do anything for me,-4,100,20","stresses me out, uncomfortable,-18,280,20","the colors are calming,31,60,20","Jennifer","Ugly and bland compared to the other pieces.,-33,380,20","Leah","To me just looking at paint scrawls,-41,360,20","Sarah","too many red/yellow shades, its impact without a reason,-27,180,20","0"
"7672","","survey-text","130","992900","0.0-130.0-0.0","A35KHUV798F28S","","","","{""Q0"":""mickey mouse shoe gone wrong""}","","","","","","","","","","","","","","","","","","","","","","",""
"2998.7000000476837","","image-slider-response","131","995900","0.0-131.0","A35KHUV798F28S","","","","","-25","","","","","","","","","","","","","","","","","","","","","",""
"null","","image-button-response","132","1000903","0.0-132.0","A35KHUV798F28S","img_art/5.jpg","null","","","","","","","","","","","","","","","","","","","","","","","","",""
"332","","image-button-response","133","1001237","0.0-133.0","A35KHUV798F28S","img_art/5.jpg","3","","","","","","","","","","","","","","","","","","","","","","","","",""
"494","","image-button-response","134","1001733","0.0-134.0-0.0","A35KHUV798F28S","img_art/5.jpg","5","","","","","","","","","","","","","","","","","","","","","","","","",""
"722","","image-button-response","135","1002457","0.0-135.0-0.0","A35KHUV798F28S","img_art/5.jpg","2","","","","","","","","","","","","","","","","","","","","","","","","",""
"null","","html-keyboard-response","136","1004736","0.0-136.0","A35KHUV798F28S","<p style=""font-size: 48px;"">+</p>","","","","","null","allTrialResponses","1500","1","13","img_art/5.jpg","-25","mickey mouse shoe gone wrong","Sarah,Leah,Jennifer,Jacqueline,Claire,Alicia","looks very childish,-35,180,20","Boring, no flow except the pink feathery band,-42,360,20","This piece doesn't really stand out.,0,380,20","Seems very basic and uninteresting.,-15,300,20","I like the strokes and colors used,20,260,20","pointless, ugly, not creative.,-50,120,20","Jacqueline","Seems very basic and uninteresting.,-15,300,20","Alicia","pointless, ugly, not creative.,-50,120,20","Jennifer","This piece doesn't really stand out.,0,380,20","0"
"77788","","survey-text","137","1082544","0.0-137.0-0.0","A35KHUV798F28S","","","","{""Q0"":""so ugly""}","","","","","","","","","","","","","","","","","","","","","","",""
"2054","","image-slider-response","138","1084600","0.0-138.0","A35KHUV798F28S","","","","","-22","","","","","","","","","","","","","","","","","","","","","",""
"750","","image-button-response","139","1089731","0.0-139.0","A35KHUV798F28S","img_art/20.jpg","1","","","","","","","","","","","","","","","","","","","","","","","","",""
"2311","","image-button-response","140","1092044","0.0-140.0","A35KHUV798F28S","img_art/20.jpg","4","","","","","","","","","","","","","","","","","","","","","","","","",""
"350","","image-button-response","141","1092396","0.0-141.0-0.0","A35KHUV798F28S","img_art/20.jpg","5","","","","","","","","","","","","","","","","","","","","","","","","",""
"382","","image-button-response","142","1092780","0.0-142.0-0.0","A35KHUV798F28S","img_art/20.jpg","3","","","","","","","","","","","","","","","","","","","","","","","","",""
"null","","html-keyboard-response","143","1094282","0.0-143.0","A35KHUV798F28S","<p style=""font-size: 48px;"">+</p>","","","","","null","allTrialResponses","1500","1","14","img_art/20.jpg","-22","so ugly","Kimberly,Autumn,Jennifer,Jacqueline,Sydney,Alicia","Something bad has happened TO reality,-23,260,20","It's ok. Very abstract.,18,340,20","Neutral, this piece doesn't strike me as particularly bad or good,0,380,20","Looks like a refinery dumping shit into the water.,-40,300,20","I love the color choice.,25,320,20","Very cool, and calming (again) Love it.,47,120,20","Sydney","I love the color choice.,25,320,20","Alicia","Very cool, and calming (again) Love it.,47,120,20","Jacqueline","Looks like a refinery dumping shit into the water.,-40,300,20","0"
"2978","","survey-text","144","1097267","0.0-144.0-0.0","A35KHUV798F28S","","","","{""Q0"":""so ugly""}","","","","","","","","","","","","","","","","","","","","","","",""
"11253.900000095367","","image-slider-response","145","1108524","0.0-145.0","A35KHUV798F28S","","","","","-23","","","","","","","","","","","","","","","","","","","","","",""
"686","","image-button-response","146","1113542","0.0-146.0","A35KHUV798F28S","img_art/28.jpg","5","","","","","","","","","","","","","","","","","","","","","","","","",""
"395","","image-button-response","147","1113940","0.0-147.0","A35KHUV798F28S","img_art/28.jpg","5","","","","","","","","","","","","","","","","","","","","","","","","",""
"494","","image-button-response","148","1114436","0.0-148.0-0.0","A35KHUV798F28S","img_art/28.jpg","3","","","","","","","","","","","","","","","","","","","","","","","","",""
"734","","image-button-response","149","1115172","0.0-149.0-0.0","A35KHUV798F28S","img_art/28.jpg","0","","","","","","","","","","","","","","","","","","","","","","","","",""
"null","","html-keyboard-response","150","1115753","0.0-150.0","A35KHUV798F28S","<p style=""font-size: 48px;"">+</p>","","","","","null","allTrialResponses","500","1","15","img_art/28.jpg","-23","so ugly","Samantha,Laura,Emily,Jacqueline,Sydney,Alicia","Interesting and weird. Perfect conversational piece,33,140,20","musical, animated and happy with somber undertones,7,320,20","Incoherent ugly mess.,-50,40,20","I don't like the washed out colors.,-15,300,20","I enjoy the colors.,25,320,20","bland busy ugly,-31,120,20","Alicia","bland busy ugly,-31,120,20","Jacqueline","I don't like the washed out colors.,-15,300,20","Samantha","Interesting and weird. Perfect conversational piece,33,140,20","0"
"101828","","survey-text","151","1217590","0.0-151.0-0.0","A35KHUV798F28S","","","","{""Q0"":""course""}","","","","","","","","","","","","","","","","","","","","","","",""
"5832","","survey-text","152","1223425","0.0-152.0-0.0","A35KHUV798F28S","","","","{""Q0"":""ugly""}","","","","","","","","","","","","","","","","","","","","","","",""
"5713","","survey-text","153","1231901","0.0-152.1-0.1","A35KHUV798F28S","","","","{""Q0"":""pointless""}","","","","","","","","","","","","","","","","","","","","","","",""
"4117.199999928474","","image-slider-response","154","1236020","0.0-153.0","A35KHUV798F28S","","","","","-19","","","","","","","","","","","","","","","","","","","","","",""
"null","","image-button-response","155","1241743","0.0-154.0","A35KHUV798F28S","img_art/13.jpg","null","","","","","","","","","","","","","","","","","","","","","","","","",""
"6106","","image-button-response","156","1247852","0.0-155.0","A35KHUV798F28S","img_art/13.jpg","2","","","","","","","","","","","","","","","","","","","","","","","","",""
"238","","image-button-response","157","1248093","0.0-156.0-0.0","A35KHUV798F28S","img_art/13.jpg","0","","","","","","","","","","","","","","","","","","","","","","","","",""
"302","","image-button-response","158","1248397","0.0-157.0-0.0","A35KHUV798F28S","img_art/13.jpg","0","","","","","","","","","","","","","","","","","","","","","","","","",""
"366","","image-button-response","159","1251624","0.0-157.1-0.1","A35KHUV798F28S","img_art/13.jpg","3","","","","","","","","","","","","","","","","","","","","","","","","",""
"null","","html-keyboard-response","160","1252634","0.0-158.0","A35KHUV798F28S","<p style=""font-size: 48px;"">+</p>","","","","","null","allTrialResponses","1000","1","16","img_art/13.jpg","-19","pointless","Samantha,Breanna,Rebecca,Jacqueline,Katelyn,Alicia","Nice colors. beautiful blue,50,140,20","Makes me feel nice and calm,18,380,20","love the style but not very novel,9,100,20","Seems a little cold but I like the neuron looking splatters.,10,300,20","Really like this. Its like looking out a window into a beautiful storm,39,100,20","meh, 80's. retro,-9,120,20","Rebecca","love the style but not very novel,9,100,20","Samantha","Nice colors. beautiful blue,50,140,20","Jacqueline","Seems a little cold but I like the neuron looking splatters.,10,300,20","2"
"3961","","survey-text","161","1256600","0.0-159.0-0.0","A35KHUV798F28S","","","","{""Q0"":""so ugly""}","","","","","","","","","","","","","","","","","","","","","","",""
"2802.100000023842","","image-slider-response","162","1259404","0.0-160.0","A35KHUV798F28S","","","","","-41","","","","","","","","","","","","","","","","","","","","","",""
"null","","image-button-response","163","1264732","0.0-161.0","A35KHUV798F28S","img_art/29.jpg","null","","","","","","","","","","","","","","","","","","","","","","","","",""
"3369","","image-button-response","164","1268104","0.0-162.0","A35KHUV798F28S","img_art/29.jpg","5","","","","","","","","","","","","","","","","","","","","","","","","",""
"381","","image-button-response","165","1268488","0.0-163.0-0.0","A35KHUV798F28S","img_art/29.jpg","5","","","","","","","","","","","","","","","","","","","","","","","","",""
"303","","image-button-response","166","1271181","0.0-163.1-0.1","A35KHUV798F28S","img_art/29.jpg","3","","","","","","","","","","","","","","","","","","","","","","","","",""
"653","","image-button-response","167","1271837","0.0-164.0-0.0","A35KHUV798F28S","img_art/29.jpg","4","","","","","","","","","","","","","","","","","","","","","","","","",""
"null","","html-keyboard-response","168","1273338","0.0-165.0","A35KHUV798F28S","<p style=""font-size: 48px;"">+</p>","","","","","null","allTrialResponses","1500","1","17","img_art/29.jpg","-41","so ugly","Samantha,Maria,Rebecca,Jacqueline,Bailey,Mariah","I love this things almost hidden in it like paint brush and other details,50,140,20","the mixed medium / collage annoys me,-19,120,20","love the texture, i don't know, i just really like it (and the paintbrush adds a nice touch),44,100,20","This is ugly as fuck,-50,300,20","Giant messy blob. Looks like it tries to be edgy, but fails.,-40,360,20","It feels like looking through layers of frustration.,19,140,20","Mariah","It feels like looking through layers of frustration.,19,140,20","Jacqueline","This is ugly as fuck,-50,300,20","Bailey","Giant messy blob. Looks like it tries to be edgy, but fails.,-40,360,20","4"
"10834","","survey-text","169","1284179","0.0-166.0-0.0","A35KHUV798F28S","","","","{""Q0"":""LOOKS PRETTY""}","","","","","","","","","","","","","","","","","","","","","","",""
"2397.4000000953674","","image-slider-response","170","1286578","0.0-167.0","A35KHUV798F28S","","","","","10","","","","","","","","","","","","","","","","","","","","","",""
"4157","","image-button-response","171","1291580","0.0-168.0","A35KHUV798F28S","img_art/15.jpg","5","","","","","","","","","","","","","","","","","","","","","","","","",""
"683","","image-button-response","172","1292266","0.0-169.0","A35KHUV798F28S","img_art/15.jpg","5","","","","","","","","","","","","","","","","","","","","","","","","",""
"562","","image-button-response","173","1292831","0.0-170.0-0.0","A35KHUV798F28S","img_art/15.jpg","4","","","","","","","","","","","","","","","","","","","","","","","","",""
"608","","image-button-response","174","1293441","0.0-171.0-0.0","A35KHUV798F28S","img_art/15.jpg","3","","","","","","","","","","","","","","","","","","","","","","","","",""
"null","","html-keyboard-response","175","1293946","0.0-172.0","A35KHUV798F28S","<p style=""font-size: 48px;"">+</p>","","","","","null","allTrialResponses","500","1","18","img_art/15.jpg","10","LOOKS PRETTY","Nicole,Amy,Megan,Jacqueline,Bailey,Mariah","Very cool, i want it in my living room,50,20,20","basic colors and pleasing shapes providing a calming effect,15,220,20","Dark, drab asymmetrical floral piece,-26,200,20","I don't like how the black dots are aligned.,-20,300,20","This is passable, but personally it just has nothing I'd like to see.,-14,360,20","It is visually appealing, stark and simple but natural.,41,140,20","Mariah","It is visually appealing, stark and simple but natural.,41,140,20","Bailey","This is passable, but personally it just has nothing I'd like to see.,-14,360,20","Jacqueline","I don't like how the black dots are aligned.,-20,300,20","4"
"13949","","survey-text","176","1307902","0.0-173.0-0.0","A35KHUV798F28S","","","","{""Q0"":""someone barfed on a canvas and doodles over it""}","","","","","","","","","","","","","","","","","","","","","","",""
"3369.600000023842","","image-slider-response","177","1311273","0.0-174.0","A35KHUV798F28S","","","","","-14","","","","","","","","","","","","","","","","","","","","","",""
"null","","image-button-response","178","1316288","0.0-175.0","A35KHUV798F28S","img_art/30.jpg","null","","","","","","","","","","","","","","","","","","","","","","","","",""
"396","","image-button-response","179","1316686","0.0-176.0","A35KHUV798F28S","img_art/30.jpg","0","","","","","","","","","","","","","","","","","","","","","","","","",""
"1012","","image-button-response","180","1317700","0.0-177.0-0.0","A35KHUV798F28S","img_art/30.jpg","3","","","","","","","","","","","","","","","","","","","","","","","","",""
"814","","image-button-response","181","1318516","0.0-178.0-0.0","A35KHUV798F28S","img_art/30.jpg","5","","","","","","","","","","","","","","","","","","","","","","","","",""
"null","","html-keyboard-response","182","1319018","0.0-179.0","A35KHUV798F28S","<p style=""font-size: 48px;"">+</p>","","","","","null","allTrialResponses","500","1","19","img_art/30.jpg","-14","someone barfed on a canvas and doodles over it","Katie,Shannon,Angela,Jacqueline,Bailey,Mariah","Soothing color palette, but doesn't look like anything. All I see are random brush strokes.,1,160,20","I feel like the colors are too repetitive and not very eyecatching.,-20,220,20","Really don't like this piece. It feels very lazy to me.,-31,260,20","Too dark and ugly with all the black smears,-20,300,20","No my favorite, but I do like the long strokes of color,11,360,20","It just feels hasty and not well composed. Has an angsty teen feel,-31,140,20","Katie","Soothing color palette, but doesn't look like anything. All I see are random brush strokes.,1,160,20","Jacqueline","Too dark and ugly with all the black smears,-20,300,20","Mariah","It just feels hasty and not well composed. Has an angsty teen feel,-31,140,20","4"
"6610","","survey-text","183","1325633","0.0-180.0-0.0","A35KHUV798F28S","","","","{""Q0"":""modern emo art""}","","","","","","","","","","","","","","","","","","","","","","",""
"3950","","image-slider-response","184","1329585","0.0-181.0","A35KHUV798F28S","","","","","17","","","","","","","","","","","","","","","","","","","","","",""
"null","","image-button-response","185","1334587","0.0-182.0","A35KHUV798F28S","img_art/16.jpg","null","","","","","","","","","","","","","","","","","","","","","","","","",""
"660","","image-button-response","186","1335249","0.0-183.0","A35KHUV798F28S","img_art/16.jpg","0","","","","","","","","","","","","","","","","","","","","","","","","",""
"1042","","image-button-response","187","1336292","0.0-184.0-0.0","A35KHUV798F28S","img_art/16.jpg","3","","","","","","","","","","","","","","","","","","","","","","","","",""
"836","","image-button-response","188","1337130","0.0-185.0-0.0","A35KHUV798F28S","img_art/16.jpg","4","","","","","","","","","","","","","","","","","","","","","","","","",""
"null","","html-keyboard-response","189","1338139","0.0-186.0","A35KHUV798F28S","<p style=""font-size: 48px;"">+</p>","","","","","null","allTrialResponses","1000","1","20","img_art/16.jpg","17","modern emo art","Katie,Alyssa,Chloe,Jacqueline,Ashley,Mariah","Upsetting and disturbing. Random bear and indistinguishable objects. None of it goes together. Too chaotic and random,-50,160,20","It creeps me out.,-50,160,20","Fun but a little cheesy,15,220,20","Seems very twisted and dark.,-35,300,20","A lot fo these could abstract or childrens work.,23,320,20","Why is that bear there? It looks like it would be gross to touch. The texture bothers me.,-20,140,20","Katie","Upsetting and disturbing. Random bear and indistinguishable objects. None of it goes together. Too chaotic and random,-50,160,20","Jacqueline","Seems very twisted and dark.,-35,300,20","Ashley","A lot fo these could abstract or childrens work.,23,320,20","4"
"4044","","survey-text","190","1342193","0.0-187.0-0.0","A35KHUV798F28S","","","","{""Q0"":""we""}","","","","","","","","","","","","","","","","","","","","","","",""
"7138","","survey-text","191","1349332","0.0-188.0-0.0","A35KHUV798F28S","","","","{""Q0"":""a big no from me""}","","","","","","","","","","","","","","","","","","","","","","",""
"2735.5","","image-slider-response","192","1352069","0.0-189.0","A35KHUV798F28S","","","","","-28","","","","","","","","","","","","","","","","","","","","","",""
"null","","image-button-response","193","1357072","0.0-190.0","A35KHUV798F28S","img_art/27.jpg","null","","","","","","","","","","","","","","","","","","","","","","","","",""
"450","","image-button-response","194","1357525","0.0-191.0","A35KHUV798F28S","img_art/27.jpg","4","","","","","","","","","","","","","","","","","","","","","","","","",""
"798","","image-button-response","195","1358325","0.0-192.0-0.0","A35KHUV798F28S","img_art/27.jpg","5","","","","","","","","","","","","","","","","","","","","","","","","",""
"800","","image-button-response","196","1359128","0.0-193.0-0.0","A35KHUV798F28S","img_art/27.jpg","3","","","","","","","","","","","","","","","","","","","","","","","","",""
"null","","html-keyboard-response","197","1360141","0.0-194.0","A35KHUV798F28S","<p style=""font-size: 48px;"">+</p>","","","","","null","allTrialResponses","1000","1","21","img_art/27.jpg","-28","a big no from me","Katie,Meghan,Savannah,Jacqueline,Ashley,Mikayla","Fire, explosion. Red/orange colors are fire/explosion. White is smoke. Makes me worried/scared/anxious,-20,160,20","again looks like childrens artwork,-40,220,20","An abstract piece with such lifeless colors.,-26,200,20","I don't really see anything to this art.,-5,300,20","Lots of activity, layers, imagination at work here.,29,320,20","It kinda reminds me of sushi.,16,300,20","Ashley","Lots of activity, layers, imagination at work here.,29,320,20","Mikayla","It kinda reminds me of sushi.,16,300,20","Jacqueline","I don't really see anything to this art.,-5,300,20","4"
"11841","","survey-text","198","1371989","0.0-195.0-0.0","A35KHUV798F28S","","","","{""Q0"":""I think this is very detailed burning man inspo""}","","","","","","","","","","","","","","","","","","","","","","",""
"3484.2999999523163","","image-slider-response","199","1375476","0.0-196.0","A35KHUV798F28S","","","","","17","","","","","","","","","","","","","","","","","","","","","",""
"4766","","image-button-response","200","1380479","0.0-197.0","A35KHUV798F28S","img_art/25.jpg","4","","","","","","","","","","","","","","","","","","","","","","","","",""
"340","","image-button-response","201","1380821","0.0-198.0","A35KHUV798F28S","img_art/25.jpg","1","","","","","","","","","","","","","","","","","","","","","","","","",""
"782","","image-button-response","202","1381605","0.0-199.0-0.0","A35KHUV798F28S","img_art/25.jpg","4","","","","","","","","","","","","","","","","","","","","","","","","",""
"574","","image-button-response","203","1382181","0.0-200.0-0.0","A35KHUV798F28S","img_art/25.jpg","5","","","","","","","","","","","","","","","","","","","","","","","","",""
"null","","html-keyboard-response","204","1382683","0.0-201.0","A35KHUV798F28S","<p style=""font-size: 48px;"">+</p>","","","","","null","allTrialResponses","500","1","22","img_art/25.jpg","17","I think this is very detailed burning man inspo","Kelsey,Olivia,Molly,Jacqueline,Ashley,Mikayla","quite unnerving,-15,240,20","reminds me of burning man,18,40,20","Well-designed, interesting.,30,340,20","Not particularly interesting for me. The green color is strange mixed with this.,-11,300,20","haunting, a lovely impression.,50,320,20","I LOVE fhe scary skeleton.,28,300,20","Olivia","reminds me of burning man,18,40,20","Ashley","haunting, a lovely impression.,50,320,20","Mikayla","I LOVE fhe scary skeleton.,28,300,20","4"
"7082","","survey-text","205","1389770","0.0-202.0-0.0","A35KHUV798F28S","","","","{""Q0"":""natural and pretty""}","","","","","","","","","","","","","","","","","","","","","","",""
"3131.600000023842","","image-slider-response","206","1392904","0.0-203.0","A35KHUV798F28S","","","","","6","","","","","","","","","","","","","","","","","","","","","",""
"4214","","image-button-response","207","1397915","0.0-204.0","A35KHUV798F28S","img_art/24.jpg","0","","","","","","","","","","","","","","","","","","","","","","","","",""
"663","","image-button-response","208","1398580","0.0-205.0","A35KHUV798F28S","img_art/24.jpg","4","","","","","","","","","","","","","","","","","","","","","","","","",""
"382","","image-button-response","209","1398964","0.0-206.0-0.0","A35KHUV798F28S","img_art/24.jpg","5","","","","","","","","","","","","","","","","","","","","","","","","",""
"462","","image-button-response","210","1399428","0.0-207.0-0.0","A35KHUV798F28S","img_art/24.jpg","3","","","","","","","","","","","","","","","","","","","","","","","","",""
"null","","html-keyboard-response","211","1399930","0.0-208.0","A35KHUV798F28S","<p style=""font-size: 48px;"">+</p>","","","","","null","allTrialResponses","500","1","23","img_art/24.jpg","6","natural and pretty","Cheyenne,Olivia,Miranda,Julia,Ashley,Mikayla","I like how the colors mix in this one.,20,200,20","tranquility in the stream,34,40,20","I find the colors work really well. It's very pretty but I have no idea as what it is.,34,320,20","it's a nice stream, but I don't care for plain nature,-15,40,20","NOt quite Bob Ross, but still good.,30,320,20","Looks like a waterfall!,34,300,20","Ashley","NOt quite Bob Ross, but still good.,30,320,20","Mikayla","Looks like a waterfall!,34,300,20","Julia","it's a nice stream, but I don't care for plain nature,-15,40,20","4"
"3466","","survey-text","212","1403404","0.0-209.0-0.0","A35KHUV798F28S","","","","{""Q0"":""so ugly""}","","","","","","","","","","","","","","","","","","","","","","",""
"5484.600000023842","","image-slider-response","213","1408890","0.0-210.0","A35KHUV798F28S","","","","","1","","","","","","","","","","","","","","","","","","","","","",""
"4054","","image-button-response","214","1413893","0.0-211.0","A35KHUV798F28S","img_art/21.jpg","5","","","","","","","","","","","","","","","","","","","","","","","","",""
"1482","","image-button-response","215","1415378","0.0-212.0","A35KHUV798F28S","img_art/21.jpg","4","","","","","","","","","","","","","","","","","","","","","","","","",""
"710","","image-button-response","216","1416090","0.0-213.0-0.0","A35KHUV798F28S","img_art/21.jpg","5","","","","","","","","","","","","","","","","","","","","","","","","",""
"865","","image-button-response","217","1416957","0.0-214.0-0.0","A35KHUV798F28S","img_art/21.jpg","2","","","","","","","","","","","","","","","","","","","","","","","","",""
"null","","html-keyboard-response","218","1417958","0.0-215.0","A35KHUV798F28S","<p style=""font-size: 48px;"">+</p>","","","","","null","allTrialResponses","1000","1","24","img_art/21.jpg","1","so ugly","Hailey,Stephanie,Jessica,Julia,Ashley,Mikayla","ocean and rocks at the beach,11,200,20","A battle at sea, the red is a bomb exploding.,-31,300,20","I like how the colors blend together like a beautiful sunset.,25,400,20","there's not enough fine detail in this one,-27,40,20","Disturbing, land meets ocean, lvoely really.,43,320,20","Nothing exciting in this one.,-36,300,20","Ashley","Disturbing, land meets ocean, lvoely really.,43,320,20","Mikayla","Nothing exciting in this one.,-36,300,20","Jessica","I like how the colors blend together like a beautiful sunset.,25,400,20","4"
"6907","","survey-text","219","1424873","0.0-216.0-0.0","A35KHUV798F28S","","","","{""Q0"":""What even is this""}","","","","","","","","","","","","","","","","","","","","","","",""
"2504.2999999523163","","image-slider-response","220","1427379","0.0-217.0","A35KHUV798F28S","","","","","10","","","","","","","","","","","","","","","","","","","","","",""
"null","","image-button-response","221","1432382","0.0-218.0","A35KHUV798F28S","img_art/18.jpg","null","","","","","","","","","","","","","","","","","","","","","","","","",""
"373","","image-button-response","222","1432756","0.0-219.0","A35KHUV798F28S","img_art/18.jpg","1","","","","","","","","","","","","","","","","","","","","","","","","",""
"925","","image-button-response","223","1433683","0.0-220.0-0.0","A35KHUV798F28S","img_art/18.jpg","0","","","","","","","","","","","","","","","","","","","","","","","","",""
"1012","","image-button-response","224","1434697","0.0-221.0-0.0","A35KHUV798F28S","img_art/18.jpg","4","","","","","","","","","","","","","","","","","","","","","","","","",""
"null","","html-keyboard-response","225","1435211","0.0-222.0","A35KHUV798F28S","<p style=""font-size: 48px;"">+</p>","","","","","null","allTrialResponses","500","1","25","img_art/18.jpg","10","What even is this","Kaitlin,Allison,Jessica,Jamie,Ashley,Mikayla","I really like this one - there seems to be a story behind it,32,60,20","Colors are okay. Reminds me of cavalry.,10,140,20","I think this looks pretty cool, I can see what's kind of going on here.,22,400,20","Mash up of colors and don't see a grander picture,-10,320,20","Resembles a ship at sea, storm of activity.,28,320,20","Kinda boring. Not my favorite,-34,300,20","Allison","Colors are okay. Reminds me of cavalry.,10,140,20","Kaitlin","I really like this one - there seems to be a story behind it,32,60,20","Ashley","Resembles a ship at sea, storm of activity.,28,320,20","4"
"4382","","survey-text","226","1439601","0.0-223.0-0.0","A35KHUV798F28S","","","","{""Q0"":""table""}","","","","","","","","","","","","","","","","","","","","","","",""
"5584","","survey-text","227","1445187","0.0-224.0-0.0","A35KHUV798F28S","","","","{""Q0"":""seashell?""}","","","","","","","","","","","","","","","","","","","","","","",""
"5077.399999976158","","image-slider-response","228","1450266","0.0-225.0","A35KHUV798F28S","","","","","-2","","","","","","","","","","","","","","","","","","","","","",""
"3414","","image-button-response","229","1455269","0.0-226.0","A35KHUV798F28S","img_art/9.jpg","4","","","","","","","","","","","","","","","","","","","","","","","","",""
"506","","image-button-response","230","1455777","0.0-227.0","A35KHUV798F28S","img_art/9.jpg","3","","","","","","","","","","","","","","","","","","","","","","","","",""
"988","","image-button-response","231","1456768","0.0-228.0-0.0","A35KHUV798F28S","img_art/9.jpg","1","","","","","","","","","","","","","","","","","","","","","","","","",""
"748","","image-button-response","232","1457518","0.0-229.0-0.0","A35KHUV798F28S","img_art/9.jpg","0","","","","","","","","","","","","","","","","","","","","","","","","",""
"null","","html-keyboard-response","233","1458519","0.0-230.0","A35KHUV798F28S","<p style=""font-size: 48px;"">+</p>","","","","","null","allTrialResponses","1000","1","26","img_art/9.jpg","-2","seashell?","Kaitlin,Allison,Natalie,Alexandra,Ashley,Kaitlyn","this looks to be a child nightmare,-10,60,20","Very eclectic and messy. Not my preference, but may work for some.,-20,140,20","Gives me anxiety,-23,400,20","This picture is too busy and ugly,-20,60,20","Similar to the tohers, but not as clear.,11,320,20","Focal point is interesting,2,80,20","Alexandra","This picture is too busy and ugly,-20,60,20","Allison","Very eclectic and messy. Not my preference, but may work for some.,-20,140,20","Kaitlin","this looks to be a child nightmare,-10,60,20","4"
"7326","","survey-text","234","1465853","0.0-231.0-0.0","A35KHUV798F28S","","","","{""Q0"":""building on fire""}","","","","","","","","","","","","","","","","","","","","","","",""
"2424.399999976158","","image-slider-response","235","1468279","0.0-232.0","A35KHUV798F28S","","","","","3","","","","","","","","","","","","","","","","","","","","","",""
"4856","","image-button-response","236","1473289","0.0-233.0","A35KHUV798F28S","img_art/17.jpg","1","","","","","","","","","","","","","","","","","","","","","","","","",""
"479","","image-button-response","237","1473769","0.0-234.0","A35KHUV798F28S","img_art/17.jpg","1","","","","","","","","","","","","","","","","","","","","","","","","",""
"712","","image-button-response","238","1474482","0.0-235.0-0.0","A35KHUV798F28S","img_art/17.jpg","2","","","","","","","","","","","","","","","","","","","","","","","","",""
"798","","image-button-response","239","1475283","0.0-236.0-0.0","A35KHUV798F28S","img_art/17.jpg","0","","","","","","","","","","","","","","","","","","","","","","","","",""
"null","","html-keyboard-response","240","1476286","0.0-237.0","A35KHUV798F28S","<p style=""font-size: 48px;"">+</p>","","","","","null","allTrialResponses","1000","1","27","img_art/17.jpg","3","building on fire","Kaitlin,Allison,Erica,Alexandra,Makayla,Diana","i feel some sadness in this picture,25,60,20","Very washed out.,-10,140,20","Makes me warm and cozy just by looking at it,29,80,20","This is very beautiful and elegant.,42,60,20","I feel okay , it's like a tree,28,80,20","I really enjoyed this piece, it's a play on bringing the outside indoors.,32,380,20","Allison","Very washed out.,-10,140,20","Erica","Makes me warm and cozy just by looking at it,29,80,20","Kaitlin","i feel some sadness in this picture,25,60,20","4"
"5153","","survey-text","241","1481447","0.0-238.0-0.0","A35KHUV798F28S","","","","{""Q0"":""so ugly""}","","","","","","","","","","","","","","","","","","","","","","",""
"2612.5","","image-slider-response","242","1484061","0.0-239.0","A35KHUV798F28S","","","","","9","","","","","","","","","","","","","","","","","","","","","",""
"878","","image-button-response","243","1489070","0.0-240.0","A35KHUV798F28S","img_art/6.jpg","5","","","","","","","","","","","","","","","","","","","","","","","","",""
"571","","image-button-response","244","1489643","0.0-241.0","A35KHUV798F28S","img_art/6.jpg","4","","","","","","","","","","","","","","","","","","","","","","","","",""
"230","","image-button-response","245","1489875","0.0-242.0-0.0","A35KHUV798F28S","img_art/6.jpg","3","","","","","","","","","","","","","","","","","","","","","","","","",""
"656","","image-button-response","246","1490534","0.0-243.0-0.0","A35KHUV798F28S","img_art/6.jpg","1","","","","","","","","","","","","","","","","","","","","","","","","",""
"null","","html-keyboard-response","247","1492040","0.0-244.0","A35KHUV798F28S","<p style=""font-size: 48px;"">+</p>","","","","","null","allTrialResponses","1500","1","28","img_art/6.jpg","9","so ugly","Kaitlin,Allison,Erica,Mary,Michelle,Dominique","This one also confuses me a bit.,-19,60,20","Simple desert scene.,5,140,20","positive because of bright colours and a bird,20,80,20","This piece has some emotion of isolation. I like it.,6,180,20","Definitely belongs at a doctor's office, I think it's a crow or a tree?,-3,280,20","Calm and catching,30,400,20","Michelle","Definitely belongs at a doctor's office, I think it's a crow or a tree?,-3,280,20","Mary","This piece has some emotion of isolation. I like it.,6,180,20","Allison","Simple desert scene.,5,140,20","4"
"3498","","survey-text","248","1495543","0.0-245.0-0.0","A35KHUV798F28S","","","","{""Q0"":""so ugly""}","","","","","","","","","","","","","","","","","","","","","","",""
"2662.600000023842","","image-slider-response","249","1498208","0.0-246.0","A35KHUV798F28S","","","","","-18","","","","","","","","","","","","","","","","","","","","","",""
"4028","","image-button-response","250","1503211","0.0-247.0","A35KHUV798F28S","img_art/1.jpg","1","","","","","","","","","","","","","","","","","","","","","","","","",""
"448","","image-button-response","251","1503661","0.0-248.0","A35KHUV798F28S","img_art/1.jpg","1","","","","","","","","","","","","","","","","","","","","","","","","",""
"572","","image-button-response","252","1504235","0.0-249.0-0.0","A35KHUV798F28S","img_art/1.jpg","4","","","","","","","","","","","","","","","","","","","","","","","","",""
"386","","image-button-response","253","1504623","0.0-250.0-0.0","A35KHUV798F28S","img_art/1.jpg","3","","","","","","","","","","","","","","","","","","","","","","","","",""
"null","","html-keyboard-response","254","1505640","0.0-251.0","A35KHUV798F28S","<p style=""font-size: 48px;"">+</p>","","","","","null","allTrialResponses","1000","1","29","img_art/1.jpg","-18","so ugly","Kaylee,Allison,Hannah,Mary,Michelle,Brittany","a colorful piece of art,25,200,20","Messy mix of primary colors.,-10,140,20","Reminds me of fall.,7,240,20","This piece feels soft and romantic to me. I do not care for so much orange though.,3,180,20","Random paint does not make art,-5,280,20","It reminds me of a sunset I once saw.,16,40,20","Allison","Messy mix of primary colors.,-10,140,20","Michelle","Random paint does not make art,-5,280,20","Mary","This piece feels soft and romantic to me. I do not care for so much orange though.,3,180,20","4"
"3214","","survey-text","255","1508868","0.0-252.0-0.0","A35KHUV798F28S","","","","{""Q0"":""so ugly""}","","","","","","","","","","","","","","","","","","","","","","",""
"2372.0999999046326","","image-slider-response","256","1511241","0.0-253.0","A35KHUV798F28S","","","","","8","","","","","","","","","","","","","","","","","","","","","",""
"null","","image-button-response","257","1516252","0.0-254.0","A35KHUV798F28S","img_art/11.jpg","null","","","","","","","","","","","","","","","","","","","","","","","","",""
"422","","image-button-response","258","1516676","0.0-255.0","A35KHUV798F28S","img_art/11.jpg","4","","","","","","","","","","","","","","","","","","","","","","","","",""
"338","","image-button-response","259","1517016","0.0-256.0-0.0","A35KHUV798F28S","img_art/11.jpg","5","","","","","","","","","","","","","","","","","","","","","","","","",""
"463","","image-button-response","260","1517480","0.0-257.0-0.0","A35KHUV798F28S","img_art/11.jpg","3","","","","","","","","","","","","","","","","","","","","","","","","",""
"null","","html-keyboard-response","261","1518496","0.0-258.0","A35KHUV798F28S","<p style=""font-size: 48px;"">+</p>","","","","","null","allTrialResponses","1000","1","30","img_art/11.jpg","8","so ugly","Madison,Allison,Crystal,Mary,Michelle,Catherine","Rainy day at an urban sea port. Portugal?,30,60,20","Kind of reminds me of DNA.,9,140,20","Enjoyed the lines representing different paths that encompass different entities,20,300,20","I don't care for the color combo. The wavy lines give dimension though.,-13,180,20","I think this is a city but I'm not sure, very abstract,18,280,20","Busy city life. transportation, anxiety.,10,160,20","Michelle","I think this is a city but I'm not sure, very abstract,18,280,20","Catherine","Busy city life. transportation, anxiety.,10,160,20","Mary","I don't care for the color combo. The wavy lines give dimension though.,-13,180,20","4"
"3268","","image-button-response_instructions","262","1521774","0.0-259.0","A35KHUV798F28S","","0","instructions","","","","","","","","","","","","","","","","","","","","","","","",""
"1212","","image-button-response","263","1522993","0.0-260.0","A35KHUV798F28S","","0","","","","","","","","","","","","","","","","","","","","","","","","",""
