"rt","url","trial_type","trial_index","time_elapsed","internal_node_id","participant_id","stimulus","button_pressed","Name","responses","response","key_press","variableName","fixationTime","condition","trial","photo","subjectRating","subjectResponse","agentsNames","agent_1_Response","agent_2_Response","agent_3_Response","agent_4_Response","agent_5_Response","agent_6_Response","kept_1_name","kept_1_response","kept_2_name","kept_2_response","kept_3_name","kept_3_response","errorCounter"
"42216","external_page_harvard.html","external-html","0","42291","0.0-0.0","A35P5JYWFCCMDR","","","","","","","","","","","","","","","","","","","","","","","","","","",""
"1834","","image-button-response","1","44132","0.0-1.0","A35P5JYWFCCMDR","","1","","","","","","","","","","","","","","","","","","","","","","","","",""
"2138","","image-button-response","2","46317","0.0-2.0-0.0","A35P5JYWFCCMDR","","1","phone","","","","","","","","","","","","","","","","","","","","","","","",""
"18835","","survey-text","3","65155","0.0-3.0-0.0","A35P5JYWFCCMDR","","","","{""Q0"":""A35P5JYWFCCMDR""}","","","","","","","","","","","","","","","","","","","","","","",""
"5718","","image-button-response_instructions","4","70877","0.0-4.0","A35P5JYWFCCMDR","","0","instructions","","","","","","","","","","","","","","","","","","","","","","","",""
"35774","","image-button-response_instructions","5","106657","0.0-5.0","A35P5JYWFCCMDR","img_art/ins/popularity/ins1.png","0","instructions","","","","","","","","","","","","","","","","","","","","","","","",""
"14037","","image-button-response_instructions","6","120696","0.0-6.0","A35P5JYWFCCMDR","img_art/ins/popularity/ins2.png","0","instructions","","","","","","","","","","","","","","","","","","","","","","","",""
"10837","","image-button-response_instructions","7","131537","0.0-7.0","A35P5JYWFCCMDR","img_art/ins/popularity/ins2Extreme.png","0","instructions","","","","","","","","","","","","","","","","","","","","","","","",""
"23547","","image-button-response_instructions","8","155088","0.0-8.0","A35P5JYWFCCMDR","img_art/ins/popularity/ins3KEEPpop.PNG","0","instructions","","","","","","","","","","","","","","","","","","","","","","","",""
"4190","","image-button-response_instructions","9","159281","0.0-9.0","A35P5JYWFCCMDR","img_art/ins/popularity/ins3ANamepop.PNG","0","instructions","","","","","","","","","","","","","","","","","","","","","","","",""
"3383","","image-button-response_instructions","10","162666","0.0-10.0","A35P5JYWFCCMDR","img_art/ins/popularity/ins3ARatingpop.png","0","instructions","","","","","","","","","","","","","","","","","","","","","","","",""
"2616","","image-button-response_instructions","11","165286","0.0-11.0","A35P5JYWFCCMDR","img_art/ins/popularity/ins3ATextpop.png","0","instructions","","","","","","","","","","","","","","","","","","","","","","","",""
"5771","","image-button-response_instructions","12","171060","0.0-12.0","A35P5JYWFCCMDR","img_art/ins/popularity/ins3ALikespop.png","0","instructions","","","","","","","","","","","","","","","","","","","","","","","",""
"10907","","image-button-response_instructions","13","181969","0.0-13.0","A35P5JYWFCCMDR","img_art/ins/popularity/ins3KEEPpop.PNG","0","instructions","","","","","","","","","","","","","","","","","","","","","","","",""
"7212","","image-button-response_instructions","14","189185","0.0-14.0","A35P5JYWFCCMDR","img_art/ins/popularity/ins3_5RED.png","0","instructions","","","","","","","","","","","","","","","","","","","","","","","",""
"4232","","image-button-response_instructions","15","193420","0.0-15.0","A35P5JYWFCCMDR","img_art/ins/popularity/ins3KEEPpop.PNG","0","instructions","","","","","","","","","","","","","","","","","","","","","","","",""
"7041","","image-button-response_instructions","16","200464","0.0-16.0","A35P5JYWFCCMDR","img_art/ins/popularity/ins4KEEPpop.PNG","0","instructions","","","","","","","","","","","","","","","","","","","","","","","",""
"3869","","image-button-response_instructions","17","204337","0.0-17.0","A35P5JYWFCCMDR","img_art/ins/popularity/ins5KEEPpop.PNG","0","instructions","","","","","","","","","","","","","","","","","","","","","","","",""
"2018","","image-button-response_instructions","18","206360","0.0-18.0","A35P5JYWFCCMDR","","0","instructions","","","","","","","","","","","","","","","","","","","","","","","",""
"8476","","survey-text","19","214896","0.0-19.0-0.0","A35P5JYWFCCMDR","","","","{""Q0"":""but""}","","","","","","","","","","","","","","","","","","","","","","",""
"23005","","survey-text","20","237911","0.0-20.0-0.0","A35P5JYWFCCMDR","","","","{""Q0"":""This seems so chaotic.""}","","","","","","","","","","","","","","","","","","","","","","",""
"6479.5","","image-slider-response","21","244402","0.0-21.0","A35P5JYWFCCMDR","","","","","-24","","","","","","","","","","","","","","","","","","","","","",""
"null","","image-button-response","22","249416","0.0-22.0","A35P5JYWFCCMDR","img_art/ins/1.jpg","null","","","","","","","","","","","","","","","","","","","","","","","","",""
"7351","","image-button-response","23","256770","0.0-23.0","A35P5JYWFCCMDR","img_art/ins/1.jpg","1","","","","","","","","","","","","","","","","","","","","","","","","",""
"5358","","image-button-response","24","262136","0.0-24.0-0.0","A35P5JYWFCCMDR","img_art/ins/1.jpg","3","","","","","","","","","","","","","","","","","","","","","","","","",""
"2943","","image-button-response","25","265088","0.0-25.0-0.0","A35P5JYWFCCMDR","img_art/ins/1.jpg","5","","","","","","","","","","","","","","","","","","","","","","","","",""
"null","","html-keyboard-response","26","266102","0.0-26.0","A35P5JYWFCCMDR","<p style=""font-size: 48px;"">+</p>","","","","","null","allTrialResponses","1000","1","-2","img_art/ins/1.jpg","-24","This seems so chaotic.","Allison,Ashley,Beth,Dora,Erika,Jen","looks like a lot of things going on in the mist,20,20,20","I just don't get why these type of art would be popular,-32,40,20","This color reminds me of poo,-46,60,20","looks like what my niece in 3rd grade did this afternoon,-50,80,20","I like the sophisticated brushwork,40,100,20","It reminds me of a candy land dream I had,36,120,20","Ashley","I just don't get why these type of art would be popular,-32,40,20","Dora","looks like what my niece in 3rd grade did this afternoon,-50,80,20","Jen","It reminds me of a candy land dream I had,36,120,20","0"
"19473","","survey-text","27","285589","0.0-27.0-0.0","A35P5JYWFCCMDR","","","","{""Q0"":""Looks like a child did it.""}","","","","","","","","","","","","","","","","","","","","","","",""
"9637.40000000596","","image-slider-response","28","295237","0.0-28.0","A35P5JYWFCCMDR","","","","","-22","","","","","","","","","","","","","","","","","","","","","",""
"4736","","image-button-response","29","300247","0.0-29.0","A35P5JYWFCCMDR","img_art/ins/2.jpg","1","","","","","","","","","","","","","","","","","","","","","","","","",""
"4356","","image-button-response","30","304612","0.0-30.0","A35P5JYWFCCMDR","img_art/ins/2.jpg","3","","","","","","","","","","","","","","","","","","","","","","","","",""
"2871","","image-button-response","31","307490","0.0-31.0-0.0","A35P5JYWFCCMDR","img_art/ins/2.jpg","0","","","","","","","","","","","","","","","","","","","","","","","","",""
"9987","","image-button-response","32","317484","0.0-32.0-0.0","A35P5JYWFCCMDR","img_art/ins/2.jpg","1","","","","","","","","","","","","","","","","","","","","","","","","",""
"null","","html-keyboard-response","33","317996","0.0-33.0","A35P5JYWFCCMDR","<p style=""font-size: 48px;"">+</p>","","","","","null","allTrialResponses","500","1","-1","img_art/ins/2.jpg","-22","Looks like a child did it.","Jenna,Ashley,Katie,Dora,Kara,Jen","One of my pet peevs,-48,140,20","Idk, it is just annoying,-32,40,20","too much color!,-28,180,20","looks too angry,-50,80,20","I like the blocks of color arrangements,30,160,20","It reminds me of a fireplace,36,120,20","Dora","looks too angry,-50,80,20","Jenna","One of my pet peevs,-48,140,20","Ashley","Idk, it is just annoying,-32,40,20","0"
"19568","","survey-text","34","337583","0.0-34.0-0.0","A35P5JYWFCCMDR","","","","{""Q0"":""Reminds me of waves of the ocean""}","","","","","","","","","","","","","","","","","","","","","","",""
"5745.699999988079","","image-slider-response","35","343338","0.0-35.0","A35P5JYWFCCMDR","","","","","20","","","","","","","","","","","","","","","","","","","","","",""
"null","","image-button-response","36","348358","0.0-36.0","A35P5JYWFCCMDR","img_art/ins/3.jpg","null","","","","","","","","","","","","","","","","","","","","","","","","",""
"817","","image-button-response","37","349180","0.0-37.0","A35P5JYWFCCMDR","img_art/ins/3.jpg","4","","","","","","","","","","","","","","","","","","","","","","","","",""
"3652","","image-button-response","38","352839","0.0-38.0-0.0","A35P5JYWFCCMDR","img_art/ins/3.jpg","2","","","","","","","","","","","","","","","","","","","","","","","","",""
"3022","","image-button-response","39","355870","0.0-39.0-0.0","A35P5JYWFCCMDR","img_art/ins/3.jpg","4","","","","","","","","","","","","","","","","","","","","","","","","",""
"939","","image-button-response","40","363187","0.0-39.1-0.1","A35P5JYWFCCMDR","img_art/ins/3.jpg","0","","","","","","","","","","","","","","","","","","","","","","","","",""
"null","","html-keyboard-response","41","364699","0.0-40.0","A35P5JYWFCCMDR","<p style=""font-size: 48px;"">+</p>","","","","","null","allTrialResponses","1500","1","0","img_art/ins/3.jpg","20","Reminds me of waves of the ocean","Jenna,Ashley,Leslie,Dora,Mary,Rose","looks like a murder room,-35,140,20","It looks like a playground for bats,-36,40,20","It's an alright work,15,200,20","My worst nightmare,-42,80,20","I like the overlapping of brushes,41,220,20","My daily routine, it's depressing,-20,240,20","Mary","I like the overlapping of brushes,41,220,20","Leslie","It's an alright work,15,200,20","Jenna","looks like a murder room,-35,140,20","2"
"7162","","image-button-response_instructions","42","371885","0.0-41.0","A35P5JYWFCCMDR","","0","instructions","","","","","","","","","","","","","","","","","","","","","","","",""
"17505","","survey-likert","43","389396","0.0-42.0-0.0","A35P5JYWFCCMDR","","","","{""Q0"":"""",""Q1"":0,""Q2"":1}","","","","","","","","","","","","","","","","","","","","","","",""
"6691","","survey-text","44","396107","0.0-43.0-0.0","A35P5JYWFCCMDR","","","","{""Q0"":""rock""}","","","","","","","","","","","","","","","","","","","","","","",""
"13102","","survey-text","45","409215","0.0-44.0-0.0","A35P5JYWFCCMDR","","","","{""Q0"":""This is primitive""}","","","","","","","","","","","","","","","","","","","","","","",""
"4279.299999982119","","image-slider-response","46","413503","0.0-45.0","A35P5JYWFCCMDR","","","","","25","","","","","","","","","","","","","","","","","","","","","",""
"2794","","image-button-response","47","418567","0.0-46.0","A35P5JYWFCCMDR","img_art/19.jpg","0","","","","","","","","","","","","","","","","","","","","","","","","",""
"998","","image-button-response","48","419573","0.0-47.0","A35P5JYWFCCMDR","img_art/19.jpg","3","","","","","","","","","","","","","","","","","","","","","","","","",""
"4484","","image-button-response","49","424064","0.0-48.0-0.0","A35P5JYWFCCMDR","img_art/19.jpg","2","","","","","","","","","","","","","","","","","","","","","","","","",""
"11753","","image-button-response","50","435826","0.0-49.0-0.0","A35P5JYWFCCMDR","img_art/19.jpg","3","","","","","","","","","","","","","","","","","","","","","","","","",""
"1783","","image-button-response","51","441136","0.0-49.1-0.1","A35P5JYWFCCMDR","img_art/19.jpg","0","","","","","","","","","","","","","","","","","","","","","","","","",""
"null","","html-keyboard-response","52","441652","0.0-50.0","A35P5JYWFCCMDR","<p style=""font-size: 48px;"">+</p>","","","","","null","allTrialResponses","500","1","1","img_art/19.jpg","25","This is primitive","Hailey,Chelsea,Catherine,Monica,Kelsey,Emily","an old cityfrom many years ago. its ok,6,200,20","It is too busy.,-34,180,20","Higher power looking down at its creation with a half smile and some hurt.,45,160,20","The shapes make me recall a city scene but it looks dirty,-22,360,20","not sure if i like it or not,1,240,20","Loks like an amature did it, Not pleasing.,-45,40,20","Monica","The shapes make me recall a city scene but it looks dirty,-22,360,20","Catherine","Higher power looking down at its creation with a half smile and some hurt.,45,160,20","Hailey","an old cityfrom many years ago. its ok,6,200,20","4"
"22854","","survey-text","53","464522","0.0-51.0-0.0","A35P5JYWFCCMDR","","","","{""Q0"":""reminds me of Thanksgiving""}","","","","","","","","","","","","","","","","","","","","","","",""
"5023.5999999940395","","image-slider-response","54","469548","0.0-52.0","A35P5JYWFCCMDR","","","","","24","","","","","","","","","","","","","","","","","","","","","",""
"3381","","image-button-response","55","474570","0.0-53.0","A35P5JYWFCCMDR","img_art/2.jpg","3","","","","","","","","","","","","","","","","","","","","","","","","",""
"4100","","image-button-response","56","478675","0.0-54.0","A35P5JYWFCCMDR","img_art/2.jpg","2","","","","","","","","","","","","","","","","","","","","","","","","",""
"1554","","image-button-response","57","480237","0.0-55.0-0.0","A35P5JYWFCCMDR","img_art/2.jpg","5","","","","","","","","","","","","","","","","","","","","","","","","",""
"2325","","image-button-response","58","482568","0.0-56.0-0.0","A35P5JYWFCCMDR","img_art/2.jpg","0","","","","","","","","","","","","","","","","","","","","","","","","",""
"null","","html-keyboard-response","59","483579","0.0-57.0","A35P5JYWFCCMDR","<p style=""font-size: 48px;"">+</p>","","","","","null","allTrialResponses","1000","1","2","img_art/2.jpg","24","reminds me of Thanksgiving","Hailey,Rebecca,Catherine,Monica,Kylie,Crystal","ugly green color and makes me sick,-29,200,20","do not understand,-21,100,20","Dependence. Things relying on each other. Caring,-4,160,20","I like the blue color in the center but that's it, the green is a gross color,-3,360,20","Not very appealing,-5,300,20","Looks contrived and like someone tried to hard to make it abstract,-31,300,20","Catherine","Dependence. Things relying on each other. Caring,-4,160,20","Crystal","Looks contrived and like someone tried to hard to make it abstract,-31,300,20","Hailey","ugly green color and makes me sick,-29,200,20","4"
"9594","","survey-text","60","493194","0.0-58.0-0.0","A35P5JYWFCCMDR","","","","{""Q0"":""looks like a murder scene""}","","","","","","","","","","","","","","","","","","","","","","",""
"5756.800000011921","","image-slider-response","61","498958","0.0-59.0","A35P5JYWFCCMDR","","","","","-18","","","","","","","","","","","","","","","","","","","","","",""
"null","","image-button-response","62","503974","0.0-60.0","A35P5JYWFCCMDR","img_art/3.jpg","null","","","","","","","","","","","","","","","","","","","","","","","","",""
"1502","","image-button-response","63","505481","0.0-61.0","A35P5JYWFCCMDR","img_art/3.jpg","4","","","","","","","","","","","","","","","","","","","","","","","","",""
"1551","","image-button-response","64","507040","0.0-62.0-0.0","A35P5JYWFCCMDR","img_art/3.jpg","5","","","","","","","","","","","","","","","","","","","","","","","","",""
"1030","","image-button-response","65","508077","0.0-63.0-0.0","A35P5JYWFCCMDR","img_art/3.jpg","2","","","","","","","","","","","","","","","","","","","","","","","","",""
"null","","html-keyboard-response","66","509593","0.0-64.0","A35P5JYWFCCMDR","<p style=""font-size: 48px;"">+</p>","","","","","null","allTrialResponses","1500","1","3","img_art/3.jpg","-18","looks like a murder scene","Hailey,Courtney,Catherine,Diana,Alexandra,Crystal","painted by a 2 year old. cold and boring,-30,200,20","That just looks like a mess..,-18,280,20","Anger, like something a serial killer may paint.,-30,160,20","I didn't feel the color choice when I first looked. I did however like the placement of the gray.,-28,380,20","I could scribble on paper and mimic this,-48,60,20","I like the abstract flowing lines. It lacks hard rigid marks and flow nicely into a piece of calamity.,32,300,20","Alexandra","I could scribble on paper and mimic this,-48,60,20","Crystal","I like the abstract flowing lines. It lacks hard rigid marks and flow nicely into a piece of calamity.,32,300,20","Catherine","Anger, like something a serial killer may paint.,-30,160,20","4"
"12404","","survey-text","67","522021","0.0-65.0-0.0","A35P5JYWFCCMDR","","","","{""Q0"":""Is this supposed to be a flame.""}","","","","","","","","","","","","","","","","","","","","","","",""
"4732.0999999940395","","image-slider-response","68","526764","0.0-66.0","A35P5JYWFCCMDR","","","","","-14","","","","","","","","","","","","","","","","","","","","","",""
"2840","","image-button-response","69","531772","0.0-67.0","A35P5JYWFCCMDR","img_art/4.jpg","0","","","","","","","","","","","","","","","","","","","","","","","","",""
"838","","image-button-response","70","532616","0.0-68.0","A35P5JYWFCCMDR","img_art/4.jpg","3","","","","","","","","","","","","","","","","","","","","","","","","",""
"1400","","image-button-response","71","534021","0.0-69.0-0.0","A35P5JYWFCCMDR","img_art/4.jpg","4","","","","","","","","","","","","","","","","","","","","","","","","",""
"3450","","image-button-response","72","537479","0.0-70.0-0.0","A35P5JYWFCCMDR","img_art/4.jpg","0","","","","","","","","","","","","","","","","","","","","","","","","",""
"null","","html-keyboard-response","73","538999","0.0-71.0","A35P5JYWFCCMDR","<p style=""font-size: 48px;"">+</p>","","","","","null","allTrialResponses","1500","1","4","img_art/4.jpg","-14","Is this supposed to be a flame.","Jamie,Cassandra,Catherine,Sara,Alexandra,Crystal","Mustard yellow doesn't do it for me,-25,320,20","I don't like this...a mustardy scibble.,-47,120,20","Hearts, family connected. They are standing on a narrow base and could fall to pieces at anytime.,40,160,20","Random swirls again,-30,160,20","This artwork looks like a child did it,-41,60,20","Looks like finger nails from the Guinness world record book.,-30,300,20","Sara","Random swirls again,-30,160,20","Alexandra","This artwork looks like a child did it,-41,60,20","Jamie","Mustard yellow doesn't do it for me,-25,320,20","4"
"11546","","survey-text","74","550567","0.0-72.0-0.0","A35P5JYWFCCMDR","","","","{""Q0"":""I am not sure what this is""}","","","","","","","","","","","","","","","","","","","","","","",""
"3961.5999999940395","","image-slider-response","75","554536","0.0-73.0","A35P5JYWFCCMDR","","","","","-21","","","","","","","","","","","","","","","","","","","","","",""
"3050","","image-button-response","76","559553","0.0-74.0","A35P5JYWFCCMDR","img_art/22.jpg","1","","","","","","","","","","","","","","","","","","","","","","","","",""
"1020","","image-button-response","77","560579","0.0-75.0","A35P5JYWFCCMDR","img_art/22.jpg","5","","","","","","","","","","","","","","","","","","","","","","","","",""
"1182","","image-button-response","78","561768","0.0-76.0-0.0","A35P5JYWFCCMDR","img_art/22.jpg","2","","","","","","","","","","","","","","","","","","","","","","","","",""
"2280","","image-button-response","79","564056","0.0-77.0-0.0","A35P5JYWFCCMDR","img_art/22.jpg","1","","","","","","","","","","","","","","","","","","","","","","","","",""
"null","","html-keyboard-response","80","565575","0.0-78.0","A35P5JYWFCCMDR","<p style=""font-size: 48px;"">+</p>","","","","","null","allTrialResponses","1500","1","5","img_art/22.jpg","-21","I am not sure what this is","Jamie,Michelle,Jordan,Sara,Alexandra,Taylor","Like the mix of warm and cool colors,15,320,20","Not a huge fan of the blocks, also very abstract, I have no idea what it is,8,280,20","not a fan of this, it's boring,1,20,20","Looks like a warm sunset to me i like it,42,160,20","The colors in this picture are nice.,32,60,20","Doesn't make me feel anything,-4,340,20","Taylor","Doesn't make me feel anything,-4,340,20","Jordan","not a fan of this, it's boring,1,20,20","Michelle","Not a huge fan of the blocks, also very abstract, I have no idea what it is,8,280,20","4"
"6465","","survey-text","81","572081","0.0-79.0-0.0","A35P5JYWFCCMDR","","","","{""Q0"":""sky""}","","","","","","","","","","","","","","","","","","","","","","",""
"10558","","survey-text","82","582644","0.0-80.0-0.0","A35P5JYWFCCMDR","","","","{""Q0"":""I love this""}","","","","","","","","","","","","","","","","","","","","","","",""
"389959.7999999821","","image-slider-response","83","972614","0.0-81.0","A35P5JYWFCCMDR","","","","","37","","","","","","","","","","","","","","","","","","","","","",""
"2383","","image-button-response","84","977634","0.0-82.0","A35P5JYWFCCMDR","img_art/17.jpg","0","","","","","","","","","","","","","","","","","","","","","","","","",""
"142","","image-button-response","85","977782","0.0-83.0","A35P5JYWFCCMDR","img_art/17.jpg","3","","","","","","","","","","","","","","","","","","","","","","","","",""
"2173","","image-button-response","86","979962","0.0-84.0-0.0","A35P5JYWFCCMDR","img_art/17.jpg","4","","","","","","","","","","","","","","","","","","","","","","","","",""
"3273","","image-button-response","87","983242","0.0-85.0-0.0","A35P5JYWFCCMDR","img_art/17.jpg","0","","","","","","","","","","","","","","","","","","","","","","","","",""
"null","","html-keyboard-response","88","983759","0.0-86.0","A35P5JYWFCCMDR","<p style=""font-size: 48px;"">+</p>","","","","","null","allTrialResponses","500","1","6","img_art/17.jpg","37","I love this","Lindsey,Michelle,Jordan,Erika,Breanna,Taylor","Pretty composition and I like the colors.,20,400,20","I can tell there are tress and maybe some doors but I'm not a fan of the style,-2,280,20","absolutely gorgeous, I feel solitude again, but the beauty is there also,50,20,20","I love vague, dreamlike styles,50,100,20","Very cool, makes me feel calm,43,380,20","A very inspiring piece,41,340,20","Erika","I love vague, dreamlike styles,50,100,20","Breanna","Very cool, makes me feel calm,43,380,20","Lindsey","Pretty composition and I like the colors.,20,400,20","4"
"16105","","survey-text","89","999891","0.0-87.0-0.0","A35P5JYWFCCMDR","","","","{""Q0"":""by the sea?""}","","","","","","","","","","","","","","","","","","","","","","",""
"3833.9000000059605","","image-slider-response","90","1003732","0.0-88.0","A35P5JYWFCCMDR","","","","","14","","","","","","","","","","","","","","","","","","","","","",""
"2316","","image-button-response","91","1008741","0.0-89.0","A35P5JYWFCCMDR","img_art/20.jpg","0","","","","","","","","","","","","","","","","","","","","","","","","",""
"4228","","image-button-response","92","1012975","0.0-90.0","A35P5JYWFCCMDR","img_art/20.jpg","3","","","","","","","","","","","","","","","","","","","","","","","","",""
"672","","image-button-response","93","1013655","0.0-91.0-0.0","A35P5JYWFCCMDR","img_art/20.jpg","4","","","","","","","","","","","","","","","","","","","","","","","","",""
"4814","","image-button-response","94","1018476","0.0-92.0-0.0","A35P5JYWFCCMDR","img_art/20.jpg","0","","","","","","","","","","","","","","","","","","","","","","","","",""
"null","","html-keyboard-response","95","1018990","0.0-93.0","A35P5JYWFCCMDR","<p style=""font-size: 48px;"">+</p>","","","","","null","allTrialResponses","500","1","7","img_art/20.jpg","14","by the sea?","Lindsey,Maria,Meghan,Erika,Breanna,Michaela","Not sure what it is. The colors are pleasant; makes me want to figure it out. An animal skull in the desert?,10,400,20","just feels generic,-18,120,20","feels distorted and uncomfortable,-41,220,20","The artist had very strong feelings, bold colors,28,100,20","Makes me feel impressed,9,380,20","I can't tell what's going on but I like the colors,12,260,20","Erika","The artist had very strong feelings, bold colors,28,100,20","Breanna","Makes me feel impressed,9,380,20","Lindsey","Not sure what it is. The colors are pleasant; makes me want to figure it out. An animal skull in the desert?,10,400,20","4"
"11346","","survey-text","96","1030357","0.0-94.0-0.0","A35P5JYWFCCMDR","","","","{""Q0"":""fall like""}","","","","","","","","","","","","","","","","","","","","","","",""
"3834.699999988079","","image-slider-response","97","1034201","0.0-95.0","A35P5JYWFCCMDR","","","","","-14","","","","","","","","","","","","","","","","","","","","","",""
"4526","","image-button-response","98","1039222","0.0-96.0","A35P5JYWFCCMDR","img_art/27.jpg","3","","","","","","","","","","","","","","","","","","","","","","","","",""
"2552","","image-button-response","99","1041780","0.0-97.0","A35P5JYWFCCMDR","img_art/27.jpg","0","","","","","","","","","","","","","","","","","","","","","","","","",""
"2519","","image-button-response","100","1044306","0.0-98.0-0.0","A35P5JYWFCCMDR","img_art/27.jpg","5","","","","","","","","","","","","","","","","","","","","","","","","",""
"3342","","image-button-response","101","1047657","0.0-99.0-0.0","A35P5JYWFCCMDR","img_art/27.jpg","0","","","","","","","","","","","","","","","","","","","","","","","","",""
"1216","","image-button-response","102","1052419","0.0-99.1-0.1","A35P5JYWFCCMDR","img_art/27.jpg","1","","","","","","","","","","","","","","","","","","","","","","","","",""
"null","","html-keyboard-response","103","1052938","0.0-100.0","A35P5JYWFCCMDR","<p style=""font-size: 48px;"">+</p>","","","","","null","allTrialResponses","500","1","8","img_art/27.jpg","-14","fall like","Lindsey,Kaylee,Rachel,Erika,Breanna,Emma","Looks like my niece's doodles.,-50,400,20","nice firestorm on desert,23,200,20","Color story is boring in nature, and I feel nothing but boredom from this piece.,-20,80,20","Nice color, but too vague,-12,100,20","Not too impressed with the work,6,380,20","Not sure how I feel about this. Messy, even for art. But good colors.,0,60,20","Lindsey","Looks like my niece's doodles.,-50,400,20","Emma","Not sure how I feel about this. Messy, even for art. But good colors.,0,60,20","Kaylee","nice firestorm on desert,23,200,20","6"
"18228","","survey-text","104","1071190","0.0-101.0-0.0","A35P5JYWFCCMDR","","","","{""Q0"":""They couldn't make up their minds what they wanted""}","","","","","","","","","","","","","","","","","","","","","","",""
"4571.699999988079","","image-slider-response","105","1075773","0.0-102.0","A35P5JYWFCCMDR","","","","","-17","","","","","","","","","","","","","","","","","","","","","",""
"3813","","image-button-response","106","1080797","0.0-103.0","A35P5JYWFCCMDR","img_art/1.jpg","3","","","","","","","","","","","","","","","","","","","","","","","","",""
"1497","","image-button-response","107","1082301","0.0-104.0","A35P5JYWFCCMDR","img_art/1.jpg","5","","","","","","","","","","","","","","","","","","","","","","","","",""
"1397","","image-button-response","108","1083706","0.0-105.0-0.0","A35P5JYWFCCMDR","img_art/1.jpg","0","","","","","","","","","","","","","","","","","","","","","","","","",""
"824","","image-button-response","109","1084536","0.0-106.0-0.0","A35P5JYWFCCMDR","img_art/1.jpg","1","","","","","","","","","","","","","","","","","","","","","","","","",""
"null","","html-keyboard-response","110","1085045","0.0-107.0","A35P5JYWFCCMDR","<p style=""font-size: 48px;"">+</p>","","","","","null","allTrialResponses","500","1","9","img_art/1.jpg","-17","They couldn't make up their minds what they wanted","Lindsey,Kaylee,Cynthia,Gabriela,Andrea,Emma","Not a fan of the colors. Makes me think of the Australian bush fires.,-5,400,20","a colorful piece of art,25,200,20","fishing on the lake surrounded by trees,42,320,20","This photo reminds me of a fall afternoon, serene,11,140,20","It just doesn't speak to me.,0,240,20","Pretty, nice use of color,40,60,20","Emma","Pretty, nice use of color,40,60,20","Lindsey","Not a fan of the colors. Makes me think of the Australian bush fires.,-5,400,20","Kaylee","a colorful piece of art,25,200,20","6"
"15805","","survey-text","111","1100878","0.0-108.0-0.0","A35P5JYWFCCMDR","","","","{""Q0"":""What is this supposed to be""}","","","","","","","","","","","","","","","","","","","","","","",""
"5200.800000011921","","image-slider-response","112","1106092","0.0-109.0","A35P5JYWFCCMDR","","","","","-26","","","","","","","","","","","","","","","","","","","","","",""
"4268","","image-button-response","113","1111101","0.0-110.0","A35P5JYWFCCMDR","img_art/5.jpg","4","","","","","","","","","","","","","","","","","","","","","","","","",""
"177","","image-button-response","114","1111285","0.0-111.0","A35P5JYWFCCMDR","img_art/5.jpg","4","","","","","","","","","","","","","","","","","","","","","","","","",""
"1590","","image-button-response","115","1112881","0.0-112.0-0.0","A35P5JYWFCCMDR","img_art/5.jpg","5","","","","","","","","","","","","","","","","","","","","","","","","",""
"3069","","image-button-response","116","1115957","0.0-113.0-0.0","A35P5JYWFCCMDR","img_art/5.jpg","2","","","","","","","","","","","","","","","","","","","","","","","","",""
"null","","html-keyboard-response","117","1117475","0.0-114.0","A35P5JYWFCCMDR","<p style=""font-size: 48px;"">+</p>","","","","","null","allTrialResponses","1500","1","10","img_art/5.jpg","-26","What is this supposed to be","Lindsey,Kaylee,Destiny,Cheyenne,Sophia,Emma","Black bit reminds me of a giant splinter. Yellow bit reminds me of urine. I hate it.,-50,400,20","a volcano erruption,21,200,20","Just doesn't do a whole lot for me. I see Cinderellas broom,-11,360,20","Very little going on.,-4,200,20","Looks like a tied up trash bag.,-10,280,20","Kind of ugly ....,-21,60,20","Sophia","Looks like a tied up trash bag.,-10,280,20","Emma","Kind of ugly ....,-21,60,20","Destiny","Just doesn't do a whole lot for me. I see Cinderellas broom,-11,360,20","6"
"3572","","survey-text","118","1121085","0.0-115.0-0.0","A35P5JYWFCCMDR","","","","{""Q0"":""our""}","","","","","","","","","","","","","","","","","","","","","","",""
"5092","","survey-text","119","1126188","0.0-116.0-0.0","A35P5JYWFCCMDR","","","","{""Q0"":""cute""}","","","","","","","","","","","","","","","","","","","","","","",""
"11616","","survey-text","120","1140188","0.0-116.1-0.1","A35P5JYWFCCMDR","","","","{""Q0"":""victorian scene""}","","","","","","","","","","","","","","","","","","","","","","",""
"9200.59999999404","","image-slider-response","121","1149395","0.0-117.0","A35P5JYWFCCMDR","","","","","15","","","","","","","","","","","","","","","","","","","","","",""
"4496","","image-button-response","122","1154415","0.0-118.0","A35P5JYWFCCMDR","img_art/26.jpg","4","","","","","","","","","","","","","","","","","","","","","","","","",""
"1232","","image-button-response","123","1155653","0.0-119.0","A35P5JYWFCCMDR","img_art/26.jpg","2","","","","","","","","","","","","","","","","","","","","","","","","",""
"798","","image-button-response","124","1156459","0.0-120.0-0.0","A35P5JYWFCCMDR","img_art/26.jpg","0","","","","","","","","","","","","","","","","","","","","","","","","",""
"1852","","image-button-response","125","1158317","0.0-121.0-0.0","A35P5JYWFCCMDR","img_art/26.jpg","0","","","","","","","","","","","","","","","","","","","","","","","","",""
"642","","image-button-response","126","1162878","0.0-121.1-0.1","A35P5JYWFCCMDR","img_art/26.jpg","4","","","","","","","","","","","","","","","","","","","","","","","","",""
"null","","html-keyboard-response","127","1164393","0.0-122.0","A35P5JYWFCCMDR","<p style=""font-size: 48px;"">+</p>","","","","","null","allTrialResponses","1500","1","11","img_art/26.jpg","15","victorian scene","Alicia,Isabella,Destiny,Erica,Sophia,Emma","I like the simple watercolor colors, makes my mind work, thumbs up.,27,120,20","Colors are full and reminds me of a messy room,-9,280,20","I really love pastels and they're just being dimmed down too much here,-3,360,20","very relaxing and easy going,22,80,20","I like this. Looks like a city street and I can use my imagination to make it come alive.,15,280,20","Looks unfinished,-31,60,20","Destiny","I really love pastels and they're just being dimmed down too much here,-3,360,20","Alicia","I like the simple watercolor colors, makes my mind work, thumbs up.,27,120,20","Sophia","I like this. Looks like a city street and I can use my imagination to make it come alive.,15,280,20","8"
"16665","","survey-text","128","1181085","0.0-123.0-0.0","A35P5JYWFCCMDR","","","","{""Q0"":""looks like scribbling""}","","","","","","","","","","","","","","","","","","","","","","",""
"3892.699999988079","","image-slider-response","129","1184987","0.0-124.0","A35P5JYWFCCMDR","","","","","-31","","","","","","","","","","","","","","","","","","","","","",""
"null","","image-button-response","130","1190000","0.0-125.0","A35P5JYWFCCMDR","img_art/9.jpg","null","","","","","","","","","","","","","","","","","","","","","","","","",""
"751","","image-button-response","131","1190756","0.0-126.0","A35P5JYWFCCMDR","img_art/9.jpg","4","","","","","","","","","","","","","","","","","","","","","","","","",""
"4651","","image-button-response","132","1195414","0.0-127.0-0.0","A35P5JYWFCCMDR","img_art/9.jpg","2","","","","","","","","","","","","","","","","","","","","","","","","",""
"4081","","image-button-response","133","1199503","0.0-128.0-0.0","A35P5JYWFCCMDR","img_art/9.jpg","0","","","","","","","","","","","","","","","","","","","","","","","","",""
"null","","html-keyboard-response","134","1201020","0.0-129.0","A35P5JYWFCCMDR","<p style=""font-size: 48px;"">+</p>","","","","","null","allTrialResponses","1500","1","12","img_art/9.jpg","-31","looks like scribbling","Alicia,Briana,Destiny,Mackenzie,Sophia,Amanda","Abstract titanic scene. It's nice though. I like how it makes me feel.,28,120,20","I see a foot. Idk colors are pleasant,12,400,20","is that sleeping beauty,33,360,20","I enjoy the design, but the colors look waxy,-7,20,20","Yikes. I'm not sure what to make of this one.,-14,280,20","Makes me feel angry, its not very clear,-50,180,20","Sophia","Yikes. I'm not sure what to make of this one.,-14,280,20","Destiny","is that sleeping beauty,33,360,20","Alicia","Abstract titanic scene. It's nice though. I like how it makes me feel.,28,120,20","8"
"10875","","survey-text","135","1211925","0.0-130.0-0.0","A35P5JYWFCCMDR","","","","{""Q0"":""pretty cool pic""}","","","","","","","","","","","","","","","","","","","","","","",""
"4457.899999976158","","image-slider-response","136","1216394","0.0-131.0","A35P5JYWFCCMDR","","","","","27","","","","","","","","","","","","","","","","","","","","","",""
"4412","","image-button-response","137","1221403","0.0-132.0","A35P5JYWFCCMDR","img_art/8.jpg","1","","","","","","","","","","","","","","","","","","","","","","","","",""
"1544","","image-button-response","138","1222950","0.0-133.0","A35P5JYWFCCMDR","img_art/8.jpg","3","","","","","","","","","","","","","","","","","","","","","","","","",""
"981","","image-button-response","139","1223939","0.0-134.0-0.0","A35P5JYWFCCMDR","img_art/8.jpg","4","","","","","","","","","","","","","","","","","","","","","","","","",""
"5178","","image-button-response","140","1229126","0.0-135.0-0.0","A35P5JYWFCCMDR","img_art/8.jpg","5","","","","","","","","","","","","","","","","","","","","","","","","",""
"null","","html-keyboard-response","141","1230144","0.0-136.0","A35P5JYWFCCMDR","<p style=""font-size: 48px;"">+</p>","","","","","null","allTrialResponses","1000","1","13","img_art/8.jpg","27","pretty cool pic","Alicia,Katie,Destiny,Katherine,Sophia,Makayla","wow. blocky, angled, neat colors. The faces are what makes it. love it.,45,120,20","I like the colors. But I don't like the faces, they look distraught. Faces and sharp shapes make me anxious,1,160,20","a cute little cute with some protectors,25,360,20","This is really cool, I love the fragments of faces,38,120,20","Interesting but it has a bit of a dark feel to it.,6,280,20","I see water and structures that resemble Ancient Rome,15,80,20","Katherine","This is really cool, I love the fragments of faces,38,120,20","Sophia","Interesting but it has a bit of a dark feel to it.,6,280,20","Makayla","I see water and structures that resemble Ancient Rome,15,80,20","8"
"11871","","survey-text","142","1242046","0.0-137.0-0.0","A35P5JYWFCCMDR","","","","{""Q0"":""fireworks""}","","","","","","","","","","","","","","","","","","","","","","",""
"3513.699999988079","","image-slider-response","143","1245571","0.0-138.0","A35P5JYWFCCMDR","","","","","14","","","","","","","","","","","","","","","","","","","","","",""
"4222","","image-button-response","144","1250587","0.0-139.0","A35P5JYWFCCMDR","img_art/23.jpg","3","","","","","","","","","","","","","","","","","","","","","","","","",""
"678","","image-button-response","145","1251271","0.0-140.0","A35P5JYWFCCMDR","img_art/23.jpg","4","","","","","","","","","","","","","","","","","","","","","","","","",""
"3328","","image-button-response","146","1254605","0.0-141.0-0.0","A35P5JYWFCCMDR","img_art/23.jpg","0","","","","","","","","","","","","","","","","","","","","","","","","",""
"2230","","image-button-response","147","1256843","0.0-142.0-0.0","A35P5JYWFCCMDR","img_art/23.jpg","3","","","","","","","","","","","","","","","","","","","","","","","","",""
"null","","html-keyboard-response","148","1257857","0.0-143.0","A35P5JYWFCCMDR","<p style=""font-size: 48px;"">+</p>","","","","","null","allTrialResponses","1000","1","14","img_art/23.jpg","14","fireworks","Hannah,Anna,Melissa,Katherine,Sophia,Makayla","This one is interesting. Looks like people with maybe musical instruments?,11,240,20","I love the colors and the contrast.,50,300,20","do not like color splatters or sharp silhouettes, feels tacky,-34,240,20","This one is awesome, kinda looks like a cake with sprinkles but in a different universe,50,120,20","I like the contrast and the bright colors in this one.,6,280,20","Reminds me of disco/70's, not my favorite design,-12,80,20","Sophia","I like the contrast and the bright colors in this one.,6,280,20","Hannah","This one is interesting. Looks like people with maybe musical instruments?,11,240,20","Katherine","This one is awesome, kinda looks like a cake with sprinkles but in a different universe,50,120,20","8"
"11669","","survey-text","149","1269560","0.0-144.0-0.0","A35P5JYWFCCMDR","","","","{""Q0"":""limbs and leaves""}","","","","","","","","","","","","","","","","","","","","","","",""
"9604.40000000596","","image-slider-response","150","1279173","0.0-145.0","A35P5JYWFCCMDR","","","","","12","","","","","","","","","","","","","","","","","","","","","",""
"2360","","image-button-response","151","1284185","0.0-146.0","A35P5JYWFCCMDR","img_art/15.jpg","0","","","","","","","","","","","","","","","","","","","","","","","","",""
"836","","image-button-response","152","1285028","0.0-147.0","A35P5JYWFCCMDR","img_art/15.jpg","5","","","","","","","","","","","","","","","","","","","","","","","","",""
"2251","","image-button-response","153","1287287","0.0-148.0-0.0","A35P5JYWFCCMDR","img_art/15.jpg","4","","","","","","","","","","","","","","","","","","","","","","","","",""
"2233","","image-button-response","154","1289527","0.0-149.0-0.0","A35P5JYWFCCMDR","img_art/15.jpg","3","","","","","","","","","","","","","","","","","","","","","","","","",""
"null","","html-keyboard-response","155","1290541","0.0-150.0","A35P5JYWFCCMDR","<p style=""font-size: 48px;"">+</p>","","","","","null","allTrialResponses","1000","1","15","img_art/15.jpg","12","limbs and leaves","Hannah,Kristen,Ashley,Katherine,Sophia,Brittany","Like this for the colors and arrangement.,11,240,20","darkness, hatred, fear,-29,280,20","I think of birds, nature, levels of space.,18,320,20","black dots too ant-like,-25,120,20","I feel like there's ski jumping going on here.,2,280,20","Color scheme and design are rather boring.,-10,40,20","Brittany","Color scheme and design are rather boring.,-10,40,20","Sophia","I feel like there's ski jumping going on here.,2,280,20","Katherine","black dots too ant-like,-25,120,20","8"
"4661","","survey-text","156","1295249","0.0-151.0-0.0","A35P5JYWFCCMDR","","","","{""Q0"":""course""}","","","","","","","","","","","","","","","","","","","","","","",""
"19192","","survey-text","157","1314445","0.0-152.0-0.0","A35P5JYWFCCMDR","","","","{""Q0"":""looks like a palm tree in the desert""}","","","","","","","","","","","","","","","","","","","","","","",""
"8366.5","","image-slider-response","158","1322824","0.0-153.0","A35P5JYWFCCMDR","","","","","22","","","","","","","","","","","","","","","","","","","","","",""
"4575","","image-button-response","159","1327841","0.0-154.0","A35P5JYWFCCMDR","img_art/6.jpg","5","","","","","","","","","","","","","","","","","","","","","","","","",""
"325","","image-button-response","160","1328171","0.0-155.0","A35P5JYWFCCMDR","img_art/6.jpg","2","","","","","","","","","","","","","","","","","","","","","","","","",""
"1492","","image-button-response","161","1329670","0.0-156.0-0.0","A35P5JYWFCCMDR","img_art/6.jpg","0","","","","","","","","","","","","","","","","","","","","","","","","",""
"959","","image-button-response","162","1330637","0.0-157.0-0.0","A35P5JYWFCCMDR","img_art/6.jpg","3","","","","","","","","","","","","","","","","","","","","","","","","",""
"null","","html-keyboard-response","163","1332149","0.0-158.0","A35P5JYWFCCMDR","<p style=""font-size: 48px;"">+</p>","","","","","null","allTrialResponses","1500","1","16","img_art/6.jpg","22","looks like a palm tree in the desert","Jenna,Alexandria,Caroline,Katherine,Sophia,Brittany","I like the bottom half, but not the top,-7,360,20","i like it but it is very neutral,9,80,20","Lonely and kinda sad,-25,100,20","This could be so many different things. I saw a bird first but then it looks like a needle going into skin,34,120,20","It's okay. It kind of looks like a bird with his head buried in his feathers.,2,280,20","It's alright. I imagined the peach from James and the Giant Peach.,1,40,20","Caroline","Lonely and kinda sad,-25,100,20","Jenna","I like the bottom half, but not the top,-7,360,20","Katherine","This could be so many different things. I saw a bird first but then it looks like a needle going into skin,34,120,20","8"
"12324","","survey-text","164","1344506","0.0-159.0-0.0","A35P5JYWFCCMDR","","","","{""Q0"":""old man and child""}","","","","","","","","","","","","","","","","","","","","","","",""
"3948.4000000059605","","image-slider-response","165","1348462","0.0-160.0","A35P5JYWFCCMDR","","","","","18","","","","","","","","","","","","","","","","","","","","","",""
"4243","","image-button-response","166","1353473","0.0-161.0","A35P5JYWFCCMDR","img_art/28.jpg","0","","","","","","","","","","","","","","","","","","","","","","","","",""
"549","","image-button-response","167","1354025","0.0-162.0","A35P5JYWFCCMDR","img_art/28.jpg","1","","","","","","","","","","","","","","","","","","","","","","","","",""
"1292","","image-button-response","168","1355323","0.0-163.0-0.0","A35P5JYWFCCMDR","img_art/28.jpg","0","","","","","","","","","","","","","","","","","","","","","","","","",""
"973","","image-button-response","169","1356304","0.0-164.0-0.0","A35P5JYWFCCMDR","img_art/28.jpg","2","","","","","","","","","","","","","","","","","","","","","","","","",""
"null","","html-keyboard-response","170","1357813","0.0-165.0","A35P5JYWFCCMDR","<p style=""font-size: 48px;"">+</p>","","","","","null","allTrialResponses","1500","1","17","img_art/28.jpg","18","old man and child","Jenna,Molly,Caroline,Katherine,Jacqueline,Madeline","looks like humanoid figures in distress. I like it, but makes me slightly uncomfortable,35,360,20","This painting is mysterious, it makes me curious.,5,340,20","Colors are pleasing. Made me think of two people kneeling and talking. A curious feeling.,15,100,20","Eh it's just kinda brown and muddy and not very nice looking,-18,120,20","I don't like the washed out colors.,-15,300,20","It is a bit drab,-10,40,20","Molly","This painting is mysterious, it makes me curious.,5,340,20","Jenna","looks like humanoid figures in distress. I like it, but makes me slightly uncomfortable,35,360,20","Caroline","Colors are pleasing. Made me think of two people kneeling and talking. A curious feeling.,15,100,20","8"
"9273","","survey-text","171","1367098","0.0-166.0-0.0","A35P5JYWFCCMDR","","","","{""Q0"":""pretty cute""}","","","","","","","","","","","","","","","","","","","","","","",""
"3611.7000000178814","","image-slider-response","172","1370716","0.0-167.0","A35P5JYWFCCMDR","","","","","21","","","","","","","","","","","","","","","","","","","","","",""
"null","","image-button-response","173","1375724","0.0-168.0","A35P5JYWFCCMDR","img_art/16.jpg","null","","","","","","","","","","","","","","","","","","","","","","","","",""
"1022","","image-button-response","174","1376752","0.0-169.0","A35P5JYWFCCMDR","img_art/16.jpg","4","","","","","","","","","","","","","","","","","","","","","","","","",""
"2506","","image-button-response","175","1379265","0.0-170.0-0.0","A35P5JYWFCCMDR","img_art/16.jpg","3","","","","","","","","","","","","","","","","","","","","","","","","",""
"1683","","image-button-response","176","1380959","0.0-171.0-0.0","A35P5JYWFCCMDR","img_art/16.jpg","5","","","","","","","","","","","","","","","","","","","","","","","","",""
"null","","html-keyboard-response","177","1382467","0.0-172.0","A35P5JYWFCCMDR","<p style=""font-size: 48px;"">+</p>","","","","","null","allTrialResponses","1500","1","18","img_art/16.jpg","21","pretty cute","Jenna,Molly,Caroline,Haley,Mary,Shelby","very bizarre and confusing, but that feels purposeful, so i don't completely hate it.,-25,360,20","It's frightening.,30,340,20","Did not like at all. I think something sinister going on in the background and the bear a diversion,-50,100,20","Makes me want to know more,5,220,20","This is a neat piece. Sort of shocking. I think it's too monochromatic though.,19,180,20","This feels like images of a painful childhood,-50,240,20","Mary","This is a neat piece. Sort of shocking. I think it's too monochromatic though.,19,180,20","Haley","Makes me want to know more,5,220,20","Shelby","This feels like images of a painful childhood,-50,240,20","8"
"17046","","survey-text","178","1399543","0.0-173.0-0.0","A35P5JYWFCCMDR","","","","{""Q0"":""boat in a storm""}","","","","","","","","","","","","","","","","","","","","","","",""
"3804.199999988079","","image-slider-response","179","1403356","0.0-174.0","A35P5JYWFCCMDR","","","","","22","","","","","","","","","","","","","","","","","","","","","",""
"4574","","image-button-response","180","1408371","0.0-175.0","A35P5JYWFCCMDR","img_art/18.jpg","2","","","","","","","","","","","","","","","","","","","","","","","","",""
"1816","","image-button-response","181","1410191","0.0-176.0","A35P5JYWFCCMDR","img_art/18.jpg","0","","","","","","","","","","","","","","","","","","","","","","","","",""
"1282","","image-button-response","182","1411476","0.0-177.0-0.0","A35P5JYWFCCMDR","img_art/18.jpg","2","","","","","","","","","","","","","","","","","","","","","","","","",""
"1008","","image-button-response","183","1412487","0.0-178.0-0.0","A35P5JYWFCCMDR","img_art/18.jpg","3","","","","","","","","","","","","","","","","","","","","","","","","",""
"null","","html-keyboard-response","184","1412998","0.0-179.0","A35P5JYWFCCMDR","<p style=""font-size: 48px;"">+</p>","","","","","null","allTrialResponses","500","1","19","img_art/18.jpg","22","boat in a storm","Julia,Marissa,Savannah,Haley,Mary,Shelby","Very classy, I feel like it's the apocalypse.,25,40,20","This brings to mind the four horsemen of the apocalypse,8,160,20","Accents make this piece.,21,200,20","I could stare at this for long stretches of time and still find new details. I love it.,40,220,20","I like the expression of this piece. The colors are very outdated though.,-5,180,20","This gives a very ominous feeling,-30,240,20","Julia","Very classy, I feel like it's the apocalypse.,25,40,20","Savannah","Accents make this piece.,21,200,20","Haley","I could stare at this for long stretches of time and still find new details. I love it.,40,220,20","8"
"14932","","survey-text","185","1427964","0.0-180.0-0.0","A35P5JYWFCCMDR","","","","{""Q0"":""looks like a dump""}","","","","","","","","","","","","","","","","","","","","","","",""
"3910.9000000059605","","image-slider-response","186","1431887","0.0-181.0","A35P5JYWFCCMDR","","","","","9","","","","","","","","","","","","","","","","","","","","","",""
"2002","","image-button-response","187","1436903","0.0-182.0","A35P5JYWFCCMDR","img_art/29.jpg","3","","","","","","","","","","","","","","","","","","","","","","","","",""
"174","","image-button-response","188","1437083","0.0-183.0","A35P5JYWFCCMDR","img_art/29.jpg","1","","","","","","","","","","","","","","","","","","","","","","","","",""
"869","","image-button-response","189","1437959","0.0-184.0-0.0","A35P5JYWFCCMDR","img_art/29.jpg","2","","","","","","","","","","","","","","","","","","","","","","","","",""
"2114","","image-button-response","190","1440082","0.0-185.0-0.0","A35P5JYWFCCMDR","img_art/29.jpg","4","","","","","","","","","","","","","","","","","","","","","","","","",""
"null","","html-keyboard-response","191","1441596","0.0-186.0","A35P5JYWFCCMDR","<p style=""font-size: 48px;"">+</p>","","","","","null","allTrialResponses","1500","1","20","img_art/29.jpg","9","looks like a dump","Julia,Leslie,Savannah,Haley,Lauren,Alexis","it looks like a top-down battle arena,26,40,20","I can relate to the frustration this evokes.,20,380,20","Looks wrong. Like a real painting was vandalized.,-50,200,20","Looks messy, but not in appealing way,-20,220,20","Don't really like the red x. It gives the impression that this a discarded piece.,-10,340,20","The black color is great, but I'm really not a fan of this hectic style,-40,100,20","Leslie","I can relate to the frustration this evokes.,20,380,20","Savannah","Looks wrong. Like a real painting was vandalized.,-50,200,20","Lauren","Don't really like the red x. It gives the impression that this a discarded piece.,-10,340,20","8"
"3544","","survey-text","192","1445202","0.0-187.0-0.0","A35P5JYWFCCMDR","","","","{""Q0"":""we""}","","","","","","","","","","","","","","","","","","","","","","",""
"11649","","survey-text","193","1456856","0.0-188.0-0.0","A35P5JYWFCCMDR","","","","{""Q0"":""cruise ship at the dock""}","","","","","","","","","","","","","","","","","","","","","","",""
"3924.5999999940395","","image-slider-response","194","1460788","0.0-189.0","A35P5JYWFCCMDR","","","","","14","","","","","","","","","","","","","","","","","","","","","",""
"4721","","image-button-response","195","1465805","0.0-190.0","A35P5JYWFCCMDR","img_art/11.jpg","0","","","","","","","","","","","","","","","","","","","","","","","","",""
"920","","image-button-response","196","1466730","0.0-191.0","A35P5JYWFCCMDR","img_art/11.jpg","3","","","","","","","","","","","","","","","","","","","","","","","","",""
"1388","","image-button-response","197","1468123","0.0-192.0-0.0","A35P5JYWFCCMDR","img_art/11.jpg","0","","","","","","","","","","","","","","","","","","","","","","","","",""
"1183","","image-button-response","198","1469315","0.0-193.0-0.0","A35P5JYWFCCMDR","img_art/11.jpg","5","","","","","","","","","","","","","","","","","","","","","","","","",""
"null","","html-keyboard-response","199","1470332","0.0-194.0","A35P5JYWFCCMDR","<p style=""font-size: 48px;"">+</p>","","","","","null","allTrialResponses","1000","1","21","img_art/11.jpg","14","cruise ship at the dock","Jasmine,Leslie,Savannah,Natalie,Lauren,Danielle","Reminds me of a city on a grey/rainy winter's day,25,340,20","This elicits no reaction in me.,0,380,20","Not quite as abstract as I'd like- It's clearly a dingy city.,-18,200,20","pic looks alright,8,400,20","I like how this piece can be interpreted in different ways, such as a village on hilly terrain.,10,340,20","Reminds me of some of post-apocalyptic view of street lights or maybe a city,30,340,20","Natalie","pic looks alright,8,400,20","Jasmine","Reminds me of a city on a grey/rainy winter's day,25,340,20","Danielle","Reminds me of some of post-apocalyptic view of street lights or maybe a city,30,340,20","8"
"8743","","survey-text","200","1479112","0.0-195.0-0.0","A35P5JYWFCCMDR","","","","{""Q0"":""rollercoaster""}","","","","","","","","","","","","","","","","","","","","","","",""
"3792","","image-slider-response","201","1482912","0.0-196.0","A35P5JYWFCCMDR","","","","","14","","","","","","","","","","","","","","","","","","","","","",""
"4267","","image-button-response","202","1487923","0.0-197.0","A35P5JYWFCCMDR","img_art/10.jpg","0","","","","","","","","","","","","","","","","","","","","","","","","",""
"418","","image-button-response","203","1488346","0.0-198.0","A35P5JYWFCCMDR","img_art/10.jpg","2","","","","","","","","","","","","","","","","","","","","","","","","",""
"945","","image-button-response","204","1489298","0.0-199.0-0.0","A35P5JYWFCCMDR","img_art/10.jpg","0","","","","","","","","","","","","","","","","","","","","","","","","",""
"753","","image-button-response","205","1490058","0.0-200.0-0.0","A35P5JYWFCCMDR","img_art/10.jpg","3","","","","","","","","","","","","","","","","","","","","","","","","",""
"null","","html-keyboard-response","206","1491065","0.0-201.0","A35P5JYWFCCMDR","<p style=""font-size: 48px;"">+</p>","","","","","null","allTrialResponses","1000","1","22","img_art/10.jpg","14","rollercoaster","Jasmine,Angelica,Elizabeth,Natalie,Olivia,Danielle","It's okay but not giving me the strongest reaction,6,340,20","This is odd and ugly.,-9,280,20","Has an air of mystery around it,39,20,20","I see a rollercoaster,23,400,20","feeling the turmoil and ride,12,40,20","Seems very lovecraftian, which I love that style,25,340,20","Elizabeth","Has an air of mystery around it,39,20,20","Jasmine","It's okay but not giving me the strongest reaction,6,340,20","Natalie","I see a rollercoaster,23,400,20","8"
"12108","","survey-text","207","1503225","0.0-202.0-0.0","A35P5JYWFCCMDR","","","","{""Q0"":""waterfall very pretty""}","","","","","","","","","","","","","","","","","","","","","","",""
"4094.9000000059605","","image-slider-response","208","1507328","0.0-203.0","A35P5JYWFCCMDR","","","","","37","","","","","","","","","","","","","","","","","","","","","",""
"4410","","image-button-response","209","1512353","0.0-204.0","A35P5JYWFCCMDR","img_art/24.jpg","4","","","","","","","","","","","","","","","","","","","","","","","","",""
"929","","image-button-response","210","1513289","0.0-205.0","A35P5JYWFCCMDR","img_art/24.jpg","5","","","","","","","","","","","","","","","","","","","","","","","","",""
"1648","","image-button-response","211","1514943","0.0-206.0-0.0","A35P5JYWFCCMDR","img_art/24.jpg","0","","","","","","","","","","","","","","","","","","","","","","","","",""
"1291","","image-button-response","212","1516240","0.0-207.0-0.0","A35P5JYWFCCMDR","img_art/24.jpg","1","","","","","","","","","","","","","","","","","","","","","","","","",""
"null","","html-keyboard-response","213","1517752","0.0-208.0","A35P5JYWFCCMDR","<p style=""font-size: 48px;"">+</p>","","","","","null","allTrialResponses","1500","1","23","img_art/24.jpg","37","waterfall very pretty","Jasmine,Paige,Elizabeth,Natalie,Gabrielle,Vanessa","This one is nice because it reminds me of nature,18,340,20","somewhat happy. I like the colors,38,60,20","Evokes pleasant feelings,50,20,20","I like the waterfall,22,400,20","flowing water part is good, some of the rest is ok but dark,14,160,20","I love the colors, but I wish the water was less abstract.,17,380,20","Vanessa","I love the colors, but I wish the water was less abstract.,17,380,20","Jasmine","This one is nice because it reminds me of nature,18,340,20","Paige","somewhat happy. I like the colors,38,60,20","8"
"11466","","survey-text","214","1529258","0.0-209.0-0.0","A35P5JYWFCCMDR","","","","{""Q0"":""not digging this""}","","","","","","","","","","","","","","","","","","","","","","",""
"8313.300000011921","","image-slider-response","215","1537580","0.0-210.0","A35P5JYWFCCMDR","","","","","25","","","","","","","","","","","","","","","","","","","","","",""
"4837","","image-button-response","216","1542595","0.0-211.0","A35P5JYWFCCMDR","img_art/12.jpg","4","","","","","","","","","","","","","","","","","","","","","","","","",""
"2552","","image-button-response","217","1545154","0.0-212.0","A35P5JYWFCCMDR","img_art/12.jpg","5","","","","","","","","","","","","","","","","","","","","","","","","",""
"1305","","image-button-response","218","1546465","0.0-213.0-0.0","A35P5JYWFCCMDR","img_art/12.jpg","3","","","","","","","","","","","","","","","","","","","","","","","","",""
"1733","","image-button-response","219","1548206","0.0-214.0-0.0","A35P5JYWFCCMDR","img_art/12.jpg","1","","","","","","","","","","","","","","","","","","","","","","","","",""
"null","","html-keyboard-response","220","1549715","0.0-215.0","A35P5JYWFCCMDR","<p style=""font-size: 48px;"">+</p>","","","","","null","allTrialResponses","1500","1","24","img_art/12.jpg","25","not digging this","Jasmine,Paige,Allison,Sydney,Kayla,Vanessa","It's just not my style,-18,340,20","do not like it. Seems too busy,-10,60,20","Minimalist colors and shapes.,-5,140,20","I don't like the dark black with the bright colors, but this as a whole is nice.,25,320,20","Yay! Lots of people, lots of lives.,25,180,20","This is too abstract and the colors are too worn out.,-23,380,20","Vanessa","This is too abstract and the colors are too worn out.,-23,380,20","Sydney","I don't like the dark black with the bright colors, but this as a whole is nice.,25,320,20","Paige","do not like it. Seems too busy,-10,60,20","8"
"16319","","survey-text","221","1566064","0.0-216.0-0.0","A35P5JYWFCCMDR","","","","{""Q0"":""I am not sure what this is supposed to be.""}","","","","","","","","","","","","","","","","","","","","","","",""
"5151","","image-slider-response","222","1571225","0.0-217.0","A35P5JYWFCCMDR","","","","","5","","","","","","","","","","","","","","","","","","","","","",""
"4560","","image-button-response","223","1576233","0.0-218.0","A35P5JYWFCCMDR","img_art/21.jpg","4","","","","","","","","","","","","","","","","","","","","","","","","",""
"1915","","image-button-response","224","1578153","0.0-219.0","A35P5JYWFCCMDR","img_art/21.jpg","4","","","","","","","","","","","","","","","","","","","","","","","","",""
"1480","","image-button-response","225","1579640","0.0-220.0-0.0","A35P5JYWFCCMDR","img_art/21.jpg","2","","","","","","","","","","","","","","","","","","","","","","","","",""
"2516","","image-button-response","226","1582164","0.0-221.0-0.0","A35P5JYWFCCMDR","img_art/21.jpg","5","","","","","","","","","","","","","","","","","","","","","","","","",""
"null","","html-keyboard-response","227","1582673","0.0-222.0","A35P5JYWFCCMDR","<p style=""font-size: 48px;"">+</p>","","","","","null","allTrialResponses","500","1","25","img_art/21.jpg","5","I am not sure what this is supposed to be.","Kaitlyn,Paige,Dominique,Sydney,Bailey,Vanessa","The division in the picture is pleasing but the random white dots are distracting,12,80,20","the picture is boring,1,60,20","Love the colors have to say this is my favorite above all,37,400,20","I love everything about this piece.,50,320,20","Looks like two ships on fire. Cool image.,12,360,20","The colors and softness work together to make something that's lovely.,42,380,20","Bailey","Looks like two ships on fire. Cool image.,12,360,20","Dominique","Love the colors have to say this is my favorite above all,37,400,20","Vanessa","The colors and softness work together to make something that's lovely.,42,380,20","8"
"6315","","survey-text","228","1589064","0.0-223.0-0.0","A35P5JYWFCCMDR","","","","{""Q0"":""table""}","","","","","","","","","","","","","","","","","","","","","","",""
"8500","","survey-text","229","1597568","0.0-224.0-0.0","A35P5JYWFCCMDR","","","","{""Q0"":""fire and ice""}","","","","","","","","","","","","","","","","","","","","","","",""
"4669.5","","image-slider-response","230","1602242","0.0-225.0","A35P5JYWFCCMDR","","","","","13","","","","","","","","","","","","","","","","","","","","","",""
"3649","","image-button-response","231","1607260","0.0-226.0","A35P5JYWFCCMDR","img_art/30.jpg","3","","","","","","","","","","","","","","","","","","","","","","","","",""
"1802","","image-button-response","232","1609067","0.0-227.0","A35P5JYWFCCMDR","img_art/30.jpg","5","","","","","","","","","","","","","","","","","","","","","","","","",""
"1050","","image-button-response","233","1610122","0.0-228.0-0.0","A35P5JYWFCCMDR","img_art/30.jpg","3","","","","","","","","","","","","","","","","","","","","","","","","",""
"646","","image-button-response","234","1610775","0.0-229.0-0.0","A35P5JYWFCCMDR","img_art/30.jpg","0","","","","","","","","","","","","","","","","","","","","","","","","",""
"null","","html-keyboard-response","235","1611281","0.0-230.0","A35P5JYWFCCMDR","<p style=""font-size: 48px;"">+</p>","","","","","null","allTrialResponses","500","1","26","img_art/30.jpg","13","fire and ice","Kimberly,Kaitlin,Dominique,Mariah,Bailey,Vanessa","looks like eels,-20,260,20","the different roads to take in life,10,60,20","Personal , calming conservative signature business ideal.,32,400,20","It just feels hasty and not well composed. Has an angsty teen feel,-31,140,20","No my favorite, but I do like the long strokes of color,11,360,20","I like the red against the blue, but otherwise, it's not really my taste,4,380,20","Vanessa","I like the red against the blue, but otherwise, it's not really my taste,4,380,20","Mariah","It just feels hasty and not well composed. Has an angsty teen feel,-31,140,20","Kimberly","looks like eels,-20,260,20","8"
"13552","","survey-text","236","1624878","0.0-231.0-0.0","A35P5JYWFCCMDR","","","","{""Q0"":""bear tracks on the ground""}","","","","","","","","","","","","","","","","","","","","","","",""
"3223.5","","image-slider-response","237","1628106","0.0-232.0","A35P5JYWFCCMDR","","","","","17","","","","","","","","","","","","","","","","","","","","","",""
"3229","","image-button-response","238","1633124","0.0-233.0","A35P5JYWFCCMDR","img_art/7.jpg","4","","","","","","","","","","","","","","","","","","","","","","","","",""
"2193","","image-button-response","239","1635324","0.0-234.0","A35P5JYWFCCMDR","img_art/7.jpg","4","","","","","","","","","","","","","","","","","","","","","","","","",""
"3517","","image-button-response","240","1638848","0.0-235.0-0.0","A35P5JYWFCCMDR","img_art/7.jpg","0","","","","","","","","","","","","","","","","","","","","","","","","",""
"805","","image-button-response","241","1639660","0.0-236.0-0.0","A35P5JYWFCCMDR","img_art/7.jpg","3","","","","","","","","","","","","","","","","","","","","","","","","",""
"null","","html-keyboard-response","242","1640665","0.0-237.0","A35P5JYWFCCMDR","<p style=""font-size: 48px;"">+</p>","","","","","null","allTrialResponses","1000","1","27","img_art/7.jpg","17","bear tracks on the ground","Kimberly,Alexa,Amber,Mariah,Leah,Vanessa","Looks like a bad picture of a beach,-21,260,20","Not a fan of the pattern or colors,-40,40,20","Dull and confusing,-24,200,20","The dried bottom of a puddle in July.,-41,140,20","I love it, it looks like a landscape photograph in desert or rocky mountain,50,360,20","This is borning and lifeless.,-50,380,20","Leah","I love it, it looks like a landscape photograph in desert or rocky mountain,50,360,20","Kimberly","Looks like a bad picture of a beach,-21,260,20","Mariah","The dried bottom of a puddle in July.,-41,140,20","8"
"11723","","survey-text","243","1652425","0.0-238.0-0.0","A35P5JYWFCCMDR","","","","{""Q0"":""a tree next to a lake""}","","","","","","","","","","","","","","","","","","","","","","",""
"4472","","image-slider-response","244","1656906","0.0-239.0","A35P5JYWFCCMDR","","","","","29","","","","","","","","","","","","","","","","","","","","","",""
"4392","","image-button-response","245","1661918","0.0-240.0","A35P5JYWFCCMDR","img_art/14.jpg","4","","","","","","","","","","","","","","","","","","","","","","","","",""
"836","","image-button-response","246","1662759","0.0-241.0","A35P5JYWFCCMDR","img_art/14.jpg","3","","","","","","","","","","","","","","","","","","","","","","","","",""
"806","","image-button-response","247","1663573","0.0-242.0-0.0","A35P5JYWFCCMDR","img_art/14.jpg","4","","","","","","","","","","","","","","","","","","","","","","","","",""
"488","","image-button-response","248","1664069","0.0-243.0-0.0","A35P5JYWFCCMDR","img_art/14.jpg","0","","","","","","","","","","","","","","","","","","","","","","","","",""
"null","","html-keyboard-response","249","1664585","0.0-244.0","A35P5JYWFCCMDR","<p style=""font-size: 48px;"">+</p>","","","","","null","allTrialResponses","500","1","28","img_art/14.jpg","29","a tree next to a lake","Kimberly,Cassidy,Megan,Mariah,Leah,Chloe","In some ways it looks natural, but I'm just not feeling it,0,260,20","Meh. Pleasant to look at. Colors are nice,6,140,20","Baby's room palette with tree confusion in a more confused substrate.,-15,200,20","The lighting feels like spring.,20,140,20","I like the simplicity along with the colors,27,360,20","Like the brushstrokes but not the composition,9,220,20","Mariah","The lighting feels like spring.,20,140,20","Leah","I like the simplicity along with the colors,27,360,20","Kimberly","In some ways it looks natural, but I'm just not feeling it,0,260,20","8"
"7833","","survey-text","250","1672461","0.0-245.0-0.0","A35P5JYWFCCMDR","","","","{""Q0"":""love the colors""}","","","","","","","","","","","","","","","","","","","","","","",""
"3878.300000011921","","image-slider-response","251","1676343","0.0-246.0","A35P5JYWFCCMDR","","","","","34","","","","","","","","","","","","","","","","","","","","","",""
"4395","","image-button-response","252","1681352","0.0-247.0","A35P5JYWFCCMDR","img_art/25.jpg","4","","","","","","","","","","","","","","","","","","","","","","","","",""
"868","","image-button-response","253","1682226","0.0-248.0","A35P5JYWFCCMDR","img_art/25.jpg","4","","","","","","","","","","","","","","","","","","","","","","","","",""
"1352","","image-button-response","254","1683585","0.0-249.0-0.0","A35P5JYWFCCMDR","img_art/25.jpg","1","","","","","","","","","","","","","","","","","","","","","","","","",""
"892","","image-button-response","255","1684482","0.0-250.0-0.0","A35P5JYWFCCMDR","img_art/25.jpg","2","","","","","","","","","","","","","","","","","","","","","","","","",""
"null","","html-keyboard-response","256","1685999","0.0-251.0","A35P5JYWFCCMDR","<p style=""font-size: 48px;"">+</p>","","","","","null","allTrialResponses","1500","1","29","img_art/25.jpg","34","love the colors","Kimberly,Stephanie,Katelyn,Mariah,Leah,Sarah","Cult-like, which to me makes it kind of creepy,-21,260,20","It made me think of healing.,22,300,20","Creates a bit of fear in me for some reason,-26,100,20","The proportions are unpleasant.,-30,140,20","I really like it, very simple, very tribal,38,360,20","green is really cool, and the pieces in black fit together and are interesting,20,180,20","Leah","I really like it, very simple, very tribal,38,360,20","Stephanie","It made me think of healing.,22,300,20","Katelyn","Creates a bit of fear in me for some reason,-26,100,20","8"
"9752","","survey-text","257","1695791","0.0-252.0-0.0","A35P5JYWFCCMDR","","","","{""Q0"":""like contrasts""}","","","","","","","","","","","","","","","","","","","","","","",""
"5084.0999999940395","","image-slider-response","258","1700885","0.0-253.0","A35P5JYWFCCMDR","","","","","35","","","","","","","","","","","","","","","","","","","","","",""
"4757","","image-button-response","259","1705894","0.0-254.0","A35P5JYWFCCMDR","img_art/13.jpg","4","","","","","","","","","","","","","","","","","","","","","","","","",""
"763","","image-button-response","260","1706661","0.0-255.0","A35P5JYWFCCMDR","img_art/13.jpg","4","","","","","","","","","","","","","","","","","","","","","","","","",""
"2526","","image-button-response","261","1709192","0.0-256.0-0.0","A35P5JYWFCCMDR","img_art/13.jpg","5","","","","","","","","","","","","","","","","","","","","","","","","",""
"660","","image-button-response","262","1709860","0.0-257.0-0.0","A35P5JYWFCCMDR","img_art/13.jpg","3","","","","","","","","","","","","","","","","","","","","","","","","",""
"null","","html-keyboard-response","263","1710871","0.0-258.0","A35P5JYWFCCMDR","<p style=""font-size: 48px;"">+</p>","","","","","null","allTrialResponses","1000","1","30","img_art/13.jpg","35","like contrasts","Shannon,Stephanie,Katelyn,Abigail,Leah,Tiffany","It looks like someone splattered a bunch of different colors to make a picture; I think its ugly.,-40,220,20","Raindrops splashing on the window.,50,300,20","Really like this. Its like looking out a window into a beautiful storm,39,100,20","This is easy to look at,46,20,20","Like it a lot, reminds me of rainy day on glass,43,360,20","The painting makes me feel awe and like I am very little. Like I am alone at the bottom of the ocean.,41,360,20","Leah","Like it a lot, reminds me of rainy day on glass,43,360,20","Tiffany","The painting makes me feel awe and like I am very little. Like I am alone at the bottom of the ocean.,41,360,20","Abigail","This is easy to look at,46,20,20","8"
"3383","","image-button-response_instructions","264","1714290","0.0-259.0","A35P5JYWFCCMDR","","0","instructions","","","","","","","","","","","","","","","","","","","","","","","",""
"1340","","image-button-response","265","1715683","0.0-260.0","A35P5JYWFCCMDR","","0","","","","","","","","","","","","","","","","","","","","","","","","",""
