"rt","url","trial_type","trial_index","time_elapsed","internal_node_id","participant_id","stimulus","button_pressed","Name","responses","response","key_press","variableName","fixationTime","condition","trial","photo","subjectRating","subjectResponse","agentsNames","agent_1_Response","agent_2_Response","agent_3_Response","agent_4_Response","agent_5_Response","agent_6_Response","kept_1_name","kept_1_response","kept_2_name","kept_2_response","kept_3_name","kept_3_response","errorCounter"
"3508","external_page_harvard.html","external-html","0","3626","0.0-0.0","A35TUIBF05DKM4","","","","","","","","","","","","","","","","","","","","","","","","","","",""
"1111","","image-button-response","1","4738","0.0-1.0","A35TUIBF05DKM4","","0","","","","","","","","","","","","","","","","","","","","","","","","",""
"1745","","image-button-response","2","6487","0.0-2.0-0.0","A35TUIBF05DKM4","","1","phone","","","","","","","","","","","","","","","","","","","","","","","",""
"4796","","survey-text","3","11284","0.0-3.0-0.0","A35TUIBF05DKM4","","","","{""Q0"":""A35TUIBF05DKM4""}","","","","","","","","","","","","","","","","","","","","","","",""
"1670","","image-button-response_instructions","4","12955","0.0-4.0","A35TUIBF05DKM4","","0","instructions","","","","","","","","","","","","","","","","","","","","","","","",""
"11634","","image-button-response_instructions","5","24590","0.0-5.0","A35TUIBF05DKM4","img_art/ins/popularity/ins1.png","0","instructions","","","","","","","","","","","","","","","","","","","","","","","",""
"6219","","image-button-response_instructions","6","30811","0.0-6.0","A35TUIBF05DKM4","img_art/ins/popularity/ins2.png","0","instructions","","","","","","","","","","","","","","","","","","","","","","","",""
"3322","","image-button-response_instructions","7","34134","0.0-7.0","A35TUIBF05DKM4","img_art/ins/popularity/ins2Extreme.png","0","instructions","","","","","","","","","","","","","","","","","","","","","","","",""
"4458","","image-button-response_instructions","8","38594","0.0-8.0","A35TUIBF05DKM4","img_art/ins/popularity/ins3KEEPpop.PNG","0","instructions","","","","","","","","","","","","","","","","","","","","","","","",""
"3955","","image-button-response_instructions","9","42549","0.0-9.0","A35TUIBF05DKM4","img_art/ins/popularity/ins3ANamepop.PNG","0","instructions","","","","","","","","","","","","","","","","","","","","","","","",""
"2247","","image-button-response_instructions","10","44797","0.0-10.0","A35TUIBF05DKM4","img_art/ins/popularity/ins3ARatingpop.png","0","instructions","","","","","","","","","","","","","","","","","","","","","","","",""
"4097","","image-button-response_instructions","11","48895","0.0-11.0","A35TUIBF05DKM4","img_art/ins/popularity/ins3ATextpop.png","0","instructions","","","","","","","","","","","","","","","","","","","","","","","",""
"2560","","image-button-response_instructions","12","51456","0.0-12.0","A35TUIBF05DKM4","img_art/ins/popularity/ins3ALikespop.png","0","instructions","","","","","","","","","","","","","","","","","","","","","","","",""
"9098","","image-button-response_instructions","13","60555","0.0-13.0","A35TUIBF05DKM4","img_art/ins/popularity/ins3KEEPpop.PNG","0","instructions","","","","","","","","","","","","","","","","","","","","","","","",""
"1277","","image-button-response_instructions","14","61834","0.0-14.0","A35TUIBF05DKM4","img_art/ins/popularity/ins3_5RED.png","0","instructions","","","","","","","","","","","","","","","","","","","","","","","",""
"1288","","image-button-response_instructions","15","63122","0.0-15.0","A35TUIBF05DKM4","img_art/ins/popularity/ins3KEEPpop.PNG","0","instructions","","","","","","","","","","","","","","","","","","","","","","","",""
"840","","image-button-response_instructions","16","63963","0.0-16.0","A35TUIBF05DKM4","img_art/ins/popularity/ins4KEEPpop.PNG","0","instructions","","","","","","","","","","","","","","","","","","","","","","","",""
"1007","","image-button-response_instructions","17","64971","0.0-17.0","A35TUIBF05DKM4","img_art/ins/popularity/ins5KEEPpop.PNG","0","instructions","","","","","","","","","","","","","","","","","","","","","","","",""
"2458","","image-button-response_instructions","18","67429","0.0-18.0","A35TUIBF05DKM4","","0","instructions","","","","","","","","","","","","","","","","","","","","","","","",""
"7442","","survey-text","19","74892","0.0-19.0-0.0","A35TUIBF05DKM4","","","","{""Q0"":""but""}","","","","","","","","","","","","","","","","","","","","","","",""
"5595","","survey-text","20","80488","0.0-20.0-0.0","A35TUIBF05DKM4","","","","{""Q0"":""messy looking.""}","","","","","","","","","","","","","","","","","","","","","","",""
"2228","","image-slider-response","21","82718","0.0-21.0","A35TUIBF05DKM4","","","","","-19","","","","","","","","","","","","","","","","","","","","","",""
"null","","image-button-response","22","87732","0.0-22.0","A35TUIBF05DKM4","img_art/ins/1.jpg","null","","","","","","","","","","","","","","","","","","","","","","","","",""
"3036","","image-button-response","23","90769","0.0-23.0","A35TUIBF05DKM4","img_art/ins/1.jpg","4","","","","","","","","","","","","","","","","","","","","","","","","",""
"942","","image-button-response","24","91712","0.0-24.0-0.0","A35TUIBF05DKM4","img_art/ins/1.jpg","0","","","","","","","","","","","","","","","","","","","","","","","","",""
"547","","image-button-response","25","92262","0.0-25.0-0.0","A35TUIBF05DKM4","img_art/ins/1.jpg","2","","","","","","","","","","","","","","","","","","","","","","","","",""
"null","","html-keyboard-response","26","93772","0.0-26.0","A35TUIBF05DKM4","<p style=""font-size: 48px;"">+</p>","","","","","null","allTrialResponses","1500","1","-2","img_art/ins/1.jpg","-19","messy looking.","Adam,Alex,Ben,Carl,Daniel,Jack","Seems like doodles,-20,20,20","very creative work.,36,40,20","This color reminds me of poo,-46,60,20","very calming artwork,42,80,20","It looks like a murder scene.,-48,100,20","I like the sophisticated brushwork,40,120,20","Daniel","It looks like a murder scene.,-48,100,20","Adam","Seems like doodles,-20,20,20","Ben","This color reminds me of poo,-46,60,20","0"
"14659","","survey-text","27","108437","0.0-27.0-0.0","A35TUIBF05DKM4","","","","{""Q0"":""chaos mess""}","","","","","","","","","","","","","","","","","","","","","","",""
"1760","","image-slider-response","28","110198","0.0-28.0","A35TUIBF05DKM4","","","","","-43","","","","","","","","","","","","","","","","","","","","","",""
"1346","","image-button-response","29","115203","0.0-29.0","A35TUIBF05DKM4","img_art/ins/2.jpg","4","","","","","","","","","","","","","","","","","","","","","","","","",""
"4143","","image-button-response","30","119348","0.0-30.0","A35TUIBF05DKM4","img_art/ins/2.jpg","2","","","","","","","","","","","","","","","","","","","","","","","","",""
"1129","","image-button-response","31","120479","0.0-31.0-0.0","A35TUIBF05DKM4","img_art/ins/2.jpg","5","","","","","","","","","","","","","","","","","","","","","","","","",""
"3312","","image-button-response","32","123792","0.0-32.0-0.0","A35TUIBF05DKM4","img_art/ins/2.jpg","5","","","","","","","","","","","","","","","","","","","","","","","","",""
"1067","","image-button-response","33","127724","0.0-32.1-0.1","A35TUIBF05DKM4","img_art/ins/2.jpg","4","","","","","","","","","","","","","","","","","","","","","","","","",""
"null","","html-keyboard-response","34","128733","0.0-33.0","A35TUIBF05DKM4","<p style=""font-size: 48px;"">+</p>","","","","","null","allTrialResponses","1000","1","-1","img_art/ins/2.jpg","-43","chaos mess","Adam,John,Ben,James,Daniel,Kyle","too much color,-18,20,20","love the texture of paint,48,160,20","meaningless painting,-45,60,20","looks too angry,-50,140,20","One of my pet peevs,-48,100,20","Idk, it is just annoying,-32,180,20","Ben","meaningless painting,-45,60,20","Kyle","Idk, it is just annoying,-32,180,20","Daniel","One of my pet peevs,-48,100,20","2"
"93691","","survey-text","35","222427","0.0-34.0-0.0","A35TUIBF05DKM4","","","","{""Q0"":""cold and wet""}","","","","","","","","","","","","","","","","","","","","","","",""
"2568","","image-slider-response","36","224998","0.0-35.0","A35TUIBF05DKM4","","","","","-9","","","","","","","","","","","","","","","","","","","","","",""
"null","","image-button-response","37","230022","0.0-36.0","A35TUIBF05DKM4","img_art/ins/3.jpg","null","","","","","","","","","","","","","","","","","","","","","","","","",""
"11067","","image-button-response","38","241090","0.0-37.0","A35TUIBF05DKM4","img_art/ins/3.jpg","1","","","","","","","","","","","","","","","","","","","","","","","","",""
"392","","image-button-response","39","241483","0.0-38.0-0.0","A35TUIBF05DKM4","img_art/ins/3.jpg","2","","","","","","","","","","","","","","","","","","","","","","","","",""
"400","","image-button-response","40","241884","0.0-39.0-0.0","A35TUIBF05DKM4","img_art/ins/3.jpg","4","","","","","","","","","","","","","","","","","","","","","","","","",""
"null","","html-keyboard-response","41","242893","0.0-40.0","A35TUIBF05DKM4","<p style=""font-size: 48px;"">+</p>","","","","","null","allTrialResponses","1000","1","0","img_art/ins/3.jpg","-9","cold and wet","Sam,Ron,Ben,Mike,Daniel,Kyle","I can feel a rainy day from this painting,18,240,20","It looks depressing,-26,220,20","This thing gives me anxiety,-41,60,20","enjoy the different shades of blue,22,200,20","looks like a murder room,-35,100,20","It looks like a playground for bats,-36,180,20","Ron","It looks depressing,-26,220,20","Ben","This thing gives me anxiety,-41,60,20","Daniel","looks like a murder room,-35,100,20","2"
"4520","","image-button-response_instructions","42","247418","0.0-41.0","A35TUIBF05DKM4","","0","instructions","","","","","","","","","","","","","","","","","","","","","","","",""
"16538","","survey-likert","43","263958","0.0-42.0-0.0","A35TUIBF05DKM4","","","","{""Q0"":"""",""Q1"":0,""Q2"":0}","","","","","","","","","","","","","","","","","","","","","","",""
"4551","","survey-likert","44","273048","0.0-42.1-0.1","A35TUIBF05DKM4","","","","{""Q0"":"""",""Q1"":0,""Q2"":1}","","","","","","","","","","","","","","","","","","","","","","",""
"4964","","survey-text","45","278017","0.0-43.0-0.0","A35TUIBF05DKM4","","","","{""Q0"":""rock""}","","","","","","","","","","","","","","","","","","","","","","",""
"6634","","survey-text","46","284652","0.0-44.0-0.0","A35TUIBF05DKM4","","","","{""Q0"":""rainbow mess""}","","","","","","","","","","","","","","","","","","","","","","",""
"1437","","image-slider-response","47","286090","0.0-45.0","A35TUIBF05DKM4","","","","","-26","","","","","","","","","","","","","","","","","","","","","",""
"4955","","image-button-response","48","291102","0.0-46.0","A35TUIBF05DKM4","img_art/1.jpg","0","","","","","","","","","","","","","","","","","","","","","","","","",""
"1391","","image-button-response","49","292496","0.0-47.0","A35TUIBF05DKM4","img_art/1.jpg","2","","","","","","","","","","","","","","","","","","","","","","","","",""
"442","","image-button-response","50","292939","0.0-48.0-0.0","A35TUIBF05DKM4","img_art/1.jpg","3","","","","","","","","","","","","","","","","","","","","","","","","",""
"1886","","image-button-response","51","294826","0.0-49.0-0.0","A35TUIBF05DKM4","img_art/1.jpg","0","","","","","","","","","","","","","","","","","","","","","","","","",""
"null","","html-keyboard-response","52","296333","0.0-50.0","A35TUIBF05DKM4","<p style=""font-size: 48px;"">+</p>","","","","","null","allTrialResponses","1500","1","1","img_art/1.jpg","-26","rainbow mess","Juan,Jonathan,Blake,Brett,Cole,Matthew","I don't like how this one makes me feel.,-32,260,20","I love the colors but it's too intense sometimes,22,140,20","colors that are fairly warm. its ok,8,280,20","I don't know how I feel about this,1,360,20","I like the colors. But it doesnt look like anything,27,200,20","More passable, colorful, abstract.,13,120,20","Blake","colors that are fairly warm. its ok,8,280,20","Brett","I don't know how I feel about this,1,360,20","Juan","I don't like how this one makes me feel.,-32,260,20","3"
"18739","","survey-text","53","315075","0.0-51.0-0.0","A35TUIBF05DKM4","","","","{""Q0"":""sloppy paint""}","","","","","","","","","","","","","","","","","","","","","","",""
"2649","","image-slider-response","54","317725","0.0-52.0","A35TUIBF05DKM4","","","","","-23","","","","","","","","","","","","","","","","","","","","","",""
"1056","","image-button-response","55","322732","0.0-53.0","A35TUIBF05DKM4","img_art/2.jpg","2","","","","","","","","","","","","","","","","","","","","","","","","",""
"490","","image-button-response","56","323223","0.0-54.0","A35TUIBF05DKM4","img_art/2.jpg","0","","","","","","","","","","","","","","","","","","","","","","","","",""
"673","","image-button-response","57","323896","0.0-55.0-0.0","A35TUIBF05DKM4","img_art/2.jpg","2","","","","","","","","","","","","","","","","","","","","","","","","",""
"3131","","image-button-response","58","327029","0.0-56.0-0.0","A35TUIBF05DKM4","img_art/2.jpg","1","","","","","","","","","","","","","","","","","","","","","","","","",""
"null","","html-keyboard-response","59","327532","0.0-57.0","A35TUIBF05DKM4","<p style=""font-size: 48px;"">+</p>","","","","","null","allTrialResponses","500","1","2","img_art/2.jpg","-23","sloppy paint","Juan,Justin,Blake,Brett,John,Logan","I don't like the abstract nature of this painting or the colors used.,-50,260,20","This one feels rather flat and not engaging.,-15,280,20","ugly green color and makes me sick,-29,280,20","Not very appealing,-5,360,20","Its meh. Doesnt illicit any strong feelings in me,1,120,20","omg she's so cute look at that little smile those eyelashes ugh love it,30,360,20","Juan","I don't like the abstract nature of this painting or the colors used.,-50,260,20","Blake","ugly green color and makes me sick,-29,280,20","Justin","This one feels rather flat and not engaging.,-15,280,20","3"
"7314","","survey-text","60","334850","0.0-58.0-0.0","A35TUIBF05DKM4","","","","{""Q0"":""blood lines""}","","","","","","","","","","","","","","","","","","","","","","",""
"1798","","image-slider-response","61","336649","0.0-59.0","A35TUIBF05DKM4","","","","","-38","","","","","","","","","","","","","","","","","","","","","",""
"null","","image-button-response","62","341663","0.0-60.0","A35TUIBF05DKM4","img_art/3.jpg","null","","","","","","","","","","","","","","","","","","","","","","","","",""
"48173","","image-button-response","63","389836","0.0-61.0","A35TUIBF05DKM4","img_art/3.jpg","0","","","","","","","","","","","","","","","","","","","","","","","","",""
"557","","image-button-response","64","390395","0.0-62.0-0.0","A35TUIBF05DKM4","img_art/3.jpg","3","","","","","","","","","","","","","","","","","","","","","","","","",""
"624","","image-button-response","65","391020","0.0-63.0-0.0","A35TUIBF05DKM4","img_art/3.jpg","2","","","","","","","","","","","","","","","","","","","","","","","","",""
"null","","html-keyboard-response","66","392032","0.0-64.0","A35TUIBF05DKM4","<p style=""font-size: 48px;"">+</p>","","","","","null","allTrialResponses","1000","1","3","img_art/3.jpg","-38","blood lines","Juan,Justin,Blake,Joshua,Brandon,Marcus","It makes me think of just an angry scribble. There's no beauty to it for me.,-50,260,20","I don't care for art that looks like it was just scribbled.,-19,280,20","painted by a 2 year old. cold and boring,-30,280,20","Looks like a Basquiat but just not my cup of tea.,-29,240,20","Just scribbles. Not a fan.,-40,320,20","Like the colors and energy of this work.,10,60,20","Juan","It makes me think of just an angry scribble. There's no beauty to it for me.,-50,260,20","Joshua","Looks like a Basquiat but just not my cup of tea.,-29,240,20","Blake","painted by a 2 year old. cold and boring,-30,280,20","3"
"14287","","survey-text","67","406323","0.0-65.0-0.0","A35TUIBF05DKM4","","","","{""Q0"":""curvy tracks""}","","","","","","","","","","","","","","","","","","","","","","",""
"1495","","image-slider-response","68","407818","0.0-66.0","A35TUIBF05DKM4","","","","","5","","","","","","","","","","","","","","","","","","","","","",""
"null","","image-button-response","69","412832","0.0-67.0","A35TUIBF05DKM4","img_art/11.jpg","null","","","","","","","","","","","","","","","","","","","","","","","","",""
"981","","image-button-response","70","413814","0.0-68.0","A35TUIBF05DKM4","img_art/11.jpg","4","","","","","","","","","","","","","","","","","","","","","","","","",""
"1021","","image-button-response","71","414836","0.0-69.0-0.0","A35TUIBF05DKM4","img_art/11.jpg","3","","","","","","","","","","","","","","","","","","","","","","","","",""
"1175","","image-button-response","72","416012","0.0-70.0-0.0","A35TUIBF05DKM4","img_art/11.jpg","2","","","","","","","","","","","","","","","","","","","","","","","","",""
"null","","html-keyboard-response","73","417032","0.0-71.0","A35TUIBF05DKM4","<p style=""font-size: 48px;"">+</p>","","","","","null","allTrialResponses","1000","1","4","img_art/11.jpg","5","curvy tracks","Juan,Stephen,Blake,Joshua,Sean,Spencer","It makes me think of a rainy day and I like the colors. Also like the wavy lines.,22,260,20","Very good use of colors,44,140,20","a train going around the country,14,280,20","Is interesting. Wouldn't bother me to have this hanging where I'd see it every day.,11,240,20","pic looks alright,8,40,20","Even with the colors, it is dreary to me,-32,120,20","Sean","pic looks alright,8,40,20","Joshua","Is interesting. Wouldn't bother me to have this hanging where I'd see it every day.,11,240,20","Blake","a train going around the country,14,280,20","3"
"7399","","survey-text","74","424435","0.0-72.0-0.0","A35TUIBF05DKM4","","","","{""Q0"":""droplets of paint""}","","","","","","","","","","","","","","","","","","","","","","",""
"2740","","image-slider-response","75","427175","0.0-73.0","A35TUIBF05DKM4","","","","","-20","","","","","","","","","","","","","","","","","","","","","",""
"3923","","image-button-response","76","432182","0.0-74.0","A35TUIBF05DKM4","img_art/13.jpg","0","","","","","","","","","","","","","","","","","","","","","","","","",""
"360","","image-button-response","77","432544","0.0-75.0","A35TUIBF05DKM4","img_art/13.jpg","4","","","","","","","","","","","","","","","","","","","","","","","","",""
"459","","image-button-response","78","433004","0.0-76.0-0.0","A35TUIBF05DKM4","img_art/13.jpg","1","","","","","","","","","","","","","","","","","","","","","","","","",""
"618","","image-button-response","79","433624","0.0-77.0-0.0","A35TUIBF05DKM4","img_art/13.jpg","0","","","","","","","","","","","","","","","","","","","","","","","","",""
"null","","html-keyboard-response","80","434632","0.0-78.0","A35TUIBF05DKM4","<p style=""font-size: 48px;"">+</p>","","","","","null","allTrialResponses","1000","1","5","img_art/13.jpg","-20","droplets of paint","Isaac,Adam,Blake,Joshua,Sean,Travis","The colors are okay but I don't like the shapes here.,-18,280,20","Generic mix of colors. Cool and messy.,10,40,20","warm splash of salt water from ocean,16,280,20","Like this a lot and would hang in my house.,27,240,20","I like the colors,7,40,20","I love the colors and the texture,37,260,20","Sean","I like the colors,7,40,20","Adam","Generic mix of colors. Cool and messy.,10,40,20","Isaac","The colors are okay but I don't like the shapes here.,-18,280,20","3"
"4579","","survey-text","81","439217","0.0-79.0-0.0","A35TUIBF05DKM4","","","","{""Q0"":""sky""}","","","","","","","","","","","","","","","","","","","","","","",""
"12610","","survey-text","82","451829","0.0-80.0-0.0","A35TUIBF05DKM4","","","","{""Q0"":""zoomed in picture of mars""}","","","","","","","","","","","","","","","","","","","","","","",""
"3973","","image-slider-response","83","455803","0.0-81.0","A35TUIBF05DKM4","","","","","1","","","","","","","","","","","","","","","","","","","","","",""
"3272","","image-button-response","84","460823","0.0-82.0","A35TUIBF05DKM4","img_art/7.jpg","1","","","","","","","","","","","","","","","","","","","","","","","","",""
"887","","image-button-response","85","461710","0.0-83.0","A35TUIBF05DKM4","img_art/7.jpg","1","","","","","","","","","","","","","","","","","","","","","","","","",""
"729","","image-button-response","86","462440","0.0-84.0-0.0","A35TUIBF05DKM4","img_art/7.jpg","3","","","","","","","","","","","","","","","","","","","","","","","","",""
"1466","","image-button-response","87","463909","0.0-85.0-0.0","A35TUIBF05DKM4","img_art/7.jpg","2","","","","","","","","","","","","","","","","","","","","","","","","",""
"null","","html-keyboard-response","88","464922","0.0-86.0","A35TUIBF05DKM4","<p style=""font-size: 48px;"">+</p>","","","","","null","allTrialResponses","1000","1","6","img_art/7.jpg","1","zoomed in picture of mars","Isaac,Adam,Caleb,Samuel,Sean,Derek","It looks more like wallpaper rather than a painting.,-27,280,20","I like the earth tones here,5,40,20","More saturated color, even more interpretations to have.,44,40,20","looking down on earth,19,400,20","does not look good,-42,40,20","Not a fan of the pattern or colors,-40,360,20","Adam","I like the earth tones here,5,40,20","Samuel","looking down on earth,19,400,20","Caleb","More saturated color, even more interpretations to have.,44,40,20","3"
"19636","","survey-text","89","484561","0.0-87.0-0.0","A35TUIBF05DKM4","","","","{""Q0"":""a lot of things going on.""}","","","","","","","","","","","","","","","","","","","","","","",""
"1112","","image-slider-response","90","485674","0.0-88.0","A35TUIBF05DKM4","","","","","10","","","","","","","","","","","","","","","","","","","","","",""
"null","","image-button-response","91","490693","0.0-89.0","A35TUIBF05DKM4","img_art/29.jpg","null","","","","","","","","","","","","","","","","","","","","","","","","",""
"9269","","image-button-response","92","499963","0.0-90.0","A35TUIBF05DKM4","img_art/29.jpg","0","","","","","","","","","","","","","","","","","","","","","","","","",""
"764","","image-button-response","93","500728","0.0-91.0-0.0","A35TUIBF05DKM4","img_art/29.jpg","4","","","","","","","","","","","","","","","","","","","","","","","","",""
"869","","image-button-response","94","501599","0.0-92.0-0.0","A35TUIBF05DKM4","img_art/29.jpg","0","","","","","","","","","","","","","","","","","","","","","","","","",""
"3433","","image-button-response","95","508032","0.0-92.1-0.1","A35TUIBF05DKM4","img_art/29.jpg","0","","","","","","","","","","","","","","","","","","","","","","","","",""
"3519","","image-button-response","96","513214","0.0-92.2-0.2","A35TUIBF05DKM4","img_art/29.jpg","1","","","","","","","","","","","","","","","","","","","","","","","","",""
"null","","html-keyboard-response","97","514222","0.0-93.0","A35TUIBF05DKM4","<p style=""font-size: 48px;"">+</p>","","","","","null","allTrialResponses","1000","1","7","img_art/29.jpg","10","a lot of things going on.","Colton,Adam,Caleb,Samuel,Alexis,Seth","interesting, but I wouldn't put it on my wall,8,220,20","Flash is too strong. Dislike the colors,-5,40,20","Looks wrong. Like a real painting was vandalized.,-50,40,20","too challenging to comprehend,-28,400,20","I like that it looks like a scene from perhaps a failed painted project,10,140,20","I rated it lower because it looked like a crime scene. It didn't make me feel good.,-44,60,20","Colton","interesting, but I wouldn't put it on my wall,8,220,20","Alexis","I like that it looks like a scene from perhaps a failed painted project,10,140,20","Adam","Flash is too strong. Dislike the colors,-5,40,20","7"
"13674","","survey-text","98","527899","0.0-94.0-0.0","A35TUIBF05DKM4","","","","{""Q0"":""light colors delight""}","","","","","","","","","","","","","","","","","","","","","","",""
"1508","","image-slider-response","99","529408","0.0-95.0","A35TUIBF05DKM4","","","","","9","","","","","","","","","","","","","","","","","","","","","",""
"4545","","image-button-response","100","534422","0.0-96.0","A35TUIBF05DKM4","img_art/22.jpg","4","","","","","","","","","","","","","","","","","","","","","","","","",""
"779","","image-button-response","101","535201","0.0-97.0","A35TUIBF05DKM4","img_art/22.jpg","4","","","","","","","","","","","","","","","","","","","","","","","","",""
"1550","","image-button-response","102","536753","0.0-98.0-0.0","A35TUIBF05DKM4","img_art/22.jpg","0","","","","","","","","","","","","","","","","","","","","","","","","",""
"1534","","image-button-response","103","538288","0.0-99.0-0.0","A35TUIBF05DKM4","img_art/22.jpg","3","","","","","","","","","","","","","","","","","","","","","","","","",""
"null","","html-keyboard-response","104","539802","0.0-100.0","A35TUIBF05DKM4","<p style=""font-size: 48px;"">+</p>","","","","","null","allTrialResponses","1500","1","8","img_art/22.jpg","9","light colors delight","Colton,Adam,Cody,Jeffrey,Alexis,Vincent","I enjoy the colors used,24,220,20","Very generic mix of primary colors and shapes. Not a huge fan.,-10,40,20","Love the use of color,50,180,20","Picture is very relaxing,32,40,20","Neither like nor dislike it. The red, yellow and blue colors are bright but I don't know what it's meant to be.,1,140,20","Can fit with anyone. And in any home a great piece of art,35,360,20","Alexis","Neither like nor dislike it. The red, yellow and blue colors are bright but I don't know what it's meant to be.,1,140,20","Colton","I enjoy the colors used,24,220,20","Jeffrey","Picture is very relaxing,32,40,20","7"
"9822","","survey-text","105","549629","0.0-101.0-0.0","A35TUIBF05DKM4","","","","{""Q0"":""confusing paint""}","","","","","","","","","","","","","","","","","","","","","","",""
"1807","","image-slider-response","106","551437","0.0-102.0","A35TUIBF05DKM4","","","","","-20","","","","","","","","","","","","","","","","","","","","","",""
"null","","image-button-response","107","556442","0.0-103.0","A35TUIBF05DKM4","img_art/5.jpg","null","","","","","","","","","","","","","","","","","","","","","","","","",""
"15253","","image-button-response","108","571696","0.0-104.0","A35TUIBF05DKM4","img_art/5.jpg","2","","","","","","","","","","","","","","","","","","","","","","","","",""
"1084","","image-button-response","109","572781","0.0-105.0-0.0","A35TUIBF05DKM4","img_art/5.jpg","1","","","","","","","","","","","","","","","","","","","","","","","","",""
"679","","image-button-response","110","573462","0.0-106.0-0.0","A35TUIBF05DKM4","img_art/5.jpg","5","","","","","","","","","","","","","","","","","","","","","","","","",""
"null","","html-keyboard-response","111","573972","0.0-107.0","A35TUIBF05DKM4","<p style=""font-size: 48px;"">+</p>","","","","","null","allTrialResponses","500","1","9","img_art/5.jpg","-20","confusing paint","Colton,Daniel,Isaiah,Jeffrey,Alexis,Evan","I like the strokes and colors used,20,220,20","Cop out, easy money for artist for a 4 min piece,-29,320,20","I feel nothing looking at this.,-5,300,20","positive colours; yellow calls attention,6,40,20","I am confused as to what this is supposed to be,6,140,20","I am confused as to what I am seeing is it a handbag, duck foot, bell?,-18,140,20","Isaiah","I feel nothing looking at this.,-5,300,20","Daniel","Cop out, easy money for artist for a 4 min piece,-29,320,20","Evan","I am confused as to what I am seeing is it a handbag, duck foot, bell?,-18,140,20","7"
"9443","","survey-text","112","583418","0.0-108.0-0.0","A35TUIBF05DKM4","","","","{""Q0"":""messy artwork""}","","","","","","","","","","","","","","","","","","","","","","",""
"2062","","image-slider-response","113","585483","0.0-109.0","A35TUIBF05DKM4","","","","","-32","","","","","","","","","","","","","","","","","","","","","",""
"null","","image-button-response","114","590502","0.0-110.0","A35TUIBF05DKM4","img_art/9.jpg","null","","","","","","","","","","","","","","","","","","","","","","","","",""
"1413","","image-button-response","115","591915","0.0-111.0","A35TUIBF05DKM4","img_art/9.jpg","0","","","","","","","","","","","","","","","","","","","","","","","","",""
"573","","image-button-response","116","592489","0.0-112.0-0.0","A35TUIBF05DKM4","img_art/9.jpg","1","","","","","","","","","","","","","","","","","","","","","","","","",""
"1007","","image-button-response","117","593498","0.0-113.0-0.0","A35TUIBF05DKM4","img_art/9.jpg","5","","","","","","","","","","","","","","","","","","","","","","","","",""
"null","","html-keyboard-response","118","594512","0.0-114.0","A35TUIBF05DKM4","<p style=""font-size: 48px;"">+</p>","","","","","null","allTrialResponses","1000","1","10","img_art/9.jpg","-32","messy artwork","Noah,Daniel,Isaiah,Jared,Jason,Evan","while I don't dispute the art, it feels childish,-20,260,20","A troubled painter was influenced by anger and mad at the woman in the middle, color not bad,-32,320,20","The piece of art makes me happy, it reminds me of a lively carnival.,15,300,20","it looks like a lady resting. it is soothing.,4,400,20","Focal point is interesting,2,20,20","It makes me think of Snow White sleeping,11,140,20","Noah","while I don't dispute the art, it feels childish,-20,260,20","Daniel","A troubled painter was influenced by anger and mad at the woman in the middle, color not bad,-32,320,20","Evan","It makes me think of Snow White sleeping,11,140,20","7"
"3410","","survey-text","119","597927","0.0-115.0-0.0","A35TUIBF05DKM4","","","","{""Q0"":""our""}","","","","","","","","","","","","","","","","","","","","","","",""
"14353","","survey-text","120","612281","0.0-116.0-0.0","A35TUIBF05DKM4","","","","{""Q0"":""combination of colors.""}","","","","","","","","","","","","","","","","","","","","","","",""
"1648","","image-slider-response","121","613932","0.0-117.0","A35TUIBF05DKM4","","","","","9","","","","","","","","","","","","","","","","","","","","","",""
"null","","image-button-response","122","618942","0.0-118.0","A35TUIBF05DKM4","img_art/21.jpg","null","","","","","","","","","","","","","","","","","","","","","","","","",""
"2391","","image-button-response","123","621334","0.0-119.0","A35TUIBF05DKM4","img_art/21.jpg","4","","","","","","","","","","","","","","","","","","","","","","","","",""
"1495","","image-button-response","124","622832","0.0-120.0-0.0","A35TUIBF05DKM4","img_art/21.jpg","2","","","","","","","","","","","","","","","","","","","","","","","","",""
"682","","image-button-response","125","623514","0.0-121.0-0.0","A35TUIBF05DKM4","img_art/21.jpg","3","","","","","","","","","","","","","","","","","","","","","","","","",""
"null","","html-keyboard-response","126","625022","0.0-122.0","A35TUIBF05DKM4","<p style=""font-size: 48px;"">+</p>","","","","","null","allTrialResponses","1500","1","11","img_art/21.jpg","9","combination of colors.","Noah,Daniel,Jorge,Gabriel,Tristan,Evan","brings up imagery of the sea and clashing, though not in a negative way,31,260,20","Nice asymmetry with maritime colors city meets the sea,34,320,20","mythical between good and evil,16,180,20","i like watercolor,22,160,20","A landscape that leaves me inspired and hopeful.,20,300,20","I feel confused,-18,140,20","Tristan","A landscape that leaves me inspired and hopeful.,20,300,20","Jorge","mythical between good and evil,16,180,20","Gabriel","i like watercolor,22,160,20","7"
"17724","","survey-text","127","642749","0.0-123.0-0.0","A35TUIBF05DKM4","","","","{""Q0"":""difficult to comprehend""}","","","","","","","","","","","","","","","","","","","","","","",""
"1609","","image-slider-response","128","644359","0.0-124.0","A35TUIBF05DKM4","","","","","-30","","","","","","","","","","","","","","","","","","","","","",""
"null","","image-button-response","129","649369","0.0-125.0","A35TUIBF05DKM4","img_art/28.jpg","null","","","","","","","","","","","","","","","","","","","","","","","","",""
"1275","","image-button-response","130","650645","0.0-126.0","A35TUIBF05DKM4","img_art/28.jpg","1","","","","","","","","","","","","","","","","","","","","","","","","",""
"1004","","image-button-response","131","651649","0.0-127.0-0.0","A35TUIBF05DKM4","img_art/28.jpg","5","","","","","","","","","","","","","","","","","","","","","","","","",""
"615","","image-button-response","132","652265","0.0-128.0-0.0","A35TUIBF05DKM4","img_art/28.jpg","3","","","","","","","","","","","","","","","","","","","","","","","","",""
"null","","html-keyboard-response","133","653269","0.0-129.0","A35TUIBF05DKM4","<p style=""font-size: 48px;"">+</p>","","","","","null","allTrialResponses","1000","1","12","img_art/28.jpg","-30","difficult to comprehend","Thomas,Aaron,Jorge,Gabriel,Tristan,Miguel","I can't explain why, but I really love this one,50,220,20","It's drab and looks like stereotypical abstract art.,-30,20,20","nostalgic from a memory,11,180,20","this one is rather disturbing,-22,160,20","Contemplative and a little dark. The muted colors and subject create a sense of mystery.,15,300,20","Looks yucky and poor.,-33,160,20","Aaron","It's drab and looks like stereotypical abstract art.,-30,20,20","Miguel","Looks yucky and poor.,-33,160,20","Gabriel","this one is rather disturbing,-22,160,20","7"
"11652","","survey-text","134","664925","0.0-130.0-0.0","A35TUIBF05DKM4","","","","{""Q0"":""unique piece of artwork.""}","","","","","","","","","","","","","","","","","","","","","","",""
"4089","","image-slider-response","135","669014","0.0-131.0","A35TUIBF05DKM4","","","","","19","","","","","","","","","","","","","","","","","","","","","",""
"null","","image-button-response","136","674022","0.0-132.0","A35TUIBF05DKM4","img_art/8.jpg","null","","","","","","","","","","","","","","","","","","","","","","","","",""
"1780","","image-button-response","137","675802","0.0-133.0","A35TUIBF05DKM4","img_art/8.jpg","1","","","","","","","","","","","","","","","","","","","","","","","","",""
"1378","","image-button-response","138","677182","0.0-134.0-0.0","A35TUIBF05DKM4","img_art/8.jpg","0","","","","","","","","","","","","","","","","","","","","","","","","",""
"1396","","image-button-response","139","678580","0.0-135.0-0.0","A35TUIBF05DKM4","img_art/8.jpg","3","","","","","","","","","","","","","","","","","","","","","","","","",""
"null","","html-keyboard-response","140","679082","0.0-136.0","A35TUIBF05DKM4","<p style=""font-size: 48px;"">+</p>","","","","","null","allTrialResponses","500","1","13","img_art/8.jpg","19","unique piece of artwork.","Bryce,Aaron,Brian,Gabriel,Jake,Miguel","Its kinda like an optical illusion.,22,20,20","The shapes and colors work well together.,40,20,20","it's a little too classical for my tastes,-25,380,20","i like all the different faces,19,160,20","It's a poor rendition of an MC Escher inspired piece.,-25,360,20","Well painted. Not my style.,27,160,20","Aaron","The shapes and colors work well together.,40,20,20","Bryce","Its kinda like an optical illusion.,22,20,20","Gabriel","i like all the different faces,19,160,20","7"
"15676","","survey-text","141","694761","0.0-137.0-0.0","A35TUIBF05DKM4","","","","{""Q0"":""messy but appealing""}","","","","","","","","","","","","","","","","","","","","","","",""
"1251","","image-slider-response","142","696013","0.0-138.0","A35TUIBF05DKM4","","","","","11","","","","","","","","","","","","","","","","","","","","","",""
"null","","image-button-response","143","701032","0.0-139.0","A35TUIBF05DKM4","img_art/20.jpg","null","","","","","","","","","","","","","","","","","","","","","","","","",""
"98754","","image-button-response","144","799786","0.0-140.0","A35TUIBF05DKM4","img_art/20.jpg","1","","","","","","","","","","","","","","","","","","","","","","","","",""
"1020","","image-button-response","145","800807","0.0-141.0-0.0","A35TUIBF05DKM4","img_art/20.jpg","4","","","","","","","","","","","","","","","","","","","","","","","","",""
"352","","image-button-response","146","801160","0.0-142.0-0.0","A35TUIBF05DKM4","img_art/20.jpg","5","","","","","","","","","","","","","","","","","","","","","","","","",""
"null","","html-keyboard-response","147","802167","0.0-143.0","A35TUIBF05DKM4","<p style=""font-size: 48px;"">+</p>","","","","","null","allTrialResponses","1000","1","14","img_art/20.jpg","11","messy but appealing","Bryce,Aaron,Dylan,Gabriel,Robert,Benjamin","Kinda freaks me out.,-40,20,20","I would like it more without the frame.,10,20,20","The white blob looks like a face and it's creepy,-30,40,20","i almost feel like i can recognize what this is,-6,160,20","Looks like an old gold mining down now deserted.,11,360,20","Bold strokes and colors.,6,260,20","Aaron","I would like it more without the frame.,10,20,20","Robert","Looks like an old gold mining down now deserted.,11,360,20","Benjamin","Bold strokes and colors.,6,260,20","7"
"11593","","survey-text","148","813763","0.0-144.0-0.0","A35TUIBF05DKM4","","","","{""Q0"":""train tracks""}","","","","","","","","","","","","","","","","","","","","","","",""
"2731","","image-slider-response","149","816495","0.0-145.0","A35TUIBF05DKM4","","","","","2","","","","","","","","","","","","","","","","","","","","","",""
"null","","image-button-response","150","821511","0.0-146.0","A35TUIBF05DKM4","img_art/10.jpg","null","","","","","","","","","","","","","","","","","","","","","","","","",""
"196595","","image-button-response","151","1018107","0.0-147.0","A35TUIBF05DKM4","img_art/10.jpg","0","","","","","","","","","","","","","","","","","","","","","","","","",""
"1034","","image-button-response","152","1019143","0.0-148.0-0.0","A35TUIBF05DKM4","img_art/10.jpg","1","","","","","","","","","","","","","","","","","","","","","","","","",""
"1481","","image-button-response","153","1020625","0.0-149.0-0.0","A35TUIBF05DKM4","img_art/10.jpg","1","","","","","","","","","","","","","","","","","","","","","","","","",""
"1943","","image-button-response","154","1024526","0.0-149.1-0.1","A35TUIBF05DKM4","img_art/10.jpg","5","","","","","","","","","","","","","","","","","","","","","","","","",""
"null","","html-keyboard-response","155","1025541","0.0-150.0","A35TUIBF05DKM4","<p style=""font-size: 48px;"">+</p>","","","","","null","allTrialResponses","1000","1","15","img_art/10.jpg","2","train tracks","Timothy,Aaron,Edward,Brendan,Robert,Benjamin","Love the monotonal texture,20,240,20","I like how simple but intricate it is.,30,20,20","It looks like it's sinking but it could also be a view from above,40,60,20","a blue whale on the sea,12,340,20","The black color is depressing.,-50,360,20","This picture just seems depressing.,-26,260,20","Timothy","Love the monotonal texture,20,240,20","Aaron","I like how simple but intricate it is.,30,20,20","Benjamin","This picture just seems depressing.,-26,260,20","9"
"4588","","survey-text","156","1030136","0.0-151.0-0.0","A35TUIBF05DKM4","","","","{""Q0"":""course""}","","","","","","","","","","","","","","","","","","","","","","",""
"40409","","survey-text","157","1070547","0.0-152.0-0.0","A35TUIBF05DKM4","","","","{""Q0"":""dying tree.""}","","","","","","","","","","","","","","","","","","","","","","",""
"2976","","image-slider-response","158","1073524","0.0-153.0","A35TUIBF05DKM4","","","","","-6","","","","","","","","","","","","","","","","","","","","","",""
"3590","","image-button-response","159","1078531","0.0-154.0","A35TUIBF05DKM4","img_art/14.jpg","2","","","","","","","","","","","","","","","","","","","","","","","","",""
"432","","image-button-response","160","1078964","0.0-155.0","A35TUIBF05DKM4","img_art/14.jpg","2","","","","","","","","","","","","","","","","","","","","","","","","",""
"622","","image-button-response","161","1079587","0.0-156.0-0.0","A35TUIBF05DKM4","img_art/14.jpg","1","","","","","","","","","","","","","","","","","","","","","","","","",""
"420","","image-button-response","162","1080008","0.0-157.0-0.0","A35TUIBF05DKM4","img_art/14.jpg","5","","","","","","","","","","","","","","","","","","","","","","","","",""
"null","","html-keyboard-response","163","1080512","0.0-158.0","A35TUIBF05DKM4","<p style=""font-size: 48px;"">+</p>","","","","","null","allTrialResponses","500","1","16","img_art/14.jpg","-6","dying tree.","Timothy,Aaron,Kyle,Carlos,Lucas,Benjamin","Something about the cahotic imagery makes me uncomfortable,-15,240,20","It reminds me of a tree in the desert.,15,20,20","The colors are nice and it reminds me of a shrub or tree,10,340,20","The lighting feels like spring.,20,80,20","In my opinion it's spectacular.,35,380,20","Reminds me of the outdoors.,12,260,20","Kyle","The colors are nice and it reminds me of a shrub or tree,10,340,20","Aaron","It reminds me of a tree in the desert.,15,20,20","Benjamin","Reminds me of the outdoors.,12,260,20","9"
"11601","","survey-text","164","1092115","0.0-159.0-0.0","A35TUIBF05DKM4","","","","{""Q0"":""interesting items.""}","","","","","","","","","","","","","","","","","","","","","","",""
"1920","","image-slider-response","165","1094035","0.0-160.0","A35TUIBF05DKM4","","","","","11","","","","","","","","","","","","","","","","","","","","","",""
"4091","","image-button-response","166","1099052","0.0-161.0","A35TUIBF05DKM4","img_art/16.jpg","3","","","","","","","","","","","","","","","","","","","","","","","","",""
"472","","image-button-response","167","1099526","0.0-162.0","A35TUIBF05DKM4","img_art/16.jpg","3","","","","","","","","","","","","","","","","","","","","","","","","",""
"727","","image-button-response","168","1100253","0.0-163.0-0.0","A35TUIBF05DKM4","img_art/16.jpg","1","","","","","","","","","","","","","","","","","","","","","","","","",""
"976","","image-button-response","169","1101231","0.0-164.0-0.0","A35TUIBF05DKM4","img_art/16.jpg","2","","","","","","","","","","","","","","","","","","","","","","","","",""
"null","","html-keyboard-response","170","1101731","0.0-165.0","A35TUIBF05DKM4","<p style=""font-size: 48px;"">+</p>","","","","","null","allTrialResponses","500","1","17","img_art/16.jpg","11","interesting items.","Ian,Aaron,Kyle,Austin,Nathaniel,Benjamin","This looks like it was made by an art student filled with angst,-30,260,20","It's edgy but cool,10,20,20","I like it because it's quite different from the rest,23,340,20","Picture seems unique,12,240,20","Creeps me out. Like..really creeps me out.,-48,220,20","Don't like the teddy bear. It takes away from the painting.,-39,260,20","Austin","Picture seems unique,12,240,20","Aaron","It's edgy but cool,10,20,20","Kyle","I like it because it's quite different from the rest,23,340,20","9"
"12665","","survey-text","171","1114402","0.0-166.0-0.0","A35TUIBF05DKM4","","","","{""Q0"":""unique colorful ""}","","","","","","","","","","","","","","","","","","","","","","",""
"916","","image-slider-response","172","1115319","0.0-167.0","A35TUIBF05DKM4","","","","","10","","","","","","","","","","","","","","","","","","","","","",""
"null","","image-button-response","173","1120321","0.0-168.0","A35TUIBF05DKM4","img_art/23.jpg","null","","","","","","","","","","","","","","","","","","","","","","","","",""
"3540","","image-button-response","174","1123861","0.0-169.0","A35TUIBF05DKM4","img_art/23.jpg","5","","","","","","","","","","","","","","","","","","","","","","","","",""
"746","","image-button-response","175","1124608","0.0-170.0-0.0","A35TUIBF05DKM4","img_art/23.jpg","1","","","","","","","","","","","","","","","","","","","","","","","","",""
"687","","image-button-response","176","1125296","0.0-171.0-0.0","A35TUIBF05DKM4","img_art/23.jpg","3","","","","","","","","","","","","","","","","","","","","","","","","",""
"null","","html-keyboard-response","177","1126302","0.0-172.0","A35TUIBF05DKM4","<p style=""font-size: 48px;"">+</p>","","","","","null","allTrialResponses","1000","1","18","img_art/23.jpg","10","unique colorful ","Corey,Aaron,Kyle,Austin,Devon,Malik","white reminds me of screamo music band tshirts when they have their name in the unreadable lettering,-9,260,20","I love the colors and the contrast.,50,20,20","Mostly neutral but a bit too guady with the brash colors,-6,340,20","Fantastic blend of color and forms,43,240,20","i cannot breath in this,-10,400,20","Very intense and unique,3,40,20","Malik","Very intense and unique,3,40,20","Aaron","I love the colors and the contrast.,50,20,20","Austin","Fantastic blend of color and forms,43,240,20","9"
"16814","","survey-text","178","1143119","0.0-173.0-0.0","A35TUIBF05DKM4","","","","{""Q0"":""unique evilness""}","","","","","","","","","","","","","","","","","","","","","","",""
"1468","","image-slider-response","179","1144589","0.0-174.0","A35TUIBF05DKM4","","","","","27","","","","","","","","","","","","","","","","","","","","","",""
"null","","image-button-response","180","1149591","0.0-175.0","A35TUIBF05DKM4","img_art/18.jpg","null","","","","","","","","","","","","","","","","","","","","","","","","",""
"518","","image-button-response","181","1150111","0.0-176.0","A35TUIBF05DKM4","img_art/18.jpg","4","","","","","","","","","","","","","","","","","","","","","","","","",""
"498","","image-button-response","182","1150609","0.0-177.0-0.0","A35TUIBF05DKM4","img_art/18.jpg","1","","","","","","","","","","","","","","","","","","","","","","","","",""
"365","","image-button-response","183","1150976","0.0-178.0-0.0","A35TUIBF05DKM4","img_art/18.jpg","2","","","","","","","","","","","","","","","","","","","","","","","","",""
"null","","html-keyboard-response","184","1151492","0.0-179.0","A35TUIBF05DKM4","<p style=""font-size: 48px;"">+</p>","","","","","null","allTrialResponses","500","1","19","img_art/18.jpg","27","unique evilness","David,Aaron,Dakota,Austin,Michael,Malik","I like how the image gives off an impression of bravery.,25,340,20","I could spend a long time looking at it and see different things in the shapes.,21,20,20","afraid and anxious,21,280,20","Nice abstract art,50,240,20","Not my style but I can see some serious skill went int it.,21,140,20","Gently chaotic and beautiful,40,40,20","Michael","Not my style but I can see some serious skill went int it.,21,140,20","Aaron","I could spend a long time looking at it and see different things in the shapes.,21,20,20","Dakota","afraid and anxious,21,280,20","9"
"9721","","survey-text","185","1161216","0.0-180.0-0.0","A35TUIBF05DKM4","","","","{""Q0"":""confusing dots""}","","","","","","","","","","","","","","","","","","","","","","",""
"1786","","image-slider-response","186","1163004","0.0-181.0","A35TUIBF05DKM4","","","","","-30","","","","","","","","","","","","","","","","","","","","","",""
"null","","image-button-response","187","1168012","0.0-182.0","A35TUIBF05DKM4","img_art/15.jpg","null","","","","","","","","","","","","","","","","","","","","","","","","",""
"906","","image-button-response","188","1168919","0.0-183.0","A35TUIBF05DKM4","img_art/15.jpg","5","","","","","","","","","","","","","","","","","","","","","","","","",""
"1066","","image-button-response","189","1169985","0.0-184.0-0.0","A35TUIBF05DKM4","img_art/15.jpg","0","","","","","","","","","","","","","","","","","","","","","","","","",""
"1135","","image-button-response","190","1171121","0.0-185.0-0.0","A35TUIBF05DKM4","img_art/15.jpg","0","","","","","","","","","","","","","","","","","","","","","","","","",""
"501","","image-button-response","191","1173669","0.0-185.1-0.1","A35TUIBF05DKM4","img_art/15.jpg","1","","","","","","","","","","","","","","","","","","","","","","","","",""
"null","","html-keyboard-response","192","1175172","0.0-186.0","A35TUIBF05DKM4","<p style=""font-size: 48px;"">+</p>","","","","","null","allTrialResponses","1500","1","20","img_art/15.jpg","-30","confusing dots","Andrew,Aaron,Dakota,Shane,Michael,Tyler","The blues are soothing,21,160,20","I like how it's simple but beautiful.,40,20,20","abrasive, rough, uneven,-31,280,20","Too intense with the black dotting,-22,80,20","Looks incomplete.,-19,140,20","I am starting to feel description fatigue. This would be pleasant enough in a doctor's office waiting room.,15,320,20","Tyler","I am starting to feel description fatigue. This would be pleasant enough in a doctor's office waiting room.,15,320,20","Andrew","The blues are soothing,21,160,20","Aaron","I like how it's simple but beautiful.,40,20,20","11"
"2720","","survey-text","193","1177900","0.0-187.0-0.0","A35TUIBF05DKM4","","","","{""Q0"":""we""}","","","","","","","","","","","","","","","","","","","","","","",""
"6976","","survey-text","194","1184876","0.0-188.0-0.0","A35TUIBF05DKM4","","","","{""Q0"":""simple and basic""}","","","","","","","","","","","","","","","","","","","","","","",""
"1845","","image-slider-response","195","1186721","0.0-189.0","A35TUIBF05DKM4","","","","","-6","","","","","","","","","","","","","","","","","","","","","",""
"null","","image-button-response","196","1191732","0.0-190.0","A35TUIBF05DKM4","img_art/30.jpg","null","","","","","","","","","","","","","","","","","","","","","","","","",""
"209","","image-button-response","197","1191943","0.0-191.0","A35TUIBF05DKM4","img_art/30.jpg","3","","","","","","","","","","","","","","","","","","","","","","","","",""
"419","","image-button-response","198","1192363","0.0-192.0-0.0","A35TUIBF05DKM4","img_art/30.jpg","4","","","","","","","","","","","","","","","","","","","","","","","","",""
"453","","image-button-response","199","1192817","0.0-193.0-0.0","A35TUIBF05DKM4","img_art/30.jpg","1","","","","","","","","","","","","","","","","","","","","","","","","",""
"null","","html-keyboard-response","200","1193821","0.0-194.0","A35TUIBF05DKM4","<p style=""font-size: 48px;"">+</p>","","","","","null","allTrialResponses","1000","1","21","img_art/30.jpg","-6","simple and basic","Andrew,Aaron,Anthony,Devin,Luke,Tyler","It's a really interesting piece,20,160,20","It looks like a pretty but unremarkable painting in a doctors office,15,20,20","The color scheme used in this piece is very ugly.,-50,200,20","A bit haphazard looking and lacking in vision,2,380,20","the lines and colors look purposeful,18,20,20","Interesting brushstroke work, but not particularly memorable.,21,320,20","Devin","A bit haphazard looking and lacking in vision,2,380,20","Luke","the lines and colors look purposeful,18,20,20","Aaron","It looks like a pretty but unremarkable painting in a doctors office,15,20,20","11"
"24321","","survey-text","201","1218146","0.0-195.0-0.0","A35TUIBF05DKM4","","","","{""Q0"":""attractive artwork""}","","","","","","","","","","","","","","","","","","","","","","",""
"2041","","image-slider-response","202","1220190","0.0-196.0","A35TUIBF05DKM4","","","","","20","","","","","","","","","","","","","","","","","","","","","",""
"null","","image-button-response","203","1225202","0.0-197.0","A35TUIBF05DKM4","img_art/17.jpg","null","","","","","","","","","","","","","","","","","","","","","","","","",""
"474","","image-button-response","204","1225676","0.0-198.0","A35TUIBF05DKM4","img_art/17.jpg","3","","","","","","","","","","","","","","","","","","","","","","","","",""
"422","","image-button-response","205","1226099","0.0-199.0-0.0","A35TUIBF05DKM4","img_art/17.jpg","1","","","","","","","","","","","","","","","","","","","","","","","","",""
"361","","image-button-response","206","1226461","0.0-200.0-0.0","A35TUIBF05DKM4","img_art/17.jpg","4","","","","","","","","","","","","","","","","","","","","","","","","",""
"null","","html-keyboard-response","207","1227969","0.0-201.0","A35TUIBF05DKM4","<p style=""font-size: 48px;"">+</p>","","","","","null","allTrialResponses","1500","1","22","img_art/17.jpg","20","attractive artwork","Jesse,Aaron,Tanner,Devin,Luke,Luis","Doesnt completely turn me off but wouldnt look twice,-3,80,20","it brings a clear picture to my minds eye:,45,20,20","calm, tranquil, happy,50,180,20","So expressive and wonderful wow!,17,380,20","it looks very intricate and colorful,50,20,20","Messy shadow of loss and love,50,400,20","Devin","So expressive and wonderful wow!,17,380,20","Aaron","it brings a clear picture to my minds eye:,45,20,20","Luke","it looks very intricate and colorful,50,20,20","11"
"30690","","survey-text","208","1258664","0.0-202.0-0.0","A35TUIBF05DKM4","","","","{""Q0"":""a single corn""}","","","","","","","","","","","","","","","","","","","","","","",""
"1834","","image-slider-response","209","1260501","0.0-203.0","A35TUIBF05DKM4","","","","","-7","","","","","","","","","","","","","","","","","","","","","",""
"null","","image-button-response","210","1265509","0.0-204.0","A35TUIBF05DKM4","img_art/6.jpg","null","","","","","","","","","","","","","","","","","","","","","","","","",""
"2824","","image-button-response","211","1268334","0.0-205.0","A35TUIBF05DKM4","img_art/6.jpg","2","","","","","","","","","","","","","","","","","","","","","","","","",""
"415","","image-button-response","212","1268749","0.0-206.0-0.0","A35TUIBF05DKM4","img_art/6.jpg","4","","","","","","","","","","","","","","","","","","","","","","","","",""
"350","","image-button-response","213","1269100","0.0-207.0-0.0","A35TUIBF05DKM4","img_art/6.jpg","1","","","","","","","","","","","","","","","","","","","","","","","","",""
"null","","html-keyboard-response","214","1270112","0.0-208.0","A35TUIBF05DKM4","<p style=""font-size: 48px;"">+</p>","","","","","null","allTrialResponses","1000","1","23","img_art/6.jpg","-7","a single corn","Dustin,Aaron,Nicholas,Devin,Luke,Jack","I like the warmth of the orange. But, I feel like it's a partial view. I'm frustrated I can't see the entirety.,-20,20,20","It reminds me of a simplistic bird. I like the colors used.,40,20,20","It isnt bad but sort of too bland,0,240,20","Looks a bit like a pickle or something?,-16,380,20","i like it but it is very neutral,9,20,20","I like the bottom half, but not the top,-7,320,20","Nicholas","It isnt bad but sort of too bland,0,240,20","Luke","i like it but it is very neutral,9,20,20","Aaron","It reminds me of a simplistic bird. I like the colors used.,40,20,20","11"
"16793","","survey-text","215","1286909","0.0-209.0-0.0","A35TUIBF05DKM4","","","","{""Q0"":""a disorganized puzzle set""}","","","","","","","","","","","","","","","","","","","","","","",""
"1116","","image-slider-response","216","1288026","0.0-210.0","A35TUIBF05DKM4","","","","","5","","","","","","","","","","","","","","","","","","","","","",""
"null","","image-button-response","217","1293041","0.0-211.0","A35TUIBF05DKM4","img_art/12.jpg","null","","","","","","","","","","","","","","","","","","","","","","","","",""
"2577","","image-button-response","218","1295620","0.0-212.0","A35TUIBF05DKM4","img_art/12.jpg","1","","","","","","","","","","","","","","","","","","","","","","","","",""
"1034","","image-button-response","219","1296654","0.0-213.0-0.0","A35TUIBF05DKM4","img_art/12.jpg","3","","","","","","","","","","","","","","","","","","","","","","","","",""
"983","","image-button-response","220","1297639","0.0-214.0-0.0","A35TUIBF05DKM4","img_art/12.jpg","2","","","","","","","","","","","","","","","","","","","","","","","","",""
"null","","html-keyboard-response","221","1298162","0.0-215.0","A35TUIBF05DKM4","<p style=""font-size: 48px;"">+</p>","","","","","null","allTrialResponses","500","1","24","img_art/12.jpg","5","a disorganized puzzle set","Elijah,Aaron,Nicholas,Jordan,Luke,Alex","It makes me feel confused,-15,80,20","Therapist wall art.,10,20,20","It is interesting but seems like some cheap painting from like walmart,24,240,20","Made me uncomfortable, reminded me of the 90s,-9,160,20","don't feel a lot but it seems very simple,-6,20,20","eww hate everything about this, looks like it belongs in a dentist's office,-14,100,20","Aaron","Therapist wall art.,10,20,20","Jordan","Made me uncomfortable, reminded me of the 90s,-9,160,20","Nicholas","It is interesting but seems like some cheap painting from like walmart,24,240,20","11"
"15587","","survey-text","222","1313755","0.0-216.0-0.0","A35TUIBF05DKM4","","","","{""Q0"":""looks like poop on the wall""}","","","","","","","","","","","","","","","","","","","","","","",""
"1613","","image-slider-response","223","1315370","0.0-217.0","A35TUIBF05DKM4","","","","","-42","","","","","","","","","","","","","","","","","","","","","",""
"null","","image-button-response","224","1320381","0.0-218.0","A35TUIBF05DKM4","img_art/4.jpg","null","","","","","","","","","","","","","","","","","","","","","","","","",""
"1464","","image-button-response","225","1321846","0.0-219.0","A35TUIBF05DKM4","img_art/4.jpg","5","","","","","","","","","","","","","","","","","","","","","","","","",""
"987","","image-button-response","226","1322834","0.0-220.0-0.0","A35TUIBF05DKM4","img_art/4.jpg","0","","","","","","","","","","","","","","","","","","","","","","","","",""
"718","","image-button-response","227","1323555","0.0-221.0-0.0","A35TUIBF05DKM4","img_art/4.jpg","2","","","","","","","","","","","","","","","","","","","","","","","","",""
"null","","html-keyboard-response","228","1324562","0.0-222.0","A35TUIBF05DKM4","<p style=""font-size: 48px;"">+</p>","","","","","null","allTrialResponses","1000","1","25","img_art/4.jpg","-42","looks like poop on the wall","Garrett,Aaron,Nicholas,Jordan,Grant,Peter","I think that this picture is too boring in terms of color and it looks ugly.,-41,180,20","It doesn't make me feel anything it just looks like a kid did it.,-30,20,20","I domt like the yellow black blended smear,-50,240,20","A hand reaching for something it cannot obtain,-9,160,20","This elicits no reaction in me.,0,200,20","Looks like poop on walks,-27,320,20","Peter","Looks like poop on walks,-27,320,20","Garrett","I think that this picture is too boring in terms of color and it looks ugly.,-41,180,20","Nicholas","I domt like the yellow black blended smear,-50,240,20","11"
"3290","","survey-text","229","1327860","0.0-223.0-0.0","A35TUIBF05DKM4","","","","{""Q0"":""table""}","","","","","","","","","","","","","","","","","","","","","","",""
"12932","","survey-text","230","1340793","0.0-224.0-0.0","A35TUIBF05DKM4","","","","{""Q0"":""definitely caught my eyes""}","","","","","","","","","","","","","","","","","","","","","","",""
"27791","","image-slider-response","231","1368584","0.0-225.0","A35TUIBF05DKM4","","","","","21","","","","","","","","","","","","","","","","","","","","","",""
"null","","image-button-response","232","1373602","0.0-226.0","A35TUIBF05DKM4","img_art/25.jpg","null","","","","","","","","","","","","","","","","","","","","","","","","",""
"1066","","image-button-response","233","1374669","0.0-227.0","A35TUIBF05DKM4","img_art/25.jpg","0","","","","","","","","","","","","","","","","","","","","","","","","",""
"1013","","image-button-response","234","1375683","0.0-228.0-0.0","A35TUIBF05DKM4","img_art/25.jpg","4","","","","","","","","","","","","","","","","","","","","","","","","",""
"67","","image-button-response","235","1375752","0.0-229.0-0.0","A35TUIBF05DKM4","img_art/25.jpg","4","","","","","","","","","","","","","","","","","","","","","","","","",""
"2298","","image-button-response","236","1380181","0.0-229.1-0.1","A35TUIBF05DKM4","img_art/25.jpg","5","","","","","","","","","","","","","","","","","","","","","","","","",""
"null","","html-keyboard-response","237","1381192","0.0-230.0","A35TUIBF05DKM4","<p style=""font-size: 48px;"">+</p>","","","","","null","allTrialResponses","1000","1","26","img_art/25.jpg","21","definitely caught my eyes","Garrett,Kevin,Nicholas,Richard,Alejandro,Peter","I like the way the persons clothes look, there could be more color though.,10,180,20","That on i find a bit creapy.,-19,320,20","It is interesting but too creapy for me,-29,240,20","interesting pattern and color choice, kind of unusual,2,340,20","Seems ritualistic and nativist,50,80,20","It's very mystical.,5,320,20","Garrett","I like the way the persons clothes look, there could be more color though.,10,180,20","Alejandro","Seems ritualistic and nativist,50,80,20","Peter","It's very mystical.,5,320,20","13"
"15476","","survey-text","238","1396672","0.0-231.0-0.0","A35TUIBF05DKM4","","","","{""Q0"":""a messy picture of a city""}","","","","","","","","","","","","","","","","","","","","","","",""
"2009","","image-slider-response","239","1398682","0.0-232.0","A35TUIBF05DKM4","","","","","11","","","","","","","","","","","","","","","","","","","","","",""
"null","","image-button-response","240","1403691","0.0-233.0","A35TUIBF05DKM4","img_art/19.jpg","null","","","","","","","","","","","","","","","","","","","","","","","","",""
"433516","","image-button-response","241","1837209","0.0-234.0","A35TUIBF05DKM4","img_art/19.jpg","4","","","","","","","","","","","","","","","","","","","","","","","","",""
"2146","","image-button-response","242","1839355","0.0-235.0-0.0","A35TUIBF05DKM4","img_art/19.jpg","5","","","","","","","","","","","","","","","","","","","","","","","","",""
"1517","","image-button-response","243","1840873","0.0-236.0-0.0","A35TUIBF05DKM4","img_art/19.jpg","2","","","","","","","","","","","","","","","","","","","","","","","","",""
"null","","html-keyboard-response","244","1841881","0.0-237.0","A35TUIBF05DKM4","<p style=""font-size: 48px;"">+</p>","","","","","null","allTrialResponses","1000","1","27","img_art/19.jpg","11","a messy picture of a city","Garrett,Kenneth,Taylor,Joseph,Alejandro,Peter","This looks like a bunch of weird blobs and the colors don't go great together.,-10,180,20","TOo much brown.,-24,300,20","Looks like a homeless man and this painting should be too.,-5,200,20","Too messy and busy. Too much going on there for me.,-12,220,20","It is an interesting piece but there are too many muted tones,22,80,20","Looks like hustle and bustle ,,3,320,20","Alejandro","It is an interesting piece but there are too many muted tones,22,80,20","Peter","Looks like hustle and bustle ,,3,320,20","Taylor","Looks like a homeless man and this painting should be too.,-5,200,20","13"
"11581","","survey-text","245","1853466","0.0-238.0-0.0","A35TUIBF05DKM4","","","","{""Q0"":""simple, yet beautiful""}","","","","","","","","","","","","","","","","","","","","","","",""
"1696","","image-slider-response","246","1855163","0.0-239.0","A35TUIBF05DKM4","","","","","15","","","","","","","","","","","","","","","","","","","","","",""
"null","","image-button-response","247","1860181","0.0-240.0","A35TUIBF05DKM4","img_art/26.jpg","null","","","","","","","","","","","","","","","","","","","","","","","","",""
"493","","image-button-response","248","1860674","0.0-241.0","A35TUIBF05DKM4","img_art/26.jpg","1","","","","","","","","","","","","","","","","","","","","","","","","",""
"813","","image-button-response","249","1861487","0.0-242.0-0.0","A35TUIBF05DKM4","img_art/26.jpg","2","","","","","","","","","","","","","","","","","","","","","","","","",""
"920","","image-button-response","250","1862408","0.0-243.0-0.0","A35TUIBF05DKM4","img_art/26.jpg","0","","","","","","","","","","","","","","","","","","","","","","","","",""
"null","","html-keyboard-response","251","1863921","0.0-244.0","A35TUIBF05DKM4","<p style=""font-size: 48px;"">+</p>","","","","","null","allTrialResponses","1500","1","28","img_art/26.jpg","15","simple, yet beautiful","Jeremy,Mark,Taylor,Trevor,Alejandro,Peter","somewhat happy, like being outside on a nice day,30,60,20","I get the feeling of a small old world street.,24,80,20","At least it is a bit of scenery.,10,200,20","looks like a little kids painting,-17,280,20","Do not like water colors at all,-50,80,20","Reminds me of a European street, I desire to walk in this picture,28,320,20","Mark","I get the feeling of a small old world street.,24,80,20","Taylor","At least it is a bit of scenery.,10,200,20","Jeremy","somewhat happy, like being outside on a nice day,30,60,20","13"
"260564","","survey-text","252","2124489","0.0-245.0-0.0","A35TUIBF05DKM4","","","","{""Q0"":""confused and messy, clouds maybe""}","","","","","","","","","","","","","","","","","","","","","","",""
"3470","","image-slider-response","253","2127960","0.0-246.0","A35TUIBF05DKM4","","","","","-14","","","","","","","","","","","","","","","","","","","","","",""
"1694","","image-button-response","254","2132971","0.0-247.0","A35TUIBF05DKM4","img_art/27.jpg","5","","","","","","","","","","","","","","","","","","","","","","","","",""
"2040","","image-button-response","255","2135011","0.0-248.0","A35TUIBF05DKM4","img_art/27.jpg","5","","","","","","","","","","","","","","","","","","","","","","","","",""
"879","","image-button-response","256","2135891","0.0-249.0-0.0","A35TUIBF05DKM4","img_art/27.jpg","2","","","","","","","","","","","","","","","","","","","","","","","","",""
"1136","","image-button-response","257","2137028","0.0-250.0-0.0","A35TUIBF05DKM4","img_art/27.jpg","4","","","","","","","","","","","","","","","","","","","","","","","","",""
"null","","html-keyboard-response","258","2137531","0.0-251.0","A35TUIBF05DKM4","<p style=""font-size: 48px;"">+</p>","","","","","null","allTrialResponses","500","1","29","img_art/27.jpg","-14","confused and messy, clouds maybe","Jeremy,Mark,Taylor,Mitchell,Zachary,Jacob","Pleased. Reminds me of a child drawing,46,60,20","I see a cathedral through the woods.,12,80,20","Looks like a child added his own interpretation with a black marker.,-5,200,20","Angelic, childlike. happiness but also with sadness.,40,180,20","Color story is boring in nature, and I feel nothing but boredom from this piece.,-20,400,20","Don't get the point of this piece that much, but it doesn't bug me,1,340,20","Jacob","Don't get the point of this piece that much, but it doesn't bug me,1,340,20","Taylor","Looks like a child added his own interpretation with a black marker.,-5,200,20","Zachary","Color story is boring in nature, and I feel nothing but boredom from this piece.,-20,400,20","13"
"12568","","survey-text","259","2150103","0.0-252.0-0.0","A35TUIBF05DKM4","","","","{""Q0"":""a lot of colors mushed together.""}","","","","","","","","","","","","","","","","","","","","","","",""
"2162","","image-slider-response","260","2152266","0.0-253.0","A35TUIBF05DKM4","","","","","-1","","","","","","","","","","","","","","","","","","","","","",""
"4755","","image-button-response","261","2157280","0.0-254.0","A35TUIBF05DKM4","img_art/24.jpg","3","","","","","","","","","","","","","","","","","","","","","","","","",""
"552","","image-button-response","262","2157833","0.0-255.0","A35TUIBF05DKM4","img_art/24.jpg","3","","","","","","","","","","","","","","","","","","","","","","","","",""
"2427","","image-button-response","263","2160262","0.0-256.0-0.0","A35TUIBF05DKM4","img_art/24.jpg","1","","","","","","","","","","","","","","","","","","","","","","","","",""
"1370","","image-button-response","264","2161633","0.0-257.0-0.0","A35TUIBF05DKM4","img_art/24.jpg","2","","","","","","","","","","","","","","","","","","","","","","","","",""
"null","","html-keyboard-response","265","2162141","0.0-258.0","A35TUIBF05DKM4","<p style=""font-size: 48px;"">+</p>","","","","","null","allTrialResponses","500","1","30","img_art/24.jpg","-1","a lot of colors mushed together.","Ryan,Charles,Taylor,Victor,Zachary,Jacob","Beautiful,  peaceful,50,380,20","It just feels a little bland for me,-23,100,20","I actually like this one. You can tell what it is.,25,200,20","I don't even know. It's just kind of meh,1,340,20","Looks like a beautiful stream rolling through terrain of rocks and flowers.,43,400,20","Vibrant, beautiful depiction.,50,340,20","Victor","I don't even know. It's just kind of meh,1,340,20","Charles","It just feels a little bland for me,-23,100,20","Taylor","I actually like this one. You can tell what it is.,25,200,20","13"
"3335","","image-button-response_instructions","266","2165481","0.0-259.0","A35TUIBF05DKM4","","0","instructions","","","","","","","","","","","","","","","","","","","","","","","",""
