"rt","url","trial_type","trial_index","time_elapsed","internal_node_id","participant_id","stimulus","button_pressed","Name","responses","response","key_press","variableName","fixationTime","condition","trial","photo","subjectRating","subjectResponse","agentsNames","agent_1_Response","agent_2_Response","agent_3_Response","agent_4_Response","agent_5_Response","agent_6_Response","kept_1_name","kept_1_response","kept_2_name","kept_2_response","kept_3_name","kept_3_response","errorCounter"
"26538","external_page_harvard.html","external-html","0","26791","0.0-0.0","A366GBJUGP5F9Z","","","","","","","","","","","","","","","","","","","","","","","","","","",""
"1763","","image-button-response","1","28562","0.0-1.0","A366GBJUGP5F9Z","","1","","","","","","","","","","","","","","","","","","","","","","","","",""
"2162","","image-button-response","2","30756","0.0-2.0-0.0","A366GBJUGP5F9Z","","1","phone","","","","","","","","","","","","","","","","","","","","","","","",""
"5661","","survey-text","3","36423","0.0-3.0-0.0","A366GBJUGP5F9Z","","","","{""Q0"":""A366GBJUGP5F9Z""}","","","","","","","","","","","","","","","","","","","","","","",""
"6891","","image-button-response_instructions","4","43323","0.0-4.0","A366GBJUGP5F9Z","","0","instructions","","","","","","","","","","","","","","","","","","","","","","","",""
"13146","","image-button-response_instructions","5","56473","0.0-5.0","A366GBJUGP5F9Z","img_art/ins/popularity/ins1.png","0","instructions","","","","","","","","","","","","","","","","","","","","","","","",""
"11772","","image-button-response_instructions","6","68250","0.0-6.0","A366GBJUGP5F9Z","img_art/ins/popularity/ins2.png","0","instructions","","","","","","","","","","","","","","","","","","","","","","","",""
"2969","","image-button-response_instructions","7","71225","0.0-7.0","A366GBJUGP5F9Z","img_art/ins/popularity/ins2Extreme.png","0","instructions","","","","","","","","","","","","","","","","","","","","","","","",""
"7077","","image-button-response_instructions","8","78306","0.0-8.0","A366GBJUGP5F9Z","img_art/ins/popularity/ins3KEEPpop.PNG","0","instructions","","","","","","","","","","","","","","","","","","","","","","","",""
"11320","","image-button-response_instructions","9","89630","0.0-9.0","A366GBJUGP5F9Z","img_art/ins/popularity/ins3ANamepop.PNG","0","instructions","","","","","","","","","","","","","","","","","","","","","","","",""
"2541","","image-button-response_instructions","10","92178","0.0-10.0","A366GBJUGP5F9Z","img_art/ins/popularity/ins3ARatingpop.png","0","instructions","","","","","","","","","","","","","","","","","","","","","","","",""
"1946","","image-button-response_instructions","11","94128","0.0-11.0","A366GBJUGP5F9Z","img_art/ins/popularity/ins3ATextpop.png","0","instructions","","","","","","","","","","","","","","","","","","","","","","","",""
"4543","","image-button-response_instructions","12","98675","0.0-12.0","A366GBJUGP5F9Z","img_art/ins/popularity/ins3ALikespop.png","0","instructions","","","","","","","","","","","","","","","","","","","","","","","",""
"3835","","image-button-response_instructions","13","102517","0.0-13.0","A366GBJUGP5F9Z","img_art/ins/popularity/ins3KEEPpop.PNG","0","instructions","","","","","","","","","","","","","","","","","","","","","","","",""
"5710","","image-button-response_instructions","14","108230","0.0-14.0","A366GBJUGP5F9Z","img_art/ins/popularity/ins3_5RED.png","0","instructions","","","","","","","","","","","","","","","","","","","","","","","",""
"3735","","image-button-response_instructions","15","111972","0.0-15.0","A366GBJUGP5F9Z","img_art/ins/popularity/ins3KEEPpop.PNG","0","instructions","","","","","","","","","","","","","","","","","","","","","","","",""
"8357","","image-button-response_instructions","16","120334","0.0-16.0","A366GBJUGP5F9Z","img_art/ins/popularity/ins4KEEPpop.PNG","0","instructions","","","","","","","","","","","","","","","","","","","","","","","",""
"3700","","image-button-response_instructions","17","124038","0.0-17.0","A366GBJUGP5F9Z","img_art/ins/popularity/ins5KEEPpop.PNG","0","instructions","","","","","","","","","","","","","","","","","","","","","","","",""
"1825","","image-button-response_instructions","18","125867","0.0-18.0","A366GBJUGP5F9Z","","0","instructions","","","","","","","","","","","","","","","","","","","","","","","",""
"8237","","survey-text","19","134230","0.0-19.0-0.0","A366GBJUGP5F9Z","","","","{""Q0"":""but""}","","","","","","","","","","","","","","","","","","","","","","",""
"14874","","survey-text","20","149113","0.0-20.0-0.0","A366GBJUGP5F9Z","","","","{""Q0"":""it reminds me of a snowy day in spring.""}","","","","","","","","","","","","","","","","","","","","","","",""
"3824.100000023842","","image-slider-response","21","152948","0.0-21.0","A366GBJUGP5F9Z","","","","","12","","","","","","","","","","","","","","","","","","","","","",""
"null","","image-button-response","22","157957","0.0-22.0","A366GBJUGP5F9Z","img_art/ins/1.jpg","null","","","","","","","","","","","","","","","","","","","","","","","","",""
"888","","image-button-response","23","158852","0.0-23.0","A366GBJUGP5F9Z","img_art/ins/1.jpg","5","","","","","","","","","","","","","","","","","","","","","","","","",""
"5268","","image-button-response","24","164130","0.0-24.0-0.0","A366GBJUGP5F9Z","img_art/ins/1.jpg","3","","","","","","","","","","","","","","","","","","","","","","","","",""
"3363","","image-button-response","25","167505","0.0-25.0-0.0","A366GBJUGP5F9Z","img_art/ins/1.jpg","4","","","","","","","","","","","","","","","","","","","","","","","","",""
"null","","html-keyboard-response","26","169025","0.0-26.0","A366GBJUGP5F9Z","<p style=""font-size: 48px;"">+</p>","","","","","null","allTrialResponses","1500","1","-2","img_art/ins/1.jpg","12","it reminds me of a snowy day in spring.","Allison,Ashley,Beth,Dora,Erika,Jen","looks like a lot of things going on in the mist,20,20,20","I just don't get why these type of art would be popular,-32,40,20","This color reminds me of poo,-46,60,20","looks like what my niece in 3rd grade did this afternoon,-50,80,20","I like the sophisticated brushwork,40,100,20","It reminds me of a candy land dream I had,36,120,20","Jen","It reminds me of a candy land dream I had,36,120,20","Dora","looks like what my niece in 3rd grade did this afternoon,-50,80,20","Erika","I like the sophisticated brushwork,40,100,20","0"
"18618","","survey-text","27","187710","0.0-27.0-0.0","A366GBJUGP5F9Z","","","","{""Q0"":""this reminds me of a piece of art from Hobby Lobby, abstract and beautiful!""}","","","","","","","","","","","","","","","","","","","","","","",""
"4394.399999976158","","image-slider-response","28","192113","0.0-28.0","A366GBJUGP5F9Z","","","","","40","","","","","","","","","","","","","","","","","","","","","",""
"4700","","image-button-response","29","197128","0.0-29.0","A366GBJUGP5F9Z","img_art/ins/2.jpg","1","","","","","","","","","","","","","","","","","","","","","","","","",""
"3457","","image-button-response","30","200595","0.0-30.0","A366GBJUGP5F9Z","img_art/ins/2.jpg","1","","","","","","","","","","","","","","","","","","","","","","","","",""
"3391","","image-button-response","31","203996","0.0-31.0-0.0","A366GBJUGP5F9Z","img_art/ins/2.jpg","4","","","","","","","","","","","","","","","","","","","","","","","","",""
"1803","","image-button-response","32","205812","0.0-32.0-0.0","A366GBJUGP5F9Z","img_art/ins/2.jpg","5","","","","","","","","","","","","","","","","","","","","","","","","",""
"null","","html-keyboard-response","33","207334","0.0-33.0","A366GBJUGP5F9Z","<p style=""font-size: 48px;"">+</p>","","","","","null","allTrialResponses","1500","1","-1","img_art/ins/2.jpg","40","this reminds me of a piece of art from Hobby Lobby, abstract and beautiful!","Jenna,Kara,Katie,Dora,Erika,Jen","One of my pet peevs,-48,140,20","I like the blocks of color arrangements,30,160,20","too much color!,-28,180,20","looks too angry,-50,80,20","I would never be able to compose a sophisticated pallete like this,48,100,20","It reminds me of a fireplace,36,120,20","Kara","I like the blocks of color arrangements,30,160,20","Erika","I would never be able to compose a sophisticated pallete like this,48,100,20","Jen","It reminds me of a fireplace,36,120,20","0"
"9713","","survey-text","34","217095","0.0-34.0-0.0","A366GBJUGP5F9Z","","","","{""Q0"":""This reminds me of Frozen, and winter!""}","","","","","","","","","","","","","","","","","","","","","","",""
"4244.5","","image-slider-response","35","221348","0.0-35.0","A366GBJUGP5F9Z","","","","","13","","","","","","","","","","","","","","","","","","","","","",""
"null","","image-button-response","36","226364","0.0-36.0","A366GBJUGP5F9Z","img_art/ins/3.jpg","null","","","","","","","","","","","","","","","","","","","","","","","","",""
"2160","","image-button-response","37","228539","0.0-37.0","A366GBJUGP5F9Z","img_art/ins/3.jpg","1","","","","","","","","","","","","","","","","","","","","","","","","",""
"2927","","image-button-response","38","231477","0.0-38.0-0.0","A366GBJUGP5F9Z","img_art/ins/3.jpg","0","","","","","","","","","","","","","","","","","","","","","","","","",""
"2441","","image-button-response","39","233927","0.0-39.0-0.0","A366GBJUGP5F9Z","img_art/ins/3.jpg","2","","","","","","","","","","","","","","","","","","","","","","","","",""
"null","","html-keyboard-response","40","234480","0.0-40.0","A366GBJUGP5F9Z","<p style=""font-size: 48px;"">+</p>","","","","","null","allTrialResponses","500","1","0","img_art/ins/3.jpg","13","This reminds me of Frozen, and winter!","Mary,Kara,Rose,Leslie,Erika,Jen","I like the overlapping of brushes,41,220,20","calming blue is very nice,36,160,20","My daily routine, it's depressing,-20,240,20","It's an alright work,15,200,20","I feel connected to the artist,40,100,20","I can feel a rainy day from this painting,18,120,20","Kara","calming blue is very nice,36,160,20","Mary","I like the overlapping of brushes,41,220,20","Rose","My daily routine, it's depressing,-20,240,20","0"
"4179","","image-button-response_instructions","41","238682","0.0-41.0","A366GBJUGP5F9Z","","0","instructions","","","","","","","","","","","","","","","","","","","","","","","",""
"14341","","survey-likert","42","253032","0.0-42.0-0.0","A366GBJUGP5F9Z","","","","{""Q0"":"""",""Q1"":0,""Q2"":1}","","","","","","","","","","","","","","","","","","","","","","",""
"3594","","survey-text","43","256648","0.0-43.0-0.0","A366GBJUGP5F9Z","","","","{""Q0"":""rock""}","","","","","","","","","","","","","","","","","","","","","","",""
"14241","","survey-text","44","270895","0.0-44.0-0.0","A366GBJUGP5F9Z","","","","{""Q0"":""This reminds me of mustard and a little bit of ketchup, maybe a cookout.""}","","","","","","","","","","","","","","","","","","","","","","",""
"4478","","image-slider-response","45","275383","0.0-45.0","A366GBJUGP5F9Z","","","","","8","","","","","","","","","","","","","","","","","","","","","",""
"4677","","image-button-response","46","280492","0.0-46.0","A366GBJUGP5F9Z","img_art/4.jpg","4","","","","","","","","","","","","","","","","","","","","","","","","",""
"5296","","image-button-response","47","285804","0.0-47.0","A366GBJUGP5F9Z","img_art/4.jpg","1","","","","","","","","","","","","","","","","","","","","","","","","",""
"5235","","image-button-response","48","291056","0.0-48.0-0.0","A366GBJUGP5F9Z","img_art/4.jpg","0","","","","","","","","","","","","","","","","","","","","","","","","",""
"2771","","image-button-response","49","293842","0.0-49.0-0.0","A366GBJUGP5F9Z","img_art/4.jpg","4","","","","","","","","","","","","","","","","","","","","","","","","",""
"null","","html-keyboard-response","50","294363","0.0-50.0","A366GBJUGP5F9Z","<p style=""font-size: 48px;"">+</p>","","","","","null","allTrialResponses","500","1","1","img_art/4.jpg","8","This reminds me of mustard and a little bit of ketchup, maybe a cookout.","Meghan,Marissa,Alicia,Victoria,Amber,Danielle","feels free flowing and relaxed,21,220,20","I'm disappointed that such a simple piece, with very little effort spent, could be grouped with other detailed pieces,-31,160,20","ordinary, bland. unmoving.,-6,120,20","dont like the colors,-31,400,20","I like the bold style.,10,200,20","Not my preference when it comes to art styles or subjects,-10,340,20","Marissa","I'm disappointed that such a simple piece, with very little effort spent, could be grouped with other detailed pieces,-31,160,20","Meghan","feels free flowing and relaxed,21,220,20","Amber","I like the bold style.,10,200,20","0"
"14013","","survey-text","51","308441","0.0-51.0-0.0","A366GBJUGP5F9Z","","","","{""Q0"":""this is so simple, but it looks like a child did it. ""}","","","","","","","","","","","","","","","","","","","","","","",""
"4280.699999928474","","image-slider-response","52","312730","0.0-52.0","A366GBJUGP5F9Z","","","","","-21","","","","","","","","","","","","","","","","","","","","","",""
"1735","","image-button-response","53","317752","0.0-53.0","A366GBJUGP5F9Z","img_art/3.jpg","2","","","","","","","","","","","","","","","","","","","","","","","","",""
"713","","image-button-response","54","318485","0.0-54.0","A366GBJUGP5F9Z","img_art/3.jpg","2","","","","","","","","","","","","","","","","","","","","","","","","",""
"5121","","image-button-response","55","323616","0.0-55.0-0.0","A366GBJUGP5F9Z","img_art/3.jpg","4","","","","","","","","","","","","","","","","","","","","","","","","",""
"1317","","image-button-response","56","324947","0.0-56.0-0.0","A366GBJUGP5F9Z","img_art/3.jpg","5","","","","","","","","","","","","","","","","","","","","","","","","",""
"null","","html-keyboard-response","57","325961","0.0-57.0","A366GBJUGP5F9Z","<p style=""font-size: 48px;"">+</p>","","","","","null","allTrialResponses","1000","1","2","img_art/3.jpg","-21","this is so simple, but it looks like a child did it. ","Meghan,Marissa,Jordan,Amy,Amber,Jamie","I like that it's messy,14,220,20","It feels like a half assed and failed imitation of Japanese signatures on old paintings,-22,160,20","i don't like this, just looks like scribbles,-50,20,20","i like the colors particulairly the contrast of foreground to background. Exciting and thoughtful.,10,220,20","seems to be a lot of angry scribble.,-20,200,20","Looks like somebody squirted ketchup everywhere,-40,320,20","Jordan","i don't like this, just looks like scribbles,-50,20,20","Amber","seems to be a lot of angry scribble.,-20,200,20","Jamie","Looks like somebody squirted ketchup everywhere,-40,320,20","0"
"14775","","survey-text","58","340788","0.0-58.0-0.0","A366GBJUGP5F9Z","","","","{""Q0"":""This reminds me of a roller coaster in a nature theme park.""}","","","","","","","","","","","","","","","","","","","","","","",""
"3953.100000023842","","image-slider-response","59","344750","0.0-59.0","A366GBJUGP5F9Z","","","","","3","","","","","","","","","","","","","","","","","","","","","",""
"4553","","image-button-response","60","349768","0.0-60.0","A366GBJUGP5F9Z","img_art/10.jpg","1","","","","","","","","","","","","","","","","","","","","","","","","",""
"1704","","image-button-response","61","351492","0.0-61.0","A366GBJUGP5F9Z","img_art/10.jpg","0","","","","","","","","","","","","","","","","","","","","","","","","",""
"787","","image-button-response","62","352288","0.0-62.0-0.0","A366GBJUGP5F9Z","img_art/10.jpg","1","","","","","","","","","","","","","","","","","","","","","","","","",""
"3942","","image-button-response","63","356239","0.0-63.0-0.0","A366GBJUGP5F9Z","img_art/10.jpg","5","","","","","","","","","","","","","","","","","","","","","","","","",""
"null","","html-keyboard-response","64","357258","0.0-64.0","A366GBJUGP5F9Z","<p style=""font-size: 48px;"">+</p>","","","","","null","allTrialResponses","1000","1","3","img_art/10.jpg","3","This reminds me of a roller coaster in a nature theme park.","Olivia,Katelyn,Jordan,Leslie,Amber,Jamie","feeling the turmoil and ride,12,40,20","It makes me think of music and i love the reflective aspect,29,100,20","I dont like it, there is too much going on,-19,20,20","I love the chaotic feel of the brush strokes.,35,380,20","This picture just seems depressing.,-26,200,20","Well done designs for being considered abstract,45,320,20","Olivia","feeling the turmoil and ride,12,40,20","Katelyn","It makes me think of music and i love the reflective aspect,29,100,20","Jamie","Well done designs for being considered abstract,45,320,20","0"
"7648","","survey-text","65","364938","0.0-65.0-0.0","A366GBJUGP5F9Z","","","","{""Q0"":""this reminds me of a rainy day""}","","","","","","","","","","","","","","","","","","","","","","",""
"4345.799999952316","","image-slider-response","66","369290","0.0-66.0","A366GBJUGP5F9Z","","","","","34","","","","","","","","","","","","","","","","","","","","","",""
"3477","","image-button-response","67","374308","0.0-67.0","A366GBJUGP5F9Z","img_art/13.jpg","1","","","","","","","","","","","","","","","","","","","","","","","","",""
"1270","","image-button-response","68","375585","0.0-68.0","A366GBJUGP5F9Z","img_art/13.jpg","1","","","","","","","","","","","","","","","","","","","","","","","","",""
"1927","","image-button-response","69","377522","0.0-69.0-0.0","A366GBJUGP5F9Z","img_art/13.jpg","3","","","","","","","","","","","","","","","","","","","","","","","","",""
"976","","image-button-response","70","378508","0.0-70.0-0.0","A366GBJUGP5F9Z","img_art/13.jpg","4","","","","","","","","","","","","","","","","","","","","","","","","",""
"null","","html-keyboard-response","71","380017","0.0-71.0","A366GBJUGP5F9Z","<p style=""font-size: 48px;"">+</p>","","","","","null","allTrialResponses","1500","1","4","img_art/13.jpg","34","this reminds me of a rainy day","Olivia,Katelyn,Kimberly,Michaela,Alyssa,Jamie","eighties here we come,7,40,20","Really like this. Its like looking out a window into a beautiful storm,39,100,20","It's like a pattern on a bus seat,10,260,20","The colors are really pretty together,39,260,20","Pretty and it reminds me of rain droplets running down a window on a rainy day.,40,160,20","Cool colors and looks like rain on a window,45,320,20","Katelyn","Really like this. Its like looking out a window into a beautiful storm,39,100,20","Michaela","The colors are really pretty together,39,260,20","Alyssa","Pretty and it reminds me of rain droplets running down a window on a rainy day.,40,160,20","0"
"11301","","survey-text","72","391379","0.0-72.0-0.0","A366GBJUGP5F9Z","","","","{""Q0"":""beautiful tree and beach""}","","","","","","","","","","","","","","","","","","","","","","",""
"3415.8000000715256","","image-slider-response","73","394803","0.0-73.0","A366GBJUGP5F9Z","","","","","47","","","","","","","","","","","","","","","","","","","","","",""
"4831","","image-button-response","74","399828","0.0-74.0","A366GBJUGP5F9Z","img_art/14.jpg","0","","","","","","","","","","","","","","","","","","","","","","","","",""
"1205","","image-button-response","75","401054","0.0-75.0","A366GBJUGP5F9Z","img_art/14.jpg","0","","","","","","","","","","","","","","","","","","","","","","","","",""
"2651","","image-button-response","76","403715","0.0-76.0-0.0","A366GBJUGP5F9Z","img_art/14.jpg","2","","","","","","","","","","","","","","","","","","","","","","","","",""
"1658","","image-button-response","77","405385","0.0-77.0-0.0","A366GBJUGP5F9Z","img_art/14.jpg","4","","","","","","","","","","","","","","","","","","","","","","","","",""
"null","","html-keyboard-response","78","406894","0.0-78.0","A366GBJUGP5F9Z","<p style=""font-size: 48px;"">+</p>","","","","","null","allTrialResponses","1500","1","5","img_art/14.jpg","47","beautiful tree and beach","Catherine,Katelyn,Samantha,Michaela,Alyssa,Andrea","Tornado, nature. trees falling and displaced creatures. Love the colors though.,1,160,20","Its cute. Not striking but i would keep it in my home.,10,100,20","I love the feeling of the tree and people. Makes me happy,50,140,20","I just really like light and wispy things,33,260,20","Beautiful tree,the use of water colors makes it soothing to look at,37,160,20","Cute little plant.,15,240,20","Catherine","Tornado, nature. trees falling and displaced creatures. Love the colors though.,1,160,20","Samantha","I love the feeling of the tree and people. Makes me happy,50,140,20","Alyssa","Beautiful tree,the use of water colors makes it soothing to look at,37,160,20","0"
"3196","","survey-text","79","410158","0.0-79.0-0.0","A366GBJUGP5F9Z","","","","{""Q0"":""sky""}","","","","","","","","","","","","","","","","","","","","","","",""
"10761","","survey-text","80","420925","0.0-80.0-0.0","A366GBJUGP5F9Z","","","","{""Q0"":""i like the brush strokes, but it looks a mess.""}","","","","","","","","","","","","","","","","","","","","","","",""
"4529.300000071526","","image-slider-response","81","425462","0.0-81.0","A366GBJUGP5F9Z","","","","","-36","","","","","","","","","","","","","","","","","","","","","",""
"4582","","image-button-response","82","430490","0.0-82.0","A366GBJUGP5F9Z","img_art/30.jpg","3","","","","","","","","","","","","","","","","","","","","","","","","",""
"1879","","image-button-response","83","432383","0.0-83.0","A366GBJUGP5F9Z","img_art/30.jpg","3","","","","","","","","","","","","","","","","","","","","","","","","",""
"3306","","image-button-response","84","435700","0.0-84.0-0.0","A366GBJUGP5F9Z","img_art/30.jpg","2","","","","","","","","","","","","","","","","","","","","","","","","",""
"3157","","image-button-response","85","438867","0.0-85.0-0.0","A366GBJUGP5F9Z","img_art/30.jpg","1","","","","","","","","","","","","","","","","","","","","","","","","",""
"null","","html-keyboard-response","86","440386","0.0-86.0","A366GBJUGP5F9Z","<p style=""font-size: 48px;"">+</p>","","","","","null","allTrialResponses","1500","1","6","img_art/30.jpg","-36","i like the brush strokes, but it looks a mess.","Catherine,Maria,Samantha,Madison,Alyssa,Alexandria","connection, Everything is connected even in contrast.,42,160,20","uplifted and yet calmed,15,120,20","Too much like childrens finger paint. I dont like the smear of blended colors,-50,140,20","Interesting brushstroke work, but not particularly memorable.,21,60,20","ugly nasty colors,-10,160,20","the lines and colors look purposeful,18,80,20","Madison","Interesting brushstroke work, but not particularly memorable.,21,60,20","Samantha","Too much like childrens finger paint. I dont like the smear of blended colors,-50,140,20","Maria","uplifted and yet calmed,15,120,20","0"
"13580","","survey-text","87","454028","0.0-87.0-0.0","A366GBJUGP5F9Z","","","","{""Q0"":""this reminds me of blue jays and butterflies.""}","","","","","","","","","","","","","","","","","","","","","","",""
"4492.800000071526","","image-slider-response","88","458528","0.0-88.0","A366GBJUGP5F9Z","","","","","50","","","","","","","","","","","","","","","","","","","","","",""
"3383","","image-button-response","89","463551","0.0-89.0","A366GBJUGP5F9Z","img_art/18.jpg","5","","","","","","","","","","","","","","","","","","","","","","","","",""
"794","","image-button-response","90","464357","0.0-90.0","A366GBJUGP5F9Z","img_art/18.jpg","5","","","","","","","","","","","","","","","","","","","","","","","","",""
"1718","","image-button-response","91","466084","0.0-91.0-0.0","A366GBJUGP5F9Z","img_art/18.jpg","2","","","","","","","","","","","","","","","","","","","","","","","","",""
"939","","image-button-response","92","467034","0.0-92.0-0.0","A366GBJUGP5F9Z","img_art/18.jpg","0","","","","","","","","","","","","","","","","","","","","","","","","",""
"null","","html-keyboard-response","93","468549","0.0-93.0","A366GBJUGP5F9Z","<p style=""font-size: 48px;"">+</p>","","","","","null","allTrialResponses","1500","1","7","img_art/18.jpg","50","this reminds me of blue jays and butterflies.","Anna,Maria,Samantha,Madison,Cassandra,Erika","I could spend a long time looking at it and see different things in the shapes.,21,300,20","enjoy the juxtaposition of abstract with tangible elements & the use of color,10,120,20","Id love to see this piece closer. So much extra details hidden it it.,50,140,20","Pleasant design and composition, unpleasant theme and focus.,-19,60,20","I don't know...kind of a dissatified feeling inside.,-6,120,20","Gently chaotic and beautiful,40,100,20","Erika","Gently chaotic and beautiful,40,100,20","Samantha","Id love to see this piece closer. So much extra details hidden it it.,50,140,20","Anna","I could spend a long time looking at it and see different things in the shapes.,21,300,20","0"
"14926","","survey-text","94","483501","0.0-94.0-0.0","A366GBJUGP5F9Z","","","","{""Q0"":""a home and yard, done by a child. beautiful colors though. ""}","","","","","","","","","","","","","","","","","","","","","","",""
"8791.399999976158","","image-slider-response","95","492302","0.0-95.0","A366GBJUGP5F9Z","","","","","1","","","","","","","","","","","","","","","","","","","","","",""
"null","","image-button-response","96","497328","0.0-96.0","A366GBJUGP5F9Z","img_art/26.jpg","null","","","","","","","","","","","","","","","","","","","","","","","","",""
"1424","","image-button-response","97","498763","0.0-97.0","A366GBJUGP5F9Z","img_art/26.jpg","0","","","","","","","","","","","","","","","","","","","","","","","","",""
"2651","","image-button-response","98","501423","0.0-98.0-0.0","A366GBJUGP5F9Z","img_art/26.jpg","3","","","","","","","","","","","","","","","","","","","","","","","","",""
"1329","","image-button-response","99","502762","0.0-99.0-0.0","A366GBJUGP5F9Z","img_art/26.jpg","4","","","","","","","","","","","","","","","","","","","","","","","","",""
"null","","html-keyboard-response","100","504282","0.0-100.0","A366GBJUGP5F9Z","<p style=""font-size: 48px;"">+</p>","","","","","null","allTrialResponses","1500","1","8","img_art/26.jpg","1","a home and yard, done by a child. beautiful colors though. ","Anna,Sarah,Samantha,Megan,Ashley,Erika","It looks like a watercolor I did when I was 6.,-30,300,20","too hard to figure out if it's meant to be actual objects or impressions,-36,180,20","I like the colors and trees. Seems cheap vintage retail store art but i love it anyways,50,140,20","Washed out suburban scene with childish tones.,-24,200,20","Telented watercolor artist or second grader.,18,320,20","Feels like still life,-13,100,20","Anna","It looks like a watercolor I did when I was 6.,-30,300,20","Megan","Washed out suburban scene with childish tones.,-24,200,20","Ashley","Telented watercolor artist or second grader.,18,320,20","0"
"10185","","survey-text","101","514522","0.0-101.0-0.0","A366GBJUGP5F9Z","","","","{""Q0"":""childish, but it reminds me of fall. ""}","","","","","","","","","","","","","","","","","","","","","","",""
"4101.199999928474","","image-slider-response","102","518633","0.0-102.0","A366GBJUGP5F9Z","","","","","1","","","","","","","","","","","","","","","","","","","","","",""
"null","","image-button-response","103","523658","0.0-103.0","A366GBJUGP5F9Z","img_art/27.jpg","null","","","","","","","","","","","","","","","","","","","","","","","","",""
"972","","image-button-response","104","524647","0.0-104.0","A366GBJUGP5F9Z","img_art/27.jpg","5","","","","","","","","","","","","","","","","","","","","","","","","",""
"3207","","image-button-response","105","527864","0.0-105.0-0.0","A366GBJUGP5F9Z","img_art/27.jpg","3","","","","","","","","","","","","","","","","","","","","","","","","",""
"1938","","image-button-response","106","529810","0.0-106.0-0.0","A366GBJUGP5F9Z","img_art/27.jpg","0","","","","","","","","","","","","","","","","","","","","","","","","",""
"null","","html-keyboard-response","107","531332","0.0-107.0","A366GBJUGP5F9Z","<p style=""font-size: 48px;"">+</p>","","","","","null","allTrialResponses","1500","1","9","img_art/27.jpg","1","childish, but it reminds me of fall. ","Anna,Christina,Jacqueline,Megan,Ashley,Morgan","It looks like when my little sister took magic markers to the wall.,-11,300,20","I like the orange but it's a little blah,1,240,20","I don't really see anything to this art.,-5,300,20","Nice back ground with childish scribble on top,-30,200,20","Lots of activity, layers, imagination at work here.,29,320,20","Messy field of various plants.,-5,380,20","Morgan","Messy field of various plants.,-5,380,20","Megan","Nice back ground with childish scribble on top,-30,200,20","Anna","It looks like when my little sister took magic markers to the wall.,-11,300,20","0"
"16720","","survey-text","108","548085","0.0-108.0-0.0","A366GBJUGP5F9Z","","","","{""Q0"":""a bird on a plain, its so simple and childish but the colors work together. ""}","","","","","","","","","","","","","","","","","","","","","","",""
"3834.4000000953674","","image-slider-response","109","551925","0.0-109.0","A366GBJUGP5F9Z","","","","","14","","","","","","","","","","","","","","","","","","","","","",""
"2838","","image-button-response","110","556941","0.0-110.0","A366GBJUGP5F9Z","img_art/6.jpg","0","","","","","","","","","","","","","","","","","","","","","","","","",""
"613","","image-button-response","111","557571","0.0-111.0","A366GBJUGP5F9Z","img_art/6.jpg","0","","","","","","","","","","","","","","","","","","","","","","","","",""
"10292","","image-button-response","112","567870","0.0-112.0-0.0","A366GBJUGP5F9Z","img_art/6.jpg","4","","","","","","","","","","","","","","","","","","","","","","","","",""
"700","","image-button-response","113","568577","0.0-113.0-0.0","A366GBJUGP5F9Z","img_art/6.jpg","3","","","","","","","","","","","","","","","","","","","","","","","","",""
"null","","html-keyboard-response","114","569586","0.0-114.0","A366GBJUGP5F9Z","<p style=""font-size: 48px;"">+</p>","","","","","null","allTrialResponses","1000","1","10","img_art/6.jpg","14","a bird on a plain, its so simple and childish but the colors work together. ","Anna,Madeline,Kaylee,Megan,Grace,Morgan","It reminds me of a simplistic bird. I like the colors used.,40,300,20","Looks a bit like a pickle or something?,-16,40,20","just an another tree on a desert?,9,200,20","Odd desert, nice sand color with headless bird,11,200,20","Growth in the desert?  Don't care for it very much.,-26,180,20","Desert that's too simple.,-15,380,20","Anna","It reminds me of a simplistic bird. I like the colors used.,40,300,20","Grace","Growth in the desert?  Don't care for it very much.,-26,180,20","Megan","Odd desert, nice sand color with headless bird,11,200,20","0"
"3569","","survey-text","115","573231","0.0-115.0-0.0","A366GBJUGP5F9Z","","","","{""Q0"":""our""}","","","","","","","","","","","","","","","","","","","","","","",""
"15951","","survey-text","116","589189","0.0-116.0-0.0","A366GBJUGP5F9Z","","","","{""Q0"":""this is super abstract. i love the glitter like design in the background. ""}","","","","","","","","","","","","","","","","","","","","","","",""
"5149.899999976158","","image-slider-response","117","594355","0.0-117.0","A366GBJUGP5F9Z","","","","","29","","","","","","","","","","","","","","","","","","","","","",""
"4062","","image-button-response","118","599372","0.0-118.0","A366GBJUGP5F9Z","img_art/23.jpg","0","","","","","","","","","","","","","","","","","","","","","","","","",""
"1060","","image-button-response","119","600450","0.0-119.0","A366GBJUGP5F9Z","img_art/23.jpg","0","","","","","","","","","","","","","","","","","","","","","","","","",""
"2542","","image-button-response","120","602999","0.0-120.0-0.0","A366GBJUGP5F9Z","img_art/23.jpg","4","","","","","","","","","","","","","","","","","","","","","","","","",""
"1893","","image-button-response","121","604900","0.0-121.0-0.0","A366GBJUGP5F9Z","img_art/23.jpg","2","","","","","","","","","","","","","","","","","","","","","","","","",""
"null","","html-keyboard-response","122","606408","0.0-122.0","A366GBJUGP5F9Z","<p style=""font-size: 48px;"">+</p>","","","","","null","allTrialResponses","1500","1","11","img_art/23.jpg","29","this is super abstract. i love the glitter like design in the background. ","Anna,Laura,Hannah,Megan,Grace,Elizabeth","I love the colors and the contrast.,50,300,20","teeth! dancing people, celebrations,-39,320,20","This one is interesting. Looks like people with maybe musical instruments?,11,240,20","Too busy with color with warrior lineup,0,200,20","Looks like fireworks.,21,180,20","Fantastic blend of color and forms,43,20,20","Anna","I love the colors and the contrast.,50,300,20","Grace","Looks like fireworks.,21,180,20","Hannah","This one is interesting. Looks like people with maybe musical instruments?,11,240,20","0"
"11176","","survey-text","123","617647","0.0-123.0-0.0","A366GBJUGP5F9Z","","","","{""Q0"":""i love the bear and montage effect this has.""}","","","","","","","","","","","","","","","","","","","","","","",""
"3369.2999999523163","","image-slider-response","124","621023","0.0-124.0","A366GBJUGP5F9Z","","","","","13","","","","","","","","","","","","","","","","","","","","","",""
"null","","image-button-response","125","626041","0.0-125.0","A366GBJUGP5F9Z","img_art/16.jpg","null","","","","","","","","","","","","","","","","","","","","","","","","",""
"707","","image-button-response","126","626754","0.0-126.0","A366GBJUGP5F9Z","img_art/16.jpg","0","","","","","","","","","","","","","","","","","","","","","","","","",""
"1722","","image-button-response","127","628484","0.0-127.0-0.0","A366GBJUGP5F9Z","img_art/16.jpg","1","","","","","","","","","","","","","","","","","","","","","","","","",""
"10730","","image-button-response","128","639223","0.0-128.0-0.0","A366GBJUGP5F9Z","img_art/16.jpg","3","","","","","","","","","","","","","","","","","","","","","","","","",""
"null","","html-keyboard-response","129","639735","0.0-129.0","A366GBJUGP5F9Z","<p style=""font-size: 48px;"">+</p>","","","","","null","allTrialResponses","500","1","12","img_art/16.jpg","13","i love the bear and montage effect this has.","Anna,Mary,Hannah,Vanessa,Grace,Caroline","It's edgy but cool,10,300,20","This is a neat piece. Sort of shocking. I think it's too monochromatic though.,19,180,20","This is weird and a little creepy.,6,240,20","This is too bizarre.,-39,380,20","Something terrible happened. Either the figure on the right is the victim or another shredded toy.,-49,180,20","Did not like at all. I think something sinister going on in the background and the bear a diversion,-50,100,20","Anna","It's edgy but cool,10,300,20","Mary","This is a neat piece. Sort of shocking. I think it's too monochromatic though.,19,180,20","Vanessa","This is too bizarre.,-39,380,20","0"
"13155","","survey-text","130","652948","0.0-130.0-0.0","A366GBJUGP5F9Z","","","","{""Q0"":""abstract, but the colors work amazingly well together. ""}","","","","","","","","","","","","","","","","","","","","","","",""
"3441.100000023842","","image-slider-response","131","656397","0.0-131.0","A366GBJUGP5F9Z","","","","","31","","","","","","","","","","","","","","","","","","","","","",""
"null","","image-button-response","132","661410","0.0-132.0","A366GBJUGP5F9Z","img_art/12.jpg","null","","","","","","","","","","","","","","","","","","","","","","","","",""
"663","","image-button-response","133","662087","0.0-133.0","A366GBJUGP5F9Z","img_art/12.jpg","0","","","","","","","","","","","","","","","","","","","","","","","","",""
"2153","","image-button-response","134","664247","0.0-134.0-0.0","A366GBJUGP5F9Z","img_art/12.jpg","5","","","","","","","","","","","","","","","","","","","","","","","","",""
"2358","","image-button-response","135","666613","0.0-135.0-0.0","A366GBJUGP5F9Z","img_art/12.jpg","2","","","","","","","","","","","","","","","","","","","","","","","","",""
"null","","html-keyboard-response","136","667127","0.0-136.0","A366GBJUGP5F9Z","<p style=""font-size: 48px;"">+</p>","","","","","null","allTrialResponses","500","1","13","img_art/12.jpg","31","abstract, but the colors work amazingly well together. ","Anna,Mary,Kelly,Vanessa,Lauren,Sabrina","Therapist wall art.,10,300,20","The colors are ok. The piece reminds me of the 90s era, so I kinda like it!,-4,180,20","It's pretty, I find it interesting to look at.,10,220,20","This is too abstract and the colors are too worn out.,-23,380,20","This doesn't invoke anything. Just a mosaic of random images.,0,340,20","I like the fact it shares both light and edgy,32,120,20","Anna","Therapist wall art.,10,300,20","Sabrina","I like the fact it shares both light and edgy,32,120,20","Kelly","It's pretty, I find it interesting to look at.,10,220,20","0"
"14681","","survey-text","137","681868","0.0-137.0-0.0","A366GBJUGP5F9Z","","","","{""Q0"":""this reminds me of the Christmas Tree Villages. ""}","","","","","","","","","","","","","","","","","","","","","","",""
"3491.2999999523163","","image-slider-response","138","685366","0.0-138.0","A366GBJUGP5F9Z","","","","","7","","","","","","","","","","","","","","","","","","","","","",""
"null","","image-button-response","139","690384","0.0-139.0","A366GBJUGP5F9Z","img_art/19.jpg","null","","","","","","","","","","","","","","","","","","","","","","","","",""
"1172","","image-button-response","140","691572","0.0-140.0","A366GBJUGP5F9Z","img_art/19.jpg","0","","","","","","","","","","","","","","","","","","","","","","","","",""
"1372","","image-button-response","141","692951","0.0-141.0-0.0","A366GBJUGP5F9Z","img_art/19.jpg","4","","","","","","","","","","","","","","","","","","","","","","","","",""
"1401","","image-button-response","142","694364","0.0-142.0-0.0","A366GBJUGP5F9Z","img_art/19.jpg","3","","","","","","","","","","","","","","","","","","","","","","","","",""
"null","","html-keyboard-response","143","695381","0.0-143.0","A366GBJUGP5F9Z","<p style=""font-size: 48px;"">+</p>","","","","","null","allTrialResponses","1000","1","14","img_art/19.jpg","7","this reminds me of the Christmas Tree Villages. ","Anna,Abigail,Kelly,Brooke,Melissa,Sabrina","I like the shapes.,22,300,20","I dont like the gray shadows, ruins it,-7,20,20","TOo much brown.,-24,220,20","Snowy winter scene,25,60,20","feels free and loose,3,240,20","Gives a very open and freeing vibe,42,120,20","Anna","I like the shapes.,22,300,20","Melissa","feels free and loose,3,240,20","Brooke","Snowy winter scene,25,60,20","0"
"15368","","survey-text","144","710782","0.0-144.0-0.0","A366GBJUGP5F9Z","","","","{""Q0"":""this looks like a city in the middle of an ice block, childish. ""}","","","","","","","","","","","","","","","","","","","","","","",""
"3450.899999976158","","image-slider-response","145","714239","0.0-145.0","A366GBJUGP5F9Z","","","","","-12","","","","","","","","","","","","","","","","","","","","","",""
"null","","image-button-response","146","719256","0.0-146.0","A366GBJUGP5F9Z","img_art/9.jpg","null","","","","","","","","","","","","","","","","","","","","","","","","",""
"622","","image-button-response","147","719884","0.0-147.0","A366GBJUGP5F9Z","img_art/9.jpg","0","","","","","","","","","","","","","","","","","","","","","","","","",""
"2259","","image-button-response","148","722151","0.0-148.0-0.0","A366GBJUGP5F9Z","img_art/9.jpg","2","","","","","","","","","","","","","","","","","","","","","","","","",""
"3611","","image-button-response","149","725770","0.0-149.0-0.0","A366GBJUGP5F9Z","img_art/9.jpg","3","","","","","","","","","","","","","","","","","","","","","","","","",""
"null","","html-keyboard-response","150","727288","0.0-150.0","A366GBJUGP5F9Z","<p style=""font-size: 48px;"">+</p>","","","","","null","allTrialResponses","1500","1","15","img_art/9.jpg","-12","this looks like a city in the middle of an ice block, childish. ","Anna,Chloe,Lindsey,Brooke,Melissa,Kaitlin","It looks like a child's crayon drawing.,-10,300,20","Cheesy. Looks unprofessional,-20,220,20","Looks like my niece's doodles.,-50,400,20","Dark fantasy seaside cave carnival? Fun.,15,60,20","strong focal point, appealing use of selective line,11,240,20","this looks to be a child nightmare,-10,60,20","Anna","It looks like a child's crayon drawing.,-10,300,20","Lindsey","Looks like my niece's doodles.,-50,400,20","Brooke","Dark fantasy seaside cave carnival? Fun.,15,60,20","0"
"7181","","survey-text","151","734543","0.0-151.0-0.0","A366GBJUGP5F9Z","","","","{""Q0"":""course""}","","","","","","","","","","","","","","","","","","","","","","",""
"20043","","survey-text","152","754593","0.0-152.0-0.0","A366GBJUGP5F9Z","","","","{""Q0"":""this reminds me of a professional artist, a waterfall and some leaves on a mountain.""}","","","","","","","","","","","","","","","","","","","","","","",""
"5598.800000071526","","image-slider-response","153","760201","0.0-153.0","A366GBJUGP5F9Z","","","","","46","","","","","","","","","","","","","","","","","","","","","",""
"null","","image-button-response","154","765222","0.0-154.0","A366GBJUGP5F9Z","img_art/24.jpg","null","","","","","","","","","","","","","","","","","","","","","","","","",""
"2214","","image-button-response","155","767441","0.0-155.0","A366GBJUGP5F9Z","img_art/24.jpg","0","","","","","","","","","","","","","","","","","","","","","","","","",""
"4259","","image-button-response","156","771708","0.0-156.0-0.0","A366GBJUGP5F9Z","img_art/24.jpg","4","","","","","","","","","","","","","","","","","","","","","","","","",""
"1002","","image-button-response","157","772720","0.0-157.0-0.0","A366GBJUGP5F9Z","img_art/24.jpg","2","","","","","","","","","","","","","","","","","","","","","","","","",""
"null","","html-keyboard-response","158","773741","0.0-158.0","A366GBJUGP5F9Z","<p style=""font-size: 48px;"">+</p>","","","","","null","allTrialResponses","1000","1","16","img_art/24.jpg","46","this reminds me of a professional artist, a waterfall and some leaves on a mountain.","Anna,Angelica,Lindsey,Brooke,Leah,Mackenzie","I like how it evokes the feeling of being in a forest. The colors are pretty,31,300,20","This looks ugly and simple, as if done by a young person.,-2,280,20","I like the colors and see a stream in a wooded setting. Makes me feel calm and cheerful.,27,400,20","Mountain stream pineapple texture?,30,60,20","Happy, the forest as I would love to see it,50,360,20","I like the vivid colors and different textures,32,20,20","Anna","I like how it evokes the feeling of being in a forest. The colors are pretty,31,300,20","Leah","Happy, the forest as I would love to see it,50,360,20","Lindsey","I like the colors and see a stream in a wooded setting. Makes me feel calm and cheerful.,27,400,20","0"
"17290","","survey-text","159","791086","0.0-159.0-0.0","A366GBJUGP5F9Z","","","","{""Q0"":""too much white, not enough shadowing. but professional feeling. ""}","","","","","","","","","","","","","","","","","","","","","","",""
"9988","","image-slider-response","160","801081","0.0-160.0","A366GBJUGP5F9Z","","","","","-4","","","","","","","","","","","","","","","","","","","","","",""
"null","","image-button-response","161","806106","0.0-161.0","A366GBJUGP5F9Z","img_art/17.jpg","null","","","","","","","","","","","","","","","","","","","","","","","","",""
"673","","image-button-response","162","806789","0.0-162.0","A366GBJUGP5F9Z","img_art/17.jpg","4","","","","","","","","","","","","","","","","","","","","","","","","",""
"3158","","image-button-response","163","809955","0.0-163.0-0.0","A366GBJUGP5F9Z","img_art/17.jpg","1","","","","","","","","","","","","","","","","","","","","","","","","",""
"4391","","image-button-response","164","814355","0.0-164.0-0.0","A366GBJUGP5F9Z","img_art/17.jpg","2","","","","","","","","","","","","","","","","","","","","","","","","",""
"null","","html-keyboard-response","165","815875","0.0-165.0","A366GBJUGP5F9Z","<p style=""font-size: 48px;"">+</p>","","","","","null","allTrialResponses","1500","1","17","img_art/17.jpg","-4","too much white, not enough shadowing. but professional feeling. ","Anna,Erin,Lindsey,Molly,Leah,Katherine","it brings a clear picture to my minds eye:,45,300,20","Windows indoor tree, weird palette,-11,120,20","Pretty composition and I like the colors.,20,400,20","Wow, I haven't seen anything better than this.,40,340,20","Love the colors, the flow, like a strange storm or tree off the balcony,50,360,20","Looks like a weird blurry heaven again! I dig,32,120,20","Leah","Love the colors, the flow, like a strange storm or tree off the balcony,50,360,20","Erin","Windows indoor tree, weird palette,-11,120,20","Lindsey","Pretty composition and I like the colors.,20,400,20","0"
"20802","","survey-text","166","836746","0.0-166.0-0.0","A366GBJUGP5F9Z","","","","{""Q0"":""beautiful colors, like a beachfront city. kinda blurred on the bottom tho""}","","","","","","","","","","","","","","","","","","","","","","",""
"3686.899999976158","","image-slider-response","167","840442","0.0-167.0","A366GBJUGP5F9Z","","","","","14","","","","","","","","","","","","","","","","","","","","","",""
"null","","image-button-response","168","845464","0.0-168.0","A366GBJUGP5F9Z","img_art/20.jpg","null","","","","","","","","","","","","","","","","","","","","","","","","",""
"1493","","image-button-response","169","846963","0.0-169.0","A366GBJUGP5F9Z","img_art/20.jpg","3","","","","","","","","","","","","","","","","","","","","","","","","",""
"3501","","image-button-response","170","850476","0.0-170.0-0.0","A366GBJUGP5F9Z","img_art/20.jpg","5","","","","","","","","","","","","","","","","","","","","","","","","",""
"889","","image-button-response","171","851375","0.0-171.0-0.0","A366GBJUGP5F9Z","img_art/20.jpg","0","","","","","","","","","","","","","","","","","","","","","","","","",""
"null","","html-keyboard-response","172","852898","0.0-172.0","A366GBJUGP5F9Z","<p style=""font-size: 48px;"">+</p>","","","","","null","allTrialResponses","1500","1","18","img_art/20.jpg","14","beautiful colors, like a beachfront city. kinda blurred on the bottom tho","Savannah,Erin,Lindsey,Crystal,Leah,Brittany","Lovely composition, colors, and message.,35,200,20","Dark frame overpowers the image,-6,120,20","Not sure what it is. The colors are pleasant; makes me want to figure it out. An animal skull in the desert?,10,400,20","The pulling and sagging nature is very beautiful.,30,300,20","A sad past town, pollution, guess I like happier scenes,-30,360,20","The colors and the scene depicted is interesting.,13,40,20","Crystal","The pulling and sagging nature is very beautiful.,30,300,20","Brittany","The colors and the scene depicted is interesting.,13,40,20","Savannah","Lovely composition, colors, and message.,35,200,20","0"
"27534","","survey-text","173","880458","0.0-173.0-0.0","A366GBJUGP5F9Z","","","","{""Q0"":""the 3 primary colors sure make beautiful, yet simple designs. i love this. something you would see in a professional setting""}","","","","","","","","","","","","","","","","","","","","","","",""
"4515.600000023842","","image-slider-response","174","884981","0.0-174.0","A366GBJUGP5F9Z","","","","","36","","","","","","","","","","","","","","","","","","","","","",""
"null","","image-button-response","175","889997","0.0-175.0","A366GBJUGP5F9Z","img_art/22.jpg","null","","","","","","","","","","","","","","","","","","","","","","","","",""
"978","","image-button-response","176","890991","0.0-176.0","A366GBJUGP5F9Z","img_art/22.jpg","1","","","","","","","","","","","","","","","","","","","","","","","","",""
"2875","","image-button-response","177","893875","0.0-177.0-0.0","A366GBJUGP5F9Z","img_art/22.jpg","5","","","","","","","","","","","","","","","","","","","","","","","","",""
"1316","","image-button-response","178","895204","0.0-178.0-0.0","A366GBJUGP5F9Z","img_art/22.jpg","3","","","","","","","","","","","","","","","","","","","","","","","","",""
"null","","html-keyboard-response","179","895720","0.0-179.0","A366GBJUGP5F9Z","<p style=""font-size: 48px;"">+</p>","","","","","null","allTrialResponses","500","1","19","img_art/22.jpg","36","the 3 primary colors sure make beautiful, yet simple designs. i love this. something you would see in a professional setting","Savannah,Dominique,Heather,Crystal,Sierra,Brittany","Seems too simple.,-19,200,20","Can fit with anyone. And in any home a great piece of art,35,400,20","i think its pretty but im not sure what i see,1,260,20","Beautiful use of chalk or pastels. Love the abstract nature.,35,300,20","colorful. but not much happening,1,260,20","It reminds me of sunsets and dusks.,22,40,20","Dominique","Can fit with anyone. And in any home a great piece of art,35,400,20","Brittany","It reminds me of sunsets and dusks.,22,40,20","Crystal","Beautiful use of chalk or pastels. Love the abstract nature.,35,300,20","0"
"20119","","survey-text","180","915900","0.0-180.0-0.0","A366GBJUGP5F9Z","","","","{""Q0"":""im not sure what im seeing, but it reminds me of what one would see carved into pyramids.""}","","","","","","","","","","","","","","","","","","","","","","",""
"5000.099999904633","","image-slider-response","181","920908","0.0-181.0","A366GBJUGP5F9Z","","","","","25","","","","","","","","","","","","","","","","","","","","","",""
"null","","image-button-response","182","925935","0.0-182.0","A366GBJUGP5F9Z","img_art/28.jpg","null","","","","","","","","","","","","","","","","","","","","","","","","",""
"1507","","image-button-response","183","927455","0.0-183.0","A366GBJUGP5F9Z","img_art/28.jpg","3","","","","","","","","","","","","","","","","","","","","","","","","",""
"4613","","image-button-response","184","932075","0.0-184.0-0.0","A366GBJUGP5F9Z","img_art/28.jpg","1","","","","","","","","","","","","","","","","","","","","","","","","",""
"669","","image-button-response","185","932758","0.0-185.0-0.0","A366GBJUGP5F9Z","img_art/28.jpg","0","","","","","","","","","","","","","","","","","","","","","","","","",""
"null","","html-keyboard-response","186","933269","0.0-186.0","A366GBJUGP5F9Z","<p style=""font-size: 48px;"">+</p>","","","","","null","allTrialResponses","500","1","20","img_art/28.jpg","25","im not sure what im seeing, but it reminds me of what one would see carved into pyramids.","Haley,Dominique,Angela,Crystal,Isabella,Brittany","I can't explain why, but I really love this one,50,220,20","This is one of my favorites. It says to me to take time for people,37,400,20","This reminds me of internal organs.,-10,260,20","I like the flow and abstract nature of what seems to be humans,40,300,20","This is also something I would see in a serious but safe environment,14,280,20","I don't like the colors or the design.,-20,40,20","Crystal","I like the flow and abstract nature of what seems to be humans,40,300,20","Dominique","This is one of my favorites. It says to me to take time for people,37,400,20","Haley","I can't explain why, but I really love this one,50,220,20","0"
"3075","","survey-text","187","936403","0.0-187.0-0.0","A366GBJUGP5F9Z","","","","{""Q0"":""we""}","","","","","","","","","","","","","","","","","","","","","","",""
"18561","","survey-text","188","954972","0.0-188.0-0.0","A366GBJUGP5F9Z","","","","{""Q0"":""i love the colors, it reminds me of a sunset at the beach. ""}","","","","","","","","","","","","","","","","","","","","","","",""
"3478.1999999284744","","image-slider-response","189","958457","0.0-189.0","A366GBJUGP5F9Z","","","","","50","","","","","","","","","","","","","","","","","","","","","",""
"null","","image-button-response","190","963478","0.0-190.0","A366GBJUGP5F9Z","img_art/1.jpg","null","","","","","","","","","","","","","","","","","","","","","","","","",""
"695","","image-button-response","191","964190","0.0-191.0","A366GBJUGP5F9Z","img_art/1.jpg","1","","","","","","","","","","","","","","","","","","","","","","","","",""
"818","","image-button-response","192","965016","0.0-192.0-0.0","A366GBJUGP5F9Z","img_art/1.jpg","2","","","","","","","","","","","","","","","","","","","","","","","","",""
"1940","","image-button-response","193","966967","0.0-193.0-0.0","A366GBJUGP5F9Z","img_art/1.jpg","3","","","","","","","","","","","","","","","","","","","","","","","","",""
"null","","html-keyboard-response","194","967988","0.0-194.0","A366GBJUGP5F9Z","<p style=""font-size: 48px;"">+</p>","","","","","null","allTrialResponses","1000","1","21","img_art/1.jpg","50","i love the colors, it reminds me of a sunset at the beach. ","Haley,Dominique,Shelby,Crystal,Kelsey,Alexis","Pleasant, but a tad too monochromatic in some areas for my taste,7,220,20","I love the detail and colors like a beautiful autumn day,35,400,20","This one has a pleasent energy,15,240,20","Interesting color scheme but to bled to me,11,300,20","this ones alright,10,240,20","Taco Bell wallpaper. Doesn't really make me feel anything,3,100,20","Dominique","I love the detail and colors like a beautiful autumn day,35,400,20","Shelby","This one has a pleasent energy,15,240,20","Crystal","Interesting color scheme but to bled to me,11,300,20","0"
"15921","","survey-text","195","983980","0.0-195.0-0.0","A366GBJUGP5F9Z","","","","{""Q0"":""this is childish, im not sure what it is, maybe a mop or broom. ""}","","","","","","","","","","","","","","","","","","","","","","",""
"3614.2999999523163","","image-slider-response","196","987601","0.0-196.0","A366GBJUGP5F9Z","","","","","-32","","","","","","","","","","","","","","","","","","","","","",""
"null","","image-button-response","197","992617","0.0-197.0","A366GBJUGP5F9Z","img_art/5.jpg","null","","","","","","","","","","","","","","","","","","","","","","","","",""
"1771","","image-button-response","198","994403","0.0-198.0","A366GBJUGP5F9Z","img_art/5.jpg","3","","","","","","","","","","","","","","","","","","","","","","","","",""
"2550","","image-button-response","199","996964","0.0-199.0-0.0","A366GBJUGP5F9Z","img_art/5.jpg","5","","","","","","","","","","","","","","","","","","","","","","","","",""
"2428","","image-button-response","200","999401","0.0-200.0-0.0","A366GBJUGP5F9Z","img_art/5.jpg","4","","","","","","","","","","","","","","","","","","","","","","","","",""
"null","","html-keyboard-response","201","1000927","0.0-201.0","A366GBJUGP5F9Z","<p style=""font-size: 48px;"">+</p>","","","","","null","allTrialResponses","1500","1","22","img_art/5.jpg","-32","this is childish, im not sure what it is, maybe a mop or broom. ","Briana,Dominique,Shelby,Crystal,Hailey,Chelsea","It looks like a poorly drawn pear,17,400,20","It speaks volumes to some. It's also a conversational piece. And very different ideas,34,400,20","This feels joyful,39,240,20","Confused as to what the artist is attempting to do.,-50,300,20","puke yellow with nothing but sadness,-35,200,20","I'm not sure what is going on here.,-46,180,20","Crystal","Confused as to what the artist is attempting to do.,-50,300,20","Chelsea","I'm not sure what is going on here.,-46,180,20","Hailey","puke yellow with nothing but sadness,-35,200,20","0"
"20334","","survey-text","202","1021329","0.0-202.0-0.0","A366GBJUGP5F9Z","","","","{""Q0"":""this reminds me of sand where there are rocks, and shells mixed together. Super beautiful. ""}","","","","","","","","","","","","","","","","","","","","","","",""
"5309","","image-slider-response","203","1026644","0.0-203.0","A366GBJUGP5F9Z","","","","","35","","","","","","","","","","","","","","","","","","","","","",""
"null","","image-button-response","204","1031667","0.0-204.0","A366GBJUGP5F9Z","img_art/7.jpg","null","","","","","","","","","","","","","","","","","","","","","","","","",""
"3474","","image-button-response","205","1035146","0.0-205.0","A366GBJUGP5F9Z","img_art/7.jpg","0","","","","","","","","","","","","","","","","","","","","","","","","",""
"2732","","image-button-response","206","1037883","0.0-206.0-0.0","A366GBJUGP5F9Z","img_art/7.jpg","1","","","","","","","","","","","","","","","","","","","","","","","","",""
"1027","","image-button-response","207","1038919","0.0-207.0-0.0","A366GBJUGP5F9Z","img_art/7.jpg","2","","","","","","","","","","","","","","","","","","","","","","","","",""
"null","","html-keyboard-response","208","1040427","0.0-208.0","A366GBJUGP5F9Z","<p style=""font-size: 48px;"">+</p>","","","","","null","allTrialResponses","1500","1","23","img_art/7.jpg","35","this reminds me of sand where there are rocks, and shells mixed together. Super beautiful. ","Tiffany,Courtney,Gabriela,Crystal,Hailey,Chelsea","I feel relaxed and a little nostalgic, like I'm exploring the wall of a very old building.,18,360,20","That a desert floor,16,280,20","it looks like an ant farm,12,140,20","I thought I was looking at a satellite image of mars.,21,300,20","hot desert with big rocks.,-19,200,20","It looks more like wallpaper rather than a painting.,-27,180,20","Tiffany","I feel relaxed and a little nostalgic, like I'm exploring the wall of a very old building.,18,360,20","Courtney","That a desert floor,16,280,20","Gabriela","it looks like an ant farm,12,140,20","0"
"20793","","survey-text","209","1061274","0.0-209.0-0.0","A366GBJUGP5F9Z","","","","{""Q0"":""this reminds me of a farmhouse at night, with a tornado moving in. Very conversational piece. ""}","","","","","","","","","","","","","","","","","","","","","","",""
"2609.399999976158","","image-slider-response","210","1063893","0.0-210.0","A366GBJUGP5F9Z","","","","","21","","","","","","","","","","","","","","","","","","","","","",""
"null","","image-button-response","211","1068913","0.0-211.0","A366GBJUGP5F9Z","img_art/21.jpg","null","","","","","","","","","","","","","","","","","","","","","","","","",""
"3623","","image-button-response","212","1072551","0.0-212.0","A366GBJUGP5F9Z","img_art/21.jpg","4","","","","","","","","","","","","","","","","","","","","","","","","",""
"1490","","image-button-response","213","1074048","0.0-213.0-0.0","A366GBJUGP5F9Z","img_art/21.jpg","3","","","","","","","","","","","","","","","","","","","","","","","","",""
"1466","","image-button-response","214","1075522","0.0-214.0-0.0","A366GBJUGP5F9Z","img_art/21.jpg","2","","","","","","","","","","","","","","","","","","","","","","","","",""
"null","","html-keyboard-response","215","1076035","0.0-215.0","A366GBJUGP5F9Z","<p style=""font-size: 48px;"">+</p>","","","","","null","allTrialResponses","500","1","24","img_art/21.jpg","21","this reminds me of a farmhouse at night, with a tornado moving in. Very conversational piece. ","Tiffany,Courtney,Gabriela,Jenna,Diana,Margaret","I feel the same serene excitement that I feel watching a sunrise on a beach.,38,360,20","Another ship on fire.,-10,280,20","It makes me feel mellow or ""chill"". It makes me have a positive and calm mood,42,140,20","beautiful. reminds me of a storm brewing over sea. i love the white dots.,45,360,20","Makes me feel light and airy. Like I've gone back in time to 1700th century France.,43,380,20","i like the colors and the blending,17,100,20","Diana","Makes me feel light and airy. Like I've gone back in time to 1700th century France.,43,380,20","Jenna","beautiful. reminds me of a storm brewing over sea. i love the white dots.,45,360,20","Gabriela","It makes me feel mellow or ""chill"". It makes me have a positive and calm mood,42,140,20","0"
"24408","","survey-text","216","1100508","0.0-216.0-0.0","A366GBJUGP5F9Z","","","","{""Q0"":""this makes my anxiety race, because of all the deminsions. There are too many colors and the red  throws me off. ""}","","","","","","","","","","","","","","","","","","","","","","",""
"4475.899999976158","","image-slider-response","217","1104993","0.0-217.0","A366GBJUGP5F9Z","","","","","-43","","","","","","","","","","","","","","","","","","","","","",""
"null","","image-button-response","218","1110013","0.0-218.0","A366GBJUGP5F9Z","img_art/29.jpg","null","","","","","","","","","","","","","","","","","","","","","","","","",""
"905","","image-button-response","219","1110931","0.0-219.0","A366GBJUGP5F9Z","img_art/29.jpg","4","","","","","","","","","","","","","","","","","","","","","","","","",""
"1050","","image-button-response","220","1111990","0.0-220.0-0.0","A366GBJUGP5F9Z","img_art/29.jpg","5","","","","","","","","","","","","","","","","","","","","","","","","",""
"9824","","image-button-response","221","1121825","0.0-221.0-0.0","A366GBJUGP5F9Z","img_art/29.jpg","2","","","","","","","","","","","","","","","","","","","","","","","","",""
"null","","html-keyboard-response","222","1122337","0.0-222.0","A366GBJUGP5F9Z","<p style=""font-size: 48px;"">+</p>","","","","","null","allTrialResponses","500","1","25","img_art/29.jpg","-43","this makes my anxiety race, because of all the deminsions. There are too many colors and the red  throws me off. ","Kylie,Rebecca,Gabriela,Jenna,Diana,Kathryn","Reminds me of graffitti gone wrong,15,300,20","love the texture, i don't know, i just really like it (and the paintbrush adds a nice touch),44,100,20","I like that it looks like a scene from perhaps a failed painted project,10,140,20","risks well taken. the brush is hilarious. feels like an artist's frustration, which is relatable.,50,360,20","I rated it lower because it looked like a crime scene. It didn't make me feel good.,-44,380,20","This piece feels gross. Makes me think of pollution/litter strewn across a dirty street.,-20,140,20","Diana","I rated it lower because it looked like a crime scene. It didn't make me feel good.,-44,380,20","Kathryn","This piece feels gross. Makes me think of pollution/litter strewn across a dirty street.,-20,140,20","Gabriela","I like that it looks like a scene from perhaps a failed painted project,10,140,20","0"
"3340","","survey-text","223","1125761","0.0-223.0-0.0","A366GBJUGP5F9Z","","","","{""Q0"":""table""}","","","","","","","","","","","","","","","","","","","","","","",""
"20798","","survey-text","224","1146565","0.0-224.0-0.0","A366GBJUGP5F9Z","","","","{""Q0"":""this reminds me of a forest, but with musical notes flooding it. beautiful and abstract. ""}","","","","","","","","","","","","","","","","","","","","","","",""
"6320.399999976158","","image-slider-response","225","1152892","0.0-225.0","A366GBJUGP5F9Z","","","","","45","","","","","","","","","","","","","","","","","","","","","",""
"4208","","image-button-response","226","1157904","0.0-226.0","A366GBJUGP5F9Z","img_art/11.jpg","3","","","","","","","","","","","","","","","","","","","","","","","","",""
"810","","image-button-response","227","1158733","0.0-227.0","A366GBJUGP5F9Z","img_art/11.jpg","3","","","","","","","","","","","","","","","","","","","","","","","","",""
"1296","","image-button-response","228","1160035","0.0-228.0-0.0","A366GBJUGP5F9Z","img_art/11.jpg","0","","","","","","","","","","","","","","","","","","","","","","","","",""
"627","","image-button-response","229","1160670","0.0-229.0-0.0","A366GBJUGP5F9Z","img_art/11.jpg","1","","","","","","","","","","","","","","","","","","","","","","","","",""
"null","","html-keyboard-response","230","1162182","0.0-230.0","A366GBJUGP5F9Z","<p style=""font-size: 48px;"">+</p>","","","","","null","allTrialResponses","1500","1","26","img_art/11.jpg","45","this reminds me of a forest, but with musical notes flooding it. beautiful and abstract. ","Jasmine,Emily,Gabriela,Breanna,Diana,Kathryn","Reminds me of a city on a grey/rainy winter's day,25,340,20","It's kind of cool and I see it looks clean.,22,40,20","This photo makes me feel bleak,-16,140,20","Very cool, makes me feel good,39,380,20","It makes my head feel dizzy. So I rated it lower.,-25,380,20","This is disorienting, like motion sickness.,-20,140,20","Breanna","Very cool, makes me feel good,39,380,20","Jasmine","Reminds me of a city on a grey/rainy winter's day,25,340,20","Emily","It's kind of cool and I see it looks clean.,22,40,20","0"
"13610","","survey-text","231","1175832","0.0-231.0-0.0","A366GBJUGP5F9Z","","","","{""Q0"":""this reminds me of slenderman or the bride of chuckie. ""}","","","","","","","","","","","","","","","","","","","","","","",""
"4649.699999928474","","image-slider-response","232","1180489","0.0-232.0","A366GBJUGP5F9Z","","","","","7","","","","","","","","","","","","","","","","","","","","","",""
"null","","image-button-response","233","1185500","0.0-233.0","A366GBJUGP5F9Z","img_art/25.jpg","null","","","","","","","","","","","","","","","","","","","","","","","","",""
"875","","image-button-response","234","1186389","0.0-234.0","A366GBJUGP5F9Z","img_art/25.jpg","0","","","","","","","","","","","","","","","","","","","","","","","","",""
"2102","","image-button-response","235","1188500","0.0-235.0-0.0","A366GBJUGP5F9Z","img_art/25.jpg","4","","","","","","","","","","","","","","","","","","","","","","","","",""
"2060","","image-button-response","236","1190569","0.0-236.0-0.0","A366GBJUGP5F9Z","img_art/25.jpg","2","","","","","","","","","","","","","","","","","","","","","","","","",""
"null","","html-keyboard-response","237","1191079","0.0-237.0","A366GBJUGP5F9Z","<p style=""font-size: 48px;"">+</p>","","","","","null","allTrialResponses","500","1","27","img_art/25.jpg","7","this reminds me of slenderman or the bride of chuckie. ","Jasmine,Emily,Makayla,Breanna,Taylor,Stephanie","I liked it as it seems unique in a way,21,340,20","Low skill not impressed.,-14,40,20","It's very mystical.,5,80,20","Makes me feel intrigued,13,380,20","It makes me feel a little uneasy, but I like the painting,11,340,20","It made me think of healing.,22,300,20","Jasmine","I liked it as it seems unique in a way,21,340,20","Taylor","It makes me feel a little uneasy, but I like the painting,11,340,20","Makayla","It's very mystical.,5,80,20","0"
"17593","","survey-text","238","1208703","0.0-238.0-0.0","A366GBJUGP5F9Z","","","","{""Q0"":""this reminds me of plans for a new city, and the face is the ruler. ""}","","","","","","","","","","","","","","","","","","","","","","",""
"4868.900000095367","","image-slider-response","239","1213580","0.0-239.0","A366GBJUGP5F9Z","","","","","40","","","","","","","","","","","","","","","","","","","","","",""
"null","","image-button-response","240","1218603","0.0-240.0","A366GBJUGP5F9Z","img_art/8.jpg","null","","","","","","","","","","","","","","","","","","","","","","","","",""
"3884","","image-button-response","241","1222503","0.0-241.0","A366GBJUGP5F9Z","img_art/8.jpg","4","","","","","","","","","","","","","","","","","","","","","","","","",""
"3928","","image-button-response","242","1226438","0.0-242.0-0.0","A366GBJUGP5F9Z","img_art/8.jpg","2","","","","","","","","","","","","","","","","","","","","","","","","",""
"504","","image-button-response","243","1226951","0.0-243.0-0.0","A366GBJUGP5F9Z","img_art/8.jpg","1","","","","","","","","","","","","","","","","","","","","","","","","",""
"null","","html-keyboard-response","244","1228471","0.0-244.0","A366GBJUGP5F9Z","<p style=""font-size: 48px;"">+</p>","","","","","null","allTrialResponses","1500","1","28","img_art/8.jpg","40","this reminds me of plans for a new city, and the face is the ruler. ","Jasmine,Destiny,Makayla,Mikayla,Taylor,Paige","Not too bad despite the chaos.,16,340,20","a cute little cute with some protectors,25,360,20","I see water and structures that resemble Ancient Rome,15,80,20","Its kinda like an optical illusion.,22,300,20","Looks like it would be an interesting place to live,35,340,20","Nervous like being up high,10,60,20","Taylor","Looks like it would be an interesting place to live,35,340,20","Makayla","I see water and structures that resemble Ancient Rome,15,80,20","Destiny","a cute little cute with some protectors,25,360,20","0"
"14591","","survey-text","245","1243153","0.0-245.0-0.0","A366GBJUGP5F9Z","","","","{""Q0"":""this reminds me of a peacock, or a field of trees. very unique. ""}","","","","","","","","","","","","","","","","","","","","","","",""
"3400.100000023842","","image-slider-response","246","1246562","0.0-246.0","A366GBJUGP5F9Z","","","","","22","","","","","","","","","","","","","","","","","","","","","",""
"null","","image-button-response","247","1251572","0.0-247.0","A366GBJUGP5F9Z","img_art/15.jpg","null","","","","","","","","","","","","","","","","","","","","","","","","",""
"1164","","image-button-response","248","1252743","0.0-248.0","A366GBJUGP5F9Z","img_art/15.jpg","4","","","","","","","","","","","","","","","","","","","","","","","","",""
"3988","","image-button-response","249","1256741","0.0-249.0-0.0","A366GBJUGP5F9Z","img_art/15.jpg","5","","","","","","","","","","","","","","","","","","","","","","","","",""
"2608","","image-button-response","250","1259362","0.0-250.0-0.0","A366GBJUGP5F9Z","img_art/15.jpg","1","","","","","","","","","","","","","","","","","","","","","","","","",""
"null","","html-keyboard-response","251","1260382","0.0-251.0","A366GBJUGP5F9Z","<p style=""font-size: 48px;"">+</p>","","","","","null","allTrialResponses","1000","1","29","img_art/15.jpg","22","this reminds me of a peacock, or a field of trees. very unique. ","Alexandra,Destiny,Makayla,Shannon,Taylor,Jessica","This is sort of ugly, but I do like the design.,10,60,20","I couldn't tell you why but I'm really into this,39,360,20","It's just dots. Doesn't bring any positive or negative feelings,2,80,20","Not enough colors to make it interesting and doesn't look like anything is happening.,-20,220,20","The blues are soothing,21,340,20","I think it's trying to execute a cool idea, but unfortunately it doesn't appeal,5,400,20","Taylor","The blues are soothing,21,340,20","Jessica","I think it's trying to execute a cool idea, but unfortunately it doesn't appeal,5,400,20","Destiny","I couldn't tell you why but I'm really into this,39,360,20","0"
"22957","","survey-text","252","1283406","0.0-252.0-0.0","A366GBJUGP5F9Z","","","","{""Q0"":""ugly green but child like. doesnt make me feel good inside. ""}","","","","","","","","","","","","","","","","","","","","","","",""
"5672.5","","image-slider-response","253","1289085","0.0-253.0","A366GBJUGP5F9Z","","","","","-23","","","","","","","","","","","","","","","","","","","","","",""
"null","","image-button-response","254","1294105","0.0-254.0","A366GBJUGP5F9Z","img_art/2.jpg","null","","","","","","","","","","","","","","","","","","","","","","","","",""
"2053","","image-button-response","255","1296170","0.0-255.0","A366GBJUGP5F9Z","img_art/2.jpg","3","","","","","","","","","","","","","","","","","","","","","","","","",""
"2928","","image-button-response","256","1299106","0.0-256.0-0.0","A366GBJUGP5F9Z","img_art/2.jpg","5","","","","","","","","","","","","","","","","","","","","","","","","",""
"1245","","image-button-response","257","1300359","0.0-257.0-0.0","A366GBJUGP5F9Z","img_art/2.jpg","0","","","","","","","","","","","","","","","","","","","","","","","","",""
"null","","html-keyboard-response","258","1300870","0.0-258.0","A366GBJUGP5F9Z","<p style=""font-size: 48px;"">+</p>","","","","","null","allTrialResponses","500","1","30","img_art/2.jpg","-23","ugly green but child like. doesnt make me feel good inside. ","Sara,Destiny,Caitlin,Cynthia,Taylor,Jessica","Dark tone feels sad,-30,160,20","omg she's so cute look at that little smile those eyelashes ugh love it,30,360,20","Have now advanced from kindergarten to the first grade.,-5,80,20","Confused and disoriented,-33,320,20","Doesn't give me a reaction,10,340,20","I don't get the meaning of this piece either.,-13,400,20","Cynthia","Confused and disoriented,-33,320,20","Jessica","I don't get the meaning of this piece either.,-13,400,20","Sara","Dark tone feels sad,-30,160,20","0"
"2646","","image-button-response_instructions","259","1303541","0.0-259.0","A366GBJUGP5F9Z","","0","instructions","","","","","","","","","","","","","","","","","","","","","","","",""
"1602","","image-button-response","260","1305174","0.0-260.0","A366GBJUGP5F9Z","","0","","","","","","","","","","","","","","","","","","","","","","","","",""
