"rt","url","trial_type","trial_index","time_elapsed","internal_node_id","participant_id","stimulus","button_pressed","Name","responses","response","key_press","variableName","fixationTime","condition","trial","photo","subjectRating","subjectResponse","agentsNames","agent_1_Response","agent_2_Response","agent_3_Response","agent_4_Response","agent_5_Response","agent_6_Response","kept_1_name","kept_1_response","kept_2_name","kept_2_response","kept_3_name","kept_3_response","errorCounter"
"9003","external_page_harvard.html","external-html","0","9117","0.0-0.0","A368VH12R48BBH","","","","","","","","","","","","","","","","","","","","","","","","","","",""
"2191","","image-button-response","1","11313","0.0-1.0","A368VH12R48BBH","","0","","","","","","","","","","","","","","","","","","","","","","","","",""
"2772","","image-button-response","2","14097","0.0-2.0-0.0","A368VH12R48BBH","","1","phone","","","","","","","","","","","","","","","","","","","","","","","",""
"15744","","survey-text","3","29846","0.0-3.0-0.0","A368VH12R48BBH","","","","{""Q0"":""A368VH12R48BBH""}","","","","","","","","","","","","","","","","","","","","","","",""
"6124","","image-button-response_instructions","4","35977","0.0-4.0","A368VH12R48BBH","","0","instructions","","","","","","","","","","","","","","","","","","","","","","","",""
"12810","","image-button-response_instructions","5","48791","0.0-5.0","A368VH12R48BBH","img_art/ins/popularity/ins1.png","0","instructions","","","","","","","","","","","","","","","","","","","","","","","",""
"7493","","image-button-response_instructions","6","56287","0.0-6.0","A368VH12R48BBH","img_art/ins/popularity/ins2.png","0","instructions","","","","","","","","","","","","","","","","","","","","","","","",""
"5775","","image-button-response_instructions","7","62065","0.0-7.0","A368VH12R48BBH","img_art/ins/popularity/ins2Extreme.png","0","instructions","","","","","","","","","","","","","","","","","","","","","","","",""
"54945","","image-button-response_instructions","8","117013","0.0-8.0","A368VH12R48BBH","img_art/ins/popularity/ins3KEEPpop.PNG","0","instructions","","","","","","","","","","","","","","","","","","","","","","","",""
"3986","","image-button-response_instructions","9","121003","0.0-9.0","A368VH12R48BBH","img_art/ins/popularity/ins3ANamepop.PNG","0","instructions","","","","","","","","","","","","","","","","","","","","","","","",""
"3241","","image-button-response_instructions","10","124247","0.0-10.0","A368VH12R48BBH","img_art/ins/popularity/ins3ARatingpop.png","0","instructions","","","","","","","","","","","","","","","","","","","","","","","",""
"1877","","image-button-response_instructions","11","126127","0.0-11.0","A368VH12R48BBH","img_art/ins/popularity/ins3ATextpop.png","0","instructions","","","","","","","","","","","","","","","","","","","","","","","",""
"185017","","image-button-response_instructions","12","311147","0.0-12.0","A368VH12R48BBH","img_art/ins/popularity/ins3ALikespop.png","0","instructions","","","","","","","","","","","","","","","","","","","","","","","",""
"13009","","image-button-response_instructions","13","324159","0.0-13.0","A368VH12R48BBH","img_art/ins/popularity/ins3KEEPpop.PNG","0","instructions","","","","","","","","","","","","","","","","","","","","","","","",""
"7880","","image-button-response_instructions","14","332042","0.0-14.0","A368VH12R48BBH","img_art/ins/popularity/ins3_5RED.png","0","instructions","","","","","","","","","","","","","","","","","","","","","","","",""
"3075","","image-button-response_instructions","15","335120","0.0-15.0","A368VH12R48BBH","img_art/ins/popularity/ins3KEEPpop.PNG","0","instructions","","","","","","","","","","","","","","","","","","","","","","","",""
"7889","","image-button-response_instructions","16","343011","0.0-16.0","A368VH12R48BBH","img_art/ins/popularity/ins4KEEPpop.PNG","0","instructions","","","","","","","","","","","","","","","","","","","","","","","",""
"2975","","image-button-response_instructions","17","345988","0.0-17.0","A368VH12R48BBH","img_art/ins/popularity/ins5KEEPpop.PNG","0","instructions","","","","","","","","","","","","","","","","","","","","","","","",""
"1215","","image-button-response_instructions","18","347205","0.0-18.0","A368VH12R48BBH","","0","instructions","","","","","","","","","","","","","","","","","","","","","","","",""
"7680","","survey-text","19","354979","0.0-19.0-0.0","A368VH12R48BBH","","","","{""Q0"":""but""}","","","","","","","","","","","","","","","","","","","","","","",""
"12953","","survey-text","20","367937","0.0-20.0-0.0","A368VH12R48BBH","","","","{""Q0"":""looks like a mess to me""}","","","","","","","","","","","","","","","","","","","","","","",""
"7677.900000035763","","image-slider-response","21","375622","0.0-21.0","A368VH12R48BBH","","","","","-30","","","","","","","","","","","","","","","","","","","","","",""
"4850","","image-button-response","22","380633","0.0-22.0","A368VH12R48BBH","img_art/ins/1.jpg","2","","","","","","","","","","","","","","","","","","","","","","","","",""
"1531","","image-button-response","23","382169","0.0-23.0","A368VH12R48BBH","img_art/ins/1.jpg","2","","","","","","","","","","","","","","","","","","","","","","","","",""
"1754","","image-button-response","24","383929","0.0-24.0-0.0","A368VH12R48BBH","img_art/ins/1.jpg","0","","","","","","","","","","","","","","","","","","","","","","","","",""
"2467","","image-button-response","25","386403","0.0-25.0-0.0","A368VH12R48BBH","img_art/ins/1.jpg","0","","","","","","","","","","","","","","","","","","","","","","","","",""
"931","","image-button-response","26","390858","0.0-25.1-0.1","A368VH12R48BBH","img_art/ins/1.jpg","4","","","","","","","","","","","","","","","","","","","","","","","","",""
"null","","html-keyboard-response","27","391369","0.0-26.0","A368VH12R48BBH","<p style=""font-size: 48px;"">+</p>","","","","","null","allTrialResponses","500","1","-2","img_art/ins/1.jpg","-30","looks like a mess to me","Adam,Alex,Ben,Carl,Daniel,Jack","Seems like doodles,-20,20,20","very creative work.,36,40,20","This color reminds me of poo,-46,60,20","very calming artwork,42,80,20","It looks like a murder scene.,-48,100,20","I like the sophisticated brushwork,40,120,20","Ben","This color reminds me of poo,-46,60,20","Adam","Seems like doodles,-20,20,20","Daniel","It looks like a murder scene.,-48,100,20","2"
"11540","","survey-text","28","402931","0.0-27.0-0.0","A368VH12R48BBH","","","","{""Q0"":""looks like a pool of blood""}","","","","","","","","","","","","","","","","","","","","","","",""
"6541.399999976158","","image-slider-response","29","409478","0.0-28.0","A368VH12R48BBH","","","","","-22","","","","","","","","","","","","","","","","","","","","","",""
"null","","image-button-response","30","414501","0.0-29.0","A368VH12R48BBH","img_art/ins/2.jpg","null","","","","","","","","","","","","","","","","","","","","","","","","",""
"2053","","image-button-response","31","416559","0.0-30.0","A368VH12R48BBH","img_art/ins/2.jpg","2","","","","","","","","","","","","","","","","","","","","","","","","",""
"1422","","image-button-response","32","417986","0.0-31.0-0.0","A368VH12R48BBH","img_art/ins/2.jpg","0","","","","","","","","","","","","","","","","","","","","","","","","",""
"2027","","image-button-response","33","420019","0.0-32.0-0.0","A368VH12R48BBH","img_art/ins/2.jpg","4","","","","","","","","","","","","","","","","","","","","","","","","",""
"null","","html-keyboard-response","34","421533","0.0-33.0","A368VH12R48BBH","<p style=""font-size: 48px;"">+</p>","","","","","null","allTrialResponses","1500","1","-1","img_art/ins/2.jpg","-22","looks like a pool of blood","Adam,John,Ben,James,Daniel,Kyle","too much color,-18,20,20","love the texture of paint,48,160,20","meaningless painting,-45,60,20","looks too angry,-50,140,20","One of my pet peevs,-48,100,20","Idk, it is just annoying,-32,180,20","Ben","meaningless painting,-45,60,20","Adam","too much color,-18,20,20","Daniel","One of my pet peevs,-48,100,20","2"
"24802","","survey-text","35","446345","0.0-34.0-0.0","A368VH12R48BBH","","","","{""Q0"":""almost looks like icy seagulls ""}","","","","","","","","","","","","","","","","","","","","","","",""
"4811.800000011921","","image-slider-response","36","451161","0.0-35.0","A368VH12R48BBH","","","","","13","","","","","","","","","","","","","","","","","","","","","",""
"2459","","image-button-response","37","456175","0.0-36.0","A368VH12R48BBH","img_art/ins/3.jpg","3","","","","","","","","","","","","","","","","","","","","","","","","",""
"1528","","image-button-response","38","457709","0.0-37.0","A368VH12R48BBH","img_art/ins/3.jpg","3","","","","","","","","","","","","","","","","","","","","","","","","",""
"1243","","image-button-response","39","458957","0.0-38.0-0.0","A368VH12R48BBH","img_art/ins/3.jpg","5","","","","","","","","","","","","","","","","","","","","","","","","",""
"9769","","image-button-response","40","468731","0.0-39.0-0.0","A368VH12R48BBH","img_art/ins/3.jpg","0","","","","","","","","","","","","","","","","","","","","","","","","",""
"null","","html-keyboard-response","41","469252","0.0-40.0","A368VH12R48BBH","<p style=""font-size: 48px;"">+</p>","","","","","null","allTrialResponses","500","1","0","img_art/ins/3.jpg","13","almost looks like icy seagulls ","Adam,Ron,Ben,Mike,Daniel,Sam","My daily routine, it's depressing,-20,20,20","It looks depressing,-26,220,20","This thing gives me anxiety,-41,60,20","enjoy the different shades of blue,22,200,20","looks like a murder room,-35,100,20","I can feel a rainy day from this painting,18,240,20","Mike","enjoy the different shades of blue,22,200,20","Sam","I can feel a rainy day from this painting,18,240,20","Adam","My daily routine, it's depressing,-20,20,20","2"
"2840","","image-button-response_instructions","42","472110","0.0-41.0","A368VH12R48BBH","","0","instructions","","","","","","","","","","","","","","","","","","","","","","","",""
"9640","","survey-likert","43","481754","0.0-42.0-0.0","A368VH12R48BBH","","","","{""Q0"":"""",""Q1"":0,""Q2"":1}","","","","","","","","","","","","","","","","","","","","","","",""
"3794","","survey-text","44","485564","0.0-43.0-0.0","A368VH12R48BBH","","","","{""Q0"":""rock""}","","","","","","","","","","","","","","","","","","","","","","",""
"19864","","survey-text","45","505432","0.0-44.0-0.0","A368VH12R48BBH","","","","{""Q0"":""looks like death""}","","","","","","","","","","","","","","","","","","","","","","",""
"5627.600000023842","","image-slider-response","46","511064","0.0-45.0","A368VH12R48BBH","","","","","36","","","","","","","","","","","","","","","","","","","","","",""
"1678","","image-button-response","47","516152","0.0-46.0","A368VH12R48BBH","img_art/18.jpg","0","","","","","","","","","","","","","","","","","","","","","","","","",""
"1233","","image-button-response","48","517390","0.0-47.0","A368VH12R48BBH","img_art/18.jpg","0","","","","","","","","","","","","","","","","","","","","","","","","",""
"3586","","image-button-response","49","520980","0.0-48.0-0.0","A368VH12R48BBH","img_art/18.jpg","5","","","","","","","","","","","","","","","","","","","","","","","","",""
"1301","","image-button-response","50","522286","0.0-49.0-0.0","A368VH12R48BBH","img_art/18.jpg","0","","","","","","","","","","","","","","","","","","","","","","","","",""
"1335","","image-button-response","51","527023","0.0-49.1-0.1","A368VH12R48BBH","img_art/18.jpg","3","","","","","","","","","","","","","","","","","","","","","","","","",""
"null","","html-keyboard-response","52","528546","0.0-50.0","A368VH12R48BBH","<p style=""font-size: 48px;"">+</p>","","","","","null","allTrialResponses","1500","1","1","img_art/18.jpg","36","looks like death","Jose,William,Travis,Vincent,Anthony,John","Ok this is really badass. Like a warrior come to the last battle,50,200,20","Makes me think of stormy oceans,20,380,20","I don't know...kind of a dissatified feeling inside.,-6,260,20","Very conversational and can see many different looks and feels from this .,34,360,20","I have no strong feelings about this image,1,200,20","There are alot of elements to this painting and a good mix of colors,32,120,20","Jose","Ok this is really badass. Like a warrior come to the last battle,50,200,20","John","There are alot of elements to this painting and a good mix of colors,32,120,20","Vincent","Very conversational and can see many different looks and feels from this .,34,360,20","4"
"13660","","survey-text","53","542220","0.0-51.0-0.0","A368VH12R48BBH","","","","{""Q0"":""like a giant in a crowd of people, really cool""}","","","","","","","","","","","","","","","","","","","","","","",""
"5916.900000035763","","image-slider-response","54","548142","0.0-52.0","A368VH12R48BBH","","","","","44","","","","","","","","","","","","","","","","","","","","","",""
"null","","image-button-response","55","553160","0.0-53.0","A368VH12R48BBH","img_art/25.jpg","null","","","","","","","","","","","","","","","","","","","","","","","","",""
"1826","","image-button-response","56","554990","0.0-54.0","A368VH12R48BBH","img_art/25.jpg","0","","","","","","","","","","","","","","","","","","","","","","","","",""
"2700","","image-button-response","57","557694","0.0-55.0-0.0","A368VH12R48BBH","img_art/25.jpg","2","","","","","","","","","","","","","","","","","","","","","","","","",""
"3896","","image-button-response","58","561596","0.0-56.0-0.0","A368VH12R48BBH","img_art/25.jpg","4","","","","","","","","","","","","","","","","","","","","","","","","",""
"null","","html-keyboard-response","59","562612","0.0-57.0","A368VH12R48BBH","<p style=""font-size: 48px;"">+</p>","","","","","null","allTrialResponses","1000","1","2","img_art/25.jpg","44","like a giant in a crowd of people, really cool","Jose,Logan,Luke,Vincent,Ian,John","That's pretty awesome. I love the green and black combo, reminds me of one of those cartoon creepy movies,47,200,20","creeeeeppyyyyyyy but mad cool,-26,360,20","the contrasting colors are very interesting,24,20,20","Iike this picture; it speaks to me on a personal level. But seems to scare the ones around me.,7,360,20","This looks cool but I don't really care for it. Some sort or religious figure?,16,260,20","Dark silhouette against the murky background Illicites an ominous feeling. Don't really like it.,-20,120,20","Jose","That's pretty awesome. I love the green and black combo, reminds me of one of those cartoon creepy movies,47,200,20","Luke","the contrasting colors are very interesting,24,20,20","Ian","This looks cool but I don't really care for it. Some sort or religious figure?,16,260,20","4"
"8188","","survey-text","60","570814","0.0-58.0-0.0","A368VH12R48BBH","","","","{""Q0"":""what even is this?""}","","","","","","","","","","","","","","","","","","","","","","",""
"4319.100000023842","","image-slider-response","61","575137","0.0-59.0","A368VH12R48BBH","","","","","-9","","","","","","","","","","","","","","","","","","","","","",""
"null","","image-button-response","62","580146","0.0-60.0","A368VH12R48BBH","img_art/15.jpg","null","","","","","","","","","","","","","","","","","","","","","","","","",""
"1292","","image-button-response","63","581442","0.0-61.0","A368VH12R48BBH","img_art/15.jpg","5","","","","","","","","","","","","","","","","","","","","","","","","",""
"1262","","image-button-response","64","582708","0.0-62.0-0.0","A368VH12R48BBH","img_art/15.jpg","0","","","","","","","","","","","","","","","","","","","","","","","","",""
"1081","","image-button-response","65","583793","0.0-63.0-0.0","A368VH12R48BBH","img_art/15.jpg","0","","","","","","","","","","","","","","","","","","","","","","","","",""
"3992","","image-button-response","66","590449","0.0-63.1-0.1","A368VH12R48BBH","img_art/15.jpg","4","","","","","","","","","","","","","","","","","","","","","","","","",""
"null","","html-keyboard-response","67","590969","0.0-64.0","A368VH12R48BBH","<p style=""font-size: 48px;"">+</p>","","","","","null","allTrialResponses","500","1","3","img_art/15.jpg","-9","what even is this?","Jose,Connor,Luke,Charles,Ian,Alex","black dots too ant-like,-25,200,20","Neat to explore meaning, blue is interesting,11,240,20","it looks like trees but they are up to interpretation,16,20,20","it looks like lavender,10,100,20","This gives a skin crawling feeling. Like something that you could see under a mircoscope,10,260,20","Interesting to look at but I don't appreciate the abstraction,2,100,20","Alex","Interesting to look at but I don't appreciate the abstraction,2,100,20","Jose","black dots too ant-like,-25,200,20","Ian","This gives a skin crawling feeling. Like something that you could see under a mircoscope,10,260,20","6"
"10523","","survey-text","68","601502","0.0-65.0-0.0","A368VH12R48BBH","","","","{""Q0"":""how is this \""art\""?""}","","","","","","","","","","","","","","","","","","","","","","",""
"5585.800000011921","","image-slider-response","69","607092","0.0-66.0","A368VH12R48BBH","","","","","-50","","","","","","","","","","","","","","","","","","","","","",""
"null","","image-button-response","70","612106","0.0-67.0","A368VH12R48BBH","img_art/2.jpg","null","","","","","","","","","","","","","","","","","","","","","","","","",""
"4642","","image-button-response","71","616753","0.0-68.0","A368VH12R48BBH","img_art/2.jpg","5","","","","","","","","","","","","","","","","","","","","","","","","",""
"3554","","image-button-response","72","620313","0.0-69.0-0.0","A368VH12R48BBH","img_art/2.jpg","4","","","","","","","","","","","","","","","","","","","","","","","","",""
"3370","","image-button-response","73","623689","0.0-70.0-0.0","A368VH12R48BBH","img_art/2.jpg","1","","","","","","","","","","","","","","","","","","","","","","","","",""
"null","","html-keyboard-response","74","625196","0.0-71.0","A368VH12R48BBH","<p style=""font-size: 48px;"">+</p>","","","","","null","allTrialResponses","1500","1","4","img_art/2.jpg","-50","how is this ""art""?","Jose,Seth,Bryce,Bryan,Ian,Alex","The color combo is kind of ugly but there's something charming about it still,17,200,20","I think I see people sitting in lawn chairs in a circle watching an event. Not really sure so I rated it lower.,-35,60,20","I love the colors in this.,29,20,20","Like the colors but reminds me of a kids show done in cubism.,0,400,20","I don't really like this but at the same time it's cute. It looks like a little monster kid.,-9,260,20","Don't like the puke green color and also too abstact,-14,100,20","Alex","Don't like the puke green color and also too abstact,-14,100,20","Ian","I don't really like this but at the same time it's cute. It looks like a little monster kid.,-9,260,20","Seth","I think I see people sitting in lawn chairs in a circle watching an event. Not really sure so I rated it lower.,-35,60,20","6"
"15604","","survey-text","75","640813","0.0-72.0-0.0","A368VH12R48BBH","","","","{""Q0"":""really weird, maybe an octopus?""}","","","","","","","","","","","","","","","","","","","","","","",""
"4770.400000035763","","image-slider-response","76","645588","0.0-73.0","A368VH12R48BBH","","","","","4","","","","","","","","","","","","","","","","","","","","","",""
"4826","","image-button-response","77","650612","0.0-74.0","A368VH12R48BBH","img_art/9.jpg","2","","","","","","","","","","","","","","","","","","","","","","","","",""
"1384","","image-button-response","78","652001","0.0-75.0","A368VH12R48BBH","img_art/9.jpg","2","","","","","","","","","","","","","","","","","","","","","","","","",""
"749","","image-button-response","79","652755","0.0-76.0-0.0","A368VH12R48BBH","img_art/9.jpg","5","","","","","","","","","","","","","","","","","","","","","","","","",""
"2619","","image-button-response","80","655379","0.0-77.0-0.0","A368VH12R48BBH","img_art/9.jpg","0","","","","","","","","","","","","","","","","","","","","","","","","",""
"null","","html-keyboard-response","81","655884","0.0-78.0","A368VH12R48BBH","<p style=""font-size: 48px;"">+</p>","","","","","null","allTrialResponses","500","1","5","img_art/9.jpg","4","really weird, maybe an octopus?","Lucas,Seth,Trevor,Steven,Ian,Alex","I like the way the artist has painted his painting.,20,380,20","I think it's sleeping beauty but I'm not sure. I didn't care for this piece.,-30,60,20","nice colors but it looks like it's from the 80s,10,280,20","I just dont like it, no reaction from me at all,-50,160,20","It looks like someone gave a kid a coloring book page but the colors are soothing and look put together and elegant,27,260,20","Alright, I can see a reclining lady, I'm just glad to be able to tell what's in the picture,5,100,20","Trevor","nice colors but it looks like it's from the 80s,10,280,20","Alex","Alright, I can see a reclining lady, I'm just glad to be able to tell what's in the picture,5,100,20","Lucas","I like the way the artist has painted his painting.,20,380,20","6"
"4264","","survey-text","82","660172","0.0-79.0-0.0","A368VH12R48BBH","","","","{""Q0"":""sky""}","","","","","","","","","","","","","","","","","","","","","","",""
"16486","","survey-text","83","676662","0.0-80.0-0.0","A368VH12R48BBH","","","","{""Q0"":""no idea what it is but actually really pretty""}","","","","","","","","","","","","","","","","","","","","","","",""
"4670.200000047684","","image-slider-response","84","681337","0.0-81.0","A368VH12R48BBH","","","","","45","","","","","","","","","","","","","","","","","","","","","",""
"null","","image-button-response","85","686349","0.0-82.0","A368VH12R48BBH","img_art/17.jpg","null","","","","","","","","","","","","","","","","","","","","","","","","",""
"2343","","image-button-response","86","688695","0.0-83.0","A368VH12R48BBH","img_art/17.jpg","1","","","","","","","","","","","","","","","","","","","","","","","","",""
"839","","image-button-response","87","689539","0.0-84.0-0.0","A368VH12R48BBH","img_art/17.jpg","0","","","","","","","","","","","","","","","","","","","","","","","","",""
"840","","image-button-response","88","690384","0.0-85.0-0.0","A368VH12R48BBH","img_art/17.jpg","4","","","","","","","","","","","","","","","","","","","","","","","","",""
"null","","html-keyboard-response","89","691398","0.0-86.0","A368VH12R48BBH","<p style=""font-size: 48px;"">+</p>","","","","","null","allTrialResponses","1000","1","6","img_art/17.jpg","45","no idea what it is but actually really pretty","Lucas,Shane,Trevor,Jesse,Kenneth,Alex","Wow, I haven't seen anything better than this.,40,380,20","Pleasant fall to winter day,22,80,20","I like how it looks like a tree. The colors are too muted though,12,280,20","Doesnt completely turn me off but wouldnt look twice,-3,80,20","I really like this, especially the tree.,23,300,20","I can tell there are tress and maybe some doors but I'm not a fan of the style,-2,100,20","Shane","Pleasant fall to winter day,22,80,20","Lucas","Wow, I haven't seen anything better than this.,40,380,20","Kenneth","I really like this, especially the tree.,23,300,20","6"
"7984","","survey-text","90","699399","0.0-87.0-0.0","A368VH12R48BBH","","","","{""Q0"":""just a mess of colors""}","","","","","","","","","","","","","","","","","","","","","","",""
"5263.199999988079","","image-slider-response","91","704666","0.0-88.0","A368VH12R48BBH","","","","","-44","","","","","","","","","","","","","","","","","","","","","",""
"null","","image-button-response","92","709687","0.0-89.0","A368VH12R48BBH","img_art/1.jpg","null","","","","","","","","","","","","","","","","","","","","","","","","",""
"1036","","image-button-response","93","710728","0.0-90.0","A368VH12R48BBH","img_art/1.jpg","3","","","","","","","","","","","","","","","","","","","","","","","","",""
"1453","","image-button-response","94","712185","0.0-91.0-0.0","A368VH12R48BBH","img_art/1.jpg","5","","","","","","","","","","","","","","","","","","","","","","","","",""
"3251","","image-button-response","95","715442","0.0-92.0-0.0","A368VH12R48BBH","img_art/1.jpg","2","","","","","","","","","","","","","","","","","","","","","","","","",""
"null","","html-keyboard-response","96","716449","0.0-93.0","A368VH12R48BBH","<p style=""font-size: 48px;"">+</p>","","","","","null","allTrialResponses","1000","1","7","img_art/1.jpg","-44","just a mess of colors","Lucas,Shane,Alexis,Brian,Kenneth,Blake","The colors match and create a nice artistic disorder.,20,380,20","Warmth of the sun,22,80,20","This photo reminds me of a fall afternoon, serene,11,140,20","I don't feel like much is happening in this painting,-25,380,20","I love colorful photos and I like this one a lot.,25,300,20","colors that are fairly warm. its ok,8,280,20","Brian","I don't feel like much is happening in this painting,-25,380,20","Blake","colors that are fairly warm. its ok,8,280,20","Alexis","This photo reminds me of a fall afternoon, serene,11,140,20","6"
"15865","","survey-text","97","732323","0.0-94.0-0.0","A368VH12R48BBH","","","","{""Q0"":""a hand grasping at something? interesting""}","","","","","","","","","","","","","","","","","","","","","","",""
"5433.899999976158","","image-slider-response","98","737761","0.0-95.0","A368VH12R48BBH","","","","","6","","","","","","","","","","","","","","","","","","","","","",""
"null","","image-button-response","99","742768","0.0-96.0","A368VH12R48BBH","img_art/4.jpg","null","","","","","","","","","","","","","","","","","","","","","","","","",""
"970","","image-button-response","100","743743","0.0-97.0","A368VH12R48BBH","img_art/4.jpg","1","","","","","","","","","","","","","","","","","","","","","","","","",""
"1191","","image-button-response","101","744939","0.0-98.0-0.0","A368VH12R48BBH","img_art/4.jpg","2","","","","","","","","","","","","","","","","","","","","","","","","",""
"6036","","image-button-response","102","750980","0.0-99.0-0.0","A368VH12R48BBH","img_art/4.jpg","0","","","","","","","","","","","","","","","","","","","","","","","","",""
"null","","html-keyboard-response","103","751994","0.0-100.0","A368VH12R48BBH","<p style=""font-size: 48px;"">+</p>","","","","","null","allTrialResponses","1000","1","8","img_art/4.jpg","6","a hand grasping at something? interesting","Michael,Sean,Alexis,Brian,Stephen,Blake","Looks like a child did it.,-42,140,20","dont know what im looking at,1,40,20","The bold colors are exciting. It looks like a statue on someone's mantle.,18,140,20","it reminds me of McDonalds, and not in a good way.,-34,380,20","Just doesn't look nice.,-40,140,20","ugly puke yellow is cold and dark,-29,280,20","Sean","dont know what im looking at,1,40,20","Alexis","The bold colors are exciting. It looks like a statue on someone's mantle.,18,140,20","Michael","Looks like a child did it.,-42,140,20","6"
"10934","","survey-text","104","762939","0.0-101.0-0.0","A368VH12R48BBH","","","","{""Q0"":""just random smudges ""}","","","","","","","","","","","","","","","","","","","","","","",""
"5644.400000035763","","image-slider-response","105","768589","0.0-102.0","A368VH12R48BBH","","","","","-28","","","","","","","","","","","","","","","","","","","","","",""
"null","","image-button-response","106","773595","0.0-103.0","A368VH12R48BBH","img_art/30.jpg","null","","","","","","","","","","","","","","","","","","","","","","","","",""
"689","","image-button-response","107","774288","0.0-104.0","A368VH12R48BBH","img_art/30.jpg","0","","","","","","","","","","","","","","","","","","","","","","","","",""
"880","","image-button-response","108","775174","0.0-105.0-0.0","A368VH12R48BBH","img_art/30.jpg","5","","","","","","","","","","","","","","","","","","","","","","","","",""
"1914","","image-button-response","109","777092","0.0-106.0-0.0","A368VH12R48BBH","img_art/30.jpg","3","","","","","","","","","","","","","","","","","","","","","","","","",""
"null","","html-keyboard-response","110","777605","0.0-107.0","A368VH12R48BBH","<p style=""font-size: 48px;"">+</p>","","","","","null","allTrialResponses","500","1","9","img_art/30.jpg","-28","just random smudges ","Michael,Sean,Alexis,Mark,Alejandro,Corey","It looks like a child did it. There is nothing talented or special about it.,-16,140,20","the colors look nice,19,40,20","I like the strong lines or brush strokes. It looks modern and bold,21,140,20","It feels like graffiti and the dark colors do nothing for the mood.,-5,80,20","An interesting design but don't like the colors. I value the time and effort put into it, but not a huge fan.,10,80,20","I dont like the colors whatsoever,-15,260,20","Michael","It looks like a child did it. There is nothing talented or special about it.,-16,140,20","Corey","I dont like the colors whatsoever,-15,260,20","Mark","It feels like graffiti and the dark colors do nothing for the mood.,-5,80,20","6"
"13097","","survey-text","111","790719","0.0-108.0-0.0","A368VH12R48BBH","","","","{""Q0"":""like people moving between 2 sky cities ""}","","","","","","","","","","","","","","","","","","","","","","",""
"6295","","image-slider-response","112","797019","0.0-109.0","A368VH12R48BBH","","","","","12","","","","","","","","","","","","","","","","","","","","","",""
"null","","image-button-response","113","802025","0.0-110.0","A368VH12R48BBH","img_art/27.jpg","null","","","","","","","","","","","","","","","","","","","","","","","","",""
"971","","image-button-response","114","802999","0.0-111.0","A368VH12R48BBH","img_art/27.jpg","1","","","","","","","","","","","","","","","","","","","","","","","","",""
"2178","","image-button-response","115","805180","0.0-112.0-0.0","A368VH12R48BBH","img_art/27.jpg","2","","","","","","","","","","","","","","","","","","","","","","","","",""
"950","","image-button-response","116","806135","0.0-113.0-0.0","A368VH12R48BBH","img_art/27.jpg","3","","","","","","","","","","","","","","","","","","","","","","","","",""
"null","","html-keyboard-response","117","807654","0.0-114.0","A368VH12R48BBH","<p style=""font-size: 48px;"">+</p>","","","","","null","allTrialResponses","1500","1","10","img_art/27.jpg","12","like people moving between 2 sky cities ","Michael,Peter,Angel,Mark,Daniel,Corey","Anyone could do that.,-31,140,20","Calming sky , relaxing,23,320,20","Makes me think of Japanese food. I perceive it as comfortable and healthy.,20,180,20","I see a cathedral through the woods.,12,80,20","Nice back ground with childish scribble on top,-30,320,20","this is ugly and does nothing for me,-35,260,20","Peter","Calming sky , relaxing,23,320,20","Angel","Makes me think of Japanese food. I perceive it as comfortable and healthy.,20,180,20","Mark","I see a cathedral through the woods.,12,80,20","6"
"4081","","survey-text","118","811763","0.0-115.0-0.0","A368VH12R48BBH","","","","{""Q0"":""our""}","","","","","","","","","","","","","","","","","","","","","","",""
"13701","","survey-text","119","825468","0.0-116.0-0.0","A368VH12R48BBH","","","","{""Q0"":""a small bird on a big orange""}","","","","","","","","","","","","","","","","","","","","","","",""
"4778.200000047684","","image-slider-response","120","830252","0.0-117.0","A368VH12R48BBH","","","","","5","","","","","","","","","","","","","","","","","","","","","",""
"null","","image-button-response","121","835262","0.0-118.0","A368VH12R48BBH","img_art/6.jpg","null","","","","","","","","","","","","","","","","","","","","","","","","",""
"1700","","image-button-response","122","836967","0.0-119.0","A368VH12R48BBH","img_art/6.jpg","1","","","","","","","","","","","","","","","","","","","","","","","","",""
"1000","","image-button-response","123","837972","0.0-120.0-0.0","A368VH12R48BBH","img_art/6.jpg","3","","","","","","","","","","","","","","","","","","","","","","","","",""
"4799","","image-button-response","124","842775","0.0-121.0-0.0","A368VH12R48BBH","img_art/6.jpg","0","","","","","","","","","","","","","","","","","","","","","","","","",""
"null","","html-keyboard-response","125","844294","0.0-122.0","A368VH12R48BBH","<p style=""font-size: 48px;"">+</p>","","","","","null","allTrialResponses","1500","1","11","img_art/6.jpg","5","a small bird on a big orange","Richard,Peter,Angel,Mark,Jonathan,Zachary","simplistic but reminds me of a crow in a field,-10,340,20","Don't like the black space,2,320,20","This piece feels hopeful, like an oasis in the desert.,20,180,20","So forlorn, and beauty amid desolation.,25,80,20","The colors and rough brush strokes make me nervous,-10,140,20","Reminds me of a plant poking through the soil. It reminds me of new life.,31,400,20","Peter","Don't like the black space,2,320,20","Mark","So forlorn, and beauty amid desolation.,25,80,20","Richard","simplistic but reminds me of a crow in a field,-10,340,20","6"
"22728","","survey-text","126","867037","0.0-123.0-0.0","A368VH12R48BBH","","","","{""Q0"":""reminds me of an anthill""}","","","","","","","","","","","","","","","","","","","","","","",""
"4560.600000023842","","image-slider-response","127","871601","0.0-124.0","A368VH12R48BBH","","","","","-6","","","","","","","","","","","","","","","","","","","","","",""
"null","","image-button-response","128","876615","0.0-125.0","A368VH12R48BBH","img_art/7.jpg","null","","","","","","","","","","","","","","","","","","","","","","","","",""
"1165","","image-button-response","129","877784","0.0-126.0","A368VH12R48BBH","img_art/7.jpg","0","","","","","","","","","","","","","","","","","","","","","","","","",""
"1473","","image-button-response","130","879262","0.0-127.0-0.0","A368VH12R48BBH","img_art/7.jpg","3","","","","","","","","","","","","","","","","","","","","","","","","",""
"808","","image-button-response","131","880076","0.0-128.0-0.0","A368VH12R48BBH","img_art/7.jpg","1","","","","","","","","","","","","","","","","","","","","","","","","",""
"null","","html-keyboard-response","132","881580","0.0-129.0","A368VH12R48BBH","<p style=""font-size: 48px;"">+</p>","","","","","null","allTrialResponses","1500","1","12","img_art/7.jpg","-6","reminds me of an anthill","Richard,Peter,Miguel,Mark,Shawn,Gregory","looks like wallpaper,-6,340,20","It's just like sand from the beach,2,320,20","Well done minimalism.,35,160,20","Reminds me of mold. Repulsive.,-10,80,20","Like the tactile quality,30,100,20","Looks like a battle raging on,20,220,20","Richard","looks like wallpaper,-6,340,20","Mark","Reminds me of mold. Repulsive.,-10,80,20","Peter","It's just like sand from the beach,2,320,20","6"
"27903","","survey-text","133","909510","0.0-130.0-0.0","A368VH12R48BBH","","","","{""Q0"":""a raging waterfall""}","","","","","","","","","","","","","","","","","","","","","","",""
"5633.200000047684","","image-slider-response","134","915148","0.0-131.0","A368VH12R48BBH","","","","","39","","","","","","","","","","","","","","","","","","","","","",""
"null","","image-button-response","135","920153","0.0-132.0","A368VH12R48BBH","img_art/24.jpg","null","","","","","","","","","","","","","","","","","","","","","","","","",""
"1514","","image-button-response","136","921670","0.0-133.0","A368VH12R48BBH","img_art/24.jpg","1","","","","","","","","","","","","","","","","","","","","","","","","",""
"810","","image-button-response","137","922484","0.0-134.0-0.0","A368VH12R48BBH","img_art/24.jpg","3","","","","","","","","","","","","","","","","","","","","","","","","",""
"1271","","image-button-response","138","923761","0.0-135.0-0.0","A368VH12R48BBH","img_art/24.jpg","2","","","","","","","","","","","","","","","","","","","","","","","","",""
"null","","html-keyboard-response","139","925265","0.0-136.0","A368VH12R48BBH","<p style=""font-size: 48px;"">+</p>","","","","","null","allTrialResponses","1500","1","13","img_art/24.jpg","39","a raging waterfall","Richard,Peter,Evan,Mark,Jorge,Tyler","flowing water part is good, some of the rest is ok but dark,14,340,20","Looks like a serene waterfall and woods,29,320,20","It feels very serene,19,140,20","Waterfall, and I love the coloring.,48,80,20","Interested in visiting this place,18,180,20","Exceedingly garish,-19,320,20","Peter","Looks like a serene waterfall and woods,29,320,20","Mark","Waterfall, and I love the coloring.,48,80,20","Evan","It feels very serene,19,140,20","6"
"26761","","survey-text","140","952038","0.0-137.0-0.0","A368VH12R48BBH","","","","{""Q0"":""like a giant sea battle, really cool""}","","","","","","","","","","","","","","","","","","","","","","",""
"5141.600000023842","","image-slider-response","141","957184","0.0-138.0","A368VH12R48BBH","","","","","50","","","","","","","","","","","","","","","","","","","","","",""
"null","","image-button-response","142","962189","0.0-139.0","A368VH12R48BBH","img_art/10.jpg","null","","","","","","","","","","","","","","","","","","","","","","","","",""
"2338","","image-button-response","143","964531","0.0-140.0","A368VH12R48BBH","img_art/10.jpg","3","","","","","","","","","","","","","","","","","","","","","","","","",""
"1211","","image-button-response","144","965747","0.0-141.0-0.0","A368VH12R48BBH","img_art/10.jpg","4","","","","","","","","","","","","","","","","","","","","","","","","",""
"5673","","image-button-response","145","971425","0.0-142.0-0.0","A368VH12R48BBH","img_art/10.jpg","5","","","","","","","","","","","","","","","","","","","","","","","","",""
"null","","html-keyboard-response","146","972432","0.0-143.0","A368VH12R48BBH","<p style=""font-size: 48px;"">+</p>","","","","","null","allTrialResponses","1000","1","14","img_art/10.jpg","50","like a giant sea battle, really cool","Taylor,Peter,Evan,Mark,Aaron,Matthew","The roller coaster from hell !!!,-10,200,20","I don't hate but don't like it because it looks like a oil slick,2,320,20","My immediate thought is WTF is this,-20,140,20","Kraken, and I love it.,39,80,20","I like how simple but intricate it is.,30,20,20","AWESOME VIOLIN!`,26,120,20","Mark","Kraken, and I love it.,39,80,20","Aaron","I like how simple but intricate it is.,30,20,20","Matthew","AWESOME VIOLIN!`,26,120,20","6"
"15544","","survey-text","147","987994","0.0-144.0-0.0","A368VH12R48BBH","","","","{""Q0"":""just a random mess. is that a face in the top right??""}","","","","","","","","","","","","","","","","","","","","","","",""
"5763.700000047684","","image-slider-response","148","993762","0.0-145.0","A368VH12R48BBH","","","","","-14","","","","","","","","","","","","","","","","","","","","","",""
"null","","image-button-response","149","998784","0.0-146.0","A368VH12R48BBH","img_art/12.jpg","null","","","","","","","","","","","","","","","","","","","","","","","","",""
"1447","","image-button-response","150","1000236","0.0-147.0","A368VH12R48BBH","img_art/12.jpg","2","","","","","","","","","","","","","","","","","","","","","","","","",""
"1310","","image-button-response","151","1001552","0.0-148.0-0.0","A368VH12R48BBH","img_art/12.jpg","3","","","","","","","","","","","","","","","","","","","","","","","","",""
"2684","","image-button-response","152","1004243","0.0-149.0-0.0","A368VH12R48BBH","img_art/12.jpg","4","","","","","","","","","","","","","","","","","","","","","","","","",""
"null","","html-keyboard-response","153","1005261","0.0-150.0","A368VH12R48BBH","<p style=""font-size: 48px;"">+</p>","","","","","null","allTrialResponses","1000","1","15","img_art/12.jpg","-14","just a random mess. is that a face in the top right??","Tristan,Luis,Jared,Mark,Aaron,Matthew","Quite lovely with depth and possibility.,21,300,20","I like the fact it shares both light and edgy,32,400,20","i dont see the point.,-19,400,20","It just feels like a jigsaw puzzle,-4,80,20","Therapist wall art.,10,20,20","It's boxy, cubist immpressionism? Very ncie.,32,120,20","Jared","i dont see the point.,-19,400,20","Mark","It just feels like a jigsaw puzzle,-4,80,20","Aaron","Therapist wall art.,10,20,20","6"
"5177","","survey-text","154","1010463","0.0-151.0-0.0","A368VH12R48BBH","","","","{""Q0"":""course""}","","","","","","","","","","","","","","","","","","","","","","",""
"9501","","survey-text","155","1019968","0.0-152.0-0.0","A368VH12R48BBH","","","","{""Q0"":""a musical city""}","","","","","","","","","","","","","","","","","","","","","","",""
"5250.899999976158","","image-slider-response","156","1025223","0.0-153.0","A368VH12R48BBH","","","","","2","","","","","","","","","","","","","","","","","","","","","",""
"null","","image-button-response","157","1030229","0.0-154.0","A368VH12R48BBH","img_art/19.jpg","null","","","","","","","","","","","","","","","","","","","","","","","","",""
"1050","","image-button-response","158","1031283","0.0-155.0","A368VH12R48BBH","img_art/19.jpg","1","","","","","","","","","","","","","","","","","","","","","","","","",""
"761","","image-button-response","159","1032047","0.0-156.0-0.0","A368VH12R48BBH","img_art/19.jpg","0","","","","","","","","","","","","","","","","","","","","","","","","",""
"2295","","image-button-response","160","1034348","0.0-157.0-0.0","A368VH12R48BBH","img_art/19.jpg","4","","","","","","","","","","","","","","","","","","","","","","","","",""
"null","","html-keyboard-response","161","1034859","0.0-158.0","A368VH12R48BBH","<p style=""font-size: 48px;"">+</p>","","","","","null","allTrialResponses","500","1","16","img_art/19.jpg","2","a musical city","Caleb,Dustin,Jared,Mark,Aaron,Ryan","Watercolor abstract? Strange.,1,40,20","Too busy, makes me anxious and frustrated. Lots of movement in the brush strokes.,-9,20,20","green and orange are my favorite colors.  this cityscape feels warm,34,400,20","Feels like a cafe in Paris.,35,80,20","I like the shapes.,22,20,20","Its just a nice painting, nothing too special but nothing negative,25,380,20","Dustin","Too busy, makes me anxious and frustrated. Lots of movement in the brush strokes.,-9,20,20","Caleb","Watercolor abstract? Strange.,1,40,20","Aaron","I like the shapes.,22,20,20","6"
"17896","","survey-text","162","1052775","0.0-159.0-0.0","A368VH12R48BBH","","","","{""Q0"":""a key unlocking a sphere?""}","","","","","","","","","","","","","","","","","","","","","","",""
"7834.399999976158","","image-slider-response","163","1060614","0.0-160.0","A368VH12R48BBH","","","","","-14","","","","","","","","","","","","","","","","","","","","","",""
"null","","image-button-response","164","1065621","0.0-161.0","A368VH12R48BBH","img_art/22.jpg","null","","","","","","","","","","","","","","","","","","","","","","","","",""
"920","","image-button-response","165","1066545","0.0-162.0","A368VH12R48BBH","img_art/22.jpg","1","","","","","","","","","","","","","","","","","","","","","","","","",""
"687","","image-button-response","166","1067237","0.0-163.0-0.0","A368VH12R48BBH","img_art/22.jpg","0","","","","","","","","","","","","","","","","","","","","","","","","",""
"739","","image-button-response","167","1067982","0.0-164.0-0.0","A368VH12R48BBH","img_art/22.jpg","3","","","","","","","","","","","","","","","","","","","","","","","","",""
"null","","html-keyboard-response","168","1068489","0.0-165.0","A368VH12R48BBH","<p style=""font-size: 48px;"">+</p>","","","","","null","allTrialResponses","500","1","17","img_art/22.jpg","-14","a key unlocking a sphere?","Caleb,Dustin,Isaac,Christopher,Aaron,Paul","Seems too simple.,-19,40,20","Too much red. The red/yellow/orange make me think of heat/fire, which makes me anxious.,-10,20,20","The colors clash, and I don't know what is happening.,-23,280,20","boring, too many red and yellow tones for my taste,-15,160,20","Boring, typical abstract art,-30,20,20","I really like the bright colors and sunset feel,31,300,20","Dustin","Too much red. The red/yellow/orange make me think of heat/fire, which makes me anxious.,-10,20,20","Caleb","Seems too simple.,-19,40,20","Christopher","boring, too many red and yellow tones for my taste,-15,160,20","6"
"17038","","survey-text","169","1085542","0.0-166.0-0.0","A368VH12R48BBH","","","","{""Q0"":""musicians and artists at a party, pretty""}","","","","","","","","","","","","","","","","","","","","","","",""
"5483.399999976158","","image-slider-response","170","1091030","0.0-167.0","A368VH12R48BBH","","","","","41","","","","","","","","","","","","","","","","","","","","","",""
"null","","image-button-response","171","1096047","0.0-168.0","A368VH12R48BBH","img_art/23.jpg","null","","","","","","","","","","","","","","","","","","","","","","","","",""
"828","","image-button-response","172","1096879","0.0-169.0","A368VH12R48BBH","img_art/23.jpg","5","","","","","","","","","","","","","","","","","","","","","","","","",""
"780","","image-button-response","173","1097663","0.0-170.0-0.0","A368VH12R48BBH","img_art/23.jpg","2","","","","","","","","","","","","","","","","","","","","","","","","",""
"919","","image-button-response","174","1098587","0.0-171.0-0.0","A368VH12R48BBH","img_art/23.jpg","0","","","","","","","","","","","","","","","","","","","","","","","","",""
"null","","html-keyboard-response","175","1099593","0.0-172.0","A368VH12R48BBH","<p style=""font-size: 48px;"">+</p>","","","","","null","allTrialResponses","1000","1","18","img_art/23.jpg","41","musicians and artists at a party, pretty","Caleb,Dustin,Dylan,Christopher,Juan,Andrew","Very colorful. Nice contrasts.,26,40,20","I don't get it! the white in the middle of the speckled rainbow is confusing.,-10,20,20","This is my favorite of them all. I love the colors.,41,40,20","it's not uninteresting, but i'm not responding to it,-7,160,20","This is ugly and weird.,-50,260,20","The color contrast makes me happy,40,160,20","Andrew","The color contrast makes me happy,40,160,20","Dylan","This is my favorite of them all. I love the colors.,41,40,20","Caleb","Very colorful. Nice contrasts.,26,40,20","6"
"13665","","survey-text","176","1113274","0.0-173.0-0.0","A368VH12R48BBH","","","","{""Q0"":""an old western town, pretty interesting""}","","","","","","","","","","","","","","","","","","","","","","",""
"8426.399999976158","","image-slider-response","177","1121705","0.0-174.0","A368VH12R48BBH","","","","","15","","","","","","","","","","","","","","","","","","","","","",""
"null","","image-button-response","178","1126718","0.0-175.0","A368VH12R48BBH","img_art/20.jpg","null","","","","","","","","","","","","","","","","","","","","","","","","",""
"682","","image-button-response","179","1127404","0.0-176.0","A368VH12R48BBH","img_art/20.jpg","1","","","","","","","","","","","","","","","","","","","","","","","","",""
"779","","image-button-response","180","1128187","0.0-177.0-0.0","A368VH12R48BBH","img_art/20.jpg","0","","","","","","","","","","","","","","","","","","","","","","","","",""
"678","","image-button-response","181","1128871","0.0-178.0-0.0","A368VH12R48BBH","img_art/20.jpg","3","","","","","","","","","","","","","","","","","","","","","","","","",""
"null","","html-keyboard-response","182","1129384","0.0-179.0","A368VH12R48BBH","<p style=""font-size: 48px;"">+</p>","","","","","null","allTrialResponses","500","1","19","img_art/20.jpg","15","an old western town, pretty interesting","Caleb,Isaiah,Dylan,Kyle,Noah,Andrew","Lovely composition, colors, and message.,35,40,20","I feel powerful, like I am looking out a window at this machine, that I am in charge.,17,300,20","The white blob looks like a face and it's creepy,-30,40,20","This one is okay but I don't really care for it,5,340,20","just feels generic,-18,260,20","I just love this painting,47,160,20","Isaiah","I feel powerful, like I am looking out a window at this machine, that I am in charge.,17,300,20","Caleb","Lovely composition, colors, and message.,35,40,20","Kyle","This one is okay but I don't really care for it,5,340,20","6"
"29566","","survey-text","183","1158969","0.0-180.0-0.0","A368VH12R48BBH","","","","{""Q0"":""another deep sea battle ""}","","","","","","","","","","","","","","","","","","","","","","",""
"5423.899999976158","","image-slider-response","184","1164397","0.0-181.0","A368VH12R48BBH","","","","","10","","","","","","","","","","","","","","","","","","","","","",""
"null","","image-button-response","185","1169431","0.0-182.0","A368VH12R48BBH","img_art/21.jpg","null","","","","","","","","","","","","","","","","","","","","","","","","",""
"1736","","image-button-response","186","1171171","0.0-183.0","A368VH12R48BBH","img_art/21.jpg","2","","","","","","","","","","","","","","","","","","","","","","","","",""
"820","","image-button-response","187","1171995","0.0-184.0-0.0","A368VH12R48BBH","img_art/21.jpg","5","","","","","","","","","","","","","","","","","","","","","","","","",""
"980","","image-button-response","188","1172981","0.0-185.0-0.0","A368VH12R48BBH","img_art/21.jpg","1","","","","","","","","","","","","","","","","","","","","","","","","",""
"null","","html-keyboard-response","189","1173984","0.0-186.0","A368VH12R48BBH","<p style=""font-size: 48px;"">+</p>","","","","","null","allTrialResponses","1000","1","20","img_art/21.jpg","10","another deep sea battle ","Caleb,Isaiah,Adam,Kyle,Jeremy,Chase","Almost appears like the background of an old renaissance painting.,40,40,20","I feel the same serene excitement that I feel watching a sunrise on a beach.,38,300,20","I like color mix here,15,40,20","The blues make me feel sadder as my mood is already not the best right now,-10,340,20","the picture is boring,1,60,20","Kind of looks like a sky with a storm or tornado.,10,120,20","Adam","I like color mix here,15,40,20","Chase","Kind of looks like a sky with a storm or tornado.,10,120,20","Isaiah","I feel the same serene excitement that I feel watching a sunrise on a beach.,38,300,20","6"
"3482","","survey-text","190","1177501","0.0-187.0-0.0","A368VH12R48BBH","","","","{""Q0"":""we""}","","","","","","","","","","","","","","","","","","","","","","",""
"7403","","survey-text","191","1184907","0.0-188.0-0.0","A368VH12R48BBH","","","","{""Q0"":""crime scene""}","","","","","","","","","","","","","","","","","","","","","","",""
"7623.599999964237","","image-slider-response","192","1192535","0.0-189.0","A368VH12R48BBH","","","","","-23","","","","","","","","","","","","","","","","","","","","","",""
"null","","image-button-response","193","1197541","0.0-190.0","A368VH12R48BBH","img_art/29.jpg","null","","","","","","","","","","","","","","","","","","","","","","","","",""
"548","","image-button-response","194","1198093","0.0-191.0","A368VH12R48BBH","img_art/29.jpg","3","","","","","","","","","","","","","","","","","","","","","","","","",""
"1241","","image-button-response","195","1199339","0.0-192.0-0.0","A368VH12R48BBH","img_art/29.jpg","2","","","","","","","","","","","","","","","","","","","","","","","","",""
"748","","image-button-response","196","1200092","0.0-193.0-0.0","A368VH12R48BBH","img_art/29.jpg","1","","","","","","","","","","","","","","","","","","","","","","","","",""
"null","","html-keyboard-response","197","1200596","0.0-194.0","A368VH12R48BBH","<p style=""font-size: 48px;"">+</p>","","","","","null","allTrialResponses","500","1","21","img_art/29.jpg","-23","crime scene","Timothy,Isaiah,Adam,Marcus,Devon,Chase","Doesnt say much for me,0,240,20","I feel a little disgust. There is something off-putting about the smooth shapes and dark colors.,-43,300,20","Flash is too strong. Dislike the colors,-5,40,20","I would like this piece better without the red X across it,-10,60,20","seems fun, looks like a battle zone,22,400,20","This is ugly as fuck,-50,120,20","Marcus","I would like this piece better without the red X across it,-10,60,20","Adam","Flash is too strong. Dislike the colors,-5,40,20","Isaiah","I feel a little disgust. There is something off-putting about the smooth shapes and dark colors.,-43,300,20","6"
"12164","","survey-text","198","1212778","0.0-195.0-0.0","A368VH12R48BBH","","","","{""Q0"":""just random splashes, why would anyone like this?""}","","","","","","","","","","","","","","","","","","","","","","",""
"4779.199999988079","","image-slider-response","199","1217561","0.0-196.0","A368VH12R48BBH","","","","","-48","","","","","","","","","","","","","","","","","","","","","",""
"null","","image-button-response","200","1222566","0.0-197.0","A368VH12R48BBH","img_art/13.jpg","null","","","","","","","","","","","","","","","","","","","","","","","","",""
"860","","image-button-response","201","1223431","0.0-198.0","A368VH12R48BBH","img_art/13.jpg","5","","","","","","","","","","","","","","","","","","","","","","","","",""
"286","","image-button-response","202","1223722","0.0-199.0-0.0","A368VH12R48BBH","img_art/13.jpg","5","","","","","","","","","","","","","","","","","","","","","","","","",""
"1092","","image-button-response","203","1228445","0.0-199.1-0.1","A368VH12R48BBH","img_art/13.jpg","2","","","","","","","","","","","","","","","","","","","","","","","","",""
"918","","image-button-response","204","1229369","0.0-200.0-0.0","A368VH12R48BBH","img_art/13.jpg","3","","","","","","","","","","","","","","","","","","","","","","","","",""
"null","","html-keyboard-response","205","1230872","0.0-201.0","A368VH12R48BBH","<p style=""font-size: 48px;"">+</p>","","","","","null","allTrialResponses","1500","1","22","img_art/13.jpg","-48","just random splashes, why would anyone like this?","Mitchell,Isaiah,Adam,Marcus,Cody,Samuel","Magnified rain around trees. Beautiful happy colors. The little person on the right feels nature is huge.,45,180,20","The painting makes me feel awe and like I am very little. Like I am alone at the bottom of the ocean.,41,300,20","Generic mix of colors. Cool and messy.,10,40,20","It's okay. Feels like a blander take on a Jackson Pollack,11,60,20","It's pretty ...........,41,180,20","eighties here we come,7,400,20","Samuel","eighties here we come,7,400,20","Adam","Generic mix of colors. Cool and messy.,10,40,20","Marcus","It's okay. Feels like a blander take on a Jackson Pollack,11,60,20","8"
"13026","","survey-text","206","1243917","0.0-202.0-0.0","A368VH12R48BBH","","","","{""Q0"":""futuristic city crumbling""}","","","","","","","","","","","","","","","","","","","","","","",""
"3863.100000023842","","image-slider-response","207","1247786","0.0-203.0","A368VH12R48BBH","","","","","3","","","","","","","","","","","","","","","","","","","","","",""
"null","","image-button-response","208","1252807","0.0-204.0","A368VH12R48BBH","img_art/14.jpg","null","","","","","","","","","","","","","","","","","","","","","","","","",""
"803","","image-button-response","209","1253616","0.0-205.0","A368VH12R48BBH","img_art/14.jpg","5","","","","","","","","","","","","","","","","","","","","","","","","",""
"1088","","image-button-response","210","1254711","0.0-206.0-0.0","A368VH12R48BBH","img_art/14.jpg","3","","","","","","","","","","","","","","","","","","","","","","","","",""
"776","","image-button-response","211","1255493","0.0-207.0-0.0","A368VH12R48BBH","img_art/14.jpg","1","","","","","","","","","","","","","","","","","","","","","","","","",""
"null","","html-keyboard-response","212","1256496","0.0-208.0","A368VH12R48BBH","<p style=""font-size: 48px;"">+</p>","","","","","null","allTrialResponses","1000","1","23","img_art/14.jpg","3","futuristic city crumbling","Joshua,Jake,Adam,Marcus,Gabriel,Samuel","This doesn't speak to me on an emotional level,-6,240,20","This is poorly done and not aesthetically appealing.,-2,360,20","Very abstract. Unsure of what I'm looking at. No emotions towards it.,-6,40,20","I like the colors and the shapes are interesting,11,60,20","i like this one!,23,160,20","tree of life brings hope,7,400,20","Samuel","tree of life brings hope,7,400,20","Marcus","I like the colors and the shapes are interesting,11,60,20","Jake","This is poorly done and not aesthetically appealing.,-2,360,20","8"
"13130","","survey-text","213","1269646","0.0-209.0-0.0","A368VH12R48BBH","","","","{""Q0"":""a god looking down upon an italian city ""}","","","","","","","","","","","","","","","","","","","","","","",""
"4295.299999952316","","image-slider-response","214","1273946","0.0-210.0","A368VH12R48BBH","","","","","40","","","","","","","","","","","","","","","","","","","","","",""
"null","","image-button-response","215","1278954","0.0-211.0","A368VH12R48BBH","img_art/8.jpg","null","","","","","","","","","","","","","","","","","","","","","","","","",""
"1127","","image-button-response","216","1280085","0.0-212.0","A368VH12R48BBH","img_art/8.jpg","0","","","","","","","","","","","","","","","","","","","","","","","","",""
"1855","","image-button-response","217","1281944","0.0-213.0-0.0","A368VH12R48BBH","img_art/8.jpg","5","","","","","","","","","","","","","","","","","","","","","","","","",""
"780","","image-button-response","218","1282728","0.0-214.0-0.0","A368VH12R48BBH","img_art/8.jpg","2","","","","","","","","","","","","","","","","","","","","","","","","",""
"null","","html-keyboard-response","219","1283231","0.0-215.0","A368VH12R48BBH","<p style=""font-size: 48px;"">+</p>","","","","","null","allTrialResponses","500","1","24","img_art/8.jpg","40","a god looking down upon an italian city ","Hunter,Jake,Brandon,Marcus,Dakota,Samuel","crisp shapes, find more things the longer you look,17,240,20","It's a poor rendition of an MC Escher inspired piece.,-25,360,20","Reminds me of old 80s fantasy book covers. Nostalgic,23,320,20","Like the colors and the energy, but the face feels jarring to me,13,60,20","chaotic and disassembled,-8,280,20","being watched over,17,400,20","Hunter","crisp shapes, find more things the longer you look,17,240,20","Samuel","being watched over,17,400,20","Brandon","Reminds me of old 80s fantasy book covers. Nostalgic,23,320,20","8"
"9694","","survey-text","220","1292942","0.0-216.0-0.0","A368VH12R48BBH","","","","{""Q0"":""a disturbing metropolis""}","","","","","","","","","","","","","","","","","","","","","","",""
"7089.599999964237","","image-slider-response","221","1300036","0.0-217.0","A368VH12R48BBH","","","","","-10","","","","","","","","","","","","","","","","","","","","","",""
"null","","image-button-response","222","1305043","0.0-218.0","A368VH12R48BBH","img_art/11.jpg","null","","","","","","","","","","","","","","","","","","","","","","","","",""
"2223","","image-button-response","223","1307272","0.0-219.0","A368VH12R48BBH","img_art/11.jpg","2","","","","","","","","","","","","","","","","","","","","","","","","",""
"719","","image-button-response","224","1308001","0.0-220.0-0.0","A368VH12R48BBH","img_art/11.jpg","5","","","","","","","","","","","","","","","","","","","","","","","","",""
"570","","image-button-response","225","1308579","0.0-221.0-0.0","A368VH12R48BBH","img_art/11.jpg","4","","","","","","","","","","","","","","","","","","","","","","","","",""
"null","","html-keyboard-response","226","1309595","0.0-222.0","A368VH12R48BBH","<p style=""font-size: 48px;"">+</p>","","","","","null","allTrialResponses","1000","1","25","img_art/11.jpg","-10","a disturbing metropolis","Hunter,Spencer,Brandon,Elijah,Benjamin,Samuel","reminds me of home,5,240,20","Even with the colors, it is dreary to me,-32,120,20","Don't like cityscapes, which this picture reminds me of,-29,320,20","Very cool, makes me feel good,39,80,20","Look like it's in constant movement.,10,260,20","business of traffic,10,400,20","Brandon","Don't like cityscapes, which this picture reminds me of,-29,320,20","Samuel","business of traffic,10,400,20","Benjamin","Look like it's in constant movement.,10,260,20","8"
"4026","","survey-text","227","1313650","0.0-223.0-0.0","A368VH12R48BBH","","","","{""Q0"":""table""}","","","","","","","","","","","","","","","","","","","","","","",""
"7181","","survey-text","228","1320835","0.0-224.0-0.0","A368VH12R48BBH","","","","{""Q0"":""a hobo sack""}","","","","","","","","","","","","","","","","","","","","","","",""
"6034.199999988079","","image-slider-response","229","1326873","0.0-225.0","A368VH12R48BBH","","","","","2","","","","","","","","","","","","","","","","","","","","","",""
"null","","image-button-response","230","1331894","0.0-226.0","A368VH12R48BBH","img_art/5.jpg","null","","","","","","","","","","","","","","","","","","","","","","","","",""
"1206","","image-button-response","231","1333103","0.0-227.0","A368VH12R48BBH","img_art/5.jpg","0","","","","","","","","","","","","","","","","","","","","","","","","",""
"2176","","image-button-response","232","1335284","0.0-228.0-0.0","A368VH12R48BBH","img_art/5.jpg","4","","","","","","","","","","","","","","","","","","","","","","","","",""
"1171","","image-button-response","233","1336460","0.0-229.0-0.0","A368VH12R48BBH","img_art/5.jpg","3","","","","","","","","","","","","","","","","","","","","","","","","",""
"null","","html-keyboard-response","234","1337479","0.0-230.0","A368VH12R48BBH","<p style=""font-size: 48px;"">+</p>","","","","","null","allTrialResponses","1000","1","26","img_art/5.jpg","2","a hobo sack","Tanner,Cameron,Brandon,Jeffrey,Benjamin,Samuel","sharp, painful yet playful,-5,180,20","No. What even is this? A mop?,-35,60,20","Kindergarten art. I really don't like this style.,-50,320,20","positive colours; yellow calls attention,6,40,20","Missing something,-5,260,20","a brush in time,-14,400,20","Tanner","sharp, painful yet playful,-5,180,20","Benjamin","Missing something,-5,260,20","Jeffrey","positive colours; yellow calls attention,6,40,20","8"
"11204","","survey-text","235","1348701","0.0-231.0-0.0","A368VH12R48BBH","","","","{""Q0"":""a disturbing bear ""}","","","","","","","","","","","","","","","","","","","","","","",""
"17324.5","","image-slider-response","236","1366030","0.0-232.0","A368VH12R48BBH","","","","","-2","","","","","","","","","","","","","","","","","","","","","",""
"null","","image-button-response","237","1371042","0.0-233.0","A368VH12R48BBH","img_art/16.jpg","null","","","","","","","","","","","","","","","","","","","","","","","","",""
"927","","image-button-response","238","1371979","0.0-234.0","A368VH12R48BBH","img_art/16.jpg","0","","","","","","","","","","","","","","","","","","","","","","","","",""
"1153","","image-button-response","239","1373144","0.0-235.0-0.0","A368VH12R48BBH","img_art/16.jpg","2","","","","","","","","","","","","","","","","","","","","","","","","",""
"1581","","image-button-response","240","1374732","0.0-236.0-0.0","A368VH12R48BBH","img_art/16.jpg","1","","","","","","","","","","","","","","","","","","","","","","","","",""
"null","","html-keyboard-response","241","1376249","0.0-237.0","A368VH12R48BBH","<p style=""font-size: 48px;"">+</p>","","","","","null","allTrialResponses","1500","1","27","img_art/16.jpg","-2","a disturbing bear ","Tanner,Joseph,Jacob,Jeffrey,Benjamin,Eric","sad. desth of childhood,-5,180,20","Looks upsetting. Like it's actually graphic violence but you can't tell.,-24,220,20","Cool but the bear creeps me out?,8,340,20","Teddy bear calls positive emotional response but then I get worried about what is about to happen,18,40,20","Don't like the teddy bear. It takes away from the painting.,-39,260,20","This piece is unusual but unique.,5,100,20","Tanner","sad. desth of childhood,-5,180,20","Jacob","Cool but the bear creeps me out?,8,340,20","Joseph","Looks upsetting. Like it's actually graphic violence but you can't tell.,-24,220,20","8"
"11199","","survey-text","242","1387467","0.0-238.0-0.0","A368VH12R48BBH","","","","{""Q0"":""a city scape from the park""}","","","","","","","","","","","","","","","","","","","","","","",""
"16290.5","","image-slider-response","243","1403761","0.0-239.0","A368VH12R48BBH","","","","","-6","","","","","","","","","","","","","","","","","","","","","",""
"null","","image-button-response","244","1408772","0.0-240.0","A368VH12R48BBH","img_art/26.jpg","null","","","","","","","","","","","","","","","","","","","","","","","","",""
"1053","","image-button-response","245","1409830","0.0-241.0","A368VH12R48BBH","img_art/26.jpg","5","","","","","","","","","","","","","","","","","","","","","","","","",""
"639","","image-button-response","246","1410474","0.0-242.0-0.0","A368VH12R48BBH","img_art/26.jpg","4","","","","","","","","","","","","","","","","","","","","","","","","",""
"807","","image-button-response","247","1411287","0.0-243.0-0.0","A368VH12R48BBH","img_art/26.jpg","0","","","","","","","","","","","","","","","","","","","","","","","","",""
"null","","html-keyboard-response","248","1412297","0.0-244.0","A368VH12R48BBH","<p style=""font-size: 48px;"">+</p>","","","","","null","allTrialResponses","1000","1","28","img_art/26.jpg","-6","a city scape from the park","Tanner,Joseph,Jacob,Patrick,Devin,David","happy, park, childhood,9,180,20","Looks like the suburbs. I live in those.,13,220,20","It doesn't look so vibrant, I'm not sure what feelings they were trying to capture,-41,340,20","I can somewhat city a city in this drawing,11,280,20","I like the shapes but needs more detail i think,3,380,20","The piece doesn't really invoke anything for me.,0,340,20","David","The piece doesn't really invoke anything for me.,0,340,20","Devin","I like the shapes but needs more detail i think,3,380,20","Tanner","happy, park, childhood,9,180,20","8"
"11193","","survey-text","249","1423513","0.0-245.0-0.0","A368VH12R48BBH","","","","{""Q0"":""why spray red all over it? ""}","","","","","","","","","","","","","","","","","","","","","","",""
"9045.800000011921","","image-slider-response","250","1432565","0.0-246.0","A368VH12R48BBH","","","","","-50","","","","","","","","","","","","","","","","","","","","","",""
"null","","image-button-response","251","1437573","0.0-247.0","A368VH12R48BBH","img_art/3.jpg","null","","","","","","","","","","","","","","","","","","","","","","","","",""
"4182","","image-button-response","252","1441759","0.0-248.0","A368VH12R48BBH","img_art/3.jpg","0","","","","","","","","","","","","","","","","","","","","","","","","",""
"1914","","image-button-response","253","1443678","0.0-249.0-0.0","A368VH12R48BBH","img_art/3.jpg","4","","","","","","","","","","","","","","","","","","","","","","","","",""
"1250","","image-button-response","254","1444934","0.0-250.0-0.0","A368VH12R48BBH","img_art/3.jpg","1","","","","","","","","","","","","","","","","","","","","","","","","",""
"null","","html-keyboard-response","255","1446452","0.0-251.0","A368VH12R48BBH","<p style=""font-size: 48px;"">+</p>","","","","","null","allTrialResponses","1500","1","29","img_art/3.jpg","-50","why spray red all over it? ","Tanner,Garrett,Bradley,Jason,Devin,David","anger, blood, death,-24,180,20","I can't tell what this image is supposed to be it looks extremely ugly and color variety is boring.,-50,180,20","Marker gone wild?  Not sure what's going on here.,-21,300,20","Too much red; very bland,-26,20,20","Scribbly a bit too much,-30,380,20","No clue what I'm looking. This just looks a series of scribbles in a box.,-20,340,20","Tanner","anger, blood, death,-24,180,20","Devin","Scribbly a bit too much,-30,380,20","Garrett","I can't tell what this image is supposed to be it looks extremely ugly and color variety is boring.,-50,180,20","8"
"22862","","survey-text","256","1469332","0.0-252.0-0.0","A368VH12R48BBH","","","","{""Q0"":""what even is this? so dark and bland""}","","","","","","","","","","","","","","","","","","","","","","",""
"5763","","image-slider-response","257","1475099","0.0-253.0","A368VH12R48BBH","","","","","-46","","","","","","","","","","","","","","","","","","","","","",""
"null","","image-button-response","258","1480113","0.0-254.0","A368VH12R48BBH","img_art/28.jpg","null","","","","","","","","","","","","","","","","","","","","","","","","",""
"3152","","image-button-response","259","1483269","0.0-255.0","A368VH12R48BBH","img_art/28.jpg","0","","","","","","","","","","","","","","","","","","","","","","","","",""
"1063","","image-button-response","260","1484336","0.0-256.0-0.0","A368VH12R48BBH","img_art/28.jpg","1","","","","","","","","","","","","","","","","","","","","","","","","",""
"814","","image-button-response","261","1485158","0.0-257.0-0.0","A368VH12R48BBH","img_art/28.jpg","2","","","","","","","","","","","","","","","","","","","","","","","","",""
"null","","html-keyboard-response","262","1486665","0.0-258.0","A368VH12R48BBH","<p style=""font-size: 48px;"">+</p>","","","","","null","allTrialResponses","1500","1","30","img_art/28.jpg","-46","what even is this? so dark and bland","Tanner,Garrett,Jesus,Nathan,Devin,Kevin","almost reminds me of thomas becket getting his head cut off,21,180,20","I don't like the way the colors look; I think very disgusting colors were used.,-20,180,20","The muted tones aren't my favorite.,-10,100,20","I enjoy the color themes, they seem gloomy and mysterious, and content in their own way, which I love.,20,200,20","It is a bit drab,-10,380,20","Looks like some guys in s band playing at a busy park.,18,320,20","Tanner","almost reminds me of thomas becket getting his head cut off,21,180,20","Garrett","I don't like the way the colors look; I think very disgusting colors were used.,-20,180,20","Jesus","The muted tones aren't my favorite.,-10,100,20","8"
"3277","","image-button-response_instructions","263","1489961","0.0-259.0","A368VH12R48BBH","","0","instructions","","","","","","","","","","","","","","","","","","","","","","","",""
"1588","","image-button-response","264","1491577","0.0-260.0","A368VH12R48BBH","","0","","","","","","","","","","","","","","","","","","","","","","","","",""
