"rt","url","trial_type","trial_index","time_elapsed","internal_node_id","participant_id","stimulus","button_pressed","Name","responses","response","key_press","variableName","fixationTime","condition","trial","photo","subjectRating","subjectResponse","agentsNames","agent_1_Response","agent_2_Response","agent_3_Response","agent_4_Response","agent_5_Response","agent_6_Response","kept_1_name","kept_1_response","kept_2_name","kept_2_response","kept_3_name","kept_3_response","errorCounter"
"8342","external_page_harvard.html","external-html","0","8407","0.0-0.0","A36GR8MUA34VW6","","","","","","","","","","","","","","","","","","","","","","","","","","",""
"2254","","image-button-response","1","10662","0.0-1.0","A36GR8MUA34VW6","","1","","","","","","","","","","","","","","","","","","","","","","","","",""
"2732","","image-button-response","2","13397","0.0-2.0-0.0","A36GR8MUA34VW6","","1","phone","","","","","","","","","","","","","","","","","","","","","","","",""
"6895","","survey-text","3","20294","0.0-3.0-0.0","A36GR8MUA34VW6","","","","{""Q0"":""A36GR8MUA34VW6""}","","","","","","","","","","","","","","","","","","","","","","",""
"11742","","image-button-response_instructions","4","32038","0.0-4.0","A36GR8MUA34VW6","","0","instructions","","","","","","","","","","","","","","","","","","","","","","","",""
"17535","","image-button-response_instructions","5","49574","0.0-5.0","A36GR8MUA34VW6","img_art/ins/popularity/ins1.png","0","instructions","","","","","","","","","","","","","","","","","","","","","","","",""
"2911","","image-button-response_instructions","6","52486","0.0-6.0","A36GR8MUA34VW6","img_art/ins/popularity/ins2.png","0","instructions","","","","","","","","","","","","","","","","","","","","","","","",""
"2503","","image-button-response_instructions","7","54989","0.0-7.0","A36GR8MUA34VW6","img_art/ins/popularity/ins2Extreme.png","0","instructions","","","","","","","","","","","","","","","","","","","","","","","",""
"5548","","image-button-response_instructions","8","60537","0.0-8.0","A36GR8MUA34VW6","img_art/ins/popularity/ins3KEEPpop.PNG","0","instructions","","","","","","","","","","","","","","","","","","","","","","","",""
"2887","","image-button-response_instructions","9","63424","0.0-9.0","A36GR8MUA34VW6","img_art/ins/popularity/ins3ANamepop.PNG","0","instructions","","","","","","","","","","","","","","","","","","","","","","","",""
"3392","","image-button-response_instructions","10","66817","0.0-10.0","A36GR8MUA34VW6","img_art/ins/popularity/ins3ARatingpop.png","0","instructions","","","","","","","","","","","","","","","","","","","","","","","",""
"4455","","image-button-response_instructions","11","71273","0.0-11.0","A36GR8MUA34VW6","img_art/ins/popularity/ins3ATextpop.png","0","instructions","","","","","","","","","","","","","","","","","","","","","","","",""
"4911","","image-button-response_instructions","12","76185","0.0-12.0","A36GR8MUA34VW6","img_art/ins/popularity/ins3ALikespop.png","0","instructions","","","","","","","","","","","","","","","","","","","","","","","",""
"14639","","image-button-response_instructions","13","90825","0.0-13.0","A36GR8MUA34VW6","img_art/ins/popularity/ins3KEEPpop.PNG","0","instructions","","","","","","","","","","","","","","","","","","","","","","","",""
"6552","","image-button-response_instructions","14","97377","0.0-14.0","A36GR8MUA34VW6","img_art/ins/popularity/ins3_5RED.png","0","instructions","","","","","","","","","","","","","","","","","","","","","","","",""
"5527","","image-button-response_instructions","15","102905","0.0-15.0","A36GR8MUA34VW6","img_art/ins/popularity/ins3KEEPpop.PNG","0","instructions","","","","","","","","","","","","","","","","","","","","","","","",""
"7863","","image-button-response_instructions","16","110769","0.0-16.0","A36GR8MUA34VW6","img_art/ins/popularity/ins4KEEPpop.PNG","0","instructions","","","","","","","","","","","","","","","","","","","","","","","",""
"2576","","image-button-response_instructions","17","113345","0.0-17.0","A36GR8MUA34VW6","img_art/ins/popularity/ins5KEEPpop.PNG","0","instructions","","","","","","","","","","","","","","","","","","","","","","","",""
"1551","","image-button-response_instructions","18","114897","0.0-18.0","A36GR8MUA34VW6","","0","instructions","","","","","","","","","","","","","","","","","","","","","","","",""
"10025","","survey-text","19","124941","0.0-19.0-0.0","A36GR8MUA34VW6","","","","{""Q0"":""but""}","","","","","","","","","","","","","","","","","","","","","","",""
"30871","","survey-text","20","155813","0.0-20.0-0.0","A36GR8MUA34VW6","","","","{""Q0"":""This painting is a little busy yet the colors are dull.""}","","","","","","","","","","","","","","","","","","","","","","",""
"10590.5","","image-slider-response","21","166406","0.0-21.0","A36GR8MUA34VW6","","","","","-30","","","","","","","","","","","","","","","","","","","","","",""
"null","","image-button-response","22","171416","0.0-22.0","A36GR8MUA34VW6","img_art/ins/1.jpg","null","","","","","","","","","","","","","","","","","","","","","","","","",""
"7714","","image-button-response","23","179134","0.0-23.0","A36GR8MUA34VW6","img_art/ins/1.jpg","2","","","","","","","","","","","","","","","","","","","","","","","","",""
"1031","","image-button-response","24","180166","0.0-24.0-0.0","A36GR8MUA34VW6","img_art/ins/1.jpg","1","","","","","","","","","","","","","","","","","","","","","","","","",""
"8699","","image-button-response","25","188867","0.0-25.0-0.0","A36GR8MUA34VW6","img_art/ins/1.jpg","4","","","","","","","","","","","","","","","","","","","","","","","","",""
"null","","html-keyboard-response","26","189379","0.0-26.0","A36GR8MUA34VW6","<p style=""font-size: 48px;"">+</p>","","","","","null","allTrialResponses","500","1","-2","img_art/ins/1.jpg","-30","This painting is a little busy yet the colors are dull.","Allison,Ashley,Beth,Dora,Erika,Jen","looks like a lot of things going on in the mist,20,20,20","I just don't get why these type of art would be popular,-32,40,20","This color reminds me of poo,-46,60,20","looks like what my niece in 3rd grade did this afternoon,-50,80,20","I like the sophisticated brushwork,40,100,20","It reminds me of a candy land dream I had,36,120,20","Beth","This color reminds me of poo,-46,60,20","Ashley","I just don't get why these type of art would be popular,-32,40,20","Erika","I like the sophisticated brushwork,40,100,20","0"
"29712","","survey-text","27","219099","0.0-27.0-0.0","A36GR8MUA34VW6","","","","{""Q0"":""It is hard to imagine what the theme is.""}","","","","","","","","","","","","","","","","","","","","","","",""
"8310.59999999404","","image-slider-response","28","227411","0.0-28.0","A36GR8MUA34VW6","","","","","-20","","","","","","","","","","","","","","","","","","","","","",""
"null","","image-button-response","29","232414","0.0-29.0","A36GR8MUA34VW6","img_art/ins/2.jpg","null","","","","","","","","","","","","","","","","","","","","","","","","",""
"6993","","image-button-response","30","239411","0.0-30.0","A36GR8MUA34VW6","img_art/ins/2.jpg","2","","","","","","","","","","","","","","","","","","","","","","","","",""
"1498","","image-button-response","31","240911","0.0-31.0-0.0","A36GR8MUA34VW6","img_art/ins/2.jpg","2","","","","","","","","","","","","","","","","","","","","","","","","",""
"6840","","image-button-response","32","256848","0.0-31.1-0.1","A36GR8MUA34VW6","img_art/ins/2.jpg","0","","","","","","","","","","","","","","","","","","","","","","","","",""
"3862","","image-button-response","33","260711","0.0-32.0-0.0","A36GR8MUA34VW6","img_art/ins/2.jpg","0","","","","","","","","","","","","","","","","","","","","","","","","",""
"879","","image-button-response","34","264719","0.0-32.1-0.1","A36GR8MUA34VW6","img_art/ins/2.jpg","3","","","","","","","","","","","","","","","","","","","","","","","","",""
"null","","html-keyboard-response","35","265732","0.0-33.0","A36GR8MUA34VW6","<p style=""font-size: 48px;"">+</p>","","","","","null","allTrialResponses","1000","1","-1","img_art/ins/2.jpg","-20","It is hard to imagine what the theme is.","Kara,Ashley,Beth,Jenna,Erika,Katie","I like the blocks of color arrangements,30,160,20","Idk, it is just annoying,-32,40,20","meaningless painting,-45,60,20","One of my pet peevs,-48,140,20","I would never be able to compose a sophisticated pallete like this,48,100,20","too much color!,-28,180,20","Beth","meaningless painting,-45,60,20","Kara","I like the blocks of color arrangements,30,160,20","Jenna","One of my pet peevs,-48,140,20","4"
"24589","","survey-text","36","290327","0.0-34.0-0.0","A36GR8MUA34VW6","","","","{""Q0"":""This looks creative, but very icy.""}","","","","","","","","","","","","","","","","","","","","","","",""
"10254.10000000149","","image-slider-response","37","300580","0.0-35.0","A36GR8MUA34VW6","","","","","10","","","","","","","","","","","","","","","","","","","","","",""
"null","","image-button-response","38","305590","0.0-36.0","A36GR8MUA34VW6","img_art/ins/3.jpg","null","","","","","","","","","","","","","","","","","","","","","","","","",""
"5892","","image-button-response","39","311485","0.0-37.0","A36GR8MUA34VW6","img_art/ins/3.jpg","4","","","","","","","","","","","","","","","","","","","","","","","","",""
"4655","","image-button-response","40","316141","0.0-38.0-0.0","A36GR8MUA34VW6","img_art/ins/3.jpg","0","","","","","","","","","","","","","","","","","","","","","","","","",""
"1624","","image-button-response","41","317766","0.0-39.0-0.0","A36GR8MUA34VW6","img_art/ins/3.jpg","1","","","","","","","","","","","","","","","","","","","","","","","","",""
"null","","html-keyboard-response","42","318777","0.0-40.0","A36GR8MUA34VW6","<p style=""font-size: 48px;"">+</p>","","","","","null","allTrialResponses","1000","1","0","img_art/ins/3.jpg","10","This looks creative, but very icy.","Kara,Leslie,Beth,Jenna,Mary,Rose","calming blue is very nice,36,160,20","It's an alright work,15,200,20","This thing gives me anxiety,-41,60,20","looks like a murder room,-35,140,20","I like the overlapping of brushes,41,220,20","My daily routine, it's depressing,-20,240,20","Mary","I like the overlapping of brushes,41,220,20","Kara","calming blue is very nice,36,160,20","Leslie","It's an alright work,15,200,20","4"
"7046","","image-button-response_instructions","43","325829","0.0-41.0","A36GR8MUA34VW6","","0","instructions","","","","","","","","","","","","","","","","","","","","","","","",""
"21376","","survey-likert","44","347206","0.0-42.0-0.0","A36GR8MUA34VW6","","","","{""Q0"":"""",""Q1"":0,""Q2"":1}","","","","","","","","","","","","","","","","","","","","","","",""
"4708","","survey-text","45","351917","0.0-43.0-0.0","A36GR8MUA34VW6","","","","{""Q0"":""rock""}","","","","","","","","","","","","","","","","","","","","","","",""
"45708","","survey-text","46","397627","0.0-44.0-0.0","A36GR8MUA34VW6","","","","{""Q0"":""This looks like a coloring piece done by a child.""}","","","","","","","","","","","","","","","","","","","","","","",""
"4942.10000000149","","image-slider-response","47","402570","0.0-45.0","A36GR8MUA34VW6","","","","","-20","","","","","","","","","","","","","","","","","","","","","",""
"null","","image-button-response","48","407596","0.0-46.0","A36GR8MUA34VW6","img_art/28.jpg","null","","","","","","","","","","","","","","","","","","","","","","","","",""
"16080","","image-button-response","49","423680","0.0-47.0","A36GR8MUA34VW6","img_art/28.jpg","1","","","","","","","","","","","","","","","","","","","","","","","","",""
"2917","","image-button-response","50","426599","0.0-48.0-0.0","A36GR8MUA34VW6","img_art/28.jpg","2","","","","","","","","","","","","","","","","","","","","","","","","",""
"3494","","image-button-response","51","430095","0.0-49.0-0.0","A36GR8MUA34VW6","img_art/28.jpg","4","","","","","","","","","","","","","","","","","","","","","","","","",""
"null","","html-keyboard-response","52","431601","0.0-50.0","A36GR8MUA34VW6","<p style=""font-size: 48px;"">+</p>","","","","","null","allTrialResponses","1500","1","1","img_art/28.jpg","-20","This looks like a coloring piece done by a child.","Meghan,Jennifer,Claire,Stephanie,Savannah,Alexa","I don't like the color choice,-30,220,20","This picture doesn't really stand out to me,1,380,20","not a fan of the colors or strokes used,-27,260,20","The colors are neutral but I see a mother helping her child,31,300,20","White and dark balance is way off- Seems dull.,-33,200,20","The colors are dull but there's some kind of nostalgic essence of this painting,15,40,20","Jennifer","This picture doesn't really stand out to me,1,380,20","Claire","not a fan of the colors or strokes used,-27,260,20","Savannah","White and dark balance is way off- Seems dull.,-33,200,20","4"
"21369","","survey-text","53","452975","0.0-51.0-0.0","A36GR8MUA34VW6","","","","{""Q0"":""It is a dark theme but very artistic.""}","","","","","","","","","","","","","","","","","","","","","","",""
"7791","","image-slider-response","54","460767","0.0-52.0","A36GR8MUA34VW6","","","","","20","","","","","","","","","","","","","","","","","","","","","",""
"null","","image-button-response","55","465769","0.0-53.0","A36GR8MUA34VW6","img_art/20.jpg","null","","","","","","","","","","","","","","","","","","","","","","","","",""
"5571","","image-button-response","56","471343","0.0-54.0","A36GR8MUA34VW6","img_art/20.jpg","2","","","","","","","","","","","","","","","","","","","","","","","","",""
"9667","","image-button-response","57","481012","0.0-55.0-0.0","A36GR8MUA34VW6","img_art/20.jpg","3","","","","","","","","","","","","","","","","","","","","","","","","",""
"1894","","image-button-response","58","482908","0.0-56.0-0.0","A36GR8MUA34VW6","img_art/20.jpg","4","","","","","","","","","","","","","","","","","","","","","","","","",""
"null","","html-keyboard-response","59","484421","0.0-57.0","A36GR8MUA34VW6","<p style=""font-size: 48px;"">+</p>","","","","","null","allTrialResponses","1500","1","2","img_art/20.jpg","20","It is a dark theme but very artistic.","Kayla,Jennifer,Claire,Heather,Savannah,Sarah","Something fell over and is burning, but it's kinda dope, you know?,14,180,20","Neutral, this piece doesn't strike me as particularly bad or good,0,380,20","reminds me of Salvadore Dali,24,260,20","make me feel like its a little country maybe a tractor and a skull head of a bull,1,260,20","Lovely composition, colors, and message.,35,200,20","i ind of like this, it's saying something but not my style,6,180,20","Claire","reminds me of Salvadore Dali,24,260,20","Heather","make me feel like its a little country maybe a tractor and a skull head of a bull,1,260,20","Savannah","Lovely composition, colors, and message.,35,200,20","4"
"13827","","survey-text","60","498252","0.0-58.0-0.0","A36GR8MUA34VW6","","","","{""Q0"":""A very warm touch and selection of colors.""}","","","","","","","","","","","","","","","","","","","","","","",""
"8951.70000000298","","image-slider-response","61","507204","0.0-59.0","A36GR8MUA34VW6","","","","","40","","","","","","","","","","","","","","","","","","","","","",""
"4910","","image-button-response","62","512212","0.0-60.0","A36GR8MUA34VW6","img_art/17.jpg","0","","","","","","","","","","","","","","","","","","","","","","","","",""
"3093","","image-button-response","63","515309","0.0-61.0","A36GR8MUA34VW6","img_art/17.jpg","3","","","","","","","","","","","","","","","","","","","","","","","","",""
"7590","","image-button-response","64","522900","0.0-62.0-0.0","A36GR8MUA34VW6","img_art/17.jpg","4","","","","","","","","","","","","","","","","","","","","","","","","",""
"1374","","image-button-response","65","524277","0.0-63.0-0.0","A36GR8MUA34VW6","img_art/17.jpg","0","","","","","","","","","","","","","","","","","","","","","","","","",""
"null","","html-keyboard-response","66","524790","0.0-64.0","A36GR8MUA34VW6","<p style=""font-size: 48px;"">+</p>","","","","","null","allTrialResponses","500","1","3","img_art/17.jpg","40","A very warm touch and selection of colors.","Taylor,Rebecca,Claire,Heather,Savannah,Kaitlin","A very inspiring piece,41,340,20","tree sprouting out of a box (house) the invasion of nature?,39,100,20","its whimsical and light,50,260,20","Beautiful simply beautiful. i would love this,,50,260,20","Not even abstract to me, very clear meaning.,44,200,20","i feel some sadness in this picture,25,60,20","Heather","Beautiful simply beautiful. i would love this,,50,260,20","Savannah","Not even abstract to me, very clear meaning.,44,200,20","Taylor","A very inspiring piece,41,340,20","4"
"21493","","survey-text","67","546289","0.0-65.0-0.0","A36GR8MUA34VW6","","","","{""Q0"":""It is inspiring with complexity.""}","","","","","","","","","","","","","","","","","","","","","","",""
"7784.10000000149","","image-slider-response","68","554074","0.0-66.0","A36GR8MUA34VW6","","","","","30","","","","","","","","","","","","","","","","","","","","","",""
"null","","image-button-response","69","559077","0.0-67.0","A36GR8MUA34VW6","img_art/13.jpg","null","","","","","","","","","","","","","","","","","","","","","","","","",""
"1282","","image-button-response","70","560362","0.0-68.0","A36GR8MUA34VW6","img_art/13.jpg","4","","","","","","","","","","","","","","","","","","","","","","","","",""
"4207","","image-button-response","71","564570","0.0-69.0-0.0","A36GR8MUA34VW6","img_art/13.jpg","5","","","","","","","","","","","","","","","","","","","","","","","","",""
"1965","","image-button-response","72","566538","0.0-70.0-0.0","A36GR8MUA34VW6","img_art/13.jpg","2","","","","","","","","","","","","","","","","","","","","","","","","",""
"null","","html-keyboard-response","73","567045","0.0-71.0","A36GR8MUA34VW6","<p style=""font-size: 48px;"">+</p>","","","","","null","allTrialResponses","500","1","4","img_art/13.jpg","30","It is inspiring with complexity.","Taylor,Brianna,Vanessa,Heather,Savannah,Morgan","It makes me think of sitting inside on a rainy day while drinking a warm coffee,32,340,20","This is a very cool painting, something an art teacher or professor would own.,22,20,20","I love the colors and the contrast between the different blues.,21,380,20","rain in blue black and white,1,260,20","Lots of depth and character.,30,200,20","Seeing the world through different lenses.,15,380,20","Savannah","Lots of depth and character.,30,200,20","Morgan","Seeing the world through different lenses.,15,380,20","Vanessa","I love the colors and the contrast between the different blues.,21,380,20","4"
"40356","","survey-text","74","607407","0.0-72.0-0.0","A36GR8MUA34VW6","","","","{""Q0"":""It is an interesting piece but not sure what the theme is.""}","","","","","","","","","","","","","","","","","","","","","","",""
"6143.19999999553","","image-slider-response","75","613552","0.0-73.0","A36GR8MUA34VW6","","","","","3","","","","","","","","","","","","","","","","","","","","","",""
"null","","image-button-response","76","618568","0.0-74.0","A36GR8MUA34VW6","img_art/7.jpg","null","","","","","","","","","","","","","","","","","","","","","","","","",""
"3405","","image-button-response","77","621977","0.0-75.0","A36GR8MUA34VW6","img_art/7.jpg","3","","","","","","","","","","","","","","","","","","","","","","","","",""
"2895","","image-button-response","78","624872","0.0-76.0-0.0","A36GR8MUA34VW6","img_art/7.jpg","0","","","","","","","","","","","","","","","","","","","","","","","","",""
"2797","","image-button-response","79","627671","0.0-77.0-0.0","A36GR8MUA34VW6","img_art/7.jpg","2","","","","","","","","","","","","","","","","","","","","","","","","",""
"null","","html-keyboard-response","80","628178","0.0-78.0","A36GR8MUA34VW6","<p style=""font-size: 48px;"">+</p>","","","","","null","allTrialResponses","500","1","5","img_art/7.jpg","3","It is an interesting piece but not sure what the theme is.","Diana,Monica,Vanessa,Amy,Savannah,Morgan","This piece reminds me of ants and it makes my skin crawl.,-37,380,20","It looks like bloody scabs on skin, I don't like it,-42,360,20","This is borning and lifeless.,-50,380,20","Limited emotional reaction for me. No focus and highly abstract,-20,220,20","More saturated color, even more interpretations to have.,44,200,20","Dead bugs on an insect battleground.,-10,380,20","Amy","Limited emotional reaction for me. No focus and highly abstract,-20,220,20","Diana","This piece reminds me of ants and it makes my skin crawl.,-37,380,20","Vanessa","This is borning and lifeless.,-50,380,20","4"
"4366","","survey-text","81","632552","0.0-79.0-0.0","A36GR8MUA34VW6","","","","{""Q0"":""skey""}","","","","","","","","","","","","","","","","","","","","","","",""
"3117","","survey-text","82","638175","0.0-79.1-0.1","A36GR8MUA34VW6","","","","{""Q0"":""sky""}","","","","","","","","","","","","","","","","","","","","","","",""
"42436","","survey-text","83","680613","0.0-80.0-0.0","A36GR8MUA34VW6","","","","{""Q0"":""Nice balance of colors and calming""}","","","","","","","","","","","","","","","","","","","","","","",""
"5735.19999999553","","image-slider-response","84","686349","0.0-81.0","A36GR8MUA34VW6","","","","","20","","","","","","","","","","","","","","","","","","","","","",""
"2647","","image-button-response","85","691365","0.0-82.0","A36GR8MUA34VW6","img_art/14.jpg","1","","","","","","","","","","","","","","","","","","","","","","","","",""
"3004","","image-button-response","86","694373","0.0-83.0","A36GR8MUA34VW6","img_art/14.jpg","3","","","","","","","","","","","","","","","","","","","","","","","","",""
"1303","","image-button-response","87","695678","0.0-84.0-0.0","A36GR8MUA34VW6","img_art/14.jpg","1","","","","","","","","","","","","","","","","","","","","","","","","",""
"638","","image-button-response","88","696317","0.0-85.0-0.0","A36GR8MUA34VW6","img_art/14.jpg","0","","","","","","","","","","","","","","","","","","","","","","","","",""
"null","","html-keyboard-response","89","696830","0.0-86.0","A36GR8MUA34VW6","<p style=""font-size: 48px;"">+</p>","","","","","null","allTrialResponses","500","1","6","img_art/14.jpg","20","Nice balance of colors and calming","Diana,Katie,Vanessa,Amy,Alexandra,Nicole","This piece feels inviting. It's like opening up the pages of your favorite book for the first time.,26,380,20","It represents growth. I see a plant/tree growing out of the ground. I like the rainbow of color in the painting.,31,160,20","I don't like the colors, but I espeically don't like all the negative space.,-20,380,20","In others I might say the colors are garish. Here it works perfectly. The balance is wondrous and unlimiting.,25,220,20","Pretty, dainty, unique,22,60,20","This reminds me of the Lion King somehow! Feels inspiring,30,20,20","Amy","In others I might say the colors are garish. Here it works perfectly. The balance is wondrous and unlimiting.,25,220,20","Katie","It represents growth. I see a plant/tree growing out of the ground. I like the rainbow of color in the painting.,31,160,20","Diana","This piece feels inviting. It's like opening up the pages of your favorite book for the first time.,26,380,20","5"
"47623","","survey-text","90","744459","0.0-87.0-0.0","A36GR8MUA34VW6","","","","{""Q0"":""It is a little dark and not sure what this object is""}","","","","","","","","","","","","","","","","","","","","","","",""
"4446.39999999851","","image-slider-response","91","748907","0.0-88.0","A36GR8MUA34VW6","","","","","-20","","","","","","","","","","","","","","","","","","","","","",""
"2766","","image-button-response","92","753919","0.0-89.0","A36GR8MUA34VW6","img_art/10.jpg","1","","","","","","","","","","","","","","","","","","","","","","","","",""
"2969","","image-button-response","93","756891","0.0-90.0","A36GR8MUA34VW6","img_art/10.jpg","2","","","","","","","","","","","","","","","","","","","","","","","","",""
"2838","","image-button-response","94","759731","0.0-91.0-0.0","A36GR8MUA34VW6","img_art/10.jpg","3","","","","","","","","","","","","","","","","","","","","","","","","",""
"1486","","image-button-response","95","761218","0.0-92.0-0.0","A36GR8MUA34VW6","img_art/10.jpg","1","","","","","","","","","","","","","","","","","","","","","","","","",""
"null","","html-keyboard-response","96","761730","0.0-93.0","A36GR8MUA34VW6","<p style=""font-size: 48px;"">+</p>","","","","","null","allTrialResponses","500","1","7","img_art/10.jpg","-20","It is a little dark and not sure what this object is","Diana,Katie,Julia,Amy,Jasmine,Erin","It reminds me of the ocean. Almost like a battlefield, but on the water.,19,380,20","Dark and weird. Unidentifiable shape. I can't tell what it is, so I don't like it.,-50,160,20","this is a good painting, but feels musical in a way that I don't connect with.,-14,40,20","Highly abstract and yet the shapes and colors provide an emotional accessibility for me.,20,220,20","It's okay but not giving me the strongest reaction,6,340,20","Cello music instrument,11,120,20","Julia","this is a good painting, but feels musical in a way that I don't connect with.,-14,40,20","Amy","Highly abstract and yet the shapes and colors provide an emotional accessibility for me.,20,220,20","Katie","Dark and weird. Unidentifiable shape. I can't tell what it is, so I don't like it.,-50,160,20","5"
"22232","","survey-text","97","783968","0.0-94.0-0.0","A36GR8MUA34VW6","","","","{""Q0"":""This is another piece that looks like a kid painted""}","","","","","","","","","","","","","","","","","","","","","","",""
"7662.70000000298","","image-slider-response","98","791632","0.0-95.0","A36GR8MUA34VW6","","","","","-40","","","","","","","","","","","","","","","","","","","","","",""
"3126","","image-button-response","99","796634","0.0-96.0","A36GR8MUA34VW6","img_art/2.jpg","0","","","","","","","","","","","","","","","","","","","","","","","","",""
"1259","","image-button-response","100","797896","0.0-97.0","A36GR8MUA34VW6","img_art/2.jpg","3","","","","","","","","","","","","","","","","","","","","","","","","",""
"1350","","image-button-response","101","799248","0.0-98.0-0.0","A36GR8MUA34VW6","img_art/2.jpg","0","","","","","","","","","","","","","","","","","","","","","","","","",""
"2071","","image-button-response","102","801320","0.0-99.0-0.0","A36GR8MUA34VW6","img_art/2.jpg","4","","","","","","","","","","","","","","","","","","","","","","","","",""
"null","","html-keyboard-response","103","802334","0.0-100.0","A36GR8MUA34VW6","<p style=""font-size: 48px;"">+</p>","","","","","null","allTrialResponses","1000","1","8","img_art/2.jpg","-40","This is another piece that looks like a kid painted","Emily,Katie,Julia,Amy,Angela,Michaela","Random colors and shapes mashed together. Nothing artistic, but better than some of the other ones.,-37,40,20","Doesn't look like anything. Just a blob of colors.,1,160,20","I like how it looks like a cute smiling face,43,40,20","The color palette of this painting is for me displeasing and immature.,-30,220,20","Only like the blues and teals in this. The rest is unappealing.,-15,260,20","My immediate reaction was it looked like a class but then I saw a smile in the middle,11,260,20","Amy","The color palette of this painting is for me displeasing and immature.,-30,220,20","Emily","Random colors and shapes mashed together. Nothing artistic, but better than some of the other ones.,-37,40,20","Angela","Only like the blues and teals in this. The rest is unappealing.,-15,260,20","5"
"28652","","survey-text","104","830991","0.0-101.0-0.0","A36GR8MUA34VW6","","","","{""Q0"":""This reminds me of Picasso.  Very interesting piece.""}","","","","","","","","","","","","","","","","","","","","","","",""
"6631.4000000059605","","image-slider-response","105","837624","0.0-102.0","A36GR8MUA34VW6","","","","","20","","","","","","","","","","","","","","","","","","","","","",""
"null","","image-button-response","106","842629","0.0-103.0","A36GR8MUA34VW6","img_art/8.jpg","null","","","","","","","","","","","","","","","","","","","","","","","","",""
"1190","","image-button-response","107","843822","0.0-104.0","A36GR8MUA34VW6","img_art/8.jpg","3","","","","","","","","","","","","","","","","","","","","","","","","",""
"4047","","image-button-response","108","847870","0.0-105.0-0.0","A36GR8MUA34VW6","img_art/8.jpg","0","","","","","","","","","","","","","","","","","","","","","","","","",""
"4399","","image-button-response","109","852271","0.0-106.0-0.0","A36GR8MUA34VW6","img_art/8.jpg","4","","","","","","","","","","","","","","","","","","","","","","","","",""
"null","","html-keyboard-response","110","853281","0.0-107.0","A36GR8MUA34VW6","<p style=""font-size: 48px;"">+</p>","","","","","null","allTrialResponses","1000","1","9","img_art/8.jpg","20","This reminds me of Picasso.  Very interesting piece.","Emily,Natalie,Bailey,Amy,Angela,Alicia","It is interesting to look at. Abstract but ordered.,9,40,20","looks nice, like the details,25,400,20","Not a fan of abstract looking pieces with too many focal points. The tunnel and face, for example,-31,360,20","The definition and the colors give make this painting accessible and thought provoking.,30,220,20","Like the colors and the energy, but the face feels jarring to me,13,260,20","wow. blocky, angled, neat colors. The faces are what makes it. love it.,45,120,20","Amy","The definition and the colors give make this painting accessible and thought provoking.,30,220,20","Emily","It is interesting to look at. Abstract but ordered.,9,40,20","Angela","Like the colors and the energy, but the face feels jarring to me,13,260,20","5"
"50484","","survey-text","111","903772","0.0-108.0-0.0","A36GR8MUA34VW6","","","","{""Q0"":""The colors look very thick and the white in the middle is questionable.""}","","","","","","","","","","","","","","","","","","","","","","",""
"4615.19999999553","","image-slider-response","112","908388","0.0-109.0","A36GR8MUA34VW6","","","","","-10","","","","","","","","","","","","","","","","","","","","","",""
"null","","image-button-response","113","913564","0.0-110.0","A36GR8MUA34VW6","img_art/23.jpg","null","","","","","","","","","","","","","","","","","","","","","","","","",""
"174266","","image-button-response","114","1087831","0.0-111.0","A36GR8MUA34VW6","img_art/23.jpg","2","","","","","","","","","","","","","","","","","","","","","","","","",""
"1509","","image-button-response","115","1089342","0.0-112.0-0.0","A36GR8MUA34VW6","img_art/23.jpg","4","","","","","","","","","","","","","","","","","","","","","","","","",""
"2454","","image-button-response","116","1091798","0.0-113.0-0.0","A36GR8MUA34VW6","img_art/23.jpg","1","","","","","","","","","","","","","","","","","","","","","","","","",""
"null","","html-keyboard-response","117","1092803","0.0-114.0","A36GR8MUA34VW6","<p style=""font-size: 48px;"">+</p>","","","","","null","allTrialResponses","1000","1","10","img_art/23.jpg","-10","The colors look very thick and the white in the middle is questionable.","Emily,Hannah,Gabrielle,Amy,Angela,Elizabeth","I don't get it.,-40,40,20","This one is interesting. Looks like people with maybe musical instruments?,11,240,20","it's OK, but just OK, kind of interesting but I wouldn't spend money on it,4,160,20","So exciting and full of the night.,20,220,20","Like the background colors and the energy, but the white bits ruin it for me,-7,260,20","Fantastic blend of color and forms,43,20,20","Gabrielle","it's OK, but just OK, kind of interesting but I wouldn't spend money on it,4,160,20","Angela","Like the background colors and the energy, but the white bits ruin it for me,-7,260,20","Hannah","This one is interesting. Looks like people with maybe musical instruments?,11,240,20","5"
"3698","","survey-text","118","1096510","0.0-115.0-0.0","A36GR8MUA34VW6","","","","{""Q0"":""our""}","","","","","","","","","","","","","","","","","","","","","","",""
"43623","","survey-text","119","1140134","0.0-116.0-0.0","A36GR8MUA34VW6","","","","{""Q0"":""It is interesting, but a little too dark""}","","","","","","","","","","","","","","","","","","","","","","",""
"3591","","image-slider-response","120","1143724","0.0-117.0","A36GR8MUA34VW6","","","","","-5","","","","","","","","","","","","","","","","","","","","","",""
"null","","image-button-response","121","1148740","0.0-118.0","A36GR8MUA34VW6","img_art/15.jpg","null","","","","","","","","","","","","","","","","","","","","","","","","",""
"821","","image-button-response","122","1149564","0.0-119.0","A36GR8MUA34VW6","img_art/15.jpg","4","","","","","","","","","","","","","","","","","","","","","","","","",""
"5383","","image-button-response","123","1154947","0.0-120.0-0.0","A36GR8MUA34VW6","img_art/15.jpg","3","","","","","","","","","","","","","","","","","","","","","","","","",""
"3480","","image-button-response","124","1158428","0.0-121.0-0.0","A36GR8MUA34VW6","img_art/15.jpg","1","","","","","","","","","","","","","","","","","","","","","","","","",""
"null","","html-keyboard-response","125","1159430","0.0-122.0","A36GR8MUA34VW6","<p style=""font-size: 48px;"">+</p>","","","","","null","allTrialResponses","1000","1","11","img_art/15.jpg","-5","It is interesting, but a little too dark","Leah,Hannah,Gabrielle,Mikayla,Angela,Abigail","Pretty, like in a field of poppies,19,360,20","Like this for the colors and arrangement.,11,240,20","dark and provoking,-50,160,20","The dots are cool with the blue accents.,24,300,20","Interesting, but don't really like it. Gloomy.,-10,260,20","This also has nice contrast,34,20,20","Angela","Interesting, but don't really like it. Gloomy.,-10,260,20","Mikayla","The dots are cool with the blue accents.,24,300,20","Hannah","Like this for the colors and arrangement.,11,240,20","5"
"15607","","survey-text","126","1175044","0.0-123.0-0.0","A36GR8MUA34VW6","","","","{""Q0"":""It is very scary in a sense. ""}","","","","","","","","","","","","","","","","","","","","","","",""
"5278.80000000447","","image-slider-response","127","1180324","0.0-124.0","A36GR8MUA34VW6","","","","","-32","","","","","","","","","","","","","","","","","","","","","",""
"3110","","image-button-response","128","1185326","0.0-125.0","A36GR8MUA34VW6","img_art/25.jpg","4","","","","","","","","","","","","","","","","","","","","","","","","",""
"2146","","image-button-response","129","1187476","0.0-126.0","A36GR8MUA34VW6","img_art/25.jpg","4","","","","","","","","","","","","","","","","","","","","","","","","",""
"1999","","image-button-response","130","1189476","0.0-127.0-0.0","A36GR8MUA34VW6","img_art/25.jpg","0","","","","","","","","","","","","","","","","","","","","","","","","",""
"1214","","image-button-response","131","1190692","0.0-128.0-0.0","A36GR8MUA34VW6","img_art/25.jpg","1","","","","","","","","","","","","","","","","","","","","","","","","",""
"null","","html-keyboard-response","132","1191693","0.0-129.0","A36GR8MUA34VW6","<p style=""font-size: 48px;"">+</p>","","","","","null","allTrialResponses","1000","1","12","img_art/25.jpg","-32","It is very scary in a sense. ","Alyssa,Hannah,Isabella,Mikayla,Angela,Sara","Dark silhouette against the murky background Illicites an ominous feeling. Don't really like it.,-20,160,20","Looks like a voodoo figure in a New Orleans cemetery at night.,-5,240,20","I love the green and the figure is black but the green makes it pop,29,280,20","I LOVE fhe scary skeleton.,28,300,20","Ugly green color and don't like it at all,-30,260,20","Green color is not my thing,-29,160,20","Angela","Ugly green color and don't like it at all,-30,260,20","Alyssa","Dark silhouette against the murky background Illicites an ominous feeling. Don't really like it.,-20,160,20","Hannah","Looks like a voodoo figure in a New Orleans cemetery at night.,-5,240,20","5"
"27131","","survey-text","133","1218827","0.0-130.0-0.0","A36GR8MUA34VW6","","","","{""Q0"":""This is a pretty painting with a nice nature theme.""}","","","","","","","","","","","","","","","","","","","","","","",""
"6662.60000000149","","image-slider-response","134","1225491","0.0-131.0","A36GR8MUA34VW6","","","","","37","","","","","","","","","","","","","","","","","","","","","",""
"1557","","image-button-response","135","1230494","0.0-132.0","A36GR8MUA34VW6","img_art/24.jpg","0","","","","","","","","","","","","","","","","","","","","","","","","",""
"2172","","image-button-response","136","1232668","0.0-133.0","A36GR8MUA34VW6","img_art/24.jpg","4","","","","","","","","","","","","","","","","","","","","","","","","",""
"1325","","image-button-response","137","1233994","0.0-134.0-0.0","A36GR8MUA34VW6","img_art/24.jpg","0","","","","","","","","","","","","","","","","","","","","","","","","",""
"7495","","image-button-response","138","1241491","0.0-135.0-0.0","A36GR8MUA34VW6","img_art/24.jpg","2","","","","","","","","","","","","","","","","","","","","","","","","",""
"null","","html-keyboard-response","139","1242507","0.0-136.0","A36GR8MUA34VW6","<p style=""font-size: 48px;"">+</p>","","","","","null","allTrialResponses","1000","1","13","img_art/24.jpg","37","This is a pretty painting with a nice nature theme.","Alyssa,Hannah,Breanna,Madison,Angela,Crystal","Beautiful.Nice use of colors and invokes feelings of serene and peace,40,160,20","It's okay but don't love it.,7,240,20","Like it, nice attention to details,31,380,20","Exceedingly garish,-19,60,20","Love the colors in this work, and the sense of motion in the water,36,260,20","I don't like this painting because of its blottedness. It lacks conviction, direction and purpose.,-31,300,20","Angela","Love the colors in this work, and the sense of motion in the water,36,260,20","Alyssa","Beautiful.Nice use of colors and invokes feelings of serene and peace,40,160,20","Breanna","Like it, nice attention to details,31,380,20","5"
"12593","","survey-text","140","1255106","0.0-137.0-0.0","A36GR8MUA34VW6","","","","{""Q0"":""It is warm but a little too busy""}","","","","","","","","","","","","","","","","","","","","","","",""
"3576.1999999955297","","image-slider-response","141","1258684","0.0-138.0","A36GR8MUA34VW6","","","","","-6","","","","","","","","","","","","","","","","","","","","","",""
"2974","","image-button-response","142","1263689","0.0-139.0","A36GR8MUA34VW6","img_art/22.jpg","0","","","","","","","","","","","","","","","","","","","","","","","","",""
"342","","image-button-response","143","1264033","0.0-140.0","A36GR8MUA34VW6","img_art/22.jpg","3","","","","","","","","","","","","","","","","","","","","","","","","",""
"2392","","image-button-response","144","1266425","0.0-141.0-0.0","A36GR8MUA34VW6","img_art/22.jpg","4","","","","","","","","","","","","","","","","","","","","","","","","",""
"1895","","image-button-response","145","1268321","0.0-142.0-0.0","A36GR8MUA34VW6","img_art/22.jpg","0","","","","","","","","","","","","","","","","","","","","","","","","",""
"null","","html-keyboard-response","146","1268835","0.0-143.0","A36GR8MUA34VW6","<p style=""font-size: 48px;"">+</p>","","","","","null","allTrialResponses","500","1","14","img_art/22.jpg","-6","It is warm but a little too busy","Alyssa,Paige,Breanna,Mackenzie,Angela,Katelyn","Its okay,it doesnt make me feel any sort of strong emotion,1,160,20","Happy. I like to colors,33,60,20","Makes me feel a bit anxious,6,380,20","Different shapes within the image make it interesting to look at,20,20,20","Like the colors. I enjoy looking at this one.,15,260,20","I usually dont like blurry pieces but the colors are amazing in this,14,100,20","Mackenzie","Different shapes within the image make it interesting to look at,20,20,20","Angela","Like the colors. I enjoy looking at this one.,15,260,20","Alyssa","Its okay,it doesnt make me feel any sort of strong emotion,1,160,20","5"
"19547","","survey-text","147","1288392","0.0-144.0-0.0","A36GR8MUA34VW6","","","","{""Q0"":""This drives me with different imaginations""}","","","","","","","","","","","","","","","","","","","","","","",""
"4456","","image-slider-response","148","1292850","0.0-145.0","A36GR8MUA34VW6","","","","","15","","","","","","","","","","","","","","","","","","","","","",""
"3933","","image-button-response","149","1297852","0.0-146.0","A36GR8MUA34VW6","img_art/18.jpg","0","","","","","","","","","","","","","","","","","","","","","","","","",""
"819","","image-button-response","150","1298674","0.0-147.0","A36GR8MUA34VW6","img_art/18.jpg","4","","","","","","","","","","","","","","","","","","","","","","","","",""
"1093","","image-button-response","151","1299769","0.0-148.0-0.0","A36GR8MUA34VW6","img_art/18.jpg","0","","","","","","","","","","","","","","","","","","","","","","","","",""
"3527","","image-button-response","152","1303297","0.0-149.0-0.0","A36GR8MUA34VW6","img_art/18.jpg","2","","","","","","","","","","","","","","","","","","","","","","","","",""
"null","","html-keyboard-response","153","1303811","0.0-150.0","A36GR8MUA34VW6","<p style=""font-size: 48px;"">+</p>","","","","","null","allTrialResponses","500","1","15","img_art/18.jpg","15","This drives me with different imaginations","Alyssa,Laura,Autumn,Mackenzie,Angela,Olivia","There are alot of elements to this painting and a good mix of colors,32,160,20","afraid and anxious,21,320,20","This looks amazing.,40,340,20","The shapes are very fun to interpret,30,20,20","like the grays and contrast of the yellow. This piece feels a bit angry,10,260,20","death rides in life,-25,40,20","Angela","like the grays and contrast of the yellow. This piece feels a bit angry,10,260,20","Alyssa","There are alot of elements to this painting and a good mix of colors,32,160,20","Autumn","This looks amazing.,40,340,20","5"
"3990","","survey-text","154","1307808","0.0-151.0-0.0","A36GR8MUA34VW6","","","","{""Q0"":""course""}","","","","","","","","","","","","","","","","","","","","","","",""
"42694","","survey-text","155","1350504","0.0-152.0-0.0","A36GR8MUA34VW6","","","","{""Q0"":""I think this piece is creative, but it's too dark""}","","","","","","","","","","","","","","","","","","","","","","",""
"4750.5","","image-slider-response","156","1355255","0.0-153.0","A36GR8MUA34VW6","","","","","6","","","","","","","","","","","","","","","","","","","","","",""
"null","","image-button-response","157","1360258","0.0-154.0","A36GR8MUA34VW6","img_art/16.jpg","null","","","","","","","","","","","","","","","","","","","","","","","","",""
"1619","","image-button-response","158","1361880","0.0-155.0","A36GR8MUA34VW6","img_art/16.jpg","0","","","","","","","","","","","","","","","","","","","","","","","","",""
"1287","","image-button-response","159","1363167","0.0-156.0-0.0","A36GR8MUA34VW6","img_art/16.jpg","1","","","","","","","","","","","","","","","","","","","","","","","","",""
"1591","","image-button-response","160","1364759","0.0-157.0-0.0","A36GR8MUA34VW6","img_art/16.jpg","4","","","","","","","","","","","","","","","","","","","","","","","","",""
"null","","html-keyboard-response","161","1365271","0.0-158.0","A36GR8MUA34VW6","<p style=""font-size: 48px;"">+</p>","","","","","null","allTrialResponses","500","1","16","img_art/16.jpg","6","I think this piece is creative, but it's too dark","Alyssa,Allison,Autumn,Victoria,Angela,Cassidy","It creeps me out.,-50,160,20","Hard contrast, but no emotions towards any of the objects.,-6,140,20","Very cool abstraction.,19,340,20","liked the bear, nothing else made sense,10,400,20","Hate this, especially the jarring contrast of the super realistic teddybear face.,-50,260,20","I don't know why, I just don't like it,-28,140,20","Alyssa","It creeps me out.,-50,160,20","Allison","Hard contrast, but no emotions towards any of the objects.,-6,140,20","Angela","Hate this, especially the jarring contrast of the super realistic teddybear face.,-50,260,20","5"
"20216","","survey-text","162","1385493","0.0-159.0-0.0","A36GR8MUA34VW6","","","","{""Q0"":""It is a little messy and the red cross in the middle is a little creepy""}","","","","","","","","","","","","","","","","","","","","","","",""
"4255.79999999702","","image-slider-response","163","1389750","0.0-160.0","A36GR8MUA34VW6","","","","","-11","","","","","","","","","","","","","","","","","","","","","",""
"4614","","image-button-response","164","1394753","0.0-161.0","A36GR8MUA34VW6","img_art/29.jpg","0","","","","","","","","","","","","","","","","","","","","","","","","",""
"442","","image-button-response","165","1395198","0.0-162.0","A36GR8MUA34VW6","img_art/29.jpg","1","","","","","","","","","","","","","","","","","","","","","","","","",""
"830","","image-button-response","166","1396030","0.0-163.0-0.0","A36GR8MUA34VW6","img_art/29.jpg","0","","","","","","","","","","","","","","","","","","","","","","","","",""
"767","","image-button-response","167","1396797","0.0-164.0-0.0","A36GR8MUA34VW6","img_art/29.jpg","4","","","","","","","","","","","","","","","","","","","","","","","","",""
"null","","html-keyboard-response","168","1398311","0.0-165.0","A36GR8MUA34VW6","<p style=""font-size: 48px;"">+</p>","","","","","null","allTrialResponses","1500","1","17","img_art/29.jpg","-11","It is a little messy and the red cross in the middle is a little creepy","Alyssa,Allison,Mary,Dominique,Angela,Erika","Its interesting although doesnt illicit any strong emotions from me,10,160,20","Flash is too strong. Dislike the colors,-5,140,20","I love the angry emotion to this art. I feel very drawn to it.,18,180,20","Another great work of art and very conversational piece,33,400,20","I would like this piece better without the red X across it,-10,260,20","Feels like an abandoned dream,13,100,20","Allison","Flash is too strong. Dislike the colors,-5,140,20","Alyssa","Its interesting although doesnt illicit any strong emotions from me,10,160,20","Angela","I would like this piece better without the red X across it,-10,260,20","5"
"50895","","survey-text","169","1449212","0.0-166.0-0.0","A36GR8MUA34VW6","","","","{""Q0"":""It is OK, but the tone of colors is not my thing""}","","","","","","","","","","","","","","","","","","","","","","",""
"2831","","image-slider-response","170","1452044","0.0-167.0","A36GR8MUA34VW6","","","","","-5","","","","","","","","","","","","","","","","","","","","","",""
"2143","","image-button-response","171","1457047","0.0-168.0","A36GR8MUA34VW6","img_art/19.jpg","1","","","","","","","","","","","","","","","","","","","","","","","","",""
"1026","","image-button-response","172","1458077","0.0-169.0","A36GR8MUA34VW6","img_art/19.jpg","3","","","","","","","","","","","","","","","","","","","","","","","","",""
"1341","","image-button-response","173","1459419","0.0-170.0-0.0","A36GR8MUA34VW6","img_art/19.jpg","0","","","","","","","","","","","","","","","","","","","","","","","","",""
"1336","","image-button-response","174","1460757","0.0-171.0-0.0","A36GR8MUA34VW6","img_art/19.jpg","4","","","","","","","","","","","","","","","","","","","","","","","","",""
"null","","html-keyboard-response","175","1461259","0.0-172.0","A36GR8MUA34VW6","<p style=""font-size: 48px;"">+</p>","","","","","null","allTrialResponses","500","1","18","img_art/19.jpg","-5","It is OK, but the tone of colors is not my thing","Alyssa,Allison,Chelsea,Megan,Angela,Jamie","There's alot of elements to it bordering on clutter and chaotic,-20,160,20","Messy mix of colors.,-5,140,20","It is too busy.,-34,180,20","Simple, scratchy lack of negative space.,-10,200,20","I like the colors but the scene itself feels too jumbled and cluttered,9,260,20","Looks like a busy port,10,320,20","Megan","Simple, scratchy lack of negative space.,-10,200,20","Alyssa","There's alot of elements to it bordering on clutter and chaotic,-20,160,20","Angela","I like the colors but the scene itself feels too jumbled and cluttered,9,260,20","5"
"43881","","survey-text","176","1505146","0.0-173.0-0.0","A36GR8MUA34VW6","","","","{""Q0"":""It's messy and I don't like it""}","","","","","","","","","","","","","","","","","","","","","","",""
"2574.7999999970198","","image-slider-response","177","1507723","0.0-174.0","A36GR8MUA34VW6","","","","","-39","","","","","","","","","","","","","","","","","","","","","",""
"3319","","image-button-response","178","1512725","0.0-175.0","A36GR8MUA34VW6","img_art/9.jpg","4","","","","","","","","","","","","","","","","","","","","","","","","",""
"211","","image-button-response","179","1512938","0.0-176.0","A36GR8MUA34VW6","img_art/9.jpg","0","","","","","","","","","","","","","","","","","","","","","","","","",""
"1640","","image-button-response","180","1514579","0.0-177.0-0.0","A36GR8MUA34VW6","img_art/9.jpg","4","","","","","","","","","","","","","","","","","","","","","","","","",""
"1319","","image-button-response","181","1515899","0.0-178.0-0.0","A36GR8MUA34VW6","img_art/9.jpg","3","","","","","","","","","","","","","","","","","","","","","","","","",""
"null","","html-keyboard-response","182","1517410","0.0-179.0","A36GR8MUA34VW6","<p style=""font-size: 48px;"">+</p>","","","","","null","allTrialResponses","1500","1","19","img_art/9.jpg","-39","It's messy and I don't like it","Alyssa,Caitlin,Shannon,Megan,Angela,Leslie","Unpleasant, alot of dark colors and strange lines,-26,160,20","Caveman. Not for my walls.,-5,80,20","This looks like someone sleeping in a bed, and I think the colors make it look interesting.,20,220,20","A troubled painter was influenced by anger and mad at the woman in the middle, color not bad,-32,200,20","This painting feels too jumbled for me to like it.,-12,260,20","The colors are pretty, and remind me of a circus.,5,380,20","Alyssa","Unpleasant, alot of dark colors and strange lines,-26,160,20","Angela","This painting feels too jumbled for me to like it.,-12,260,20","Megan","A troubled painter was influenced by anger and mad at the woman in the middle, color not bad,-32,200,20","5"
"15210","","survey-text","183","1532627","0.0-180.0-0.0","A36GR8MUA34VW6","","","","{""Q0"":""This is structured and interesting""}","","","","","","","","","","","","","","","","","","","","","","",""
"4318.70000000298","","image-slider-response","184","1536947","0.0-181.0","A36GR8MUA34VW6","","","","","16","","","","","","","","","","","","","","","","","","","","","",""
"null","","image-button-response","185","1541949","0.0-182.0","A36GR8MUA34VW6","img_art/12.jpg","null","","","","","","","","","","","","","","","","","","","","","","","","",""
"900","","image-button-response","186","1542852","0.0-183.0","A36GR8MUA34VW6","img_art/12.jpg","0","","","","","","","","","","","","","","","","","","","","","","","","",""
"2447","","image-button-response","187","1545299","0.0-184.0-0.0","A36GR8MUA34VW6","img_art/12.jpg","4","","","","","","","","","","","","","","","","","","","","","","","","",""
"1031","","image-button-response","188","1546331","0.0-185.0-0.0","A36GR8MUA34VW6","img_art/12.jpg","1","","","","","","","","","","","","","","","","","","","","","","","","",""
"null","","html-keyboard-response","189","1546839","0.0-186.0","A36GR8MUA34VW6","<p style=""font-size: 48px;"">+</p>","","","","","null","allTrialResponses","500","1","20","img_art/12.jpg","16","This is structured and interesting","Alyssa,Katherine,Brooke,Megan,Angela,Alexandria","Its cool,reminiscent of Andy Warhol type of style,10,160,20","Not sure why but this is my favorite. I'd put it on my wall,50,120,20","Dislike the style, the sharp rectangular pattern very jarring.,-20,60,20","Blocky windowed, safe and selfish,-41,200,20","I like the colors in the bottom half of the painting,10,260,20","don't feel a lot but it seems very simple,-6,80,20","Alyssa","Its cool,reminiscent of Andy Warhol type of style,10,160,20","Angela","I like the colors in the bottom half of the painting,10,260,20","Katherine","Not sure why but this is my favorite. I'd put it on my wall,50,120,20","5"
"3036","","survey-text","190","1549884","0.0-187.0-0.0","A36GR8MUA34VW6","","","","{""Q0"":""we""}","","","","","","","","","","","","","","","","","","","","","","",""
"11543","","survey-text","191","1561427","0.0-188.0-0.0","A36GR8MUA34VW6","","","","{""Q0"":""Very expressive in a way. ""}","","","","","","","","","","","","","","","","","","","","","","",""
"3022.89999999851","","image-slider-response","192","1564451","0.0-189.0","A36GR8MUA34VW6","","","","","8","","","","","","","","","","","","","","","","","","","","","",""
"2245","","image-button-response","193","1569456","0.0-190.0","A36GR8MUA34VW6","img_art/30.jpg","1","","","","","","","","","","","","","","","","","","","","","","","","",""
"519","","image-button-response","194","1569977","0.0-191.0","A36GR8MUA34VW6","img_art/30.jpg","1","","","","","","","","","","","","","","","","","","","","","","","","",""
"1943","","image-button-response","195","1571921","0.0-192.0-0.0","A36GR8MUA34VW6","img_art/30.jpg","3","","","","","","","","","","","","","","","","","","","","","","","","",""
"2807","","image-button-response","196","1574730","0.0-193.0-0.0","A36GR8MUA34VW6","img_art/30.jpg","5","","","","","","","","","","","","","","","","","","","","","","","","",""
"null","","html-keyboard-response","197","1576237","0.0-194.0","A36GR8MUA34VW6","<p style=""font-size: 48px;"">+</p>","","","","","null","allTrialResponses","1500","1","21","img_art/30.jpg","8","Very expressive in a way. ","Alyssa,Katherine,Grace,Mariah,Angela,Andrea","ugly nasty colors,-10,160,20","For some reason I like the red in this one. Maybe it's the style of lines/blurs,46,120,20","A little too dull. Would've liked brighter colors. Also looks washed out.,1,180,20","It just feels hasty and not well composed. Has an angsty teen feel,-31,140,20","Really don't like this piece. It feels very lazy to me.,-31,260,20","It feels like graffiti and the dark colors do nothing for the mood.,-5,240,20","Katherine","For some reason I like the red in this one. Maybe it's the style of lines/blurs,46,120,20","Mariah","It just feels hasty and not well composed. Has an angsty teen feel,-31,140,20","Andrea","It feels like graffiti and the dark colors do nothing for the mood.,-5,240,20","5"
"11464","","survey-text","198","1587706","0.0-195.0-0.0","A36GR8MUA34VW6","","","","{""Q0"":""Very simple and not sure what it is""}","","","","","","","","","","","","","","","","","","","","","","",""
"3199","","image-slider-response","199","1590906","0.0-196.0","A36GR8MUA34VW6","","","","","-19","","","","","","","","","","","","","","","","","","","","","",""
"4686","","image-button-response","200","1595914","0.0-197.0","A36GR8MUA34VW6","img_art/4.jpg","5","","","","","","","","","","","","","","","","","","","","","","","","",""
"1262","","image-button-response","201","1597178","0.0-198.0","A36GR8MUA34VW6","img_art/4.jpg","5","","","","","","","","","","","","","","","","","","","","","","","","",""
"903","","image-button-response","202","1598082","0.0-199.0-0.0","A36GR8MUA34VW6","img_art/4.jpg","2","","","","","","","","","","","","","","","","","","","","","","","","",""
"2631","","image-button-response","203","1600714","0.0-200.0-0.0","A36GR8MUA34VW6","img_art/4.jpg","3","","","","","","","","","","","","","","","","","","","","","","","","",""
"null","","html-keyboard-response","204","1602219","0.0-201.0","A36GR8MUA34VW6","<p style=""font-size: 48px;"">+</p>","","","","","null","allTrialResponses","1500","1","22","img_art/4.jpg","-19","Very simple and not sure what it is","Jenna,Katherine,Michelle,Mariah,Madeline,Andrea","creepy, looks like a deformed hand, but the background is pretty,5,360,20","I like how many different ways there are to interpret this.,27,120,20","Looks like more paint smearing but at least there is structure,-5,280,20","Movement. Snakes. Hair. The uncertainty makes my eye return.,21,140,20","Not impressed really,-20,40,20","I think it speaks to familial closeness but the tonality is offputting to me.,-10,240,20","Andrea","I think it speaks to familial closeness but the tonality is offputting to me.,-10,240,20","Michelle","Looks like more paint smearing but at least there is structure,-5,280,20","Mariah","Movement. Snakes. Hair. The uncertainty makes my eye return.,21,140,20","5"
"9785","","survey-text","205","1612010","0.0-202.0-0.0","A36GR8MUA34VW6","","","","{""Q0"":""Very sad looking painting""}","","","","","","","","","","","","","","","","","","","","","","",""
"2526.7999999970198","","image-slider-response","206","1614538","0.0-203.0","A36GR8MUA34VW6","","","","","-24","","","","","","","","","","","","","","","","","","","","","",""
"2447","","image-button-response","207","1619540","0.0-204.0","A36GR8MUA34VW6","img_art/6.jpg","2","","","","","","","","","","","","","","","","","","","","","","","","",""
"1050","","image-button-response","208","1620594","0.0-205.0","A36GR8MUA34VW6","img_art/6.jpg","2","","","","","","","","","","","","","","","","","","","","","","","","",""
"2639","","image-button-response","209","1623234","0.0-206.0-0.0","A36GR8MUA34VW6","img_art/6.jpg","4","","","","","","","","","","","","","","","","","","","","","","","","",""
"2348","","image-button-response","210","1625584","0.0-207.0-0.0","A36GR8MUA34VW6","img_art/6.jpg","3","","","","","","","","","","","","","","","","","","","","","","","","",""
"null","","html-keyboard-response","211","1626093","0.0-208.0","A36GR8MUA34VW6","<p style=""font-size: 48px;"">+</p>","","","","","null","allTrialResponses","500","1","23","img_art/6.jpg","-24","Very sad looking painting","Rachel,Courtney,Michelle,Mariah,Cassandra,Andrea","Reminds me of a plant poking through the soil. It reminds me of new life.,31,80,20","Its the headless bird. But why?,21,280,20","Definitely belongs at a doctor's office, I think it's a crow or a tree?,-3,280,20","Clean and simple, a pleasant resting place for the eyes.,21,140,20","No feeling...just left me feeling kind of blah,1,120,20","So forlorn, and beauty amid desolation.,25,240,20","Michelle","Definitely belongs at a doctor's office, I think it's a crow or a tree?,-3,280,20","Cassandra","No feeling...just left me feeling kind of blah,1,120,20","Mariah","Clean and simple, a pleasant resting place for the eyes.,21,140,20","5"
"32323","","survey-text","212","1658424","0.0-209.0-0.0","A36GR8MUA34VW6","","","","{""Q0"":""Light and gray-ish.  Not significant""}","","","","","","","","","","","","","","","","","","","","","","",""
"2566.89999999851","","image-slider-response","213","1660992","0.0-210.0","A36GR8MUA34VW6","","","","","-17","","","","","","","","","","","","","","","","","","","","","",""
"4910","","image-button-response","214","1665994","0.0-211.0","A36GR8MUA34VW6","img_art/26.jpg","5","","","","","","","","","","","","","","","","","","","","","","","","",""
"2370","","image-button-response","215","1668368","0.0-212.0","A36GR8MUA34VW6","img_art/26.jpg","5","","","","","","","","","","","","","","","","","","","","","","","","",""
"1479","","image-button-response","216","1669848","0.0-213.0-0.0","A36GR8MUA34VW6","img_art/26.jpg","2","","","","","","","","","","","","","","","","","","","","","","","","",""
"1559","","image-button-response","217","1671408","0.0-214.0-0.0","A36GR8MUA34VW6","img_art/26.jpg","0","","","","","","","","","","","","","","","","","","","","","","","","",""
"null","","html-keyboard-response","218","1671916","0.0-215.0","A36GR8MUA34VW6","<p style=""font-size: 48px;"">+</p>","","","","","null","allTrialResponses","500","1","24","img_art/26.jpg","-17","Light and gray-ish.  Not significant","Hailey,Jordan,Michelle,Mariah,Cassandra,Cheyenne","bedroom in the outdoors. warm,9,200,20","This one is nicer, looks like a walk in a small, dreamy city,20,20,20","I can make out a street view and I am a fan of watercolors but still too boring,15,280,20","Pleasant but bland.,10,140,20","Neutral...nothing to say.,3,120,20","No strong reaction but the color scheme is nice,10,200,20","Cheyenne","No strong reaction but the color scheme is nice,10,200,20","Michelle","I can make out a street view and I am a fan of watercolors but still too boring,15,280,20","Hailey","bedroom in the outdoors. warm,9,200,20","5"
"33291","","survey-text","219","1705215","0.0-216.0-0.0","A36GR8MUA34VW6","","","","{""Q0"":""Colors are mixed randomly""}","","","","","","","","","","","","","","","","","","","","","","",""
"2622.8000000044703","","image-slider-response","220","1707839","0.0-217.0","A36GR8MUA34VW6","","","","","-19","","","","","","","","","","","","","","","","","","","","","",""
"1951","","image-button-response","221","1712841","0.0-218.0","A36GR8MUA34VW6","img_art/1.jpg","1","","","","","","","","","","","","","","","","","","","","","","","","",""
"3202","","image-button-response","222","1716046","0.0-219.0","A36GR8MUA34VW6","img_art/1.jpg","0","","","","","","","","","","","","","","","","","","","","","","","","",""
"1151","","image-button-response","223","1717198","0.0-220.0-0.0","A36GR8MUA34VW6","img_art/1.jpg","1","","","","","","","","","","","","","","","","","","","","","","","","",""
"1935","","image-button-response","224","1719135","0.0-221.0-0.0","A36GR8MUA34VW6","img_art/1.jpg","2","","","","","","","","","","","","","","","","","","","","","","","","",""
"null","","html-keyboard-response","225","1720636","0.0-222.0","A36GR8MUA34VW6","<p style=""font-size: 48px;"">+</p>","","","","","null","allTrialResponses","1500","1","25","img_art/1.jpg","-19","Colors are mixed randomly","Hailey,Jacqueline,Michelle,Kristen,Amber,Cheyenne","colors that are fairly warm. its ok,8,200,20","It's alright but lacks any depth.,-5,300,20","Random paint does not make art,-5,280,20","river, fall, cozy, warm,12,280,20","Really like all of the colors and how they mesh well.,27,200,20","Nothing really going on but good color choices.,-3,200,20","Hailey","colors that are fairly warm. its ok,8,200,20","Jacqueline","It's alright but lacks any depth.,-5,300,20","Michelle","Random paint does not make art,-5,280,20","5"
"3800","","survey-text","226","1724447","0.0-223.0-0.0","A36GR8MUA34VW6","","","","{""Q0"":""table""}","","","","","","","","","","","","","","","","","","","","","","",""
"18446","","survey-text","227","1742895","0.0-224.0-0.0","A36GR8MUA34VW6","","","","{""Q0"":""Simple yet catching my eye. ""}","","","","","","","","","","","","","","","","","","","","","","",""
"2469.8000000044703","","image-slider-response","228","1745365","0.0-225.0","A36GR8MUA34VW6","","","","","27","","","","","","","","","","","","","","","","","","","","","",""
"2424","","image-button-response","229","1750367","0.0-226.0","A36GR8MUA34VW6","img_art/5.jpg","5","","","","","","","","","","","","","","","","","","","","","","","","",""
"788","","image-button-response","230","1751157","0.0-227.0","A36GR8MUA34VW6","img_art/5.jpg","5","","","","","","","","","","","","","","","","","","","","","","","","",""
"1288","","image-button-response","231","1752446","0.0-228.0-0.0","A36GR8MUA34VW6","img_art/5.jpg","1","","","","","","","","","","","","","","","","","","","","","","","","",""
"8734","","image-button-response","232","1761182","0.0-229.0-0.0","A36GR8MUA34VW6","img_art/5.jpg","4","","","","","","","","","","","","","","","","","","","","","","","","",""
"null","","html-keyboard-response","233","1762684","0.0-230.0","A36GR8MUA34VW6","<p style=""font-size: 48px;"">+</p>","","","","","null","allTrialResponses","1500","1","26","img_art/5.jpg","27","Simple yet catching my eye. ","Hailey,Jacqueline,Michelle,Chloe,Catherine,Kylie","puke yellow with nothing but sadness,-35,200,20","Seems very basic and uninteresting.,-15,300,20","What is this? It looks like no effort was put into this work,-2,280,20","Black stripe looks violent,-31,220,20","Building remnants in the sand.,1,160,20","It reminds me of a piece of lemon candy, which is one of my favorite flavors,20,300,20","Kylie","It reminds me of a piece of lemon candy, which is one of my favorite flavors,20,300,20","Jacqueline","Seems very basic and uninteresting.,-15,300,20","Catherine","Building remnants in the sand.,1,160,20","5"
"27117","","survey-text","234","1789813","0.0-231.0-0.0","A36GR8MUA34VW6","","","","{""Q0"":""It is warm and cloudy""}","","","","","","","","","","","","","","","","","","","","","","",""
"3670.5999999940395","","image-slider-response","235","1793485","0.0-232.0","A36GR8MUA34VW6","","","","","6","","","","","","","","","","","","","","","","","","","","","",""
"null","","image-button-response","236","1798489","0.0-233.0","A36GR8MUA34VW6","img_art/27.jpg","null","","","","","","","","","","","","","","","","","","","","","","","","",""
"426","","image-button-response","237","1798917","0.0-234.0","A36GR8MUA34VW6","img_art/27.jpg","5","","","","","","","","","","","","","","","","","","","","","","","","",""
"1456","","image-button-response","238","1800374","0.0-235.0-0.0","A36GR8MUA34VW6","img_art/27.jpg","1","","","","","","","","","","","","","","","","","","","","","","","","",""
"1999","","image-button-response","239","1802374","0.0-236.0-0.0","A36GR8MUA34VW6","img_art/27.jpg","0","","","","","","","","","","","","","","","","","","","","","","","","",""
"null","","html-keyboard-response","240","1803376","0.0-237.0","A36GR8MUA34VW6","<p style=""font-size: 48px;"">+</p>","","","","","null","allTrialResponses","1000","1","27","img_art/27.jpg","6","It is warm and cloudy","Kelsey,Jacqueline,Gabriela,Melissa,Catherine,Kylie","too messy dont like the color choices either,-17,240,20","I don't really see anything to this art.,-5,300,20","I like hoe it looks like a fall day in a city,45,140,20","reminds me of kandinsky,10,240,20","Angelic, childlike. happiness but also with sadness.,40,160,20","Soothing in the middle of some confusion,40,300,20","Kylie","Soothing in the middle of some confusion,40,300,20","Jacqueline","I don't really see anything to this art.,-5,300,20","Kelsey","too messy dont like the color choices either,-17,240,20","5"
"13476","","survey-text","241","1816860","0.0-238.0-0.0","A36GR8MUA34VW6","","","","{""Q0"":""Very scary and bloody""}","","","","","","","","","","","","","","","","","","","","","","",""
"2759","","image-slider-response","242","1819620","0.0-239.0","A36GR8MUA34VW6","","","","","-45","","","","","","","","","","","","","","","","","","","","","",""
"3910","","image-button-response","243","1824623","0.0-240.0","A36GR8MUA34VW6","img_art/3.jpg","1","","","","","","","","","","","","","","","","","","","","","","","","",""
"986","","image-button-response","244","1825612","0.0-241.0","A36GR8MUA34VW6","img_art/3.jpg","4","","","","","","","","","","","","","","","","","","","","","","","","",""
"1151","","image-button-response","245","1826764","0.0-242.0-0.0","A36GR8MUA34VW6","img_art/3.jpg","1","","","","","","","","","","","","","","","","","","","","","","","","",""
"1006","","image-button-response","246","1827772","0.0-243.0-0.0","A36GR8MUA34VW6","img_art/3.jpg","2","","","","","","","","","","","","","","","","","","","","","","","","",""
"null","","html-keyboard-response","247","1828288","0.0-244.0","A36GR8MUA34VW6","<p style=""font-size: 48px;"">+</p>","","","","","null","allTrialResponses","500","1","28","img_art/3.jpg","-45","Very scary and bloody","Kelsey,Jacqueline,Sabrina,Kaylee,Shelby,Kylie","just scribbles, not pleasing,-30,240,20","Looks like a bloody head with teeth.,-16,300,20","I dont really feel anything from this, i cant see or understand any of it,-20,120,20","i really cant get it,-44,200,20","This makes me feel a bit disturbed,-35,240,20","Confusion and mayhem,-10,300,20","Shelby","This makes me feel a bit disturbed,-35,240,20","Jacqueline","Looks like a bloody head with teeth.,-16,300,20","Sabrina","I dont really feel anything from this, i cant see or understand any of it,-20,120,20","5"
"17108","","survey-text","248","1845403","0.0-245.0-0.0","A36GR8MUA34VW6","","","","{""Q0"":""This one is also a little scary and dark""}","","","","","","","","","","","","","","","","","","","","","","",""
"2287.5","","image-slider-response","249","1847692","0.0-246.0","A36GR8MUA34VW6","","","","","-21","","","","","","","","","","","","","","","","","","","","","",""
"2446","","image-button-response","250","1852707","0.0-247.0","A36GR8MUA34VW6","img_art/11.jpg","1","","","","","","","","","","","","","","","","","","","","","","","","",""
"872","","image-button-response","251","1853581","0.0-248.0","A36GR8MUA34VW6","img_art/11.jpg","3","","","","","","","","","","","","","","","","","","","","","","","","",""
"686","","image-button-response","252","1854268","0.0-249.0-0.0","A36GR8MUA34VW6","img_art/11.jpg","1","","","","","","","","","","","","","","","","","","","","","","","","",""
"3095","","image-button-response","253","1857364","0.0-250.0-0.0","A36GR8MUA34VW6","img_art/11.jpg","5","","","","","","","","","","","","","","","","","","","","","","","","",""
"null","","html-keyboard-response","254","1858365","0.0-251.0","A36GR8MUA34VW6","<p style=""font-size: 48px;"">+</p>","","","","","null","allTrialResponses","1000","1","29","img_art/11.jpg","-21","This one is also a little scary and dark","Destiny,Jacqueline,Sabrina,Sydney,Shelby,Amanda","life is a highway,12,360,20","It's too dark and dingy.,-30,300,20","I love the city chaos from this,50,120,20","I don't like the gloomy color, but it reminds me of a city which I like.,35,320,20","The movement in this one is extremely pleasent,40,240,20","It makes me feel angry and overwhelmed,-29,180,20","Sydney","I don't like the gloomy color, but it reminds me of a city which I like.,35,320,20","Jacqueline","It's too dark and dingy.,-30,300,20","Amanda","It makes me feel angry and overwhelmed,-29,180,20","5"
"42236","","survey-text","255","1900610","0.0-252.0-0.0","A36GR8MUA34VW6","","","","{""Q0"":""very shady""}","","","","","","","","","","","","","","","","","","","","","","",""
"3816.39999999851","","image-slider-response","256","1904428","0.0-253.0","A36GR8MUA34VW6","","","","","-13","","","","","","","","","","","","","","","","","","","","","",""
"1965","","image-button-response","257","1909430","0.0-254.0","A36GR8MUA34VW6","img_art/21.jpg","0","","","","","","","","","","","","","","","","","","","","","","","","",""
"138","","image-button-response","258","1909570","0.0-255.0","A36GR8MUA34VW6","img_art/21.jpg","0","","","","","","","","","","","","","","","","","","","","","","","","",""
"1192","","image-button-response","259","1910763","0.0-256.0-0.0","A36GR8MUA34VW6","img_art/21.jpg","4","","","","","","","","","","","","","","","","","","","","","","","","",""
"742","","image-button-response","260","1911507","0.0-257.0-0.0","A36GR8MUA34VW6","img_art/21.jpg","3","","","","","","","","","","","","","","","","","","","","","","","","",""
"null","","html-keyboard-response","261","1912008","0.0-258.0","A36GR8MUA34VW6","<p style=""font-size: 48px;"">+</p>","","","","","null","allTrialResponses","500","1","30","img_art/21.jpg","-13","very shady","Margaret,Jacqueline,Kaitlyn,Sydney,Sophia,Amanda","i like the colors and the blending,17,100,20","Kind of looks like a sky with a storm or tornado.,10,300,20","The division in the picture is pleasing but the random white dots are distracting,12,80,20","I love everything about this piece.,50,320,20","Indifferent toward this one.,6,280,20","Very calming and nice to look at,30,180,20","Margaret","i like the colors and the blending,17,100,20","Sophia","Indifferent toward this one.,6,280,20","Sydney","I love everything about this piece.,50,320,20","5"
"1802","","image-button-response_instructions","262","1913819","0.0-259.0","A36GR8MUA34VW6","","0","instructions","","","","","","","","","","","","","","","","","","","","","","","",""
"1660","","image-button-response","263","1915483","0.0-260.0","A36GR8MUA34VW6","","0","","","","","","","","","","","","","","","","","","","","","","","","",""
