"rt","url","trial_type","trial_index","time_elapsed","internal_node_id","participant_id","stimulus","button_pressed","Name","responses","response","key_press","variableName","fixationTime","condition","trial","photo","subjectRating","subjectResponse","agentsNames","agent_1_Response","agent_2_Response","agent_3_Response","agent_4_Response","agent_5_Response","agent_6_Response","kept_1_name","kept_1_response","kept_2_name","kept_2_response","kept_3_name","kept_3_response","errorCounter"
"16007","external_page_harvard.html","external-html","0","16134","0.0-0.0","A36HFMF9Z4BGS8","","","","","","","","","","","","","","","","","","","","","","","","","","",""
"1604","","image-button-response","1","17740","0.0-1.0","A36HFMF9Z4BGS8","","0","","","","","","","","","","","","","","","","","","","","","","","","",""
"3929","","image-button-response","2","21676","0.0-2.0-0.0","A36HFMF9Z4BGS8","","1","phone","","","","","","","","","","","","","","","","","","","","","","","",""
"9223","","survey-text","3","30900","0.0-3.0-0.0","A36HFMF9Z4BGS8","","","","{""Q0"":""A36HFMF9Z4BGS8""}","","","","","","","","","","","","","","","","","","","","","","",""
"11117","","image-button-response_instructions","4","42019","0.0-4.0","A36HFMF9Z4BGS8","","0","instructions","","","","","","","","","","","","","","","","","","","","","","","",""
"28111","","image-button-response_instructions","5","70132","0.0-5.0","A36HFMF9Z4BGS8","img_art/ins/popularity/ins1.png","0","instructions","","","","","","","","","","","","","","","","","","","","","","","",""
"12639","","image-button-response_instructions","6","82771","0.0-6.0","A36HFMF9Z4BGS8","img_art/ins/popularity/ins2.png","0","instructions","","","","","","","","","","","","","","","","","","","","","","","",""
"10759","","image-button-response_instructions","7","93531","0.0-7.0","A36HFMF9Z4BGS8","img_art/ins/popularity/ins2Extreme.png","0","instructions","","","","","","","","","","","","","","","","","","","","","","","",""
"17302","","image-button-response_instructions","8","110835","0.0-8.0","A36HFMF9Z4BGS8","img_art/ins/popularity/ins3KEEPpop.PNG","0","instructions","","","","","","","","","","","","","","","","","","","","","","","",""
"46422","","image-button-response_instructions","9","157259","0.0-9.0","A36HFMF9Z4BGS8","img_art/ins/popularity/ins3ANamepop.PNG","0","instructions","","","","","","","","","","","","","","","","","","","","","","","",""
"8923","","image-button-response_instructions","10","166184","0.0-10.0","A36HFMF9Z4BGS8","img_art/ins/popularity/ins3ARatingpop.png","0","instructions","","","","","","","","","","","","","","","","","","","","","","","",""
"7522","","image-button-response_instructions","11","173707","0.0-11.0","A36HFMF9Z4BGS8","img_art/ins/popularity/ins3ATextpop.png","0","instructions","","","","","","","","","","","","","","","","","","","","","","","",""
"19743","","image-button-response_instructions","12","193451","0.0-12.0","A36HFMF9Z4BGS8","img_art/ins/popularity/ins3ALikespop.png","0","instructions","","","","","","","","","","","","","","","","","","","","","","","",""
"20255","","image-button-response_instructions","13","213707","0.0-13.0","A36HFMF9Z4BGS8","img_art/ins/popularity/ins3KEEPpop.PNG","0","instructions","","","","","","","","","","","","","","","","","","","","","","","",""
"18615","","image-button-response_instructions","14","232323","0.0-14.0","A36HFMF9Z4BGS8","img_art/ins/popularity/ins3_5RED.png","0","instructions","","","","","","","","","","","","","","","","","","","","","","","",""
"8351","","image-button-response_instructions","15","240675","0.0-15.0","A36HFMF9Z4BGS8","img_art/ins/popularity/ins3KEEPpop.PNG","0","instructions","","","","","","","","","","","","","","","","","","","","","","","",""
"17950","","image-button-response_instructions","16","258627","0.0-16.0","A36HFMF9Z4BGS8","img_art/ins/popularity/ins4KEEPpop.PNG","0","instructions","","","","","","","","","","","","","","","","","","","","","","","",""
"7590","","image-button-response_instructions","17","266219","0.0-17.0","A36HFMF9Z4BGS8","img_art/ins/popularity/ins5KEEPpop.PNG","0","instructions","","","","","","","","","","","","","","","","","","","","","","","",""
"2247","","image-button-response_instructions","18","268466","0.0-18.0","A36HFMF9Z4BGS8","","0","instructions","","","","","","","","","","","","","","","","","","","","","","","",""
"9157","","survey-text","19","277651","0.0-19.0-0.0","A36HFMF9Z4BGS8","","","","{""Q0"":""but""}","","","","","","","","","","","","","","","","","","","","","","",""
"12061","","survey-text","20","289715","0.0-20.0-0.0","A36HFMF9Z4BGS8","","","","{""Q0"":""this is very busy""}","","","","","","","","","","","","","","","","","","","","","","",""
"5397.29999999702","","image-slider-response","21","295114","0.0-21.0","A36HFMF9Z4BGS8","","","","","12","","","","","","","","","","","","","","","","","","","","","",""
"null","","image-button-response","22","300136","0.0-22.0","A36HFMF9Z4BGS8","img_art/ins/1.jpg","null","","","","","","","","","","","","","","","","","","","","","","","","",""
"4728","","image-button-response","23","304867","0.0-23.0","A36HFMF9Z4BGS8","img_art/ins/1.jpg","1","","","","","","","","","","","","","","","","","","","","","","","","",""
"1574","","image-button-response","24","306443","0.0-24.0-0.0","A36HFMF9Z4BGS8","img_art/ins/1.jpg","3","","","","","","","","","","","","","","","","","","","","","","","","",""
"10541","","image-button-response","25","316987","0.0-25.0-0.0","A36HFMF9Z4BGS8","img_art/ins/1.jpg","5","","","","","","","","","","","","","","","","","","","","","","","","",""
"null","","html-keyboard-response","26","317499","0.0-26.0","A36HFMF9Z4BGS8","<p style=""font-size: 48px;"">+</p>","","","","","null","allTrialResponses","500","1","-2","img_art/ins/1.jpg","12","this is very busy","Adam,Alex,Ben,Carl,Daniel,Jack","Seems like doodles,-20,20,20","very creative work.,36,40,20","This color reminds me of poo,-46,60,20","very calming artwork,42,80,20","It looks like a murder scene.,-48,100,20","I like the sophisticated brushwork,40,120,20","Alex","very creative work.,36,40,20","Carl","very calming artwork,42,80,20","Jack","I like the sophisticated brushwork,40,120,20","0"
"21119","","survey-text","27","338627","0.0-27.0-0.0","A36HFMF9Z4BGS8","","","","{""Q0"":""I find it kind of drab.""}","","","","","","","","","","","","","","","","","","","","","","",""
"7813.9000000059605","","image-slider-response","28","346443","0.0-28.0","A36HFMF9Z4BGS8","","","","","-27","","","","","","","","","","","","","","","","","","","","","",""
"null","","image-button-response","29","351450","0.0-29.0","A36HFMF9Z4BGS8","img_art/ins/2.jpg","null","","","","","","","","","","","","","","","","","","","","","","","","",""
"342","","image-button-response","30","351795","0.0-30.0","A36HFMF9Z4BGS8","img_art/ins/2.jpg","2","","","","","","","","","","","","","","","","","","","","","","","","",""
"10558","","image-button-response","31","362354","0.0-31.0-0.0","A36HFMF9Z4BGS8","img_art/ins/2.jpg","1","","","","","","","","","","","","","","","","","","","","","","","","",""
"2926","","image-button-response","32","365283","0.0-32.0-0.0","A36HFMF9Z4BGS8","img_art/ins/2.jpg","0","","","","","","","","","","","","","","","","","","","","","","","","",""
"null","","html-keyboard-response","33","365786","0.0-33.0","A36HFMF9Z4BGS8","<p style=""font-size: 48px;"">+</p>","","","","","null","allTrialResponses","500","1","-1","img_art/ins/2.jpg","-27","I find it kind of drab.","James,Alex,Kyle,Carl,John,Jack","looks too angry,-50,140,20","I like the blocks of color arrangements,30,40,20","Idk, it is just annoying,-32,180,20","I can feel the artist's passion in it,45,80,20","love the texture of paint,48,160,20","I would never be able to compose a sophisticated pallete like this,48,120,20","Kyle","Idk, it is just annoying,-32,180,20","Alex","I like the blocks of color arrangements,30,40,20","James","looks too angry,-50,140,20","0"
"14855","","survey-text","34","380651","0.0-34.0-0.0","A36HFMF9Z4BGS8","","","","{""Q0"":""This feels refreshing""}","","","","","","","","","","","","","","","","","","","","","","",""
"4645.5","","image-slider-response","35","385298","0.0-35.0","A36HFMF9Z4BGS8","","","","","34","","","","","","","","","","","","","","","","","","","","","",""
"4214","","image-button-response","36","390307","0.0-36.0","A36HFMF9Z4BGS8","img_art/ins/3.jpg","1","","","","","","","","","","","","","","","","","","","","","","","","",""
"4877","","image-button-response","37","395187","0.0-37.0","A36HFMF9Z4BGS8","img_art/ins/3.jpg","3","","","","","","","","","","","","","","","","","","","","","","","","",""
"8653","","image-button-response","38","403843","0.0-38.0-0.0","A36HFMF9Z4BGS8","img_art/ins/3.jpg","5","","","","","","","","","","","","","","","","","","","","","","","","",""
"1301","","image-button-response","39","405147","0.0-39.0-0.0","A36HFMF9Z4BGS8","img_art/ins/3.jpg","1","","","","","","","","","","","","","","","","","","","","","","","","",""
"null","","html-keyboard-response","40","405654","0.0-40.0","A36HFMF9Z4BGS8","<p style=""font-size: 48px;"">+</p>","","","","","null","allTrialResponses","500","1","0","img_art/ins/3.jpg","34","This feels refreshing","James,Alex,Kyle,Mike,Ron,Sam","My worst nightmare,-42,140,20","calming blue is very nice,36,40,20","It looks like a playground for bats,-36,180,20","enjoy the different shades of blue,22,200,20","It looks depressing,-26,220,20","I can feel a rainy day from this painting,18,240,20","Mike","enjoy the different shades of blue,22,200,20","Sam","I can feel a rainy day from this painting,18,240,20","Alex","calming blue is very nice,36,40,20","0"
"8155","","image-button-response_instructions","41","413819","0.0-41.0","A36HFMF9Z4BGS8","","0","instructions","","","","","","","","","","","","","","","","","","","","","","","",""
"15407","","survey-likert","42","429227","0.0-42.0-0.0","A36HFMF9Z4BGS8","","","","{""Q0"":"""",""Q1"":0,""Q2"":1}","","","","","","","","","","","","","","","","","","","","","","",""
"6354","","survey-text","43","435587","0.0-43.0-0.0","A36HFMF9Z4BGS8","","","","{""Q0"":""rock""}","","","","","","","","","","","","","","","","","","","","","","",""
"19054","","survey-text","44","454643","0.0-44.0-0.0","A36HFMF9Z4BGS8","","","","{""Q0"":""This is a little dark""}","","","","","","","","","","","","","","","","","","","","","","",""
"7454.29999999702","","image-slider-response","45","462099","0.0-45.0","A36HFMF9Z4BGS8","","","","","-7","","","","","","","","","","","","","","","","","","","","","",""
"4507","","image-button-response","46","467140","0.0-46.0","A36HFMF9Z4BGS8","img_art/25.jpg","0","","","","","","","","","","","","","","","","","","","","","","","","",""
"2267","","image-button-response","47","469411","0.0-47.0","A36HFMF9Z4BGS8","img_art/25.jpg","0","","","","","","","","","","","","","","","","","","","","","","","","",""
"11231","","image-button-response","48","480644","0.0-48.0-0.0","A36HFMF9Z4BGS8","img_art/25.jpg","3","","","","","","","","","","","","","","","","","","","","","","","","",""
"6374","","image-button-response","49","487020","0.0-49.0-0.0","A36HFMF9Z4BGS8","img_art/25.jpg","0","","","","","","","","","","","","","","","","","","","","","","","","",""
"12079","","image-button-response","50","503012","0.0-49.1-0.1","A36HFMF9Z4BGS8","img_art/25.jpg","4","","","","","","","","","","","","","","","","","","","","","","","","",""
"null","","html-keyboard-response","51","503515","0.0-50.0","A36HFMF9Z4BGS8","<p style=""font-size: 48px;"">+</p>","","","","","null","allTrialResponses","500","1","1","img_art/25.jpg","-7","This is a little dark","Andrew,Jake,Derek,Matthew,Zachary,Tristan","It makes me feel a little uneasy, but I like the painting,11,160,20","This is strange and poorly done.,-2,360,20","It's really neat and cool looking,20,360,20","haunting, a lovely impression.,50,120,20","I like the green color, but the combination of green and a person with a long neck reminds me of aliens,-27,400,20","The limited palette make this figure mysterious and interpret-able.,20,300,20","Andrew","It makes me feel a little uneasy, but I like the painting,11,160,20","Matthew","haunting, a lovely impression.,50,120,20","Zachary","I like the green color, but the combination of green and a person with a long neck reminds me of aliens,-27,400,20","2"
"19463","","survey-text","52","522987","0.0-51.0-0.0","A36HFMF9Z4BGS8","","","","{""Q0"":""This has a sense of vastness about it""}","","","","","","","","","","","","","","","","","","","","","","",""
"5638.29999999702","","image-slider-response","53","528627","0.0-52.0","A36HFMF9Z4BGS8","","","","","21","","","","","","","","","","","","","","","","","","","","","",""
"null","","image-button-response","54","533636","0.0-53.0","A36HFMF9Z4BGS8","img_art/22.jpg","null","","","","","","","","","","","","","","","","","","","","","","","","",""
"7709","","image-button-response","55","541348","0.0-54.0","A36HFMF9Z4BGS8","img_art/22.jpg","3","","","","","","","","","","","","","","","","","","","","","","","","",""
"3566","","image-button-response","56","544915","0.0-55.0-0.0","A36HFMF9Z4BGS8","img_art/22.jpg","4","","","","","","","","","","","","","","","","","","","","","","","","",""
"6862","","image-button-response","57","551780","0.0-56.0-0.0","A36HFMF9Z4BGS8","img_art/22.jpg","5","","","","","","","","","","","","","","","","","","","","","","","","",""
"null","","html-keyboard-response","58","553282","0.0-57.0","A36HFMF9Z4BGS8","<p style=""font-size: 48px;"">+</p>","","","","","null","allTrialResponses","1500","1","2","img_art/22.jpg","21","This has a sense of vastness about it","Andrew,Miguel,David,Matthew,Zachary,Marcus","Doesn't make me feel anything,-4,160,20","Same az the last one?,-49,160,20","This doesn't invoke anything, since I can't tell what the piece represents.,0,340,20","Another servicable piece of abstract art?,20,120,20","I like the vivid colors.,11,400,20","Like the colors. I enjoy looking at this one.,15,60,20","Matthew","Another servicable piece of abstract art?,20,120,20","Zachary","I like the vivid colors.,11,400,20","Marcus","Like the colors. I enjoy looking at this one.,15,60,20","2"
"45590","","survey-text","59","598883","0.0-58.0-0.0","A36HFMF9Z4BGS8","","","","{""Q0"":""I think this requires extra time to evaluate. I like it.""}","","","","","","","","","","","","","","","","","","","","","","",""
"3014.2000000029802","","image-slider-response","60","601899","0.0-59.0","A36HFMF9Z4BGS8","","","","","33","","","","","","","","","","","","","","","","","","","","","",""
"null","","image-button-response","61","606909","0.0-60.0","A36HFMF9Z4BGS8","img_art/27.jpg","null","","","","","","","","","","","","","","","","","","","","","","","","",""
"6771","","image-button-response","62","613683","0.0-61.0","A36HFMF9Z4BGS8","img_art/27.jpg","2","","","","","","","","","","","","","","","","","","","","","","","","",""
"3597","","image-button-response","63","617283","0.0-62.0-0.0","A36HFMF9Z4BGS8","img_art/27.jpg","3","","","","","","","","","","","","","","","","","","","","","","","","",""
"20629","","image-button-response","64","637915","0.0-63.0-0.0","A36HFMF9Z4BGS8","img_art/27.jpg","5","","","","","","","","","","","","","","","","","","","","","","","","",""
"null","","html-keyboard-response","65","638927","0.0-64.0","A36HFMF9Z4BGS8","<p style=""font-size: 48px;"">+</p>","","","","","null","allTrialResponses","1000","1","3","img_art/27.jpg","33","I think this requires extra time to evaluate. I like it.","Lucas,Nicholas,Peter,Matthew,Zachary,Marcus","No clue what to say.,0,380,20","I like all it has going but i wouldnt put it in my house unless my child did it,25,240,20","Calming sky , relaxing,23,320,20","Lots of activity, layers, imagination at work here.,29,120,20","Color story is boring in nature, and I feel nothing but boredom from this piece.,-20,400,20","It's okay. Not really interesting to me.,-10,60,20","Peter","Calming sky , relaxing,23,320,20","Matthew","Lots of activity, layers, imagination at work here.,29,120,20","Marcus","It's okay. Not really interesting to me.,-10,60,20","2"
"21435","","survey-text","66","660370","0.0-65.0-0.0","A36HFMF9Z4BGS8","","","","{""Q0"":""Gives me a sense of destruction""}","","","","","","","","","","","","","","","","","","","","","","",""
"7205.79999999702","","image-slider-response","67","667578","0.0-66.0","A36HFMF9Z4BGS8","","","","","-26","","","","","","","","","","","","","","","","","","","","","",""
"3910","","image-button-response","68","672586","0.0-67.0","A36HFMF9Z4BGS8","img_art/14.jpg","0","","","","","","","","","","","","","","","","","","","","","","","","",""
"4075","","image-button-response","69","676667","0.0-68.0","A36HFMF9Z4BGS8","img_art/14.jpg","0","","","","","","","","","","","","","","","","","","","","","","","","",""
"7326","","image-button-response","70","683995","0.0-69.0-0.0","A36HFMF9Z4BGS8","img_art/14.jpg","3","","","","","","","","","","","","","","","","","","","","","","","","",""
"8334","","image-button-response","71","692331","0.0-70.0-0.0","A36HFMF9Z4BGS8","img_art/14.jpg","4","","","","","","","","","","","","","","","","","","","","","","","","",""
"null","","html-keyboard-response","72","692834","0.0-71.0","A36HFMF9Z4BGS8","<p style=""font-size: 48px;"">+</p>","","","","","null","allTrialResponses","500","1","4","img_art/14.jpg","-26","Gives me a sense of destruction","Isaiah,John,Peter,Matthew,Gregory,Marcus","I feel uncomfortable looking at this painting, it is a mess that needs to be cleaned up.,-16,300,20","Beautiful tree,the use of water colors makes it soothing to look at,37,120,20","I like that it's like a snippet of a field in the desert,21,320,20","I like the color tone, it's kind of disturbing.,35,120,20","Not as cool as other tree looking paintings,-5,220,20","I like the colors and the shapes are interesting,11,60,20","Isaiah","I feel uncomfortable looking at this painting, it is a mess that needs to be cleaned up.,-16,300,20","Matthew","I like the color tone, it's kind of disturbing.,35,120,20","Gregory","Not as cool as other tree looking paintings,-5,220,20","2"
"18446","","survey-text","73","711290","0.0-72.0-0.0","A36HFMF9Z4BGS8","","","","{""Q0"":""Feels unfinished.""}","","","","","","","","","","","","","","","","","","","","","","",""
"4878.29999999702","","image-slider-response","74","716171","0.0-73.0","A36HFMF9Z4BGS8","","","","","-33","","","","","","","","","","","","","","","","","","","","","",""
"4598","","image-button-response","75","721179","0.0-74.0","A36HFMF9Z4BGS8","img_art/26.jpg","1","","","","","","","","","","","","","","","","","","","","","","","","",""
"11332","","image-button-response","76","732515","0.0-75.0","A36HFMF9Z4BGS8","img_art/26.jpg","5","","","","","","","","","","","","","","","","","","","","","","","","",""
"1566","","image-button-response","77","734083","0.0-76.0-0.0","A36HFMF9Z4BGS8","img_art/26.jpg","1","","","","","","","","","","","","","","","","","","","","","","","","",""
"11950","","image-button-response","78","746035","0.0-77.0-0.0","A36HFMF9Z4BGS8","img_art/26.jpg","2","","","","","","","","","","","","","","","","","","","","","","","","",""
"null","","html-keyboard-response","79","746538","0.0-78.0","A36HFMF9Z4BGS8","<p style=""font-size: 48px;"">+</p>","","","","","null","allTrialResponses","500","1","5","img_art/26.jpg","-33","Feels unfinished.","Isaiah,Scott,Jason,Matthew,Gregory,Ethan","It is very relaxing to look at, almost a relief.,21,300,20","nothing really special, quite bland,1,20,20","The colors look faded and blurry,2,20,20","Telented watercolor artist or second grader.,18,120,20","Street corner on a sunny day,5,220,20","I can tell it's some sort of outdoor scene. It looks very amateurish.,-9,120,20","Ethan","I can tell it's some sort of outdoor scene. It looks very amateurish.,-9,120,20","Scott","nothing really special, quite bland,1,20,20","Jason","The colors look faded and blurry,2,20,20","2"
"5325","","survey-text","80","751883","0.0-79.0-0.0","A36HFMF9Z4BGS8","","","","{""Q0"":""sky""}","","","","","","","","","","","","","","","","","","","","","","",""
"17814","","survey-text","81","769698","0.0-80.0-0.0","A36HFMF9Z4BGS8","","","","{""Q0"":""doesn't make any sense to me.""}","","","","","","","","","","","","","","","","","","","","","","",""
"5126.4000000059605","","image-slider-response","82","774827","0.0-81.0","A36HFMF9Z4BGS8","","","","","-50","","","","","","","","","","","","","","","","","","","","","",""
"null","","image-button-response","83","779835","0.0-82.0","A36HFMF9Z4BGS8","img_art/3.jpg","null","","","","","","","","","","","","","","","","","","","","","","","","",""
"3557","","image-button-response","84","783395","0.0-83.0","A36HFMF9Z4BGS8","img_art/3.jpg","2","","","","","","","","","","","","","","","","","","","","","","","","",""
"6326","","image-button-response","85","789722","0.0-84.0-0.0","A36HFMF9Z4BGS8","img_art/3.jpg","3","","","","","","","","","","","","","","","","","","","","","","","","",""
"11454","","image-button-response","86","801179","0.0-85.0-0.0","A36HFMF9Z4BGS8","img_art/3.jpg","4","","","","","","","","","","","","","","","","","","","","","","","","",""
"null","","html-keyboard-response","87","801683","0.0-86.0","A36HFMF9Z4BGS8","<p style=""font-size: 48px;"">+</p>","","","","","null","allTrialResponses","500","1","6","img_art/3.jpg","-50","doesn't make any sense to me.","Charles,Scott,Jason,Sean,Dalton,Ethan","I like that it feels kind of simple but still chaotic,6,100,20","I like that it's messy,14,20,20","Too much red; very bland,-26,20,20","my response to the picture is a lot of red, danger,,-21,40,20","Blood splatter and one black spot.,1,300,20","I usually don't like red. Red in this angry piece is very fitting.,19,120,20","Jason","Too much red; very bland,-26,20,20","Sean","my response to the picture is a lot of red, danger,,-21,40,20","Dalton","Blood splatter and one black spot.,1,300,20","2"
"21926","","survey-text","88","823619","0.0-87.0-0.0","A36HFMF9Z4BGS8","","","","{""Q0"":""No idea what this is.""}","","","","","","","","","","","","","","","","","","","","","","",""
"5693.899999991059","","image-slider-response","89","829315","0.0-88.0","A36HFMF9Z4BGS8","","","","","-50","","","","","","","","","","","","","","","","","","","","","",""
"2517","","image-button-response","90","834322","0.0-89.0","A36HFMF9Z4BGS8","img_art/28.jpg","0","","","","","","","","","","","","","","","","","","","","","","","","",""
"4549","","image-button-response","91","838875","0.0-90.0","A36HFMF9Z4BGS8","img_art/28.jpg","5","","","","","","","","","","","","","","","","","","","","","","","","",""
"3310","","image-button-response","92","842187","0.0-91.0-0.0","A36HFMF9Z4BGS8","img_art/28.jpg","0","","","","","","","","","","","","","","","","","","","","","","","","",""
"7117","","image-button-response","93","849308","0.0-92.0-0.0","A36HFMF9Z4BGS8","img_art/28.jpg","1","","","","","","","","","","","","","","","","","","","","","","","","",""
"null","","html-keyboard-response","94","850824","0.0-93.0","A36HFMF9Z4BGS8","<p style=""font-size: 48px;"">+</p>","","","","","null","allTrialResponses","1500","1","7","img_art/28.jpg","-50","No idea what this is.","Trevor,Jesse,Jason,Sean,Dalton,William","very blah colors and it's not fun,-27,280,20","Just all blurs together for me. No substance.,-23,80,20","Not sure what way this picture is suppose to be oriented,-5,20,20","it looks alright,-1,40,20","not sure what i feel but it makes me feel uncomfortable,1,300,20","drab and dreary,-21,380,20","William","drab and dreary,-21,380,20","Trevor","very blah colors and it's not fun,-27,280,20","Jesse","Just all blurs together for me. No substance.,-23,80,20","2"
"29772","","survey-text","95","880603","0.0-94.0-0.0","A36HFMF9Z4BGS8","","","","{""Q0"":""I enjoy the color and the angle.""}","","","","","","","","","","","","","","","","","","","","","","",""
"3606.2000000029802","","image-slider-response","96","884211","0.0-95.0","A36HFMF9Z4BGS8","","","","","36","","","","","","","","","","","","","","","","","","","","","",""
"null","","image-button-response","97","889220","0.0-96.0","A36HFMF9Z4BGS8","img_art/8.jpg","null","","","","","","","","","","","","","","","","","","","","","","","","",""
"6332","","image-button-response","98","895555","0.0-97.0","A36HFMF9Z4BGS8","img_art/8.jpg","1","","","","","","","","","","","","","","","","","","","","","","","","",""
"7717","","image-button-response","99","903275","0.0-98.0-0.0","A36HFMF9Z4BGS8","img_art/8.jpg","4","","","","","","","","","","","","","","","","","","","","","","","","",""
"6677","","image-button-response","100","909955","0.0-99.0-0.0","A36HFMF9Z4BGS8","img_art/8.jpg","3","","","","","","","","","","","","","","","","","","","","","","","","",""
"null","","html-keyboard-response","101","911467","0.0-100.0","A36HFMF9Z4BGS8","<p style=""font-size: 48px;"">+</p>","","","","","null","allTrialResponses","1500","1","8","img_art/8.jpg","36","I enjoy the color and the angle.","Trevor,Jesse,Kyle,Kenneth,Jacob,William","it looks very 80's and kind of scary,-11,280,20","I like the definition and the strong lines. It makes me think of someone watching over the world,24,80,20","Not too bad despite the chaos.,16,340,20","Interesting, i really like the face and the moon. Realy detailed and you see something new with each look.,11,300,20","Very cool! I like this piece,9,340,20","makes me think of a busy city,-18,380,20","Jesse","I like the definition and the strong lines. It makes me think of someone watching over the world,24,80,20","Jacob","Very cool! I like this piece,9,340,20","Kenneth","Interesting, i really like the face and the moon. Realy detailed and you see something new with each look.,11,300,20","2"
"37115","","survey-text","102","948587","0.0-101.0-0.0","A36HFMF9Z4BGS8","","","","{""Q0"":""Not really defined but I like the use of color.""}","","","","","","","","","","","","","","","","","","","","","","",""
"5862.5","","image-slider-response","103","954451","0.0-102.0","A36HFMF9Z4BGS8","","","","","25","","","","","","","","","","","","","","","","","","","","","",""
"null","","image-button-response","104","959455","0.0-103.0","A36HFMF9Z4BGS8","img_art/20.jpg","null","","","","","","","","","","","","","","","","","","","","","","","","",""
"2817","","image-button-response","105","962275","0.0-104.0","A36HFMF9Z4BGS8","img_art/20.jpg","3","","","","","","","","","","","","","","","","","","","","","","","","",""
"7966","","image-button-response","106","970243","0.0-105.0-0.0","A36HFMF9Z4BGS8","img_art/20.jpg","5","","","","","","","","","","","","","","","","","","","","","","","","",""
"8405","","image-button-response","107","978651","0.0-106.0-0.0","A36HFMF9Z4BGS8","img_art/20.jpg","2","","","","","","","","","","","","","","","","","","","","","","","","",""
"null","","html-keyboard-response","108","980163","0.0-107.0","A36HFMF9Z4BGS8","<p style=""font-size: 48px;"">+</p>","","","","","null","allTrialResponses","1500","1","9","img_art/20.jpg","25","Not really defined but I like the use of color.","Nathaniel,Jesse,Cody,Kenneth,Jacob,Travis","A bit hectic, but it does have a bit of coolness to it,6,220,20","I do at least like the dark colors blending,6,80,20","I like the distortion of the objects, good colors,20,180,20","I want to like this more, but i wish it was more detailed. It's hard for me to see what it is.,5,300,20","It looks painted really nicely.,5,340,20","I liked this...I liked the blue and the black and I liked the smoothness to it.,31,260,20","Kenneth","I want to like this more, but i wish it was more detailed. It's hard for me to see what it is.,5,300,20","Travis","I liked this...I liked the blue and the black and I liked the smoothness to it.,31,260,20","Cody","I like the distortion of the objects, good colors,20,180,20","2"
"43256","","survey-text","109","1023427","0.0-108.0-0.0","A36HFMF9Z4BGS8","","","","{""Q0"":""I don't get it. ""}","","","","","","","","","","","","","","","","","","","","","","",""
"6142.29999999702","","image-slider-response","110","1029571","0.0-109.0","A36HFMF9Z4BGS8","","","","","-50","","","","","","","","","","","","","","","","","","","","","",""
"null","","image-button-response","111","1034583","0.0-110.0","A36HFMF9Z4BGS8","img_art/15.jpg","null","","","","","","","","","","","","","","","","","","","","","","","","",""
"4945","","image-button-response","112","1039530","0.0-111.0","A36HFMF9Z4BGS8","img_art/15.jpg","1","","","","","","","","","","","","","","","","","","","","","","","","",""
"4910","","image-button-response","113","1044443","0.0-112.0-0.0","A36HFMF9Z4BGS8","img_art/15.jpg","3","","","","","","","","","","","","","","","","","","","","","","","","",""
"4813","","image-button-response","114","1049259","0.0-113.0-0.0","A36HFMF9Z4BGS8","img_art/15.jpg","5","","","","","","","","","","","","","","","","","","","","","","","","",""
"null","","html-keyboard-response","115","1049766","0.0-114.0","A36HFMF9Z4BGS8","<p style=""font-size: 48px;"">+</p>","","","","","null","allTrialResponses","500","1","10","img_art/15.jpg","-50","I don't get it. ","Luke,Dustin,Cody,Kenneth,Benjamin,Travis","it looks like trees but they are up to interpretation,16,20,20","Too much black. I see weeds or dead/dying flowers.,-40,20,20","Don't love it but it's cute,16,180,20","I can't really make out what this is supposed to be.,-8,300,20","Reminds me of blueberry bushes.,7,260,20","Hate it...black dots.,-47,260,20","Dustin","Too much black. I see weeds or dead/dying flowers.,-40,20,20","Kenneth","I can't really make out what this is supposed to be.,-8,300,20","Travis","Hate it...black dots.,-47,260,20","2"
"5987","","survey-text","116","1055771","0.0-115.0-0.0","A36HFMF9Z4BGS8","","","","{""Q0"":""our""}","","","","","","","","","","","","","","","","","","","","","","",""
"58958","","survey-text","117","1114731","0.0-116.0-0.0","A36HFMF9Z4BGS8","","","","{""Q0"":""Simple, I like the colors.""}","","","","","","","","","","","","","","","","","","","","","","",""
"3286.2000000029802","","image-slider-response","118","1118019","0.0-117.0","A36HFMF9Z4BGS8","","","","","9","","","","","","","","","","","","","","","","","","","","","",""
"null","","image-button-response","119","1123037","0.0-118.0","A36HFMF9Z4BGS8","img_art/6.jpg","null","","","","","","","","","","","","","","","","","","","","","","","","",""
"8411","","image-button-response","120","1131451","0.0-119.0","A36HFMF9Z4BGS8","img_art/6.jpg","2","","","","","","","","","","","","","","","","","","","","","","","","",""
"4045","","image-button-response","121","1135499","0.0-120.0-0.0","A36HFMF9Z4BGS8","img_art/6.jpg","3","","","","","","","","","","","","","","","","","","","","","","","","",""
"6285","","image-button-response","122","1141787","0.0-121.0-0.0","A36HFMF9Z4BGS8","img_art/6.jpg","4","","","","","","","","","","","","","","","","","","","","","","","","",""
"null","","html-keyboard-response","123","1143295","0.0-122.0","A36HFMF9Z4BGS8","<p style=""font-size: 48px;"">+</p>","","","","","null","allTrialResponses","1500","1","11","img_art/6.jpg","9","Simple, I like the colors.","Cole,Dustin,Jose,Kenneth,Adam,Travis","Close up peach? Hate it,-16,200,20","I like the warmth of the orange. But, I feel like it's a partial view. I'm frustrated I can't see the entirety.,-20,20,20","This could be so many different things. I saw a bird first but then it looks like a needle going into skin,34,200,20","Simple and pretty.,18,300,20","Simple desert scene.,5,40,20","No feeling...just left me feeling kind of blah,1,260,20","Jose","This could be so many different things. I saw a bird first but then it looks like a needle going into skin,34,200,20","Kenneth","Simple and pretty.,18,300,20","Adam","Simple desert scene.,5,40,20","2"
"53541","","survey-text","124","1196843","0.0-123.0-0.0","A36HFMF9Z4BGS8","","","","{""Q0"":""Chaotic painting depicting calmness?""}","","","","","","","","","","","","","","","","","","","","","","",""
"5878","","image-slider-response","125","1202722","0.0-124.0","A36HFMF9Z4BGS8","","","","","18","","","","","","","","","","","","","","","","","","","","","",""
"null","","image-button-response","126","1207728","0.0-125.0","A36HFMF9Z4BGS8","img_art/19.jpg","null","","","","","","","","","","","","","","","","","","","","","","","","",""
"6383","","image-button-response","127","1214115","0.0-126.0","A36HFMF9Z4BGS8","img_art/19.jpg","2","","","","","","","","","","","","","","","","","","","","","","","","",""
"12646","","image-button-response","128","1226763","0.0-127.0-0.0","A36HFMF9Z4BGS8","img_art/19.jpg","5","","","","","","","","","","","","","","","","","","","","","","","","",""
"12829","","image-button-response","129","1239594","0.0-128.0-0.0","A36HFMF9Z4BGS8","img_art/19.jpg","1","","","","","","","","","","","","","","","","","","","","","","","","",""
"null","","html-keyboard-response","130","1240601","0.0-129.0","A36HFMF9Z4BGS8","<p style=""font-size: 48px;"">+</p>","","","","","null","allTrialResponses","1000","1","12","img_art/19.jpg","18","Chaotic painting depicting calmness?","James,Jesus,Jose,Kenneth,Adam,Bryan","I don't know what's going on, and I realise that I don't like it,-21,380,20","Shapes give it a feeling of being crowded,-18,100,20","I dig the not being able to tell what anything is but knowing everything is supposed to be something,46,200,20","TOo much brown.,-24,300,20","Messy mix of colors.,-5,40,20","Looks like a child's rendering of a city street but not too sure.,0,400,20","Jose","I dig the not being able to tell what anything is but knowing everything is supposed to be something,46,200,20","Bryan","Looks like a child's rendering of a city street but not too sure.,0,400,20","Jesus","Shapes give it a feeling of being crowded,-18,100,20","2"
"51296","","survey-text","131","1291907","0.0-130.0-0.0","A36HFMF9Z4BGS8","","","","{""Q0"":""I see a landscape of cliffs, ocean, and sky.""}","","","","","","","","","","","","","","","","","","","","","","",""
"4645.600000008941","","image-slider-response","132","1296554","0.0-131.0","A36HFMF9Z4BGS8","","","","","3","","","","","","","","","","","","","","","","","","","","","",""
"null","","image-button-response","133","1301566","0.0-132.0","A36HFMF9Z4BGS8","img_art/21.jpg","null","","","","","","","","","","","","","","","","","","","","","","","","",""
"9154","","image-button-response","134","1310723","0.0-133.0","A36HFMF9Z4BGS8","img_art/21.jpg","3","","","","","","","","","","","","","","","","","","","","","","","","",""
"6796","","image-button-response","135","1317522","0.0-134.0-0.0","A36HFMF9Z4BGS8","img_art/21.jpg","5","","","","","","","","","","","","","","","","","","","","","","","","",""
"19727","","image-button-response","136","1337252","0.0-135.0-0.0","A36HFMF9Z4BGS8","img_art/21.jpg","1","","","","","","","","","","","","","","","","","","","","","","","","",""
"null","","html-keyboard-response","137","1338269","0.0-136.0","A36HFMF9Z4BGS8","<p style=""font-size: 48px;"">+</p>","","","","","null","allTrialResponses","1000","1","13","img_art/21.jpg","3","I see a landscape of cliffs, ocean, and sky.","Isaac,Jesus,Jose,Alexander,Alex,Bryan","I like the colors. It looks dramatic.,5,280,20","The shapes and colors are very interesting to look at.,41,100,20","I can't explain why this struck me as absolutely gorgeous. Like the clashing between 2 different worlds,43,200,20","Survivable storm on the open sea.,27,120,20","The colors are very nice. I like the dots because they remind me of pearls,5,100,20","Like the colors, the cloudy, airy effects. Nice.,46,400,20","Alexander","Survivable storm on the open sea.,27,120,20","Bryan","Like the colors, the cloudy, airy effects. Nice.,46,400,20","Jesus","The shapes and colors are very interesting to look at.,41,100,20","2"
"48055","","survey-text","138","1386331","0.0-137.0-0.0","A36HFMF9Z4BGS8","","","","{""Q0"":""Feels noisy to me. I do like the color.""}","","","","","","","","","","","","","","","","","","","","","","",""
"15005.800000011921","","image-slider-response","139","1401339","0.0-138.0","A36HFMF9Z4BGS8","","","","","1","","","","","","","","","","","","","","","","","","","","","",""
"null","","image-button-response","140","1406343","0.0-139.0","A36HFMF9Z4BGS8","img_art/11.jpg","null","","","","","","","","","","","","","","","","","","","","","","","","",""
"4353","","image-button-response","141","1410699","0.0-140.0","A36HFMF9Z4BGS8","img_art/11.jpg","0","","","","","","","","","","","","","","","","","","","","","","","","",""
"16262","","image-button-response","142","1426963","0.0-141.0-0.0","A36HFMF9Z4BGS8","img_art/11.jpg","5","","","","","","","","","","","","","","","","","","","","","","","","",""
"12869","","image-button-response","143","1439835","0.0-142.0-0.0","A36HFMF9Z4BGS8","img_art/11.jpg","2","","","","","","","","","","","","","","","","","","","","","","","","",""
"null","","html-keyboard-response","144","1440338","0.0-143.0","A36HFMF9Z4BGS8","<p style=""font-size: 48px;"">+</p>","","","","","null","allTrialResponses","500","1","14","img_art/11.jpg","1","Feels noisy to me. I do like the color.","Kevin,Jesus,Paul,Alexander,Alexis,Bryan","Thats a creepy old rollercoasters abandoned,-2,320,20","The different textures and colors make this pleasing to look at.,30,100,20","I like how it reminds me of music and at the same time it looks like colorful train tracks.,10,300,20","Waves of signs.,15,120,20","This photo makes me feel bleak,-16,140,20","Rainy asian city scape.,31,400,20","Kevin","Thats a creepy old rollercoasters abandoned,-2,320,20","Bryan","Rainy asian city scape.,31,400,20","Paul","I like how it reminds me of music and at the same time it looks like colorful train tracks.,10,300,20","2"
"48188","","survey-text","145","1488538","0.0-144.0-0.0","A36HFMF9Z4BGS8","","","","{""Q0"":""Colorful, but just don't like it.""}","","","","","","","","","","","","","","","","","","","","","","",""
"3645.8999999910593","","image-slider-response","146","1492186","0.0-145.0","A36HFMF9Z4BGS8","","","","","-26","","","","","","","","","","","","","","","","","","","","","",""
"null","","image-button-response","147","1497205","0.0-146.0","A36HFMF9Z4BGS8","img_art/9.jpg","null","","","","","","","","","","","","","","","","","","","","","","","","",""
"16867","","image-button-response","148","1514075","0.0-147.0","A36HFMF9Z4BGS8","img_art/9.jpg","1","","","","","","","","","","","","","","","","","","","","","","","","",""
"4494","","image-button-response","149","1518571","0.0-148.0-0.0","A36HFMF9Z4BGS8","img_art/9.jpg","3","","","","","","","","","","","","","","","","","","","","","","","","",""
"6053","","image-button-response","150","1524627","0.0-149.0-0.0","A36HFMF9Z4BGS8","img_art/9.jpg","5","","","","","","","","","","","","","","","","","","","","","","","","",""
"null","","html-keyboard-response","151","1526132","0.0-150.0","A36HFMF9Z4BGS8","<p style=""font-size: 48px;"">+</p>","","","","","null","allTrialResponses","1500","1","15","img_art/9.jpg","-26","Colorful, but just don't like it.","Kevin,Edward,Paul,Juan,Carlos,Bryan","This is a picture of a scary mans head sideways.,-24,320,20","The colors remind me of peacocks,24,60,20","I like the greens and blues around the sides and the person reclining in the center makes me feel relaxed,24,300,20","It's too abstract for my taste. I wish there were more definition.,-9,260,20","Pleasant in all ways.,27,80,20","Huh?  Doesn't invoke much.,-37,400,20","Edward","The colors remind me of peacocks,24,60,20","Juan","It's too abstract for my taste. I wish there were more definition.,-9,260,20","Bryan","Huh?  Doesn't invoke much.,-37,400,20","2"
"7397","","survey-text","152","1533539","0.0-151.0-0.0","A36HFMF9Z4BGS8","","","","{""Q0"":""course""}","","","","","","","","","","","","","","","","","","","","","","",""
"30638","","survey-text","153","1564179","0.0-152.0-0.0","A36HFMF9Z4BGS8","","","","{""Q0"":""Musical, this one caught my attention.""}","","","","","","","","","","","","","","","","","","","","","","",""
"4246","","image-slider-response","154","1568427","0.0-153.0","A36HFMF9Z4BGS8","","","","","34","","","","","","","","","","","","","","","","","","","","","",""
"null","","image-button-response","155","1573445","0.0-154.0","A36HFMF9Z4BGS8","img_art/10.jpg","null","","","","","","","","","","","","","","","","","","","","","","","","",""
"44195","","image-button-response","156","1617643","0.0-155.0","A36HFMF9Z4BGS8","img_art/10.jpg","3","","","","","","","","","","","","","","","","","","","","","","","","",""
"3701","","image-button-response","157","1621347","0.0-156.0-0.0","A36HFMF9Z4BGS8","img_art/10.jpg","4","","","","","","","","","","","","","","","","","","","","","","","","",""
"5772","","image-button-response","158","1627122","0.0-157.0-0.0","A36HFMF9Z4BGS8","img_art/10.jpg","5","","","","","","","","","","","","","","","","","","","","","","","","",""
"null","","html-keyboard-response","159","1628634","0.0-158.0","A36HFMF9Z4BGS8","<p style=""font-size: 48px;"">+</p>","","","","","null","allTrialResponses","1500","1","16","img_art/10.jpg","34","Musical, this one caught my attention.","Devin,Edward,Michael,Juan,Elijah,Bryan","Looks a bit as though someone ran over it?,-13,380,20","It looks like it's sinking but it could also be a view from above,40,60,20","Ugly and low skill. I wouldn't want it.,-50,140,20","It's interesting and my eyes keep being drawn to different parts of the picture.,11,260,20","Makes me feel amazed,23,80,20","First impression was musical instrument then, because of the gray colors, death.,5,400,20","Juan","It's interesting and my eyes keep being drawn to different parts of the picture.,11,260,20","Elijah","Makes me feel amazed,23,80,20","Bryan","First impression was musical instrument then, because of the gray colors, death.,5,400,20","2"
"37942","","survey-text","160","1666586","0.0-159.0-0.0","A36HFMF9Z4BGS8","","","","{""Q0"":""Has a day and night feeling about it.""}","","","","","","","","","","","","","","","","","","","","","","",""
"6494.29999999702","","image-slider-response","161","1673082","0.0-160.0","A36HFMF9Z4BGS8","","","","","11","","","","","","","","","","","","","","","","","","","","","",""
"null","","image-button-response","162","1678100","0.0-161.0","A36HFMF9Z4BGS8","img_art/12.jpg","null","","","","","","","","","","","","","","","","","","","","","","","","",""
"4828","","image-button-response","163","1682931","0.0-162.0","A36HFMF9Z4BGS8","img_art/12.jpg","5","","","","","","","","","","","","","","","","","","","","","","","","",""
"16677","","image-button-response","164","1699610","0.0-163.0-0.0","A36HFMF9Z4BGS8","img_art/12.jpg","1","","","","","","","","","","","","","","","","","","","","","","","","",""
"6319","","image-button-response","165","1705931","0.0-164.0-0.0","A36HFMF9Z4BGS8","img_art/12.jpg","2","","","","","","","","","","","","","","","","","","","","","","","","",""
"null","","html-keyboard-response","166","1706435","0.0-165.0","A36HFMF9Z4BGS8","<p style=""font-size: 48px;"">+</p>","","","","","null","allTrialResponses","500","1","17","img_art/12.jpg","11","Has a day and night feeling about it.","Jared,Brian,Mitchell,Juan,Elijah,Bryan","i dont see the point.,-19,400,20","this is pretty, but I wouldn't hang it on my wall.,15,380,20","confused. stages of a persons life from beginning positive to ending negative.,-10,180,20","This is too abstract and the colors are too worn out.,-23,260,20","It makes me feel confused,-15,80,20","Love the colors & the abstractness.,31,400,20","Bryan","Love the colors & the abstractness.,31,400,20","Brian","this is pretty, but I wouldn't hang it on my wall.,15,380,20","Mitchell","confused. stages of a persons life from beginning positive to ending negative.,-10,180,20","2"
"34305","","survey-text","167","1740746","0.0-166.0-0.0","A36HFMF9Z4BGS8","","","","{""Q0"":""Splatter with a little color.""}","","","","","","","","","","","","","","","","","","","","","","",""
"4038","","image-slider-response","168","1744786","0.0-167.0","A36HFMF9Z4BGS8","","","","","-33","","","","","","","","","","","","","","","","","","","","","",""
"null","","image-button-response","169","1749792","0.0-168.0","A36HFMF9Z4BGS8","img_art/13.jpg","null","","","","","","","","","","","","","","","","","","","","","","","","",""
"4167","","image-button-response","170","1753962","0.0-169.0","A36HFMF9Z4BGS8","img_art/13.jpg","1","","","","","","","","","","","","","","","","","","","","","","","","",""
"7277","","image-button-response","171","1761242","0.0-170.0-0.0","A36HFMF9Z4BGS8","img_art/13.jpg","4","","","","","","","","","","","","","","","","","","","","","","","","",""
"12245","","image-button-response","172","1773490","0.0-171.0-0.0","A36HFMF9Z4BGS8","img_art/13.jpg","0","","","","","","","","","","","","","","","","","","","","","","","","",""
"null","","html-keyboard-response","173","1774506","0.0-172.0","A36HFMF9Z4BGS8","<p style=""font-size: 48px;"">+</p>","","","","","null","allTrialResponses","1000","1","18","img_art/13.jpg","-33","Splatter with a little color.","Jeremy,Brian,Mitchell,Jack,Aaron,Bryan","Pleased. I like to combination of colors,17,60,20","I don't really care for splatter paintings; the spectral colors underneath are nice.,-18,380,20","Magnified rain around trees. Beautiful happy colors. The little person on the right feels nature is huge.,45,180,20","exciting & chaotic. love the colors.,50,320,20","It reminds me of a window on a rainy day.,40,20,20","Love the colors, love the abstractness, love this Jackson Pollock type painting.,48,400,20","Brian","I don't really care for splatter paintings; the spectral colors underneath are nice.,-18,380,20","Aaron","It reminds me of a window on a rainy day.,40,20,20","Jeremy","Pleased. I like to combination of colors,17,60,20","2"
"38291","","survey-text","174","1812802","0.0-173.0-0.0","A36HFMF9Z4BGS8","","","","{""Q0"":""I don't like anything about it. Even the colors seem wrong.""}","","","","","","","","","","","","","","","","","","","","","","",""
"4933.800000011921","","image-slider-response","175","1817738","0.0-174.0","A36HFMF9Z4BGS8","","","","","-50","","","","","","","","","","","","","","","","","","","","","",""
"null","","image-button-response","176","1822743","0.0-175.0","A36HFMF9Z4BGS8","img_art/1.jpg","null","","","","","","","","","","","","","","","","","","","","","","","","",""
"3304","","image-button-response","177","1826051","0.0-176.0","A36HFMF9Z4BGS8","img_art/1.jpg","0","","","","","","","","","","","","","","","","","","","","","","","","",""
"3406","","image-button-response","178","1829458","0.0-177.0-0.0","A36HFMF9Z4BGS8","img_art/1.jpg","1","","","","","","","","","","","","","","","","","","","","","","","","",""
"14782","","image-button-response","179","1844242","0.0-178.0-0.0","A36HFMF9Z4BGS8","img_art/1.jpg","2","","","","","","","","","","","","","","","","","","","","","","","","",""
"null","","html-keyboard-response","180","1845754","0.0-179.0","A36HFMF9Z4BGS8","<p style=""font-size: 48px;"">+</p>","","","","","null","allTrialResponses","1500","1","19","img_art/1.jpg","-50","I don't like anything about it. Even the colors seem wrong.","Jeremy,Brian,Taylor,Brendan,Aaron,Blake","fearful. Makes me think of fire,-10,60,20","I don't feel like much is happening in this painting,-25,380,20","Deja vu. Haven't I seen this one before? Not bad for those living in the backwoods.,10,200,20","a colorful piece of art,25,340,20","The colors are nice but that's all it is,21,20,20","colors that are fairly warm. its ok,8,280,20","Jeremy","fearful. Makes me think of fire,-10,60,20","Brian","I don't feel like much is happening in this painting,-25,380,20","Taylor","Deja vu. Haven't I seen this one before? Not bad for those living in the backwoods.,10,200,20","2"
"39538","","survey-text","181","1885298","0.0-180.0-0.0","A36HFMF9Z4BGS8","","","","{""Q0"":""This one feels alive.""}","","","","","","","","","","","","","","","","","","","","","","",""
"4358.0999999940395","","image-slider-response","182","1889658","0.0-181.0","A36HFMF9Z4BGS8","","","","","25","","","","","","","","","","","","","","","","","","","","","",""
"null","","image-button-response","183","1894669","0.0-182.0","A36HFMF9Z4BGS8","img_art/30.jpg","null","","","","","","","","","","","","","","","","","","","","","","","","",""
"3371","","image-button-response","184","1898043","0.0-183.0","A36HFMF9Z4BGS8","img_art/30.jpg","0","","","","","","","","","","","","","","","","","","","","","","","","",""
"17230","","image-button-response","185","1915275","0.0-184.0-0.0","A36HFMF9Z4BGS8","img_art/30.jpg","5","","","","","","","","","","","","","","","","","","","","","","","","",""
"3110","","image-button-response","186","1918387","0.0-185.0-0.0","A36HFMF9Z4BGS8","img_art/30.jpg","3","","","","","","","","","","","","","","","","","","","","","","","","",""
"null","","html-keyboard-response","187","1919398","0.0-186.0","A36HFMF9Z4BGS8","<p style=""font-size: 48px;"">+</p>","","","","","null","allTrialResponses","1000","1","20","img_art/30.jpg","25","This one feels alive.","Jeremy,Brian,Taylor,Joshua,Mark,Steven","Happy. Makes me think of childhood finger painting,49,60,20","this is probably part of a neat series, but the abstraction doesn't speak to me,-17,380,20","My kid drew this same picture at daycare!!!,5,200,20","It's just all right.,5,240,20","It feels like graffiti and the dark colors do nothing for the mood.,-5,80,20","cant see the meaning behind it,-20,160,20","Jeremy","Happy. Makes me think of childhood finger painting,49,60,20","Steven","cant see the meaning behind it,-20,160,20","Joshua","It's just all right.,5,240,20","2"
"3960","","survey-text","188","1923378","0.0-187.0-0.0","A36HFMF9Z4BGS8","","","","{""Q0"":""we""}","","","","","","","","","","","","","","","","","","","","","","",""
"40295","","survey-text","189","1963674","0.0-188.0-0.0","A36HFMF9Z4BGS8","","","","{""Q0"":""Nice floral landscape. Color is balanced well.""}","","","","","","","","","","","","","","","","","","","","","","",""
"4813.699999988079","","image-slider-response","190","1968490","0.0-189.0","A36HFMF9Z4BGS8","","","","","33","","","","","","","","","","","","","","","","","","","","","",""
"null","","image-button-response","191","1973496","0.0-190.0","A36HFMF9Z4BGS8","img_art/24.jpg","null","","","","","","","","","","","","","","","","","","","","","","","","",""
"2679","","image-button-response","192","1976178","0.0-191.0","A36HFMF9Z4BGS8","img_art/24.jpg","1","","","","","","","","","","","","","","","","","","","","","","","","",""
"9374","","image-button-response","193","1985554","0.0-192.0-0.0","A36HFMF9Z4BGS8","img_art/24.jpg","5","","","","","","","","","","","","","","","","","","","","","","","","",""
"3606","","image-button-response","194","1989164","0.0-193.0-0.0","A36HFMF9Z4BGS8","img_art/24.jpg","2","","","","","","","","","","","","","","","","","","","","","","","","",""
"null","","html-keyboard-response","195","1990695","0.0-194.0","A36HFMF9Z4BGS8","<p style=""font-size: 48px;"">+</p>","","","","","null","allTrialResponses","1500","1","21","img_art/24.jpg","33","Nice floral landscape. Color is balanced well.","Jeremy,Samuel,Austin,Joshua,Joseph,Steven","somewhat happy. I like the colors,38,60,20","tranquility in the stream,34,400,20","Evokes pleasant feelings,50,240,20","It's okay but don't love it.,7,240,20","It looks like a poor dead bunny in a field of flowers. I don't want the bunny to be dead.,-37,220,20","It's beautiful! I love it! I see a waterfall, and they are my favorite things in the world,50,160,20","Samuel","tranquility in the stream,34,400,20","Steven","It's beautiful! I love it! I see a waterfall, and they are my favorite things in the world,50,160,20","Austin","Evokes pleasant feelings,50,240,20","2"
"40896","","survey-text","196","2031602","0.0-195.0-0.0","A36HFMF9Z4BGS8","","","","{""Q0"":""This has kind of a dark side to it. Not sure I get it.""}","","","","","","","","","","","","","","","","","","","","","","",""
"12205.40000000596","","image-slider-response","197","2043810","0.0-196.0","A36HFMF9Z4BGS8","","","","","-40","","","","","","","","","","","","","","","","","","","","","",""
"null","","image-button-response","198","2048823","0.0-197.0","A36HFMF9Z4BGS8","img_art/16.jpg","null","","","","","","","","","","","","","","","","","","","","","","","","",""
"2065","","image-button-response","199","2050890","0.0-198.0","A36HFMF9Z4BGS8","img_art/16.jpg","1","","","","","","","","","","","","","","","","","","","","","","","","",""
"2270","","image-button-response","200","2053162","0.0-199.0-0.0","A36HFMF9Z4BGS8","img_art/16.jpg","0","","","","","","","","","","","","","","","","","","","","","","","","",""
"12134","","image-button-response","201","2065298","0.0-200.0-0.0","A36HFMF9Z4BGS8","img_art/16.jpg","3","","","","","","","","","","","","","","","","","","","","","","","","",""
"null","","html-keyboard-response","202","2066802","0.0-201.0","A36HFMF9Z4BGS8","<p style=""font-size: 48px;"">+</p>","","","","","null","allTrialResponses","1500","1","22","img_art/16.jpg","-40","This has kind of a dark side to it. Not sure I get it.","Alejandro,Samuel,Austin,Mason,Brett,Steven","Garble and nonsense,-50,80,20","childhood horror,3,400,20","Picture seems unique,12,240,20","Don't get it. Hate it. ugly.,-44,100,20","Mixed feelings. Warm and comfy yet somewhat violent. A stark contrast,0,360,20","Not interested at all,-15,160,20","Samuel","childhood horror,3,400,20","Alejandro","Garble and nonsense,-50,80,20","Mason","Don't get it. Hate it. ugly.,-44,100,20","2"
"37265","","survey-text","203","2104074","0.0-202.0-0.0","A36HFMF9Z4BGS8","","","","{""Q0"":""Volcano maybe? Basic.""}","","","","","","","","","","","","","","","","","","","","","","",""
"7766.20000000298","","image-slider-response","204","2111842","0.0-203.0","A36HFMF9Z4BGS8","","","","","-40","","","","","","","","","","","","","","","","","","","","","",""
"null","","image-button-response","205","2116850","0.0-204.0","A36HFMF9Z4BGS8","img_art/5.jpg","null","","","","","","","","","","","","","","","","","","","","","","","","",""
"13621","","image-button-response","206","2130475","0.0-205.0","A36HFMF9Z4BGS8","img_art/5.jpg","4","","","","","","","","","","","","","","","","","","","","","","","","",""
"7894","","image-button-response","207","2138371","0.0-206.0-0.0","A36HFMF9Z4BGS8","img_art/5.jpg","5","","","","","","","","","","","","","","","","","","","","","","","","",""
"1934","","image-button-response","208","2140307","0.0-207.0-0.0","A36HFMF9Z4BGS8","img_art/5.jpg","3","","","","","","","","","","","","","","","","","","","","","","","","",""
"null","","html-keyboard-response","209","2141811","0.0-208.0","A36HFMF9Z4BGS8","<p style=""font-size: 48px;"">+</p>","","","","","null","allTrialResponses","1500","1","23","img_art/5.jpg","-40","Volcano maybe? Basic.","Alejandro,Samuel,Grant,Mason,Adrian,Antonio","Confused as to what the artist is attempting to do.,-50,80,20","a brush in time,-14,400,20","This elicits no reaction in me.,0,200,20","pointless, ugly, not creative.,-50,100,20","Black bit reminds me of a giant splinter. Yellow bit reminds me of urine. I hate it.,-50,60,20","Too much angular things happening, makes me think of stabbing something which makes me uncomfortable,-50,220,20","Adrian","Black bit reminds me of a giant splinter. Yellow bit reminds me of urine. I hate it.,-50,60,20","Antonio","Too much angular things happening, makes me think of stabbing something which makes me uncomfortable,-50,220,20","Mason","pointless, ugly, not creative.,-50,100,20","2"
"51808","","survey-text","210","2193626","0.0-209.0-0.0","A36HFMF9Z4BGS8","","","","{""Q0"":""The longer I look the more I see. I really like this one.""}","","","","","","","","","","","","","","","","","","","","","","",""
"3342.1000000089407","","image-slider-response","211","2196970","0.0-210.0","A36HFMF9Z4BGS8","","","","","50","","","","","","","","","","","","","","","","","","","","","",""
"null","","image-button-response","212","2201981","0.0-211.0","A36HFMF9Z4BGS8","img_art/18.jpg","null","","","","","","","","","","","","","","","","","","","","","","","","",""
"4954","","image-button-response","213","2206938","0.0-212.0","A36HFMF9Z4BGS8","img_art/18.jpg","2","","","","","","","","","","","","","","","","","","","","","","","","",""
"11525","","image-button-response","214","2218466","0.0-213.0-0.0","A36HFMF9Z4BGS8","img_art/18.jpg","4","","","","","","","","","","","","","","","","","","","","","","","","",""
"18597","","image-button-response","215","2237066","0.0-214.0-0.0","A36HFMF9Z4BGS8","img_art/18.jpg","5","","","","","","","","","","","","","","","","","","","","","","","","",""
"null","","html-keyboard-response","216","2238079","0.0-215.0","A36HFMF9Z4BGS8","<p style=""font-size: 48px;"">+</p>","","","","","null","allTrialResponses","1000","1","24","img_art/18.jpg","50","The longer I look the more I see. I really like this one.","Brandon,Cameron,Hunter,Mason,Adrian,Antonio","Crusade-feel, but a little too abstract for my taste,23,320,20","Don't like the color scheme. Or the theme.,-5,60,20","creamy color, feels like organized chaos,23,240,20","Skeletons, death, bleak colors, still kinda like it.,16,100,20","Interesting piece - gives you more the more you look at it. I like it but wouldn't buy it.,11,60,20","I think of the ocean and a boat tossed about on the waves. In the upper left is a figure. It is pleasant,30,220,20","Hunter","creamy color, feels like organized chaos,23,240,20","Adrian","Interesting piece - gives you more the more you look at it. I like it but wouldn't buy it.,11,60,20","Antonio","I think of the ocean and a boat tossed about on the waves. In the upper left is a figure. It is pleasant,30,220,20","2"
"19486","","survey-text","217","2257578","0.0-216.0-0.0","A36HFMF9Z4BGS8","","","","{""Q0"":""Disorganized color.""}","","","","","","","","","","","","","","","","","","","","","","",""
"6166.20000000298","","image-slider-response","218","2263746","0.0-217.0","A36HFMF9Z4BGS8","","","","","-42","","","","","","","","","","","","","","","","","","","","","",""
"null","","image-button-response","219","2268765","0.0-218.0","A36HFMF9Z4BGS8","img_art/2.jpg","null","","","","","","","","","","","","","","","","","","","","","","","","",""
"1979","","image-button-response","220","2270746","0.0-219.0","A36HFMF9Z4BGS8","img_art/2.jpg","3","","","","","","","","","","","","","","","","","","","","","","","","",""
"4191","","image-button-response","221","2274939","0.0-220.0-0.0","A36HFMF9Z4BGS8","img_art/2.jpg","4","","","","","","","","","","","","","","","","","","","","","","","","",""
"10613","","image-button-response","222","2285554","0.0-221.0-0.0","A36HFMF9Z4BGS8","img_art/2.jpg","0","","","","","","","","","","","","","","","","","","","","","","","","",""
"null","","html-keyboard-response","223","2286570","0.0-222.0","A36HFMF9Z4BGS8","<p style=""font-size: 48px;"">+</p>","","","","","null","allTrialResponses","1000","1","25","img_art/2.jpg","-42","Disorganized color.","Devon,Connor,Hunter,Caleb,Adrian,Antonio","another confusing piece of art,-12,400,20","There is an odd face here that is creepy,-4,240,20","appealing colors,4,240,20","Very gross colors. What were they thinking?,-47,40,20","Not a fan of the colors or the style.,-31,60,20","Colors are drab and cause a sense of blandness,-28,220,20","Caleb","Very gross colors. What were they thinking?,-47,40,20","Adrian","Not a fan of the colors or the style.,-31,60,20","Devon","another confusing piece of art,-12,400,20","2"
"4617","","survey-text","224","2291210","0.0-223.0-0.0","A36HFMF9Z4BGS8","","","","{""Q0"":""table""}","","","","","","","","","","","","","","","","","","","","","","",""
"38334","","survey-text","225","2329546","0.0-224.0-0.0","A36HFMF9Z4BGS8","","","","{""Q0"":""I like the color but not sure of the subject.""}","","","","","","","","","","","","","","","","","","","","","","",""
"4358.199999988079","","image-slider-response","226","2333906","0.0-225.0","A36HFMF9Z4BGS8","","","","","-25","","","","","","","","","","","","","","","","","","","","","",""
"null","","image-button-response","227","2338917","0.0-226.0","A36HFMF9Z4BGS8","img_art/4.jpg","null","","","","","","","","","","","","","","","","","","","","","","","","",""
"1705","","image-button-response","228","2340626","0.0-227.0","A36HFMF9Z4BGS8","img_art/4.jpg","2","","","","","","","","","","","","","","","","","","","","","","","","",""
"13782","","image-button-response","229","2354410","0.0-228.0-0.0","A36HFMF9Z4BGS8","img_art/4.jpg","5","","","","","","","","","","","","","","","","","","","","","","","","",""
"6661","","image-button-response","230","2361074","0.0-229.0-0.0","A36HFMF9Z4BGS8","img_art/4.jpg","0","","","","","","","","","","","","","","","","","","","","","","","","",""
"null","","html-keyboard-response","231","2362578","0.0-230.0","A36HFMF9Z4BGS8","<p style=""font-size: 48px;"">+</p>","","","","","null","allTrialResponses","1500","1","26","img_art/4.jpg","-25","I like the color but not sure of the subject.","Devon,Victor,Ryan,Caleb,Adrian,Jordan","heart symbol - this tells a story of hidden love,30,400,20","Hate the color, and just do not get the point.,-13,340,20","Looks like an abstract version of the Scream painting,-50,380,20","Colors are horrendous, look like bodily fluids have been smeared.,-50,40,20","Looks like feces smeared on the canvas. I hate it.,-50,60,20","A hand reaching for something it cannot obtain,-9,160,20","Ryan","Looks like an abstract version of the Scream painting,-50,380,20","Jordan","A hand reaching for something it cannot obtain,-9,160,20","Devon","heart symbol - this tells a story of hidden love,30,400,20","2"
"32430","","survey-text","232","2395018","0.0-231.0-0.0","A36HFMF9Z4BGS8","","","","{""Q0"":""Very delicate depiction of trees.""}","","","","","","","","","","","","","","","","","","","","","","",""
"3654.2999999970198","","image-slider-response","233","2398674","0.0-232.0","A36HFMF9Z4BGS8","","","","","38","","","","","","","","","","","","","","","","","","","","","",""
"null","","image-button-response","234","2403682","0.0-233.0","A36HFMF9Z4BGS8","img_art/17.jpg","null","","","","","","","","","","","","","","","","","","","","","","","","",""
"1173","","image-button-response","235","2404858","0.0-234.0","A36HFMF9Z4BGS8","img_art/17.jpg","3","","","","","","","","","","","","","","","","","","","","","","","","",""
"14311","","image-button-response","236","2419170","0.0-235.0-0.0","A36HFMF9Z4BGS8","img_art/17.jpg","1","","","","","","","","","","","","","","","","","","","","","","","","",""
"9437","","image-button-response","237","2428610","0.0-236.0-0.0","A36HFMF9Z4BGS8","img_art/17.jpg","5","","","","","","","","","","","","","","","","","","","","","","","","",""
"null","","html-keyboard-response","238","2429114","0.0-237.0","A36HFMF9Z4BGS8","<p style=""font-size: 48px;"">+</p>","","","","","null","allTrialResponses","500","1","27","img_art/17.jpg","38","Very delicate depiction of trees.","Devon,Dakota,Ryan,Christopher,Shawn,Jordan","i feel some sadness in this picture,25,400,20","home - reminds me of fond memories of the Barnes Museum courtyard (looks just like it),30,280,20","Feels supernatural and scary,-16,380,20","i like the delicate wispy part, but overall i don't love it,10,160,20","Pretty but a little cheesy,-10,100,20","Really love the branches. The bottom made it not perfect,42,160,20","Christopher","i like the delicate wispy part, but overall i don't love it,10,160,20","Dakota","home - reminds me of fond memories of the Barnes Museum courtyard (looks just like it),30,280,20","Jordan","Really love the branches. The bottom made it not perfect,42,160,20","2"
"26818","","survey-text","239","2455946","0.0-238.0-0.0","A36HFMF9Z4BGS8","","","","{""Q0"":""Has a cosmic feel. ""}","","","","","","","","","","","","","","","","","","","","","","",""
"4381.9000000059605","","image-slider-response","240","2460330","0.0-239.0","A36HFMF9Z4BGS8","","","","","7","","","","","","","","","","","","","","","","","","","","","",""
"null","","image-button-response","241","2465348","0.0-240.0","A36HFMF9Z4BGS8","img_art/23.jpg","null","","","","","","","","","","","","","","","","","","","","","","","","",""
"6547","","image-button-response","242","2471898","0.0-241.0","A36HFMF9Z4BGS8","img_art/23.jpg","0","","","","","","","","","","","","","","","","","","","","","","","","",""
"11222","","image-button-response","243","2483122","0.0-242.0-0.0","A36HFMF9Z4BGS8","img_art/23.jpg","5","","","","","","","","","","","","","","","","","","","","","","","","",""
"8094","","image-button-response","244","2491218","0.0-243.0-0.0","A36HFMF9Z4BGS8","img_art/23.jpg","2","","","","","","","","","","","","","","","","","","","","","","","","",""
"null","","html-keyboard-response","245","2491720","0.0-244.0","A36HFMF9Z4BGS8","<p style=""font-size: 48px;"">+</p>","","","","","null","allTrialResponses","500","1","28","img_art/23.jpg","7","Has a cosmic feel. ","Ian,Dakota,Nathan,Christopher,Eric,Jordan","It's very colorful and different, the white looks like people dancing,26,260,20","teeth! dancing people, celebrations,-39,280,20","While I don't normally enjoy these color schemes all together, I kind of like this one,10,200,20","it's not uninteresting, but i'm not responding to it,-7,160,20","The piece seems chaotic, and I dislike the random pop of white within so many colors.,-10,100,20","I like the contrast,29,160,20","Ian","It's very colorful and different, the white looks like people dancing,26,260,20","Jordan","I like the contrast,29,160,20","Nathan","While I don't normally enjoy these color schemes all together, I kind of like this one,10,200,20","2"
"46354","","survey-text","246","2538090","0.0-245.0-0.0","A36HFMF9Z4BGS8","","","","{""Q0"":""Looks like a satellite photo. Doesn't do anything for me.""}","","","","","","","","","","","","","","","","","","","","","","",""
"5686","","image-slider-response","247","2543778","0.0-246.0","A36HFMF9Z4BGS8","","","","","-28","","","","","","","","","","","","","","","","","","","","","",""
"null","","image-button-response","248","2548782","0.0-247.0","A36HFMF9Z4BGS8","img_art/7.jpg","null","","","","","","","","","","","","","","","","","","","","","","","","",""
"1096","","image-button-response","249","2549882","0.0-248.0","A36HFMF9Z4BGS8","img_art/7.jpg","0","","","","","","","","","","","","","","","","","","","","","","","","",""
"15430","","image-button-response","250","2565314","0.0-249.0-0.0","A36HFMF9Z4BGS8","img_art/7.jpg","4","","","","","","","","","","","","","","","","","","","","","","","","",""
"9053","","image-button-response","251","2574369","0.0-250.0-0.0","A36HFMF9Z4BGS8","img_art/7.jpg","5","","","","","","","","","","","","","","","","","","","","","","","","",""
"null","","html-keyboard-response","252","2575373","0.0-251.0","A36HFMF9Z4BGS8","<p style=""font-size: 48px;"">+</p>","","","","","null","allTrialResponses","1000","1","29","img_art/7.jpg","-28","Looks like a satellite photo. Doesn't do anything for me.","Ian,Christian,Nathan,Bryce,Evan,Jordan","This looks like a literal picture of the ground so I'm really not too sure about this one.,-42,260,20","would love to take a closer look at the texture,15,140,20","I don't like this kind of color scheme or look they went for,-50,200,20","I love the texture.,20,20,20","I feel confused, am I looking at a painting or a close up picture of some sort of fly stone?,-19,140,20","Looks like a skin disease,-31,160,20","Ian","This looks like a literal picture of the ground so I'm really not too sure about this one.,-42,260,20","Evan","I feel confused, am I looking at a painting or a close up picture of some sort of fly stone?,-19,140,20","Jordan","Looks like a skin disease,-31,160,20","2"
"24391","","survey-text","253","2599777","0.0-252.0-0.0","A36HFMF9Z4BGS8","","","","{""Q0"":""A painting of painting. I like it.""}","","","","","","","","","","","","","","","","","","","","","","",""
"4309.70000000298","","image-slider-response","254","2604089","0.0-253.0","A36HFMF9Z4BGS8","","","","","16","","","","","","","","","","","","","","","","","","","","","",""
"null","","image-button-response","255","2609092","0.0-254.0","A36HFMF9Z4BGS8","img_art/29.jpg","null","","","","","","","","","","","","","","","","","","","","","","","","",""
"17306","","image-button-response","256","2626402","0.0-255.0","A36HFMF9Z4BGS8","img_art/29.jpg","4","","","","","","","","","","","","","","","","","","","","","","","","",""
"3766","","image-button-response","257","2630170","0.0-256.0-0.0","A36HFMF9Z4BGS8","img_art/29.jpg","0","","","","","","","","","","","","","","","","","","","","","","","","",""
"9326","","image-button-response","258","2639498","0.0-257.0-0.0","A36HFMF9Z4BGS8","img_art/29.jpg","3","","","","","","","","","","","","","","","","","","","","","","","","",""
"null","","html-keyboard-response","259","2640508","0.0-258.0","A36HFMF9Z4BGS8","<p style=""font-size: 48px;"">+</p>","","","","","null","allTrialResponses","1000","1","30","img_art/29.jpg","16","A painting of painting. I like it.","Ian,Chase,Angel,Garrett,Evan,Jordan","This feels chaotic and I like the energy that it gives off.,21,260,20","This is ugly as fuck,-50,120,20","This piece feels gross. Makes me think of pollution/litter strewn across a dirty street.,-20,180,20","I think this image looks ugly and needs more colors so it looks nicer.,-30,180,20","It makes me feel as though the artist put in a lot of time and effort and then gave up,10,140,20","Messy and disorganized, to odark,-31,160,20","Evan","It makes me feel as though the artist put in a lot of time and effort and then gave up,10,140,20","Ian","This feels chaotic and I like the energy that it gives off.,21,260,20","Garrett","I think this image looks ugly and needs more colors so it looks nicer.,-30,180,20","2"
"7222","","image-button-response_instructions","260","2647737","0.0-259.0","A36HFMF9Z4BGS8","","0","instructions","","","","","","","","","","","","","","","","","","","","","","","",""
"1651","","image-button-response","261","2649394","0.0-260.0","A36HFMF9Z4BGS8","","0","","","","","","","","","","","","","","","","","","","","","","","","",""
