"rt","url","trial_type","trial_index","time_elapsed","internal_node_id","participant_id","stimulus","button_pressed","Name","responses","response","key_press","variableName","fixationTime","condition","trial","photo","subjectRating","subjectResponse","agentsNames","agent_1_Response","agent_2_Response","agent_3_Response","agent_4_Response","agent_5_Response","agent_6_Response","kept_1_name","kept_1_response","kept_2_name","kept_2_response","kept_3_name","kept_3_response","errorCounter"
"17455","external_page_harvard.html","external-html","0","17660","0.0-0.0","A36N9D8OG0VZG9","","","","","","","","","","","","","","","","","","","","","","","","","","",""
"5906","","image-button-response","1","23568","0.0-1.0","A36N9D8OG0VZG9","","1","","","","","","","","","","","","","","","","","","","","","","","","",""
"2247","","image-button-response","2","25819","0.0-2.0-0.0","A36N9D8OG0VZG9","","1","phone","","","","","","","","","","","","","","","","","","","","","","","",""
"8467","","survey-text","3","34289","0.0-3.0-0.0","A36N9D8OG0VZG9","","","","{""Q0"":""A36N9D8OG0VZG9""}","","","","","","","","","","","","","","","","","","","","","","",""
"23093","","image-button-response_instructions","4","57385","0.0-4.0","A36N9D8OG0VZG9","","0","instructions","","","","","","","","","","","","","","","","","","","","","","","",""
"16287","","image-button-response_instructions","5","73672","0.0-5.0","A36N9D8OG0VZG9","img_art/ins/popularity/ins1.png","0","instructions","","","","","","","","","","","","","","","","","","","","","","","",""
"7553","","image-button-response_instructions","6","81227","0.0-6.0","A36N9D8OG0VZG9","img_art/ins/popularity/ins2.png","0","instructions","","","","","","","","","","","","","","","","","","","","","","","",""
"5045","","image-button-response_instructions","7","86274","0.0-7.0","A36N9D8OG0VZG9","img_art/ins/popularity/ins2Extreme.png","0","instructions","","","","","","","","","","","","","","","","","","","","","","","",""
"25076","","image-button-response_instructions","8","111351","0.0-8.0","A36N9D8OG0VZG9","img_art/ins/popularity/ins3KEEPpop.PNG","0","instructions","","","","","","","","","","","","","","","","","","","","","","","",""
"7178","","image-button-response_instructions","9","118530","0.0-9.0","A36N9D8OG0VZG9","img_art/ins/popularity/ins3ANamepop.PNG","0","instructions","","","","","","","","","","","","","","","","","","","","","","","",""
"4519","","image-button-response_instructions","10","123050","0.0-10.0","A36N9D8OG0VZG9","img_art/ins/popularity/ins3ARatingpop.png","0","instructions","","","","","","","","","","","","","","","","","","","","","","","",""
"4228","","image-button-response_instructions","11","127280","0.0-11.0","A36N9D8OG0VZG9","img_art/ins/popularity/ins3ATextpop.png","0","instructions","","","","","","","","","","","","","","","","","","","","","","","",""
"8424","","image-button-response_instructions","12","135705","0.0-12.0","A36N9D8OG0VZG9","img_art/ins/popularity/ins3ALikespop.png","0","instructions","","","","","","","","","","","","","","","","","","","","","","","",""
"14347","","image-button-response_instructions","13","150053","0.0-13.0","A36N9D8OG0VZG9","img_art/ins/popularity/ins3KEEPpop.PNG","0","instructions","","","","","","","","","","","","","","","","","","","","","","","",""
"60569","","image-button-response_instructions","14","210622","0.0-14.0","A36N9D8OG0VZG9","img_art/ins/popularity/ins3_5RED.png","0","instructions","","","","","","","","","","","","","","","","","","","","","","","",""
"4607","","image-button-response_instructions","15","215230","0.0-15.0","A36N9D8OG0VZG9","img_art/ins/popularity/ins3KEEPpop.PNG","0","instructions","","","","","","","","","","","","","","","","","","","","","","","",""
"8102","","image-button-response_instructions","16","223333","0.0-16.0","A36N9D8OG0VZG9","img_art/ins/popularity/ins4KEEPpop.PNG","0","instructions","","","","","","","","","","","","","","","","","","","","","","","",""
"11955","","image-button-response_instructions","17","235290","0.0-17.0","A36N9D8OG0VZG9","img_art/ins/popularity/ins5KEEPpop.PNG","0","instructions","","","","","","","","","","","","","","","","","","","","","","","",""
"2927","","image-button-response_instructions","18","238218","0.0-18.0","A36N9D8OG0VZG9","","0","instructions","","","","","","","","","","","","","","","","","","","","","","","",""
"9971","","survey-text","19","248215","0.0-19.0-0.0","A36N9D8OG0VZG9","","","","{""Q0"":""but""}","","","","","","","","","","","","","","","","","","","","","","",""
"21717","","survey-text","20","269934","0.0-20.0-0.0","A36N9D8OG0VZG9","","","","{""Q0"":""It's very abstract and I don't see anything that stands out as special""}","","","","","","","","","","","","","","","","","","","","","","",""
"4531","","image-slider-response","21","274467","0.0-21.0","A36N9D8OG0VZG9","","","","","-18","","","","","","","","","","","","","","","","","","","","","",""
"null","","image-button-response","22","279471","0.0-22.0","A36N9D8OG0VZG9","img_art/ins/1.jpg","null","","","","","","","","","","","","","","","","","","","","","","","","",""
"5107","","image-button-response","23","284581","0.0-23.0","A36N9D8OG0VZG9","img_art/ins/1.jpg","1","","","","","","","","","","","","","","","","","","","","","","","","",""
"4319","","image-button-response","24","288902","0.0-24.0-0.0","A36N9D8OG0VZG9","img_art/ins/1.jpg","2","","","","","","","","","","","","","","","","","","","","","","","","",""
"6383","","image-button-response","25","295288","0.0-25.0-0.0","A36N9D8OG0VZG9","img_art/ins/1.jpg","3","","","","","","","","","","","","","","","","","","","","","","","","",""
"null","","html-keyboard-response","26","296795","0.0-26.0","A36N9D8OG0VZG9","<p style=""font-size: 48px;"">+</p>","","","","","null","allTrialResponses","1500","1","-2","img_art/ins/1.jpg","-18","It's very abstract and I don't see anything that stands out as special","Allison,Ashley,Beth,Dora,Erika,Jen","looks like a lot of things going on in the mist,20,20,20","I just don't get why these type of art would be popular,-32,40,20","This color reminds me of poo,-46,60,20","looks like what my niece in 3rd grade did this afternoon,-50,80,20","I like the sophisticated brushwork,40,100,20","It reminds me of a candy land dream I had,36,120,20","Ashley","I just don't get why these type of art would be popular,-32,40,20","Beth","This color reminds me of poo,-46,60,20","Dora","looks like what my niece in 3rd grade did this afternoon,-50,80,20","0"
"24435","","survey-text","27","321236","0.0-27.0-0.0","A36N9D8OG0VZG9","","","","{""Q0"":""Nice colors and textures""}","","","","","","","","","","","","","","","","","","","","","","",""
"4531.0999999940395","","image-slider-response","28","325770","0.0-28.0","A36N9D8OG0VZG9","","","","","22","","","","","","","","","","","","","","","","","","","","","",""
"null","","image-button-response","29","330772","0.0-29.0","A36N9D8OG0VZG9","img_art/ins/2.jpg","null","","","","","","","","","","","","","","","","","","","","","","","","",""
"9864","","image-button-response","30","340638","0.0-30.0","A36N9D8OG0VZG9","img_art/ins/2.jpg","4","","","","","","","","","","","","","","","","","","","","","","","","",""
"13166","","image-button-response","31","353806","0.0-31.0-0.0","A36N9D8OG0VZG9","img_art/ins/2.jpg","1","","","","","","","","","","","","","","","","","","","","","","","","",""
"5184","","image-button-response","32","358992","0.0-32.0-0.0","A36N9D8OG0VZG9","img_art/ins/2.jpg","4","","","","","","","","","","","","","","","","","","","","","","","","",""
"4489","","image-button-response","33","370598","0.0-32.1-0.1","A36N9D8OG0VZG9","img_art/ins/2.jpg","5","","","","","","","","","","","","","","","","","","","","","","","","",""
"null","","html-keyboard-response","34","371613","0.0-33.0","A36N9D8OG0VZG9","<p style=""font-size: 48px;"">+</p>","","","","","null","allTrialResponses","1000","1","-1","img_art/ins/2.jpg","22","Nice colors and textures","Jenna,Ashley,Beth,Dora,Kara,Katie","One of my pet peevs,-48,140,20","Idk, it is just annoying,-32,40,20","meaningless painting,-45,60,20","looks too angry,-50,80,20","I like the blocks of color arrangements,30,160,20","too much color!,-28,180,20","Kara","I like the blocks of color arrangements,30,160,20","Ashley","Idk, it is just annoying,-32,40,20","Katie","too much color!,-28,180,20","2"
"17402","","survey-text","35","389020","0.0-34.0-0.0","A36N9D8OG0VZG9","","","","{""Q0"":""Abstract with nice blue colors""}","","","","","","","","","","","","","","","","","","","","","","",""
"4803.299999982119","","image-slider-response","36","393825","0.0-35.0","A36N9D8OG0VZG9","","","","","13","","","","","","","","","","","","","","","","","","","","","",""
"null","","image-button-response","37","398828","0.0-36.0","A36N9D8OG0VZG9","img_art/ins/3.jpg","null","","","","","","","","","","","","","","","","","","","","","","","","",""
"3645","","image-button-response","38","402474","0.0-37.0","A36N9D8OG0VZG9","img_art/ins/3.jpg","0","","","","","","","","","","","","","","","","","","","","","","","","",""
"2575","","image-button-response","39","405052","0.0-38.0-0.0","A36N9D8OG0VZG9","img_art/ins/3.jpg","4","","","","","","","","","","","","","","","","","","","","","","","","",""
"4359","","image-button-response","40","409414","0.0-39.0-0.0","A36N9D8OG0VZG9","img_art/ins/3.jpg","0","","","","","","","","","","","","","","","","","","","","","","","","",""
"5831","","image-button-response","41","418290","0.0-39.1-0.1","A36N9D8OG0VZG9","img_art/ins/3.jpg","3","","","","","","","","","","","","","","","","","","","","","","","","",""
"null","","html-keyboard-response","42","419797","0.0-40.0","A36N9D8OG0VZG9","<p style=""font-size: 48px;"">+</p>","","","","","null","allTrialResponses","1500","1","0","img_art/ins/3.jpg","13","Abstract with nice blue colors","Mary,Ashley,Rose,Leslie,Kara,Katie","I like the overlapping of brushes,41,220,20","It looks like a playground for bats,-36,40,20","My daily routine, it's depressing,-20,240,20","It's an alright work,15,200,20","calming blue is very nice,36,160,20","It looks depressing,-26,180,20","Mary","I like the overlapping of brushes,41,220,20","Kara","calming blue is very nice,36,160,20","Leslie","It's an alright work,15,200,20","4"
"12047","","image-button-response_instructions","43","431850","0.0-41.0","A36N9D8OG0VZG9","","0","instructions","","","","","","","","","","","","","","","","","","","","","","","",""
"14155","","survey-likert","44","446007","0.0-42.0-0.0","A36N9D8OG0VZG9","","","","{""Q0"":"""",""Q1"":0,""Q2"":1}","","","","","","","","","","","","","","","","","","","","","","",""
"6089","","survey-text","45","452104","0.0-43.0-0.0","A36N9D8OG0VZG9","","","","{""Q0"":""rock""}","","","","","","","","","","","","","","","","","","","","","","",""
"19561","","survey-text","46","471668","0.0-44.0-0.0","A36N9D8OG0VZG9","","","","{""Q0"":""Looks messy and doesn't make sense""}","","","","","","","","","","","","","","","","","","","","","","",""
"4747.5999999940395","","image-slider-response","47","476417","0.0-45.0","A36N9D8OG0VZG9","","","","","-18","","","","","","","","","","","","","","","","","","","","","",""
"null","","image-button-response","48","481445","0.0-46.0","A36N9D8OG0VZG9","img_art/27.jpg","null","","","","","","","","","","","","","","","","","","","","","","","","",""
"6536","","image-button-response","49","487983","0.0-47.0","A36N9D8OG0VZG9","img_art/27.jpg","3","","","","","","","","","","","","","","","","","","","","","","","","",""
"3726","","image-button-response","50","491712","0.0-48.0-0.0","A36N9D8OG0VZG9","img_art/27.jpg","4","","","","","","","","","","","","","","","","","","","","","","","","",""
"9216","","image-button-response","51","500929","0.0-49.0-0.0","A36N9D8OG0VZG9","img_art/27.jpg","0","","","","","","","","","","","","","","","","","","","","","","","","",""
"null","","html-keyboard-response","52","501442","0.0-50.0","A36N9D8OG0VZG9","<p style=""font-size: 48px;"">+</p>","","","","","null","allTrialResponses","500","1","1","img_art/27.jpg","-18","Looks messy and doesn't make sense","Hailey,Brianna,Alexa,Savannah,Anna,Shelby","fruity and sweet. warm and juicy,10,200,20","This painting is very unique,21,20,20","I love the mood of this painting,30,40,20","An abstract piece with such lifeless colors.,-26,200,20","It looks like when my little sister took magic markers to the wall.,-11,300,20","The colors in this one are wonderful,20,240,20","Savannah","An abstract piece with such lifeless colors.,-26,200,20","Anna","It looks like when my little sister took magic markers to the wall.,-11,300,20","Hailey","fruity and sweet. warm and juicy,10,200,20","4"
"23316","","survey-text","53","524761","0.0-51.0-0.0","A36N9D8OG0VZG9","","","","{""Q0"":""Colors work nicely together""}","","","","","","","","","","","","","","","","","","","","","","",""
"4715.4000000059605","","image-slider-response","54","529478","0.0-52.0","A36N9D8OG0VZG9","","","","","4","","","","","","","","","","","","","","","","","","","","","",""
"null","","image-button-response","55","534496","0.0-53.0","A36N9D8OG0VZG9","img_art/26.jpg","null","","","","","","","","","","","","","","","","","","","","","","","","",""
"14593","","image-button-response","56","549091","0.0-54.0","A36N9D8OG0VZG9","img_art/26.jpg","0","","","","","","","","","","","","","","","","","","","","","","","","",""
"4256","","image-button-response","57","553350","0.0-55.0-0.0","A36N9D8OG0VZG9","img_art/26.jpg","2","","","","","","","","","","","","","","","","","","","","","","","","",""
"3386","","image-button-response","58","556738","0.0-56.0-0.0","A36N9D8OG0VZG9","img_art/26.jpg","3","","","","","","","","","","","","","","","","","","","","","","","","",""
"null","","html-keyboard-response","59","557239","0.0-57.0","A36N9D8OG0VZG9","<p style=""font-size: 48px;"">+</p>","","","","","null","allTrialResponses","500","1","2","img_art/26.jpg","4","Colors work nicely together","Hailey,Miranda,Nicole,Savannah,Anna,Chloe","bedroom in the outdoors. warm,9,200,20","This seems pretty and sweet, it's something I would like to actually see.,31,320,20","It's relaxing to look at but I wish it was just a little more defined,20,20,20","Appears childish and unfinished.,-20,200,20","It looks like a watercolor I did when I was 6.,-30,300,20","Not great use of space and brush strokes seem indistinct/accidental,-30,220,20","Hailey","bedroom in the outdoors. warm,9,200,20","Nicole","It's relaxing to look at but I wish it was just a little more defined,20,20,20","Savannah","Appears childish and unfinished.,-20,200,20","4"
"13601","","survey-text","60","570845","0.0-58.0-0.0","A36N9D8OG0VZG9","","","","{""Q0"":""It's a mess of colors""}","","","","","","","","","","","","","","","","","","","","","","",""
"2970.2999999821186","","image-slider-response","61","573817","0.0-59.0","A36N9D8OG0VZG9","","","","","-18","","","","","","","","","","","","","","","","","","","","","",""
"null","","image-button-response","62","578819","0.0-60.0","A36N9D8OG0VZG9","img_art/1.jpg","null","","","","","","","","","","","","","","","","","","","","","","","","",""
"3722","","image-button-response","63","582544","0.0-61.0","A36N9D8OG0VZG9","img_art/1.jpg","4","","","","","","","","","","","","","","","","","","","","","","","","",""
"8374","","image-button-response","64","590920","0.0-62.0-0.0","A36N9D8OG0VZG9","img_art/1.jpg","3","","","","","","","","","","","","","","","","","","","","","","","","",""
"6009","","image-button-response","65","596932","0.0-63.0-0.0","A36N9D8OG0VZG9","img_art/1.jpg","0","","","","","","","","","","","","","","","","","","","","","","","","",""
"null","","html-keyboard-response","66","598445","0.0-64.0","A36N9D8OG0VZG9","<p style=""font-size: 48px;"">+</p>","","","","","null","allTrialResponses","1500","1","3","img_art/1.jpg","-18","It's a mess of colors","Hailey,Meghan,Nicole,Savannah,Sara,Jordan","colors that are fairly warm. its ok,8,200,20","good colors and contrast,31,220,20","I love the colors but it's too intense sometimes,22,20,20","Its simply okay.,3,200,20","I feel uneasy looking at this,-41,160,20","It's fine, but its like something you'd see in the restroom of a cheap restaurant,10,20,20","Sara","I feel uneasy looking at this,-41,160,20","Savannah","Its simply okay.,3,200,20","Hailey","colors that are fairly warm. its ok,8,200,20","4"
"44785","","survey-text","67","643237","0.0-65.0-0.0","A36N9D8OG0VZG9","","","","{""Q0"":""Nice abstract of water flowing on rocks, soothing""}","","","","","","","","","","","","","","","","","","","","","","",""
"5334.700000017881","","image-slider-response","68","648574","0.0-66.0","A36N9D8OG0VZG9","","","","","24","","","","","","","","","","","","","","","","","","","","","",""
"null","","image-button-response","69","653577","0.0-67.0","A36N9D8OG0VZG9","img_art/24.jpg","null","","","","","","","","","","","","","","","","","","","","","","","","",""
"6624","","image-button-response","70","660203","0.0-68.0","A36N9D8OG0VZG9","img_art/24.jpg","3","","","","","","","","","","","","","","","","","","","","","","","","",""
"3251","","image-button-response","71","663457","0.0-69.0-0.0","A36N9D8OG0VZG9","img_art/24.jpg","5","","","","","","","","","","","","","","","","","","","","","","","","",""
"3130","","image-button-response","72","666589","0.0-70.0-0.0","A36N9D8OG0VZG9","img_art/24.jpg","1","","","","","","","","","","","","","","","","","","","","","","","","",""
"null","","html-keyboard-response","73","668098","0.0-71.0","A36N9D8OG0VZG9","<p style=""font-size: 48px;"">+</p>","","","","","null","allTrialResponses","1500","1","4","img_art/24.jpg","24","Nice abstract of water flowing on rocks, soothing","Hailey,Leah,Jenna,Savannah,Sara,Claire","warm spring day after a rain. soft,20,200,20","Happy, the forest as I would love to see it,50,360,20","colors are a bit cramped together. really unique take on a waterfall though.,32,360,20","This is gorgeous. Strong, saturated colors and clear meaning.,50,200,20","Beautiful scenic drawing with perfect color coordination,43,160,20","reminds me of a beautiful waterfall,50,260,20","Savannah","This is gorgeous. Strong, saturated colors and clear meaning.,50,200,20","Claire","reminds me of a beautiful waterfall,50,260,20","Leah","Happy, the forest as I would love to see it,50,360,20","4"
"13544","","survey-text","74","681650","0.0-72.0-0.0","A36N9D8OG0VZG9","","","","{""Q0"":""Too busy, makes me dizzy""}","","","","","","","","","","","","","","","","","","","","","","",""
"3602.9000000059605","","image-slider-response","75","685255","0.0-73.0","A36N9D8OG0VZG9","","","","","-19","","","","","","","","","","","","","","","","","","","","","",""
"null","","image-button-response","76","690267","0.0-74.0","A36N9D8OG0VZG9","img_art/10.jpg","null","","","","","","","","","","","","","","","","","","","","","","","","",""
"8792","","image-button-response","77","699062","0.0-75.0","A36N9D8OG0VZG9","img_art/10.jpg","3","","","","","","","","","","","","","","","","","","","","","","","","",""
"3297","","image-button-response","78","702362","0.0-76.0-0.0","A36N9D8OG0VZG9","img_art/10.jpg","1","","","","","","","","","","","","","","","","","","","","","","","","",""
"1322","","image-button-response","79","703685","0.0-77.0-0.0","A36N9D8OG0VZG9","img_art/10.jpg","2","","","","","","","","","","","","","","","","","","","","","","","","",""
"null","","html-keyboard-response","80","705203","0.0-78.0","A36N9D8OG0VZG9","<p style=""font-size: 48px;"">+</p>","","","","","null","allTrialResponses","1500","1","5","img_art/10.jpg","-19","Too busy, makes me dizzy","Sarah,Leah,Angelica,Savannah,Erin,Claire","i like this, the mix of brush textures is cool,24,180,20","Dark with no object, looks like experimentation, slightly like a storm on the ocean,-21,360,20","This is odd and ugly.,-9,280,20","This is a scribble of a mad man. Appears low effort.,-33,200,20","Cello music instrument,11,120,20","it looks very musical,24,260,20","Savannah","This is a scribble of a mad man. Appears low effort.,-33,200,20","Leah","Dark with no object, looks like experimentation, slightly like a storm on the ocean,-21,360,20","Angelica","This is odd and ugly.,-9,280,20","4"
"8744","","survey-text","81","713958","0.0-79.0-0.0","A36N9D8OG0VZG9","","","","{""Q0"":""sky""}","","","","","","","","","","","","","","","","","","","","","","",""
"21627","","survey-text","82","735587","0.0-80.0-0.0","A36N9D8OG0VZG9","","","","{""Q0"":""Distracting with no obvvous subject""}","","","","","","","","","","","","","","","","","","","","","","",""
"10056.40000000596","","image-slider-response","83","745645","0.0-81.0","A36N9D8OG0VZG9","","","","","-25","","","","","","","","","","","","","","","","","","","","","",""
"null","","image-button-response","84","750648","0.0-82.0","A36N9D8OG0VZG9","img_art/29.jpg","null","","","","","","","","","","","","","","","","","","","","","","","","",""
"3676","","image-button-response","85","754326","0.0-83.0","A36N9D8OG0VZG9","img_art/29.jpg","3","","","","","","","","","","","","","","","","","","","","","","","","",""
"5768","","image-button-response","86","760095","0.0-84.0-0.0","A36N9D8OG0VZG9","img_art/29.jpg","1","","","","","","","","","","","","","","","","","","","","","","","","",""
"6787","","image-button-response","87","766884","0.0-85.0-0.0","A36N9D8OG0VZG9","img_art/29.jpg","5","","","","","","","","","","","","","","","","","","","","","","","","",""
"null","","html-keyboard-response","88","767402","0.0-86.0","A36N9D8OG0VZG9","<p style=""font-size: 48px;"">+</p>","","","","","null","allTrialResponses","500","1","6","img_art/29.jpg","-25","Distracting with no obvvous subject","Kaylee,Leah,Angelica,Savannah,Catherine,Monica","it looks like a prison,-33,200,20","Scrawled graffiti, with a red x as saying it was a mistake,-40,360,20","This is very gross and odd looking.,-8,280,20","Looks wrong. Like a real painting was vandalized.,-50,200,20","death, darkness, negative picture,-31,160,20","There's too much black and it looks sloppy,-35,360,20","Savannah","Looks wrong. Like a real painting was vandalized.,-50,200,20","Leah","Scrawled graffiti, with a red x as saying it was a mistake,-40,360,20","Monica","There's too much black and it looks sloppy,-35,360,20","4"
"18326","","survey-text","89","785734","0.0-87.0-0.0","A36N9D8OG0VZG9","","","","{""Q0"":""Pleasant with nice soothing colors""}","","","","","","","","","","","","","","","","","","","","","","",""
"4419.200000017881","","image-slider-response","90","790155","0.0-88.0","A36N9D8OG0VZG9","","","","","23","","","","","","","","","","","","","","","","","","","","","",""
"null","","image-button-response","91","795167","0.0-89.0","A36N9D8OG0VZG9","img_art/17.jpg","null","","","","","","","","","","","","","","","","","","","","","","","","",""
"4671","","image-button-response","92","799839","0.0-90.0","A36N9D8OG0VZG9","img_art/17.jpg","1","","","","","","","","","","","","","","","","","","","","","","","","",""
"1648","","image-button-response","93","801490","0.0-91.0-0.0","A36N9D8OG0VZG9","img_art/17.jpg","2","","","","","","","","","","","","","","","","","","","","","","","","",""
"2195","","image-button-response","94","803686","0.0-92.0-0.0","A36N9D8OG0VZG9","img_art/17.jpg","4","","","","","","","","","","","","","","","","","","","","","","","","",""
"null","","html-keyboard-response","95","804191","0.0-93.0","A36N9D8OG0VZG9","<p style=""font-size: 48px;"">+</p>","","","","","null","allTrialResponses","500","1","7","img_art/17.jpg","23","Pleasant with nice soothing colors","Mariah,Leah,Alyssa,Savannah,Heather,Monica","It feels like nature overtaking civilization.,21,140,20","Love the colors, the flow, like a strange storm or tree off the balcony,50,360,20","It gorgeous and i love how the tree is almost 3 dimensional.So many elements to it.,50,160,20","Not even abstract to me, very clear meaning.,44,200,20","Beautiful simply beautiful. i would love this,,50,260,20","The colors remind me of a sunset and give a bittersweet feeling. It looks unfinished but not terrible.,6,360,20","Leah","Love the colors, the flow, like a strange storm or tree off the balcony,50,360,20","Alyssa","It gorgeous and i love how the tree is almost 3 dimensional.So many elements to it.,50,160,20","Heather","Beautiful simply beautiful. i would love this,,50,260,20","4"
"13061","","survey-text","96","817257","0.0-94.0-0.0","A36N9D8OG0VZG9","","","","{""Q0"":""Irritating colors""}","","","","","","","","","","","","","","","","","","","","","","",""
"6672.5999999940395","","image-slider-response","97","823932","0.0-95.0","A36N9D8OG0VZG9","","","","","-28","","","","","","","","","","","","","","","","","","","","","",""
"null","","image-button-response","98","828935","0.0-96.0","A36N9D8OG0VZG9","img_art/22.jpg","null","","","","","","","","","","","","","","","","","","","","","","","","",""
"2542","","image-button-response","99","831480","0.0-97.0","A36N9D8OG0VZG9","img_art/22.jpg","1","","","","","","","","","","","","","","","","","","","","","","","","",""
"2202","","image-button-response","100","833684","0.0-98.0-0.0","A36N9D8OG0VZG9","img_art/22.jpg","0","","","","","","","","","","","","","","","","","","","","","","","","",""
"2609","","image-button-response","101","836296","0.0-99.0-0.0","A36N9D8OG0VZG9","img_art/22.jpg","3","","","","","","","","","","","","","","","","","","","","","","","","",""
"null","","html-keyboard-response","102","836805","0.0-100.0","A36N9D8OG0VZG9","<p style=""font-size: 48px;"">+</p>","","","","","null","allTrialResponses","500","1","8","img_art/22.jpg","-28","Irritating colors","Kelsey,Leah,Alyssa,Taylor,Heather,Jasmine","its messy, like a child painted it,-14,240,20","Pretty colors but too blocky for me,-19,360,20","Its okay,it doesnt make me feel any sort of strong emotion,1,160,20","Doesn't make me feel anything,-4,340,20","i think its pretty but im not sure what i see,1,260,20","I appreciate the artistic effort but it's not for me,0,340,20","Leah","Pretty colors but too blocky for me,-19,360,20","Kelsey","its messy, like a child painted it,-14,240,20","Taylor","Doesn't make me feel anything,-4,340,20","4"
"18731","","survey-text","103","855543","0.0-101.0-0.0","A36N9D8OG0VZG9","","","","{""Q0"":""Interesting combination of colors""}","","","","","","","","","","","","","","","","","","","","","","",""
"3540.4000000059605","","image-slider-response","104","859085","0.0-102.0","A36N9D8OG0VZG9","","","","","13","","","","","","","","","","","","","","","","","","","","","",""
"null","","image-button-response","105","864108","0.0-103.0","A36N9D8OG0VZG9","img_art/7.jpg","null","","","","","","","","","","","","","","","","","","","","","","","","",""
"4276","","image-button-response","106","868387","0.0-104.0","A36N9D8OG0VZG9","img_art/7.jpg","1","","","","","","","","","","","","","","","","","","","","","","","","",""
"4993","","image-button-response","107","873382","0.0-105.0-0.0","A36N9D8OG0VZG9","img_art/7.jpg","4","","","","","","","","","","","","","","","","","","","","","","","","",""
"2327","","image-button-response","108","875712","0.0-106.0-0.0","A36N9D8OG0VZG9","img_art/7.jpg","3","","","","","","","","","","","","","","","","","","","","","","","","",""
"null","","html-keyboard-response","109","876719","0.0-107.0","A36N9D8OG0VZG9","<p style=""font-size: 48px;"">+</p>","","","","","null","allTrialResponses","1000","1","9","img_art/7.jpg","13","Interesting combination of colors","Kelsey,Leah,Gabriela,Taylor,Crystal,Caitlin","its like oatmeal with granola,-47,240,20","I love it, it looks like a landscape photograph in desert or rocky mountain,50,360,20","it looks like an ant farm,12,140,20","It makes me think of new archaeology discoveries,15,340,20","I thought I was looking at a satellite image of mars.,21,300,20","Looks like a photo taken from the moon.,-6,80,20","Leah","I love it, it looks like a landscape photograph in desert or rocky mountain,50,360,20","Crystal","I thought I was looking at a satellite image of mars.,21,300,20","Taylor","It makes me think of new archaeology discoveries,15,340,20","4"
"26193","","survey-text","110","902918","0.0-108.0-0.0","A36N9D8OG0VZG9","","","","{""Q0"":""Too blocky and abstract for my tastes""}","","","","","","","","","","","","","","","","","","","","","","",""
"4699.4000000059605","","image-slider-response","111","907619","0.0-109.0","A36N9D8OG0VZG9","","","","","-33","","","","","","","","","","","","","","","","","","","","","",""
"null","","image-button-response","112","912637","0.0-110.0","A36N9D8OG0VZG9","img_art/8.jpg","null","","","","","","","","","","","","","","","","","","","","","","","","",""
"11335","","image-button-response","113","923975","0.0-111.0","A36N9D8OG0VZG9","img_art/8.jpg","1","","","","","","","","","","","","","","","","","","","","","","","","",""
"1847","","image-button-response","114","925824","0.0-112.0-0.0","A36N9D8OG0VZG9","img_art/8.jpg","2","","","","","","","","","","","","","","","","","","","","","","","","",""
"2892","","image-button-response","115","928718","0.0-113.0-0.0","A36N9D8OG0VZG9","img_art/8.jpg","5","","","","","","","","","","","","","","","","","","","","","","","","",""
"null","","html-keyboard-response","116","929730","0.0-114.0","A36N9D8OG0VZG9","<p style=""font-size: 48px;"">+</p>","","","","","null","allTrialResponses","1000","1","10","img_art/8.jpg","-33","Too blocky and abstract for my tastes","Cassandra,Leah,Kayla,Taylor,Crystal,Alexandria","I like the colors and the scene.,24,120,20","Nice formats, I just don't like it much,-16,360,20","The faces are kinda freaky.,-17,180,20","Looks like it would be an interesting place to live,35,340,20","i like the abstract nature of a birds eye view of the city. The hard shapes and squares present with a softness rather than rigidity.,26,300,20","It is very colorful with a deeper meaning,25,80,20","Leah","Nice formats, I just don't like it much,-16,360,20","Kayla","The faces are kinda freaky.,-17,180,20","Alexandria","It is very colorful with a deeper meaning,25,80,20","4"
"6641","","survey-text","117","936380","0.0-115.0-0.0","A36N9D8OG0VZG9","","","","{""Q0"":""our""}","","","","","","","","","","","","","","","","","","","","","","",""
"32389","","survey-text","118","968771","0.0-116.0-0.0","A36N9D8OG0VZG9","","","","{""Q0"":""The blocks ae well defined, but I don't see the point""}","","","","","","","","","","","","","","","","","","","","","","",""
"5280.0999999940395","","image-slider-response","119","974053","0.0-117.0","A36N9D8OG0VZG9","","","","","-12","","","","","","","","","","","","","","","","","","","","","",""
"null","","image-button-response","120","979066","0.0-118.0","A36N9D8OG0VZG9","img_art/12.jpg","null","","","","","","","","","","","","","","","","","","","","","","","","",""
"1613","","image-button-response","121","980682","0.0-119.0","A36N9D8OG0VZG9","img_art/12.jpg","5","","","","","","","","","","","","","","","","","","","","","","","","",""
"3827","","image-button-response","122","984512","0.0-120.0-0.0","A36N9D8OG0VZG9","img_art/12.jpg","4","","","","","","","","","","","","","","","","","","","","","","","","",""
"4287","","image-button-response","123","988800","0.0-121.0-0.0","A36N9D8OG0VZG9","img_art/12.jpg","1","","","","","","","","","","","","","","","","","","","","","","","","",""
"null","","html-keyboard-response","124","989813","0.0-122.0","A36N9D8OG0VZG9","<p style=""font-size: 48px;"">+</p>","","","","","null","allTrialResponses","1000","1","11","img_art/12.jpg","-12","The blocks ae well defined, but I don't see the point","Danielle,Leah,Kayla,Emma,Lauren,Alexandria","Kind of interesting, seems almost nostalgic in a way to me.,10,340,20","Looks like a puzzle I want to put together, but not hang in my den,2,360,20","Yay! Lots of people, lots of lives.,25,180,20","Pretty but not a huge fan of the colors,20,60,20","This doesn't invoke anything. Just a mosaic of random images.,0,340,20","don't feel a lot but it seems very simple,-6,80,20","Alexandria","don't feel a lot but it seems very simple,-6,80,20","Lauren","This doesn't invoke anything. Just a mosaic of random images.,0,340,20","Leah","Looks like a puzzle I want to put together, but not hang in my den,2,360,20","4"
"47743","","survey-text","125","1037563","0.0-123.0-0.0","A36N9D8OG0VZG9","","","","{""Q0"":""Interesting abstract of a tree, makes me curious""}","","","","","","","","","","","","","","","","","","","","","","",""
"5444.5999999940395","","image-slider-response","126","1043009","0.0-124.0","A36N9D8OG0VZG9","","","","","18","","","","","","","","","","","","","","","","","","","","","",""
"null","","image-button-response","127","1048013","0.0-125.0","A36N9D8OG0VZG9","img_art/14.jpg","null","","","","","","","","","","","","","","","","","","","","","","","","",""
"5415","","image-button-response","128","1053430","0.0-126.0","A36N9D8OG0VZG9","img_art/14.jpg","1","","","","","","","","","","","","","","","","","","","","","","","","",""
"2522","","image-button-response","129","1055954","0.0-127.0-0.0","A36N9D8OG0VZG9","img_art/14.jpg","3","","","","","","","","","","","","","","","","","","","","","","","","",""
"5584","","image-button-response","130","1061540","0.0-128.0-0.0","A36N9D8OG0VZG9","img_art/14.jpg","5","","","","","","","","","","","","","","","","","","","","","","","","",""
"null","","html-keyboard-response","131","1062543","0.0-129.0","A36N9D8OG0VZG9","<p style=""font-size: 48px;"">+</p>","","","","","null","allTrialResponses","1000","1","12","img_art/14.jpg","18","Interesting abstract of a tree, makes me curious","Angela,Leah,Kathryn,Breanna,Lauren,Alexandria","I like the colors and the shapes are interesting,11,260,20","I like the simplicity along with the colors,27,360,20","This reminds me of a tree but the tree is sickly, and poorly cared for.,-10,140,20","Makes me feel good,30,380,20","I like how balanced the piece is with its symmetrical design.,20,340,20","looks like it's symbolizing rebirth which is hopeful,22,80,20","Leah","I like the simplicity along with the colors,27,360,20","Breanna","Makes me feel good,30,380,20","Alexandria","looks like it's symbolizing rebirth which is hopeful,22,80,20","4"
"15127","","survey-text","132","1077675","0.0-130.0-0.0","A36N9D8OG0VZG9","","","","{""Q0"":""What is it? It's irritating""}","","","","","","","","","","","","","","","","","","","","","","",""
"4937.4000000059605","","image-slider-response","133","1082615","0.0-131.0","A36N9D8OG0VZG9","","","","","-30","","","","","","","","","","","","","","","","","","","","","",""
"null","","image-button-response","134","1087631","0.0-132.0","A36N9D8OG0VZG9","img_art/30.jpg","null","","","","","","","","","","","","","","","","","","","","","","","","",""
"2744","","image-button-response","135","1090377","0.0-133.0","A36N9D8OG0VZG9","img_art/30.jpg","3","","","","","","","","","","","","","","","","","","","","","","","","",""
"3229","","image-button-response","136","1093608","0.0-134.0-0.0","A36N9D8OG0VZG9","img_art/30.jpg","4","","","","","","","","","","","","","","","","","","","","","","","","",""
"2672","","image-button-response","137","1096283","0.0-135.0-0.0","A36N9D8OG0VZG9","img_art/30.jpg","0","","","","","","","","","","","","","","","","","","","","","","","","",""
"null","","html-keyboard-response","138","1096786","0.0-136.0","A36N9D8OG0VZG9","<p style=""font-size: 48px;"">+</p>","","","","","null","allTrialResponses","500","1","13","img_art/30.jpg","-30","What is it? It's irritating","Allison,Leah,Molly,Breanna,Margaret,Alexandria","Dislike the contrast here.,-5,140,20","Interesting, almost an underworld of plant life,11,360,20","I like the way the artist has painted his work.,40,340,20","Paint scribbled on canvas,-25,380,20","I dont like the colors whatsoever,-15,100,20","the lines and colors look purposeful,18,80,20","Breanna","Paint scribbled on canvas,-25,380,20","Margaret","I dont like the colors whatsoever,-15,100,20","Allison","Dislike the contrast here.,-5,140,20","4"
"18019","","survey-text","139","1114810","0.0-137.0-0.0","A36N9D8OG0VZG9","","","","{""Q0"":""Not enough contrast, looks random""}","","","","","","","","","","","","","","","","","","","","","","",""
"12277.40000000596","","image-slider-response","140","1127089","0.0-138.0","A36N9D8OG0VZG9","","","","","-2","","","","","","","","","","","","","","","","","","","","","",""
"null","","image-button-response","141","1132100","0.0-139.0","A36N9D8OG0VZG9","img_art/28.jpg","null","","","","","","","","","","","","","","","","","","","","","","","","",""
"6763","","image-button-response","142","1138866","0.0-140.0","A36N9D8OG0VZG9","img_art/28.jpg","5","","","","","","","","","","","","","","","","","","","","","","","","",""
"1620","","image-button-response","143","1140488","0.0-141.0-0.0","A36N9D8OG0VZG9","img_art/28.jpg","0","","","","","","","","","","","","","","","","","","","","","","","","",""
"1387","","image-button-response","144","1141877","0.0-142.0-0.0","A36N9D8OG0VZG9","img_art/28.jpg","2","","","","","","","","","","","","","","","","","","","","","","","","",""
"null","","html-keyboard-response","145","1142898","0.0-143.0","A36N9D8OG0VZG9","<p style=""font-size: 48px;"">+</p>","","","","","null","allTrialResponses","1000","1","14","img_art/28.jpg","-2","Not enough contrast, looks random","Allison,Gabrielle,Kimberly,Breanna,Margaret,Bailey","Dislike the colors.,-20,140,20","bland coloring but pattern interesting,2,160,20","The thing on the right is kind of weird/fetus-y,-12,260,20","The colors are depressing,-5,380,20","i like the neutral color pallette but i dont know what i am looking at,26,100,20","Has an air of darkness to it, but no real substance besides the mouse-like thing.,-38,360,20","Bailey","Has an air of darkness to it, but no real substance besides the mouse-like thing.,-38,360,20","Allison","Dislike the colors.,-20,140,20","Kimberly","The thing on the right is kind of weird/fetus-y,-12,260,20","4"
"21200","","survey-text","146","1164106","0.0-144.0-0.0","A36N9D8OG0VZG9","","","","{""Q0"":""Makes no sense, doesn't appeal to me at all""}","","","","","","","","","","","","","","","","","","","","","","",""
"6654.4000000059605","","image-slider-response","147","1170762","0.0-145.0","A36N9D8OG0VZG9","","","","","-30","","","","","","","","","","","","","","","","","","","","","",""
"null","","image-button-response","148","1175779","0.0-146.0","A36N9D8OG0VZG9","img_art/2.jpg","null","","","","","","","","","","","","","","","","","","","","","","","","",""
"7500","","image-button-response","149","1183281","0.0-147.0","A36N9D8OG0VZG9","img_art/2.jpg","5","","","","","","","","","","","","","","","","","","","","","","","","",""
"2843","","image-button-response","150","1186127","0.0-148.0-0.0","A36N9D8OG0VZG9","img_art/2.jpg","3","","","","","","","","","","","","","","","","","","","","","","","","",""
"1407","","image-button-response","151","1187536","0.0-149.0-0.0","A36N9D8OG0VZG9","img_art/2.jpg","4","","","","","","","","","","","","","","","","","","","","","","","","",""
"null","","html-keyboard-response","152","1188039","0.0-150.0","A36N9D8OG0VZG9","<p style=""font-size: 48px;"">+</p>","","","","","null","allTrialResponses","500","1","15","img_art/2.jpg","-30","Makes no sense, doesn't appeal to me at all","Allison,Isabella,Kimberly,Amy,Haley,Bailey","Hate the vomit green.,-31,140,20","Feels like a playground or park vibe,27,280,20","I like the green,13,260,20","The color palette of this painting is for me displeasing and immature.,-30,220,20","My first thought was that it looks like a children's art project,-30,220,20","Too gloopy and unfocused,-38,360,20","Bailey","Too gloopy and unfocused,-38,360,20","Amy","The color palette of this painting is for me displeasing and immature.,-30,220,20","Haley","My first thought was that it looks like a children's art project,-30,220,20","4"
"6060","","survey-text","153","1194107","0.0-151.0-0.0","A36N9D8OG0VZG9","","","","{""Q0"":""course""}","","","","","","","","","","","","","","","","","","","","","","",""
"19816","","survey-text","154","1213925","0.0-152.0-0.0","A36N9D8OG0VZG9","","","","{""Q0"":""Interesting, attention grabbing""}","","","","","","","","","","","","","","","","","","","","","","",""
"4700.799999982119","","image-slider-response","155","1218628","0.0-153.0","A36N9D8OG0VZG9","","","","","7","","","","","","","","","","","","","","","","","","","","","",""
"null","","image-button-response","156","1223635","0.0-154.0","A36N9D8OG0VZG9","img_art/25.jpg","null","","","","","","","","","","","","","","","","","","","","","","","","",""
"15688","","image-button-response","157","1239326","0.0-155.0","A36N9D8OG0VZG9","img_art/25.jpg","5","","","","","","","","","","","","","","","","","","","","","","","","",""
"3580","","image-button-response","158","1242908","0.0-156.0-0.0","A36N9D8OG0VZG9","img_art/25.jpg","3","","","","","","","","","","","","","","","","","","","","","","","","",""
"2559","","image-button-response","159","1245469","0.0-157.0-0.0","A36N9D8OG0VZG9","img_art/25.jpg","1","","","","","","","","","","","","","","","","","","","","","","","","",""
"null","","html-keyboard-response","160","1245970","0.0-158.0","A36N9D8OG0VZG9","<p style=""font-size: 48px;"">+</p>","","","","","null","allTrialResponses","500","1","16","img_art/25.jpg","7","Interesting, attention grabbing","Michelle,Michaela,Alicia,Amy,Haley,Bailey","I can get behind this but only because I like the green. it reminds me of a graveyard,11,280,20","It looks like people worshipping a statue,33,260,20","death. childish nightmare.,-29,120,20","The limited palette make this figure mysterious and interpret-able.,20,220,20","I like the design but the brightness of the color feels almost blinding to me.,-3,220,20","I love the background color and it's creepy...but cool.,30,360,20","Bailey","I love the background color and it's creepy...but cool.,30,360,20","Amy","The limited palette make this figure mysterious and interpret-able.,20,220,20","Michaela","It looks like people worshipping a statue,33,260,20","4"
"27990","","survey-text","161","1273965","0.0-159.0-0.0","A36N9D8OG0VZG9","","","","{""Q0"":""Meaningless, I don't see what it's trying to accomplish""}","","","","","","","","","","","","","","","","","","","","","","",""
"3652.199999988079","","image-slider-response","162","1277619","0.0-160.0","A36N9D8OG0VZG9","","","","","-18","","","","","","","","","","","","","","","","","","","","","",""
"null","","image-button-response","163","1282630","0.0-161.0","A36N9D8OG0VZG9","img_art/5.jpg","null","","","","","","","","","","","","","","","","","","","","","","","","",""
"6345","","image-button-response","164","1288978","0.0-162.0","A36N9D8OG0VZG9","img_art/5.jpg","2","","","","","","","","","","","","","","","","","","","","","","","","",""
"1964","","image-button-response","165","1290944","0.0-163.0-0.0","A36N9D8OG0VZG9","img_art/5.jpg","3","","","","","","","","","","","","","","","","","","","","","","","","",""
"3270","","image-button-response","166","1294216","0.0-164.0-0.0","A36N9D8OG0VZG9","img_art/5.jpg","5","","","","","","","","","","","","","","","","","","","","","","","","",""
"null","","html-keyboard-response","167","1295233","0.0-165.0","A36N9D8OG0VZG9","<p style=""font-size: 48px;"">+</p>","","","","","null","allTrialResponses","1000","1","17","img_art/5.jpg","-18","Meaningless, I don't see what it's trying to accomplish","Briana,Michaela,Alexis,Amy,Natalie,Bailey","It looks like a poorly drawn pear,17,400,20","Pretty simple, I'm not sure what it's supposed to mean,14,260,20","Kindergarten art. I really don't like this style.,-50,100,20","Nearly white background gives a lack of context. Questionable skills,-45,220,20","the picture looks ok,8,400,20","Not sure what that even is. Looks like a 2-year old drawing,-40,360,20","Alexis","Kindergarten art. I really don't like this style.,-50,100,20","Amy","Nearly white background gives a lack of context. Questionable skills,-45,220,20","Bailey","Not sure what that even is. Looks like a 2-year old drawing,-40,360,20","4"
"26684","","survey-text","168","1321926","0.0-166.0-0.0","A36N9D8OG0VZG9","","","","{""Q0"":""Don't know what it is, but the flow is interesting and colors are well blended""}","","","","","","","","","","","","","","","","","","","","","","",""
"3827.2000000178814","","image-slider-response","169","1325755","0.0-167.0","A36N9D8OG0VZG9","","","","","11","","","","","","","","","","","","","","","","","","","","","",""
"null","","image-button-response","170","1330772","0.0-168.0","A36N9D8OG0VZG9","img_art/4.jpg","null","","","","","","","","","","","","","","","","","","","","","","","","",""
"9894","","image-button-response","171","1340669","0.0-169.0","A36N9D8OG0VZG9","img_art/4.jpg","1","","","","","","","","","","","","","","","","","","","","","","","","",""
"4278","","image-button-response","172","1344949","0.0-170.0-0.0","A36N9D8OG0VZG9","img_art/4.jpg","3","","","","","","","","","","","","","","","","","","","","","","","","",""
"2860","","image-button-response","173","1347810","0.0-171.0-0.0","A36N9D8OG0VZG9","img_art/4.jpg","0","","","","","","","","","","","","","","","","","","","","","","","","",""
"null","","html-keyboard-response","174","1348828","0.0-172.0","A36N9D8OG0VZG9","<p style=""font-size: 48px;"">+</p>","","","","","null","allTrialResponses","1000","1","18","img_art/4.jpg","11","Don't know what it is, but the flow is interesting and colors are well blended","Alexandra,Marissa,Alexis,Amy,Samantha,Bailey","This artwork looks like a child did it,-41,60,20","I'm disappointed that such a simple piece, with very little effort spent, could be grouped with other detailed pieces,-31,160,20","Really don't like this. Kindergarten art, sorry.,-50,100,20","disturbing and uncomfortable.,10,220,20","I domt like the yellow black blended smear,-50,140,20","Boring and tasteless. Almost reminds me of when an art gallery called a banana 'art',-42,360,20","Marissa","I'm disappointed that such a simple piece, with very little effort spent, could be grouped with other detailed pieces,-31,160,20","Amy","disturbing and uncomfortable.,10,220,20","Alexandra","This artwork looks like a child did it,-41,60,20","4"
"43276","","survey-text","175","1392111","0.0-173.0-0.0","A36N9D8OG0VZG9","","","","{""Q0"":""What's the point? Except for the teddy bear it looks like a child's art""}","","","","","","","","","","","","","","","","","","","","","","",""
"4900.299999982119","","image-slider-response","176","1397013","0.0-174.0","A36N9D8OG0VZG9","","","","","-7","","","","","","","","","","","","","","","","","","","","","",""
"null","","image-button-response","177","1402026","0.0-175.0","A36N9D8OG0VZG9","img_art/16.jpg","null","","","","","","","","","","","","","","","","","","","","","","","","",""
"10303","","image-button-response","178","1412331","0.0-176.0","A36N9D8OG0VZG9","img_art/16.jpg","3","","","","","","","","","","","","","","","","","","","","","","","","",""
"6446","","image-button-response","179","1418780","0.0-177.0-0.0","A36N9D8OG0VZG9","img_art/16.jpg","4","","","","","","","","","","","","","","","","","","","","","","","","",""
"3042","","image-button-response","180","1421824","0.0-178.0-0.0","A36N9D8OG0VZG9","img_art/16.jpg","2","","","","","","","","","","","","","","","","","","","","","","","","",""
"null","","html-keyboard-response","181","1422325","0.0-179.0","A36N9D8OG0VZG9","<p style=""font-size: 48px;"">+</p>","","","","","null","allTrialResponses","500","1","19","img_art/16.jpg","-7","What's the point? Except for the teddy bear it looks like a child's art","Alexandra,Marissa,Amber,Amy,Mary,Katie","This is weird and creepy.,-40,60,20","I do not like this dark and twisted portrayal of childhood,-42,160,20","Don't like the teddy bear. It takes away from the painting.,-39,200,20","visceral and a little disturbing.,10,220,20","This is a neat piece. Sort of shocking. I think it's too monochromatic though.,19,180,20","Upsetting and disturbing. Random bear and indistinguishable objects. None of it goes together. Too chaotic and random,-50,160,20","Amy","visceral and a little disturbing.,10,220,20","Mary","This is a neat piece. Sort of shocking. I think it's too monochromatic though.,19,180,20","Amber","Don't like the teddy bear. It takes away from the painting.,-39,200,20","4"
"18072","","survey-text","182","1440402","0.0-180.0-0.0","A36N9D8OG0VZG9","","","","{""Q0"":""It's scattered with no focus point""}","","","","","","","","","","","","","","","","","","","","","","",""
"3801.2999999821186","","image-slider-response","183","1444205","0.0-181.0","A36N9D8OG0VZG9","","","","","-12","","","","","","","","","","","","","","","","","","","","","",""
"null","","image-button-response","184","1449207","0.0-182.0","A36N9D8OG0VZG9","img_art/15.jpg","null","","","","","","","","","","","","","","","","","","","","","","","","",""
"8249","","image-button-response","185","1457459","0.0-183.0","A36N9D8OG0VZG9","img_art/15.jpg","5","","","","","","","","","","","","","","","","","","","","","","","","",""
"3855","","image-button-response","186","1461316","0.0-184.0-0.0","A36N9D8OG0VZG9","img_art/15.jpg","1","","","","","","","","","","","","","","","","","","","","","","","","",""
"6498","","image-button-response","187","1467816","0.0-185.0-0.0","A36N9D8OG0VZG9","img_art/15.jpg","4","","","","","","","","","","","","","","","","","","","","","","","","",""
"null","","html-keyboard-response","188","1468317","0.0-186.0","A36N9D8OG0VZG9","<p style=""font-size: 48px;"">+</p>","","","","","null","allTrialResponses","500","1","20","img_art/15.jpg","-12","It's scattered with no focus point","Morgan,Laura,Amber,Amy,Mary,Shannon","Leafs spread on the ground.,27,380,20","abrasive, rough, uneven,-31,320,20","Reminds me of blueberry bushes.,7,200,20","basic colors and pleasing shapes providing a calming effect,15,220,20","This piece gave me no emotion. It's ugly to me.,-38,180,20","Not enough colors to make it interesting and doesn't look like anything is happening.,-20,220,20","Shannon","Not enough colors to make it interesting and doesn't look like anything is happening.,-20,220,20","Laura","abrasive, rough, uneven,-31,320,20","Mary","This piece gave me no emotion. It's ugly to me.,-38,180,20","4"
"5471","","survey-text","189","1473799","0.0-187.0-0.0","A36N9D8OG0VZG9","","","","{""Q0"":""we""}","","","","","","","","","","","","","","","","","","","","","","",""
"31141","","survey-text","190","1504942","0.0-188.0-0.0","A36N9D8OG0VZG9","","","","{""Q0"":""Looks like a tree trunk with paint splatters, nice colors""}","","","","","","","","","","","","","","","","","","","","","","",""
"4043.7000000178814","","image-slider-response","191","1508987","0.0-189.0","A36N9D8OG0VZG9","","","","","20","","","","","","","","","","","","","","","","","","","","","",""
"null","","image-button-response","192","1513991","0.0-190.0","A36N9D8OG0VZG9","img_art/13.jpg","null","","","","","","","","","","","","","","","","","","","","","","","","",""
"38236","","image-button-response","193","1552230","0.0-191.0","A36N9D8OG0VZG9","img_art/13.jpg","0","","","","","","","","","","","","","","","","","","","","","","","","",""
"2224","","image-button-response","194","1554456","0.0-192.0-0.0","A36N9D8OG0VZG9","img_art/13.jpg","1","","","","","","","","","","","","","","","","","","","","","","","","",""
"6834","","image-button-response","195","1561292","0.0-193.0-0.0","A36N9D8OG0VZG9","img_art/13.jpg","2","","","","","","","","","","","","","","","","","","","","","","","","",""
"null","","html-keyboard-response","196","1561793","0.0-194.0","A36N9D8OG0VZG9","<p style=""font-size: 48px;"">+</p>","","","","","null","allTrialResponses","500","1","21","img_art/13.jpg","20","Looks like a tree trunk with paint splatters, nice colors","Emily,Laura,Victoria,Tiffany,Mary,Shannon","I don't car for it but it does seem organized and like it took considereably more skill that others.,9,40,20","water on my shower curtain - I feel refreshed, renewed,9,320,20","reminds me of rain,36,400,20","The painting makes me feel awe and like I am very little. Like I am alone at the bottom of the ocean.,41,360,20","I do not care for the colors in this art. it doesnt go well at all.,-15,180,20","It looks like someone splattered a bunch of different colors to make a picture; I think its ugly.,-40,220,20","Emily","I don't car for it but it does seem organized and like it took considereably more skill that others.,9,40,20","Laura","water on my shower curtain - I feel refreshed, renewed,9,320,20","Victoria","reminds me of rain,36,400,20","4"
"33152","","survey-text","197","1594950","0.0-195.0-0.0","A36N9D8OG0VZG9","","","","{""Q0"":""I don't see the point, it's a landscape but doesn't grab me""}","","","","","","","","","","","","","","","","","","","","","","",""
"4731.300000011921","","image-slider-response","198","1599684","0.0-196.0","A36N9D8OG0VZG9","","","","","12","","","","","","","","","","","","","","","","","","","","","",""
"null","","image-button-response","199","1604690","0.0-197.0","A36N9D8OG0VZG9","img_art/21.jpg","null","","","","","","","","","","","","","","","","","","","","","","","","",""
"12355","","image-button-response","200","1617048","0.0-198.0","A36N9D8OG0VZG9","img_art/21.jpg","0","","","","","","","","","","","","","","","","","","","","","","","","",""
"3807","","image-button-response","201","1620857","0.0-199.0-0.0","A36N9D8OG0VZG9","img_art/21.jpg","1","","","","","","","","","","","","","","","","","","","","","","","","",""
"6024","","image-button-response","202","1626883","0.0-200.0-0.0","A36N9D8OG0VZG9","img_art/21.jpg","4","","","","","","","","","","","","","","","","","","","","","","","","",""
"null","","html-keyboard-response","203","1627385","0.0-201.0","A36N9D8OG0VZG9","<p style=""font-size: 48px;"">+</p>","","","","","null","allTrialResponses","500","1","22","img_art/21.jpg","12","I don't see the point, it's a landscape but doesn't grab me","Emily,Laura,Victoria,Paige,Olivia,Hannah","What's the point?,-30,40,20","a serene, calm and eloquent storm,9,320,20","like the colors,30,400,20","the picture is boring,1,60,20","feels like a wave coming into light,9,40,20","Boring colors and look. Too much 1980s.,-20,240,20","Emily","What's the point?,-30,40,20","Laura","a serene, calm and eloquent storm,9,320,20","Olivia","feels like a wave coming into light,9,40,20","4"
"16909","","survey-text","204","1644301","0.0-202.0-0.0","A36N9D8OG0VZG9","","","","{""Q0"":""I jumbled irritating, uninteresting mess""}","","","","","","","","","","","","","","","","","","","","","","",""
"3602.9000000059605","","image-slider-response","205","1647905","0.0-203.0","A36N9D8OG0VZG9","","","","","-21","","","","","","","","","","","","","","","","","","","","","",""
"3860","","image-button-response","206","1652909","0.0-204.0","A36N9D8OG0VZG9","img_art/19.jpg","2","","","","","","","","","","","","","","","","","","","","","","","","",""
"884","","image-button-response","207","1653796","0.0-205.0","A36N9D8OG0VZG9","img_art/19.jpg","0","","","","","","","","","","","","","","","","","","","","","","","","",""
"9215","","image-button-response","208","1663012","0.0-206.0-0.0","A36N9D8OG0VZG9","img_art/19.jpg","1","","","","","","","","","","","","","","","","","","","","","","","","",""
"3201","","image-button-response","209","1666216","0.0-207.0-0.0","A36N9D8OG0VZG9","img_art/19.jpg","2","","","","","","","","","","","","","","","","","","","","","","","","",""
"null","","html-keyboard-response","210","1667219","0.0-208.0","A36N9D8OG0VZG9","<p style=""font-size: 48px;"">+</p>","","","","","null","allTrialResponses","1000","1","23","img_art/19.jpg","-21","I jumbled irritating, uninteresting mess","Emily,Laura,Jacqueline,Kylie,Olivia,Stephanie","Loks like an amature did it, Not pleasing.,-45,40,20","confusion, scattered and diffuse,-4,320,20","This is just a mess.,-30,300,20","Reminds me of a quaint little town I once visited in Italy,50,300,20","city life energy,8,40,20","A dreary town in the fall.,-4,300,20","Emily","Loks like an amature did it, Not pleasing.,-45,40,20","Laura","confusion, scattered and diffuse,-4,320,20","Jacqueline","This is just a mess.,-30,300,20","4"
"38071","","survey-text","211","1705295","0.0-209.0-0.0","A36N9D8OG0VZG9","","","","{""Q0"":""An interesting colorful outdoor scene, I'd like to see the actual setting""}","","","","","","","","","","","","","","","","","","","","","","",""
"5163.899999976158","","image-slider-response","212","1710461","0.0-210.0","A36N9D8OG0VZG9","","","","","21","","","","","","","","","","","","","","","","","","","","","",""
"null","","image-button-response","213","1715467","0.0-211.0","A36N9D8OG0VZG9","img_art/20.jpg","null","","","","","","","","","","","","","","","","","","","","","","","","",""
"450","","image-button-response","214","1715920","0.0-212.0","A36N9D8OG0VZG9","img_art/20.jpg","1","","","","","","","","","","","","","","","","","","","","","","","","",""
"10543","","image-button-response","215","1726465","0.0-213.0-0.0","A36N9D8OG0VZG9","img_art/20.jpg","5","","","","","","","","","","","","","","","","","","","","","","","","",""
"8340","","image-button-response","216","1734807","0.0-214.0-0.0","A36N9D8OG0VZG9","img_art/20.jpg","0","","","","","","","","","","","","","","","","","","","","","","","","",""
"null","","html-keyboard-response","217","1736315","0.0-215.0","A36N9D8OG0VZG9","<p style=""font-size: 48px;"">+</p>","","","","","null","allTrialResponses","1500","1","24","img_art/20.jpg","21","An interesting colorful outdoor scene, I'd like to see the actual setting","Emily,Laura,Jacqueline,Kristen,Madeline,Rebecca","Brings about an emotion response of dspair. Loose lines but yet has a cohesion.,8,40,20","very fluid and mysterious,37,320,20","Looks like a refinery dumping shit into the water.,-40,300,20","danger, car crash, stressful,-12,280,20","Looks somewhat dark and emotional,-10,40,20","reminds me of georgia o'keeffe's skull,22,100,20","Laura","very fluid and mysterious,37,320,20","Rebecca","reminds me of georgia o'keeffe's skull,22,100,20","Emily","Brings about an emotion response of dspair. Loose lines but yet has a cohesion.,8,40,20","4"
"15306","","survey-text","218","1751627","0.0-216.0-0.0","A36N9D8OG0VZG9","","","","{""Q0"":""Messy and I don't see the point""}","","","","","","","","","","","","","","","","","","","","","","",""
"3730.399999976158","","image-slider-response","219","1755360","0.0-217.0","A36N9D8OG0VZG9","","","","","-21","","","","","","","","","","","","","","","","","","","","","",""
"null","","image-button-response","220","1760371","0.0-218.0","A36N9D8OG0VZG9","img_art/18.jpg","null","","","","","","","","","","","","","","","","","","","","","","","","",""
"10370","","image-button-response","221","1770744","0.0-219.0","A36N9D8OG0VZG9","img_art/18.jpg","3","","","","","","","","","","","","","","","","","","","","","","","","",""
"1751","","image-button-response","222","1772497","0.0-220.0-0.0","A36N9D8OG0VZG9","img_art/18.jpg","5","","","","","","","","","","","","","","","","","","","","","","","","",""
"2930","","image-button-response","223","1775430","0.0-221.0-0.0","A36N9D8OG0VZG9","img_art/18.jpg","4","","","","","","","","","","","","","","","","","","","","","","","","",""
"null","","html-keyboard-response","224","1776938","0.0-222.0","A36N9D8OG0VZG9","<p style=""font-size: 48px;"">+</p>","","","","","null","allTrialResponses","1500","1","25","img_art/18.jpg","-21","Messy and I don't see the point","Emily,Laura,Dominique,Abigail,Julia,Rebecca","Not my style but I can see some serious skill went int it.,21,40,20","afraid and anxious,21,320,20","Very conversational and can see many different looks and feels from this .,34,400,20","Interesting and capitvating to look at,19,20,20","Very classy, I feel like it's the apocalypse.,25,40,20","reminds me of the little prince, with the color scheme and all,16,100,20","Abigail","Interesting and capitvating to look at,19,20,20","Rebecca","reminds me of the little prince, with the color scheme and all,16,100,20","Julia","Very classy, I feel like it's the apocalypse.,25,40,20","4"
"5483","","survey-text","225","1782436","0.0-223.0-0.0","A36N9D8OG0VZG9","","","","{""Q0"":""table""}","","","","","","","","","","","","","","","","","","","","","","",""
"47059","","survey-text","226","1829497","0.0-224.0-0.0","A36N9D8OG0VZG9","","","","{""Q0"":""A line up of people on an irritating background with awful colors""}","","","","","","","","","","","","","","","","","","","","","","",""
"2953.9000000059605","","image-slider-response","227","1832453","0.0-225.0","A36N9D8OG0VZG9","","","","","-15","","","","","","","","","","","","","","","","","","","","","",""
"4535","","image-button-response","228","1837458","0.0-226.0","A36N9D8OG0VZG9","img_art/23.jpg","2","","","","","","","","","","","","","","","","","","","","","","","","",""
"2630","","image-button-response","229","1840091","0.0-227.0","A36N9D8OG0VZG9","img_art/23.jpg","2","","","","","","","","","","","","","","","","","","","","","","","","",""
"2216","","image-button-response","230","1842309","0.0-228.0-0.0","A36N9D8OG0VZG9","img_art/23.jpg","4","","","","","","","","","","","","","","","","","","","","","","","","",""
"4213","","image-button-response","231","1846525","0.0-229.0-0.0","A36N9D8OG0VZG9","img_art/23.jpg","5","","","","","","","","","","","","","","","","","","","","","","","","",""
"null","","html-keyboard-response","232","1848039","0.0-230.0","A36N9D8OG0VZG9","<p style=""font-size: 48px;"">+</p>","","","","","null","allTrialResponses","1500","1","26","img_art/23.jpg","-15","A line up of people on an irritating background with awful colors","Cassidy,Katherine,Leslie,Abigail,Julia,Rebecca","I like the colors, the tiny dots, and the contrast between the white and background,28,140,20","This one is awesome, kinda looks like a cake with sprinkles but in a different universe,50,120,20","It reminds me of being in a crowded place.,-10,380,20","I like the contrast,29,20,20","this looks like a pop rock album cover,-10,40,20","love the contrast (was this painted by a left-handed artist?),7,100,20","Leslie","It reminds me of being in a crowded place.,-10,380,20","Julia","this looks like a pop rock album cover,-10,40,20","Rebecca","love the contrast (was this painted by a left-handed artist?),7,100,20","4"
"25839","","survey-text","233","1873889","0.0-231.0-0.0","A36N9D8OG0VZG9","","","","{""Q0"":""Not enough colors, paint splatters could have been done by anyone.""}","","","","","","","","","","","","","","","","","","","","","","",""
"3329.5","","image-slider-response","234","1877221","0.0-232.0","A36N9D8OG0VZG9","","","","","-16","","","","","","","","","","","","","","","","","","","","","",""
"null","","image-button-response","235","1882226","0.0-233.0","A36N9D8OG0VZG9","img_art/3.jpg","null","","","","","","","","","","","","","","","","","","","","","","","","",""
"890","","image-button-response","236","1883119","0.0-234.0","A36N9D8OG0VZG9","img_art/3.jpg","2","","","","","","","","","","","","","","","","","","","","","","","","",""
"1904","","image-button-response","237","1885025","0.0-235.0-0.0","A36N9D8OG0VZG9","img_art/3.jpg","0","","","","","","","","","","","","","","","","","","","","","","","","",""
"2202","","image-button-response","238","1887229","0.0-236.0-0.0","A36N9D8OG0VZG9","img_art/3.jpg","3","","","","","","","","","","","","","","","","","","","","","","","","",""
"null","","html-keyboard-response","239","1888735","0.0-237.0","A36N9D8OG0VZG9","<p style=""font-size: 48px;"">+</p>","","","","","null","allTrialResponses","1500","1","27","img_art/3.jpg","-16","Not enough colors, paint splatters could have been done by anyone.","Jennifer,Sydney,Leslie,Megan,Julia,Rebecca","This looks like something a child created in 5 minutes.,-50,380,20","This piece makes me think it has a backstory or a reason which I like.,5,320,20","It looks like the artist was trying too hard to make it chaotic and emotional.,-25,380,20","5 min scribble by a 3 year old,-46,200,20","this is a very nice emotion,27,40,20","sorry do not understand,-26,100,20","Leslie","It looks like the artist was trying too hard to make it chaotic and emotional.,-25,380,20","Jennifer","This looks like something a child created in 5 minutes.,-50,380,20","Megan","5 min scribble by a 3 year old,-46,200,20","4"
"34195","","survey-text","240","1922939","0.0-238.0-0.0","A36N9D8OG0VZG9","","","","{""Q0"":""It's chaotic but draws my attention, can't tell what it is""}","","","","","","","","","","","","","","","","","","","","","","",""
"5654.699999988079","","image-slider-response","241","1928596","0.0-239.0","A36N9D8OG0VZG9","","","","","19","","","","","","","","","","","","","","","","","","","","","",""
"null","","image-button-response","242","1933611","0.0-240.0","A36N9D8OG0VZG9","img_art/11.jpg","null","","","","","","","","","","","","","","","","","","","","","","","","",""
"11765","","image-button-response","243","1945379","0.0-241.0","A36N9D8OG0VZG9","img_art/11.jpg","1","","","","","","","","","","","","","","","","","","","","","","","","",""
"2795","","image-button-response","244","1948176","0.0-242.0-0.0","A36N9D8OG0VZG9","img_art/11.jpg","2","","","","","","","","","","","","","","","","","","","","","","","","",""
"2818","","image-button-response","245","1950996","0.0-243.0-0.0","A36N9D8OG0VZG9","img_art/11.jpg","4","","","","","","","","","","","","","","","","","","","","","","","","",""
"null","","html-keyboard-response","246","1951498","0.0-244.0","A36N9D8OG0VZG9","<p style=""font-size: 48px;"">+</p>","","","","","null","allTrialResponses","500","1","28","img_art/11.jpg","19","It's chaotic but draws my attention, can't tell what it is","Jennifer,Caroline,Leslie,Megan,Jamie,Cynthia","The narrow groups of lines in the center make me feel uneasy for some reason,-31,380,20","Makes me think of far away places and traveling. Makes me feel like wandering,20,100,20","This elicits no reaction in me.,0,380,20","Some interesting color but scratchy train mess.,-14,200,20","Looks like a cityscape,25,320,20","Sad but hopeful,43,320,20","Caroline","Makes me think of far away places and traveling. Makes me feel like wandering,20,100,20","Leslie","This elicits no reaction in me.,0,380,20","Jamie","Looks like a cityscape,25,320,20","4"
"62469","","survey-text","247","2013979","0.0-245.0-0.0","A36N9D8OG0VZG9","","","","{""Q0"":""A relaxing blend of blues and greens with a focus point I don't understand""}","","","","","","","","","","","","","","","","","","","","","","",""
"3001.5999999940395","","image-slider-response","248","2016983","0.0-246.0","A36N9D8OG0VZG9","","","","","6","","","","","","","","","","","","","","","","","","","","","",""
"null","","image-button-response","249","2021993","0.0-247.0","A36N9D8OG0VZG9","img_art/9.jpg","null","","","","","","","","","","","","","","","","","","","","","","","","",""
"2566","","image-button-response","250","2024562","0.0-248.0","A36N9D8OG0VZG9","img_art/9.jpg","2","","","","","","","","","","","","","","","","","","","","","","","","",""
"3483","","image-button-response","251","2028048","0.0-249.0-0.0","A36N9D8OG0VZG9","img_art/9.jpg","3","","","","","","","","","","","","","","","","","","","","","","","","",""
"557","","image-button-response","252","2028607","0.0-250.0-0.0","A36N9D8OG0VZG9","img_art/9.jpg","4","","","","","","","","","","","","","","","","","","","","","","","","",""
"null","","html-keyboard-response","253","2029617","0.0-251.0","A36N9D8OG0VZG9","<p style=""font-size: 48px;"">+</p>","","","","","null","allTrialResponses","1000","1","29","img_art/9.jpg","6","A relaxing blend of blues and greens with a focus point I don't understand","Autumn,Caroline,Leslie,Melissa,Jamie,Lindsey","Abstract but not well made,-26,340,20","Stirs up emotions of watching someone sleep which is relaxing,11,100,20","The colors are pretty, and remind me of a circus.,5,380,20","strong focal point, appealing use of selective line,11,240,20","Mash up of colors and designs don't really go together,-5,320,20","Looks like my niece's doodles.,-50,400,20","Leslie","The colors are pretty, and remind me of a circus.,5,380,20","Melissa","strong focal point, appealing use of selective line,11,240,20","Jamie","Mash up of colors and designs don't really go together,-5,320,20","4"
"28845","","survey-text","254","2058472","0.0-252.0-0.0","A36N9D8OG0VZG9","","","","{""Q0"":""A bird with one leg maybe? It's simple and plain""}","","","","","","","","","","","","","","","","","","","","","","",""
"3685","","image-slider-response","255","2062159","0.0-253.0","A36N9D8OG0VZG9","","","","","1","","","","","","","","","","","","","","","","","","","","","",""
"null","","image-button-response","256","2067165","0.0-254.0","A36N9D8OG0VZG9","img_art/6.jpg","null","","","","","","","","","","","","","","","","","","","","","","","","",""
"2922","","image-button-response","257","2070089","0.0-255.0","A36N9D8OG0VZG9","img_art/6.jpg","4","","","","","","","","","","","","","","","","","","","","","","","","",""
"1848","","image-button-response","258","2071939","0.0-256.0-0.0","A36N9D8OG0VZG9","img_art/6.jpg","5","","","","","","","","","","","","","","","","","","","","","","","","",""
"7420","","image-button-response","259","2079360","0.0-257.0-0.0","A36N9D8OG0VZG9","img_art/6.jpg","1","","","","","","","","","","","","","","","","","","","","","","","","",""
"null","","html-keyboard-response","260","2080372","0.0-258.0","A36N9D8OG0VZG9","<p style=""font-size: 48px;"">+</p>","","","","","null","allTrialResponses","1000","1","30","img_art/6.jpg","1","A bird with one leg maybe? It's simple and plain","Mikayla,Amanda,Leslie,Melissa,Jamie,Erika","Not very exciting.,-34,300,20","Makes me feel lonely,-22,180,20","The limited colors make me feel lonely.,36,380,20","composition is engaging,28,240,20","Tree growing in a desert. Gives me feelings of hope,5,320,20","Lonesome in nature,13,100,20","Jamie","Tree growing in a desert. Gives me feelings of hope,5,320,20","Erika","Lonesome in nature,13,100,20","Amanda","Makes me feel lonely,-22,180,20","4"
"3633","","image-button-response_instructions","261","2084015","0.0-259.0","A36N9D8OG0VZG9","","0","instructions","","","","","","","","","","","","","","","","","","","","","","","",""
"1878","","image-button-response","262","2085899","0.0-260.0","A36N9D8OG0VZG9","","0","","","","","","","","","","","","","","","","","","","","","","","","",""
