"rt","url","trial_type","trial_index","time_elapsed","internal_node_id","participant_id","stimulus","button_pressed","Name","responses","response","key_press","variableName","fixationTime","condition","trial","photo","subjectRating","subjectResponse","agentsNames","agent_1_Response","agent_2_Response","agent_3_Response","agent_4_Response","agent_5_Response","agent_6_Response","kept_1_name","kept_1_response","kept_2_name","kept_2_response","kept_3_name","kept_3_response","errorCounter"
"6834","external_page_harvard.html","external-html","0","6916","0.0-0.0","A36QGCT3MMXC4Q","","","","","","","","","","","","","","","","","","","","","","","","","","",""
"1699","","image-button-response","1","8619","0.0-1.0","A36QGCT3MMXC4Q","","1","","","","","","","","","","","","","","","","","","","","","","","","",""
"1624","","image-button-response","2","10258","0.0-2.0-0.0","A36QGCT3MMXC4Q","","1","phone","","","","","","","","","","","","","","","","","","","","","","","",""
"6067","","survey-text","3","16329","0.0-3.0-0.0","A36QGCT3MMXC4Q","","","","{""Q0"":""A36QGCT3MMXC4Q""}","","","","","","","","","","","","","","","","","","","","","","",""
"12234","","image-button-response_instructions","4","28569","0.0-4.0","A36QGCT3MMXC4Q","","0","instructions","","","","","","","","","","","","","","","","","","","","","","","",""
"13227","","image-button-response_instructions","5","41800","0.0-5.0","A36QGCT3MMXC4Q","img_art/ins/popularity/ins1.png","0","instructions","","","","","","","","","","","","","","","","","","","","","","","",""
"5831","","image-button-response_instructions","6","47635","0.0-6.0","A36QGCT3MMXC4Q","img_art/ins/popularity/ins2.png","0","instructions","","","","","","","","","","","","","","","","","","","","","","","",""
"5677","","image-button-response_instructions","7","53315","0.0-7.0","A36QGCT3MMXC4Q","img_art/ins/popularity/ins2Extreme.png","0","instructions","","","","","","","","","","","","","","","","","","","","","","","",""
"9983","","image-button-response_instructions","8","63300","0.0-8.0","A36QGCT3MMXC4Q","img_art/ins/popularity/ins3KEEPpop.PNG","0","instructions","","","","","","","","","","","","","","","","","","","","","","","",""
"4761","","image-button-response_instructions","9","68064","0.0-9.0","A36QGCT3MMXC4Q","img_art/ins/popularity/ins3ANamepop.PNG","0","instructions","","","","","","","","","","","","","","","","","","","","","","","",""
"3537","","image-button-response_instructions","10","71603","0.0-10.0","A36QGCT3MMXC4Q","img_art/ins/popularity/ins3ARatingpop.png","0","instructions","","","","","","","","","","","","","","","","","","","","","","","",""
"1924","","image-button-response_instructions","11","73530","0.0-11.0","A36QGCT3MMXC4Q","img_art/ins/popularity/ins3ATextpop.png","0","instructions","","","","","","","","","","","","","","","","","","","","","","","",""
"4428","","image-button-response_instructions","12","77960","0.0-12.0","A36QGCT3MMXC4Q","img_art/ins/popularity/ins3ALikespop.png","0","instructions","","","","","","","","","","","","","","","","","","","","","","","",""
"11042","","image-button-response_instructions","13","89005","0.0-13.0","A36QGCT3MMXC4Q","img_art/ins/popularity/ins3KEEPpop.PNG","0","instructions","","","","","","","","","","","","","","","","","","","","","","","",""
"11387","","image-button-response_instructions","14","100395","0.0-14.0","A36QGCT3MMXC4Q","img_art/ins/popularity/ins3_5RED.png","0","instructions","","","","","","","","","","","","","","","","","","","","","","","",""
"5382","","image-button-response_instructions","15","105780","0.0-15.0","A36QGCT3MMXC4Q","img_art/ins/popularity/ins3KEEPpop.PNG","0","instructions","","","","","","","","","","","","","","","","","","","","","","","",""
"9995","","image-button-response_instructions","16","115777","0.0-16.0","A36QGCT3MMXC4Q","img_art/ins/popularity/ins4KEEPpop.PNG","0","instructions","","","","","","","","","","","","","","","","","","","","","","","",""
"4206","","image-button-response_instructions","17","119986","0.0-17.0","A36QGCT3MMXC4Q","img_art/ins/popularity/ins5KEEPpop.PNG","0","instructions","","","","","","","","","","","","","","","","","","","","","","","",""
"4088","","image-button-response_instructions","18","124076","0.0-18.0","A36QGCT3MMXC4Q","","0","instructions","","","","","","","","","","","","","","","","","","","","","","","",""
"5619","","survey-text","19","129776","0.0-19.0-0.0","A36QGCT3MMXC4Q","","","","{""Q0"":""but""}","","","","","","","","","","","","","","","","","","","","","","",""
"4406","","survey-text","20","134188","0.0-20.0-0.0","A36QGCT3MMXC4Q","","","","{""Q0"":""calming""}","","","","","","","","","","","","","","","","","","","","","","",""
"3497.5","","image-slider-response","21","137695","0.0-21.0","A36QGCT3MMXC4Q","","","","","21","","","","","","","","","","","","","","","","","","","","","",""
"null","","image-button-response","22","142707","0.0-22.0","A36QGCT3MMXC4Q","img_art/ins/1.jpg","null","","","","","","","","","","","","","","","","","","","","","","","","",""
"5411","","image-button-response","23","148122","0.0-23.0","A36QGCT3MMXC4Q","img_art/ins/1.jpg","4","","","","","","","","","","","","","","","","","","","","","","","","",""
"5248","","image-button-response","24","153376","0.0-24.0-0.0","A36QGCT3MMXC4Q","img_art/ins/1.jpg","5","","","","","","","","","","","","","","","","","","","","","","","","",""
"1555","","image-button-response","25","154938","0.0-25.0-0.0","A36QGCT3MMXC4Q","img_art/ins/1.jpg","0","","","","","","","","","","","","","","","","","","","","","","","","",""
"null","","html-keyboard-response","26","155958","0.0-26.0","A36QGCT3MMXC4Q","<p style=""font-size: 48px;"">+</p>","","","","","null","allTrialResponses","1000","1","-2","img_art/ins/1.jpg","21","calming","Allison,Ashley,Beth,Dora,Erika,Jen","looks like a lot of things going on in the mist,20,20,20","I just don't get why these type of art would be popular,-32,40,20","This color reminds me of poo,-46,60,20","looks like what my niece in 3rd grade did this afternoon,-50,80,20","I like the sophisticated brushwork,40,100,20","It reminds me of a candy land dream I had,36,120,20","Erika","I like the sophisticated brushwork,40,100,20","Jen","It reminds me of a candy land dream I had,36,120,20","Allison","looks like a lot of things going on in the mist,20,20,20","0"
"25935","","survey-text","27","181904","0.0-27.0-0.0","A36QGCT3MMXC4Q","","","","{""Q0"":""textured with a good use of contrasting colors""}","","","","","","","","","","","","","","","","","","","","","","",""
"3193.899999976158","","image-slider-response","28","185104","0.0-28.0","A36QGCT3MMXC4Q","","","","","21","","","","","","","","","","","","","","","","","","","","","",""
"4344","","image-button-response","29","190121","0.0-29.0","A36QGCT3MMXC4Q","img_art/ins/2.jpg","1","","","","","","","","","","","","","","","","","","","","","","","","",""
"10573","","image-button-response","30","200699","0.0-30.0","A36QGCT3MMXC4Q","img_art/ins/2.jpg","1","","","","","","","","","","","","","","","","","","","","","","","","",""
"841","","image-button-response","31","201546","0.0-31.0-0.0","A36QGCT3MMXC4Q","img_art/ins/2.jpg","5","","","","","","","","","","","","","","","","","","","","","","","","",""
"5491","","image-button-response","32","207042","0.0-32.0-0.0","A36QGCT3MMXC4Q","img_art/ins/2.jpg","4","","","","","","","","","","","","","","","","","","","","","","","","",""
"null","","html-keyboard-response","33","208556","0.0-33.0","A36QGCT3MMXC4Q","<p style=""font-size: 48px;"">+</p>","","","","","null","allTrialResponses","1500","1","-1","img_art/ins/2.jpg","21","textured with a good use of contrasting colors","Allison,Kara,Katie,Jenna,Erika,Jen","I don't have strong feelings about this,10,20,20","I like the blocks of color arrangements,30,160,20","too much color!,-28,180,20","One of my pet peevs,-48,140,20","I would never be able to compose a sophisticated pallete like this,48,100,20","It reminds me of a fireplace,36,120,20","Kara","I like the blocks of color arrangements,30,160,20","Jen","It reminds me of a fireplace,36,120,20","Erika","I would never be able to compose a sophisticated pallete like this,48,100,20","0"
"17386","","survey-text","34","225952","0.0-34.0-0.0","A36QGCT3MMXC4Q","","","","{""Q0"":""It looks like a flight of birds""}","","","","","","","","","","","","","","","","","","","","","","",""
"2728.199999988079","","image-slider-response","35","228683","0.0-35.0","A36QGCT3MMXC4Q","","","","","8","","","","","","","","","","","","","","","","","","","","","",""
"null","","image-button-response","36","233697","0.0-36.0","A36QGCT3MMXC4Q","img_art/ins/3.jpg","null","","","","","","","","","","","","","","","","","","","","","","","","",""
"7815","","image-button-response","37","241516","0.0-37.0","A36QGCT3MMXC4Q","img_art/ins/3.jpg","1","","","","","","","","","","","","","","","","","","","","","","","","",""
"1354","","image-button-response","38","242876","0.0-38.0-0.0","A36QGCT3MMXC4Q","img_art/ins/3.jpg","0","","","","","","","","","","","","","","","","","","","","","","","","",""
"1343","","image-button-response","39","244224","0.0-39.0-0.0","A36QGCT3MMXC4Q","img_art/ins/3.jpg","0","","","","","","","","","","","","","","","","","","","","","","","","",""
"810","","image-button-response","40","248081","0.0-39.1-0.1","A36QGCT3MMXC4Q","img_art/ins/3.jpg","3","","","","","","","","","","","","","","","","","","","","","","","","",""
"null","","html-keyboard-response","41","249091","0.0-40.0","A36QGCT3MMXC4Q","<p style=""font-size: 48px;"">+</p>","","","","","null","allTrialResponses","1000","1","0","img_art/ins/3.jpg","8","It looks like a flight of birds","Mary,Kara,Rose,Leslie,Erika,Jen","I like the overlapping of brushes,41,220,20","calming blue is very nice,36,160,20","My daily routine, it's depressing,-20,240,20","It's an alright work,15,200,20","I feel connected to the artist,40,100,20","I can feel a rainy day from this painting,18,120,20","Kara","calming blue is very nice,36,160,20","Mary","I like the overlapping of brushes,41,220,20","Leslie","It's an alright work,15,200,20","2"
"6025","","image-button-response_instructions","42","255128","0.0-41.0","A36QGCT3MMXC4Q","","0","instructions","","","","","","","","","","","","","","","","","","","","","","","",""
"8905","","survey-likert","43","264039","0.0-42.0-0.0","A36QGCT3MMXC4Q","","","","{""Q0"":"""",""Q1"":1,""Q2"":1}","","","","","","","","","","","","","","","","","","","","","","",""
"5785","","survey-likert","44","272942","0.0-42.1-0.1","A36QGCT3MMXC4Q","","","","{""Q0"":"""",""Q1"":0,""Q2"":1}","","","","","","","","","","","","","","","","","","","","","","",""
"3233","","survey-text","45","276188","0.0-43.0-0.0","A36QGCT3MMXC4Q","","","","{""Q0"":""rock""}","","","","","","","","","","","","","","","","","","","","","","",""
"16054","","survey-text","46","292247","0.0-44.0-0.0","A36QGCT3MMXC4Q","","","","{""Q0"":""Very intricate i could look at this for a long time""}","","","","","","","","","","","","","","","","","","","","","","",""
"5730.900000035763","","image-slider-response","47","297984","0.0-45.0","A36QGCT3MMXC4Q","","","","","20","","","","","","","","","","","","","","","","","","","","","",""
"null","","image-button-response","48","303091","0.0-46.0","A36QGCT3MMXC4Q","img_art/14.jpg","null","","","","","","","","","","","","","","","","","","","","","","","","",""
"2355","","image-button-response","49","305451","0.0-47.0","A36QGCT3MMXC4Q","img_art/14.jpg","2","","","","","","","","","","","","","","","","","","","","","","","","",""
"5584","","image-button-response","50","311040","0.0-48.0-0.0","A36QGCT3MMXC4Q","img_art/14.jpg","5","","","","","","","","","","","","","","","","","","","","","","","","",""
"3256","","image-button-response","51","314301","0.0-49.0-0.0","A36QGCT3MMXC4Q","img_art/14.jpg","1","","","","","","","","","","","","","","","","","","","","","","","","",""
"null","","html-keyboard-response","52","314815","0.0-50.0","A36QGCT3MMXC4Q","<p style=""font-size: 48px;"">+</p>","","","","","null","allTrialResponses","500","1","1","img_art/14.jpg","20","Very intricate i could look at this for a long time","Tiffany,Grace,Kaitlin,Sierra,Michelle,Hannah","I feel uncomfortable looking at this painting, it is a mess that needs to be cleaned up.,-16,360,20","Like some of the colors but not much else.,1,180,20","this would make a very beautiful art project,22,60,20","it put me on edge.,-11,260,20","Too abstract with annoying little details. Just draw a regular tree already,-6,280,20","This doesn't speak to me on an emotional level,-6,240,20","Kaitlin","this would make a very beautiful art project,22,60,20","Hannah","This doesn't speak to me on an emotional level,-6,240,20","Grace","Like some of the colors but not much else.,1,180,20","3"
"15433","","survey-text","53","330259","0.0-51.0-0.0","A36QGCT3MMXC4Q","","","","{""Q0"":""my first thought is of snakes""}","","","","","","","","","","","","","","","","","","","","","","",""
"3014","","image-slider-response","54","333281","0.0-52.0","A36QGCT3MMXC4Q","","","","","-17","","","","","","","","","","","","","","","","","","","","","",""
"null","","image-button-response","55","338298","0.0-53.0","A36QGCT3MMXC4Q","img_art/30.jpg","null","","","","","","","","","","","","","","","","","","","","","","","","",""
"2861","","image-button-response","56","341162","0.0-54.0","A36QGCT3MMXC4Q","img_art/30.jpg","1","","","","","","","","","","","","","","","","","","","","","","","","",""
"1668","","image-button-response","57","342836","0.0-55.0-0.0","A36QGCT3MMXC4Q","img_art/30.jpg","5","","","","","","","","","","","","","","","","","","","","","","","","",""
"2486","","image-button-response","58","345326","0.0-56.0-0.0","A36QGCT3MMXC4Q","img_art/30.jpg","0","","","","","","","","","","","","","","","","","","","","","","","","",""
"null","","html-keyboard-response","59","346840","0.0-57.0","A36QGCT3MMXC4Q","<p style=""font-size: 48px;"">+</p>","","","","","null","allTrialResponses","1500","1","2","img_art/30.jpg","-17","my first thought is of snakes","Alexis,Grace,Kaitlin,Jamie,Catherine,Hannah","Too abstract, looks like something I could paint,-50,100,20","A little too dull. Would've liked brighter colors. Also looks washed out.,1,180,20","the different roads to take in life,10,60,20","Cool design and contrast of colors,30,320,20","connection, Everything is connected even in contrast.,42,160,20","It's just all right.,5,240,20","Grace","A little too dull. Would've liked brighter colors. Also looks washed out.,1,180,20","Hannah","It's just all right.,5,240,20","Alexis","Too abstract, looks like something I could paint,-50,100,20","3"
"16829","","survey-text","60","363678","0.0-58.0-0.0","A36QGCT3MMXC4Q","","","","{""Q0"":""I'm not a fan of the collage""}","","","","","","","","","","","","","","","","","","","","","","",""
"2445.5","","image-slider-response","61","366129","0.0-59.0","A36QGCT3MMXC4Q","","","","","-14","","","","","","","","","","","","","","","","","","","","","",""
"null","","image-button-response","62","371139","0.0-60.0","A36QGCT3MMXC4Q","img_art/16.jpg","null","","","","","","","","","","","","","","","","","","","","","","","","",""
"1332","","image-button-response","63","372475","0.0-61.0","A36QGCT3MMXC4Q","img_art/16.jpg","0","","","","","","","","","","","","","","","","","","","","","","","","",""
"2687","","image-button-response","64","375167","0.0-62.0-0.0","A36QGCT3MMXC4Q","img_art/16.jpg","0","","","","","","","","","","","","","","","","","","","","","","","","",""
"1855","","image-button-response","65","382769","0.0-62.1-0.1","A36QGCT3MMXC4Q","img_art/16.jpg","4","","","","","","","","","","","","","","","","","","","","","","","","",""
"4314","","image-button-response","66","387089","0.0-63.0-0.0","A36QGCT3MMXC4Q","img_art/16.jpg","5","","","","","","","","","","","","","","","","","","","","","","","","",""
"null","","html-keyboard-response","67","387603","0.0-64.0","A36QGCT3MMXC4Q","<p style=""font-size: 48px;"">+</p>","","","","","null","allTrialResponses","500","1","3","img_art/16.jpg","-14","I'm not a fan of the collage","Alexis,Grace,Courtney,Kelsey,Brittany,Hannah","Don't like this technique. Too serial killer.,-50,100,20","Something terrible happened. Either the figure on the right is the victim or another shredded toy.,-49,180,20","Hmm i don't know what going on here.,1,280,20","its disturbing! what the heck,-27,240,20","Kind of dull, colors and drawings are not really interesting.,0,40,20","This is weird and a little creepy.,6,240,20","Alexis","Don't like this technique. Too serial killer.,-50,100,20","Brittany","Kind of dull, colors and drawings are not really interesting.,0,40,20","Hannah","This is weird and a little creepy.,6,240,20","5"
"10797","","survey-text","68","398409","0.0-65.0-0.0","A36QGCT3MMXC4Q","","","","{""Q0"":""very dark and disturbing""}","","","","","","","","","","","","","","","","","","","","","","",""
"3828.300000011921","","image-slider-response","69","402245","0.0-66.0","A36QGCT3MMXC4Q","","","","","-30","","","","","","","","","","","","","","","","","","","","","",""
"null","","image-button-response","70","407264","0.0-67.0","A36QGCT3MMXC4Q","img_art/29.jpg","null","","","","","","","","","","","","","","","","","","","","","","","","",""
"613","","image-button-response","71","407880","0.0-68.0","A36QGCT3MMXC4Q","img_art/29.jpg","1","","","","","","","","","","","","","","","","","","","","","","","","",""
"626","","image-button-response","72","408512","0.0-69.0-0.0","A36QGCT3MMXC4Q","img_art/29.jpg","5","","","","","","","","","","","","","","","","","","","","","","","","",""
"1679","","image-button-response","73","410195","0.0-70.0-0.0","A36QGCT3MMXC4Q","img_art/29.jpg","4","","","","","","","","","","","","","","","","","","","","","","","","",""
"null","","html-keyboard-response","74","410700","0.0-71.0","A36QGCT3MMXC4Q","<p style=""font-size: 48px;"">+</p>","","","","","null","allTrialResponses","500","1","4","img_art/29.jpg","-30","very dark and disturbing","Alexis,Bailey,Alyssa,Jasmine,Brittany,Hannah","The black color is great, but I'm really not a fan of this hectic style,-40,100,20","Giant messy blob. Looks like it tries to be edgy, but fails.,-40,360,20","Its interesting although doesnt illicit any strong emotions from me,10,160,20","I like the usage of blacks and greys in this,8,340,20","It looks likes there's a lot going on, but they don't fit together.,2,40,20","I don't like the red X through it.,-20,240,20","Bailey","Giant messy blob. Looks like it tries to be edgy, but fails.,-40,360,20","Hannah","I don't like the red X through it.,-20,240,20","Brittany","It looks likes there's a lot going on, but they don't fit together.,2,40,20","5"
"20754","","survey-text","75","431467","0.0-72.0-0.0","A36QGCT3MMXC4Q","","","","{""Q0"":""looks like an abstract car wreck i like the colors""}","","","","","","","","","","","","","","","","","","","","","","",""
"3729.7999999523163","","image-slider-response","76","435204","0.0-73.0","A36QGCT3MMXC4Q","","","","","9","","","","","","","","","","","","","","","","","","","","","",""
"null","","image-button-response","77","440217","0.0-74.0","A36QGCT3MMXC4Q","img_art/20.jpg","null","","","","","","","","","","","","","","","","","","","","","","","","",""
"1262","","image-button-response","78","441483","0.0-75.0","A36QGCT3MMXC4Q","img_art/20.jpg","4","","","","","","","","","","","","","","","","","","","","","","","","",""
"218","","image-button-response","79","441704","0.0-76.0-0.0","A36QGCT3MMXC4Q","img_art/20.jpg","1","","","","","","","","","","","","","","","","","","","","","","","","",""
"327","","image-button-response","80","442037","0.0-77.0-0.0","A36QGCT3MMXC4Q","img_art/20.jpg","1","","","","","","","","","","","","","","","","","","","","","","","","",""
"4344","","image-button-response","81","449076","0.0-77.1-0.1","A36QGCT3MMXC4Q","img_art/20.jpg","5","","","","","","","","","","","","","","","","","","","","","","","","",""
"null","","html-keyboard-response","82","449593","0.0-78.0","A36QGCT3MMXC4Q","<p style=""font-size: 48px;"">+</p>","","","","","null","allTrialResponses","500","1","5","img_art/20.jpg","9","looks like an abstract car wreck i like the colors","Melissa,Bailey,Erica,Gabriela,Brittany,Hannah","feels underdeveloped,-11,240,20","A bit hectic, but it does have a bit of coolness to it,6,360,20","looks like an auto accident,-30,80,20","it is a bit disturbing, like a monster or ghost floating away from a bleak building,-8,140,20","The colors and the scene depicted is interesting.,13,40,20","Reminds me of the Southwest; i.e. New Mexico or Arizona. It's interesting.,12,240,20","Brittany","The colors and the scene depicted is interesting.,13,40,20","Bailey","A bit hectic, but it does have a bit of coolness to it,6,360,20","Hannah","Reminds me of the Southwest; i.e. New Mexico or Arizona. It's interesting.,12,240,20","7"
"4590","","survey-text","83","454207","0.0-79.0-0.0","A36QGCT3MMXC4Q","","","","{""Q0"":""sky""}","","","","","","","","","","","","","","","","","","","","","","",""
"11093","","survey-text","84","465306","0.0-80.0-0.0","A36QGCT3MMXC4Q","","","","{""Q0"":""messy and too abstract""}","","","","","","","","","","","","","","","","","","","","","","",""
"3532.699999988079","","image-slider-response","85","468845","0.0-81.0","A36QGCT3MMXC4Q","","","","","10","","","","","","","","","","","","","","","","","","","","","",""
"null","","image-button-response","86","473857","0.0-82.0","A36QGCT3MMXC4Q","img_art/26.jpg","null","","","","","","","","","","","","","","","","","","","","","","","","",""
"1044","","image-button-response","87","474905","0.0-83.0","A36QGCT3MMXC4Q","img_art/26.jpg","1","","","","","","","","","","","","","","","","","","","","","","","","",""
"919","","image-button-response","88","475829","0.0-84.0-0.0","A36QGCT3MMXC4Q","img_art/26.jpg","0","","","","","","","","","","","","","","","","","","","","","","","","",""
"4337","","image-button-response","89","480171","0.0-85.0-0.0","A36QGCT3MMXC4Q","img_art/26.jpg","4","","","","","","","","","","","","","","","","","","","","","","","","",""
"null","","html-keyboard-response","90","480682","0.0-86.0","A36QGCT3MMXC4Q","<p style=""font-size: 48px;"">+</p>","","","","","null","allTrialResponses","500","1","6","img_art/26.jpg","10","messy and too abstract","Chloe,Bailey,Kayla,Claire,Brittany,Hannah","Not great use of space and brush strokes seem indistinct/accidental,-30,220,20","Too blocky and unfocused. It's like the inside of a house, and the outside.,-24,360,20","Looks like the suburbs. I live in those.,13,180,20","very impressionistic,11,260,20","It looks boring and too rough.,-9,40,20","This is boring.,-15,240,20","Bailey","Too blocky and unfocused. It's like the inside of a house, and the outside.,-24,360,20","Chloe","Not great use of space and brush strokes seem indistinct/accidental,-30,220,20","Brittany","It looks boring and too rough.,-9,40,20","7"
"20598","","survey-text","91","501291","0.0-87.0-0.0","A36QGCT3MMXC4Q","","","","{""Q0"":""I like the orange color""}","","","","","","","","","","","","","","","","","","","","","","",""
"2871","","image-slider-response","92","504169","0.0-88.0","A36QGCT3MMXC4Q","","","","","7","","","","","","","","","","","","","","","","","","","","","",""
"null","","image-button-response","93","509184","0.0-89.0","A36QGCT3MMXC4Q","img_art/6.jpg","null","","","","","","","","","","","","","","","","","","","","","","","","",""
"642","","image-button-response","94","509831","0.0-90.0","A36QGCT3MMXC4Q","img_art/6.jpg","0","","","","","","","","","","","","","","","","","","","","","","","","",""
"3486","","image-button-response","95","513321","0.0-91.0-0.0","A36QGCT3MMXC4Q","img_art/6.jpg","3","","","","","","","","","","","","","","","","","","","","","","","","",""
"1290","","image-button-response","96","514616","0.0-92.0-0.0","A36QGCT3MMXC4Q","img_art/6.jpg","4","","","","","","","","","","","","","","","","","","","","","","","","",""
"null","","html-keyboard-response","97","515632","0.0-93.0","A36QGCT3MMXC4Q","<p style=""font-size: 48px;"">+</p>","","","","","null","allTrialResponses","1000","1","7","img_art/6.jpg","7","I like the orange color","Chloe,Bailey,Julia,Mariah,Brittany,Rachel","Cute and evocative,11,220,20","Not my favorite, but I like the empty vibe and the imagination it invokes. A skinny girl with long legs, perhaps, looking over a cliff,9,360,20","this is too simple for me,-34,40,20","Clean and simple, a pleasant resting place for the eyes.,21,140,20","It's alright. I imagined the peach from James and the Giant Peach.,1,40,20","Reminds me of a plant poking through the soil. It reminds me of new life.,31,80,20","Chloe","Cute and evocative,11,220,20","Mariah","Clean and simple, a pleasant resting place for the eyes.,21,140,20","Brittany","It's alright. I imagined the peach from James and the Giant Peach.,1,40,20","7"
"23862","","survey-text","98","539506","0.0-94.0-0.0","A36QGCT3MMXC4Q","","","","{""Q0"":""a like the use of nature in the office setting""}","","","","","","","","","","","","","","","","","","","","","","",""
"3938.7999999523163","","image-slider-response","99","543451","0.0-95.0","A36QGCT3MMXC4Q","","","","","27","","","","","","","","","","","","","","","","","","","","","",""
"null","","image-button-response","100","548466","0.0-96.0","A36QGCT3MMXC4Q","img_art/17.jpg","null","","","","","","","","","","","","","","","","","","","","","","","","",""
"754","","image-button-response","101","549224","0.0-97.0","A36QGCT3MMXC4Q","img_art/17.jpg","4","","","","","","","","","","","","","","","","","","","","","","","","",""
"2430","","image-button-response","102","551661","0.0-98.0-0.0","A36QGCT3MMXC4Q","img_art/17.jpg","1","","","","","","","","","","","","","","","","","","","","","","","","",""
"1283","","image-button-response","103","552949","0.0-99.0-0.0","A36QGCT3MMXC4Q","img_art/17.jpg","2","","","","","","","","","","","","","","","","","","","","","","","","",""
"null","","html-keyboard-response","104","553964","0.0-100.0","A36QGCT3MMXC4Q","<p style=""font-size: 48px;"">+</p>","","","","","null","allTrialResponses","1000","1","8","img_art/17.jpg","27","a like the use of nature in the office setting","Chloe,Andrea,Gabrielle,Mariah,Brittany,Mikayla","Pretty but a little cheesy,-10,220,20","A coming storm but I think I would appreciate it more with more contrast.,-12,240,20","nice composition and colors, fairy land,28,160,20","It feels like nature overtaking civilization.,21,140,20","I like the colors and the design.,20,40,20","Doesnt really do anythingb for me.,4,300,20","Brittany","I like the colors and the design.,20,40,20","Andrea","A coming storm but I think I would appreciate it more with more contrast.,-12,240,20","Gabrielle","nice composition and colors, fairy land,28,160,20","7"
"18313","","survey-text","105","572287","0.0-101.0-0.0","A36QGCT3MMXC4Q","","","","{""Q0"":""like the primitive nature""}","","","","","","","","","","","","","","","","","","","","","","",""
"5826.899999976158","","image-slider-response","106","578120","0.0-102.0","A36QGCT3MMXC4Q","","","","","11","","","","","","","","","","","","","","","","","","","","","",""
"null","","image-button-response","107","583137","0.0-103.0","A36QGCT3MMXC4Q","img_art/25.jpg","null","","","","","","","","","","","","","","","","","","","","","","","","",""
"682","","image-button-response","108","583823","0.0-104.0","A36QGCT3MMXC4Q","img_art/25.jpg","4","","","","","","","","","","","","","","","","","","","","","","","","",""
"898","","image-button-response","109","584726","0.0-105.0-0.0","A36QGCT3MMXC4Q","img_art/25.jpg","0","","","","","","","","","","","","","","","","","","","","","","","","",""
"1620","","image-button-response","110","586350","0.0-106.0-0.0","A36QGCT3MMXC4Q","img_art/25.jpg","2","","","","","","","","","","","","","","","","","","","","","","","","",""
"null","","html-keyboard-response","111","587857","0.0-107.0","A36QGCT3MMXC4Q","<p style=""font-size: 48px;"">+</p>","","","","","null","allTrialResponses","1500","1","9","img_art/25.jpg","11","like the primitive nature","Erin,Andrea,Gabrielle,Katherine,Brittany,Cassandra","Looks like glow in the dark halloween decoration,-38,120,20","Looks like Burning Man, dont care for the colors.,-5,240,20","interesting pattern and color choice, kind of unusual,2,160,20","That's pretty awesome. I love the green and black combo, reminds me of one of those cartoon creepy movies,47,120,20","It's a rather intriguing design,12,40,20","I hate the colors and the scene,-46,120,20","Brittany","It's a rather intriguing design,12,40,20","Erin","Looks like glow in the dark halloween decoration,-38,120,20","Gabrielle","interesting pattern and color choice, kind of unusual,2,160,20","7"
"11470","","survey-text","112","599338","0.0-108.0-0.0","A36QGCT3MMXC4Q","","","","{""Q0"":""messy abstract and ugly colors""}","","","","","","","","","","","","","","","","","","","","","","",""
"4879.300000011921","","image-slider-response","113","604223","0.0-109.0","A36QGCT3MMXC4Q","","","","","-32","","","","","","","","","","","","","","","","","","","","","",""
"null","","image-button-response","114","609242","0.0-110.0","A36QGCT3MMXC4Q","img_art/19.jpg","null","","","","","","","","","","","","","","","","","","","","","","","","",""
"1957","","image-button-response","115","611203","0.0-111.0","A36QGCT3MMXC4Q","img_art/19.jpg","4","","","","","","","","","","","","","","","","","","","","","","","","",""
"9085","","image-button-response","116","620293","0.0-112.0-0.0","A36QGCT3MMXC4Q","img_art/19.jpg","5","","","","","","","","","","","","","","","","","","","","","","","","",""
"1243","","image-button-response","117","621542","0.0-113.0-0.0","A36QGCT3MMXC4Q","img_art/19.jpg","2","","","","","","","","","","","","","","","","","","","","","","","","",""
"null","","html-keyboard-response","118","622060","0.0-114.0","A36QGCT3MMXC4Q","<p style=""font-size: 48px;"">+</p>","","","","","null","allTrialResponses","500","1","10","img_art/19.jpg","-32","messy abstract and ugly colors","Erin,Natalie,Gabrielle,Taylor,Brittany,Mary","Childish music hall,-20,120,20","the picture gave me anxiety,-38,400,20","not professional looking but not bad either,13,160,20","It reminds me of sitting at a cafe on the side of a river.,45,340,20","It looks too much of a rough sketch. Don't really enjoy looking at it.,-9,40,20","I interpret an outdoor scene. It's good because it makes me want to look longer.,22,180,20","Brittany","It looks too much of a rough sketch. Don't really enjoy looking at it.,-9,40,20","Mary","I interpret an outdoor scene. It's good because it makes me want to look longer.,22,180,20","Gabrielle","not professional looking but not bad either,13,160,20","7"
"4767","","survey-text","119","626847","0.0-115.0-0.0","A36QGCT3MMXC4Q","","","","{""Q0"":""our""}","","","","","","","","","","","","","","","","","","","","","","",""
"23472","","survey-text","120","650324","0.0-116.0-0.0","A36QGCT3MMXC4Q","","","","{""Q0"":""I like that creatures are hiding""}","","","","","","","","","","","","","","","","","","","","","","",""
"1716.800000011921","","image-slider-response","121","652047","0.0-117.0","A36QGCT3MMXC4Q","","","","","7","","","","","","","","","","","","","","","","","","","","","",""
"null","","image-button-response","122","657059","0.0-118.0","A36QGCT3MMXC4Q","img_art/18.jpg","null","","","","","","","","","","","","","","","","","","","","","","","","",""
"1458","","image-button-response","123","658520","0.0-119.0","A36QGCT3MMXC4Q","img_art/18.jpg","2","","","","","","","","","","","","","","","","","","","","","","","","",""
"3047","","image-button-response","124","661571","0.0-120.0-0.0","A36QGCT3MMXC4Q","img_art/18.jpg","4","","","","","","","","","","","","","","","","","","","","","","","","",""
"1766","","image-button-response","125","663342","0.0-121.0-0.0","A36QGCT3MMXC4Q","img_art/18.jpg","5","","","","","","","","","","","","","","","","","","","","","","","","",""
"null","","html-keyboard-response","126","664857","0.0-122.0","A36QGCT3MMXC4Q","<p style=""font-size: 48px;"">+</p>","","","","","null","allTrialResponses","1500","1","11","img_art/18.jpg","7","I like that creatures are hiding","Brianna,Jennifer,Gabrielle,Breanna,Brittany,Mary","Very eerie and it's spooky,11,20,20","I have no strong feelings about this image,1,380,20","interesting piece, I like the horse and people inserted in spots,22,160,20","Makes me feel confused,16,380,20","This is really interesting to look at. I like the colors and the spectral look.,27,40,20","I like the expression of this piece. The colors are very outdated though.,-5,180,20","Gabrielle","interesting piece, I like the horse and people inserted in spots,22,160,20","Brittany","This is really interesting to look at. I like the colors and the spectral look.,27,40,20","Mary","I like the expression of this piece. The colors are very outdated though.,-5,180,20","7"
"13839","","survey-text","127","678707","0.0-123.0-0.0","A36QGCT3MMXC4Q","","","","{""Q0"":""creepy hand that looks deformed""}","","","","","","","","","","","","","","","","","","","","","","",""
"2715.100000023842","","image-slider-response","128","681428","0.0-124.0","A36QGCT3MMXC4Q","","","","","-29","","","","","","","","","","","","","","","","","","","","","",""
"null","","image-button-response","129","686447","0.0-125.0","A36QGCT3MMXC4Q","img_art/4.jpg","null","","","","","","","","","","","","","","","","","","","","","","","","",""
"4799","","image-button-response","130","691250","0.0-126.0","A36QGCT3MMXC4Q","img_art/4.jpg","0","","","","","","","","","","","","","","","","","","","","","","","","",""
"2097","","image-button-response","131","693351","0.0-127.0-0.0","A36QGCT3MMXC4Q","img_art/4.jpg","1","","","","","","","","","","","","","","","","","","","","","","","","",""
"995","","image-button-response","132","694351","0.0-128.0-0.0","A36QGCT3MMXC4Q","img_art/4.jpg","3","","","","","","","","","","","","","","","","","","","","","","","","",""
"null","","html-keyboard-response","133","695861","0.0-129.0","A36QGCT3MMXC4Q","<p style=""font-size: 48px;"">+</p>","","","","","null","allTrialResponses","1500","1","12","img_art/4.jpg","-29","creepy hand that looks deformed","Christina,Alexandria,Gabrielle,Shelby,Brittany,Mary","not enough color and too yellow for me. Not my favorite colors,-10,240,20","it looks like a simple finger painting, yet i liked the color choices,-12,80,20","too childish, not really art in my world,-50,160,20","The colors feel a bit off to me,-10,240,20","Rather boring design and colors.,-21,40,20","This looks like a child got into his diaper.,-46,180,20","Christina","not enough color and too yellow for me. Not my favorite colors,-10,240,20","Alexandria","it looks like a simple finger painting, yet i liked the color choices,-12,80,20","Shelby","The colors feel a bit off to me,-10,240,20","7"
"14998","","survey-text","134","710872","0.0-130.0-0.0","A36QGCT3MMXC4Q","","","","{""Q0"":""I like the colors but not the stick figures""}","","","","","","","","","","","","","","","","","","","","","","",""
"4798.900000035763","","image-slider-response","135","715677","0.0-131.0","A36QGCT3MMXC4Q","","","","","7","","","","","","","","","","","","","","","","","","","","","",""
"null","","image-button-response","136","720695","0.0-132.0","A36QGCT3MMXC4Q","img_art/27.jpg","null","","","","","","","","","","","","","","","","","","","","","","","","",""
"7747","","image-button-response","137","728445","0.0-133.0","A36QGCT3MMXC4Q","img_art/27.jpg","0","","","","","","","","","","","","","","","","","","","","","","","","",""
"4409","","image-button-response","138","732858","0.0-134.0-0.0","A36QGCT3MMXC4Q","img_art/27.jpg","3","","","","","","","","","","","","","","","","","","","","","","","","",""
"3767","","image-button-response","139","736631","0.0-135.0-0.0","A36QGCT3MMXC4Q","img_art/27.jpg","5","","","","","","","","","","","","","","","","","","","","","","","","",""
"null","","html-keyboard-response","140","737149","0.0-136.0","A36QGCT3MMXC4Q","<p style=""font-size: 48px;"">+</p>","","","","","null","allTrialResponses","500","1","13","img_art/27.jpg","7","I like the colors but not the stick figures","Christina,Alexandria,Angelica,Shelby,Stephanie,Chelsea","I like the orange but it's a little blah,1,240,20","it looks very simple and childlike,-31,80,20","This looks like a poor copy of Cy Twombly's style.,-3,280,20","The colors in this one are wonderful,20,240,20","The black sketchy over the colors doesn't fit.,-4,300,20","The green lines look like a child drew over a painting.,-36,180,20","Christina","I like the orange but it's a little blah,1,240,20","Shelby","The colors in this one are wonderful,20,240,20","Chelsea","The green lines look like a child drew over a painting.,-36,180,20","7"
"12231","","survey-text","141","749392","0.0-137.0-0.0","A36QGCT3MMXC4Q","","","","{""Q0"":""don't like the dark colors""}","","","","","","","","","","","","","","","","","","","","","","",""
"5182.300000011921","","image-slider-response","142","754580","0.0-138.0","A36QGCT3MMXC4Q","","","","","-21","","","","","","","","","","","","","","","","","","","","","",""
"3424","","image-button-response","143","759594","0.0-139.0","A36QGCT3MMXC4Q","img_art/11.jpg","0","","","","","","","","","","","","","","","","","","","","","","","","",""
"6723","","image-button-response","144","766321","0.0-140.0","A36QGCT3MMXC4Q","img_art/11.jpg","0","","","","","","","","","","","","","","","","","","","","","","","","",""
"1530","","image-button-response","145","767857","0.0-141.0-0.0","A36QGCT3MMXC4Q","img_art/11.jpg","5","","","","","","","","","","","","","","","","","","","","","","","","",""
"1488","","image-button-response","146","769352","0.0-142.0-0.0","A36QGCT3MMXC4Q","img_art/11.jpg","1","","","","","","","","","","","","","","","","","","","","","","","","",""
"null","","html-keyboard-response","147","769864","0.0-143.0","A36QGCT3MMXC4Q","<p style=""font-size: 48px;"">+</p>","","","","","null","allTrialResponses","500","1","14","img_art/11.jpg","-21","don't like the dark colors","Christina,Erika,Cynthia,Shelby,Cassidy,Chelsea","I like how it looks like buildings but i'm not a fan of colors,20,240,20","I want to know which skyline the artist is depicting,26,100,20","Sad but hopeful,43,320,20","The movement in this one is extremely pleasent,40,240,20","Love the colors against the black and gray. The lines are calming.,22,140,20","I like the harsh black lines against a soft background.,27,180,20","Christina","I like how it looks like buildings but i'm not a fan of colors,20,240,20","Chelsea","I like the harsh black lines against a soft background.,27,180,20","Erika","I want to know which skyline the artist is depicting,26,100,20","7"
"7219","","survey-text","148","777098","0.0-144.0-0.0","A36QGCT3MMXC4Q","","","","{""Q0"":""creepy big mouth""}","","","","","","","","","","","","","","","","","","","","","","",""
"5781.699999988079","","image-slider-response","149","782877","0.0-145.0","A36QGCT3MMXC4Q","","","","","-37","","","","","","","","","","","","","","","","","","","","","",""
"null","","image-button-response","150","787889","0.0-146.0","A36QGCT3MMXC4Q","img_art/9.jpg","null","","","","","","","","","","","","","","","","","","","","","","","","",""
"4243","","image-button-response","151","792136","0.0-147.0","A36QGCT3MMXC4Q","img_art/9.jpg","2","","","","","","","","","","","","","","","","","","","","","","","","",""
"825","","image-button-response","152","792965","0.0-148.0-0.0","A36QGCT3MMXC4Q","img_art/9.jpg","0","","","","","","","","","","","","","","","","","","","","","","","","",""
"1927","","image-button-response","153","794897","0.0-149.0-0.0","A36QGCT3MMXC4Q","img_art/9.jpg","5","","","","","","","","","","","","","","","","","","","","","","","","",""
"null","","html-keyboard-response","154","796407","0.0-150.0","A36QGCT3MMXC4Q","<p style=""font-size: 48px;"">+</p>","","","","","null","allTrialResponses","1500","1","15","img_art/9.jpg","-37","creepy big mouth","Christina,Erika,Abigail,Lauren,Briana,Chelsea","nice colors but it looks like it's from the 80s,10,240,20","Colorful and expressive,15,100,20","Reminds me of a cave in a scary movie,-21,20,20","I like how design can be interpreted differently, I see a person sleeping or a mountainous region.,10,340,20","I see a foot. Idk colors are pleasant,12,400,20","I don't like the obvious lines of colored pencil on the border.,-24,180,20","Abigail","Reminds me of a cave in a scary movie,-21,20,20","Christina","nice colors but it looks like it's from the 80s,10,240,20","Chelsea","I don't like the obvious lines of colored pencil on the border.,-24,180,20","7"
"8712","","survey-text","155","805141","0.0-151.0-0.0","A36QGCT3MMXC4Q","","","","{""Q0"":""course""}","","","","","","","","","","","","","","","","","","","","","","",""
"38627","","survey-text","156","843773","0.0-152.0-0.0","A36QGCT3MMXC4Q","","","","{""Q0"":""i like the transition of colors""}","","","","","","","","","","","","","","","","","","","","","","",""
"7184.899999976158","","image-slider-response","157","850964","0.0-153.0","A36QGCT3MMXC4Q","","","","","14","","","","","","","","","","","","","","","","","","","","","",""
"null","","image-button-response","158","855981","0.0-154.0","A36QGCT3MMXC4Q","img_art/1.jpg","null","","","","","","","","","","","","","","","","","","","","","","","","",""
"988","","image-button-response","159","856973","0.0-155.0","A36QGCT3MMXC4Q","img_art/1.jpg","0","","","","","","","","","","","","","","","","","","","","","","","","",""
"563","","image-button-response","160","857542","0.0-156.0-0.0","A36QGCT3MMXC4Q","img_art/1.jpg","4","","","","","","","","","","","","","","","","","","","","","","","","",""
"1841","","image-button-response","161","859387","0.0-157.0-0.0","A36QGCT3MMXC4Q","img_art/1.jpg","2","","","","","","","","","","","","","","","","","","","","","","","","",""
"null","","html-keyboard-response","162","859900","0.0-158.0","A36QGCT3MMXC4Q","<p style=""font-size: 48px;"">+</p>","","","","","null","allTrialResponses","500","1","16","img_art/1.jpg","14","i like the transition of colors","Christina,Jacqueline,Abigail,Vanessa,Mackenzie,Chelsea","nice colors but kinds of blah,1,240,20","It's alright but lacks any depth.,-5,300,20","I like the warmth of the picture,21,20,20","I don't like how this one makes me feel.,-32,380,20","I like the simple aspect to the design,21,20,20","The colors are a little too intense.,1,180,20","Christina","nice colors but kinds of blah,1,240,20","Mackenzie","I like the simple aspect to the design,21,20,20","Abigail","I like the warmth of the picture,21,20,20","7"
"9960","","survey-text","163","869874","0.0-159.0-0.0","A36QGCT3MMXC4Q","","","","{""Q0"":""looks like someones hands were dirty""}","","","","","","","","","","","","","","","","","","","","","","",""
"3936.5","","image-slider-response","164","873817","0.0-160.0","A36QGCT3MMXC4Q","","","","","-35","","","","","","","","","","","","","","","","","","","","","",""
"null","","image-button-response","165","878838","0.0-161.0","A36QGCT3MMXC4Q","img_art/10.jpg","null","","","","","","","","","","","","","","","","","","","","","","","","",""
"4622","","image-button-response","166","883464","0.0-162.0","A36QGCT3MMXC4Q","img_art/10.jpg","0","","","","","","","","","","","","","","","","","","","","","","","","",""
"570","","image-button-response","167","884038","0.0-163.0-0.0","A36QGCT3MMXC4Q","img_art/10.jpg","2","","","","","","","","","","","","","","","","","","","","","","","","",""
"1556","","image-button-response","168","885599","0.0-164.0-0.0","A36QGCT3MMXC4Q","img_art/10.jpg","1","","","","","","","","","","","","","","","","","","","","","","","","",""
"null","","html-keyboard-response","169","886612","0.0-165.0","A36QGCT3MMXC4Q","<p style=""font-size: 48px;"">+</p>","","","","","null","allTrialResponses","1000","1","17","img_art/10.jpg","-35","looks like someones hands were dirty","Christina,Leah,Abigail,Meghan,Mackenzie,Haley","It's very dark and angry looking,-31,240,20","Dark with no object, looks like experimentation, slightly like a storm on the ocean,-21,360,20","Looks gross and messy,-39,20,20","kind of reminds me of a map,1,220,20","The design is very fluid and fun to interpret,35,20,20","Makes me want to know more about it, and potentially the artist.,20,220,20","Christina","It's very dark and angry looking,-31,240,20","Abigail","Looks gross and messy,-39,20,20","Leah","Dark with no object, looks like experimentation, slightly like a storm on the ocean,-21,360,20","7"
"7663","","survey-text","170","894287","0.0-166.0-0.0","A36QGCT3MMXC4Q","","","","{""Q0"":""beautiful waterfall""}","","","","","","","","","","","","","","","","","","","","","","",""
"2738.599999964237","","image-slider-response","171","897031","0.0-167.0","A36QGCT3MMXC4Q","","","","","29","","","","","","","","","","","","","","","","","","","","","",""
"null","","image-button-response","172","902052","0.0-168.0","A36QGCT3MMXC4Q","img_art/24.jpg","null","","","","","","","","","","","","","","","","","","","","","","","","",""
"123789","","image-button-response","173","1025843","0.0-169.0","A36QGCT3MMXC4Q","img_art/24.jpg","1","","","","","","","","","","","","","","","","","","","","","","","","",""
"352","","image-button-response","174","1026198","0.0-170.0-0.0","A36QGCT3MMXC4Q","img_art/24.jpg","5","","","","","","","","","","","","","","","","","","","","","","","","",""
"233","","image-button-response","175","1026437","0.0-171.0-0.0","A36QGCT3MMXC4Q","img_art/24.jpg","4","","","","","","","","","","","","","","","","","","","","","","","","",""
"null","","html-keyboard-response","176","1027947","0.0-172.0","A36QGCT3MMXC4Q","<p style=""font-size: 48px;"">+</p>","","","","","null","allTrialResponses","1500","1","18","img_art/24.jpg","29","beautiful waterfall","Christina,Leah,Abigail,Sara,Sabrina,Angela","I like how it looks like a waterfall in an exotic place,50,240,20","Happy, the forest as I would love to see it,50,360,20","Beautiful waterfall I like waterfalls,39,20,20","Beautiful scenic drawing with perfect color coordination,43,160,20","Love the natural vibe,50,120,20","Love the colors in this work, and the sense of motion in the water,36,260,20","Leah","Happy, the forest as I would love to see it,50,360,20","Angela","Love the colors in this work, and the sense of motion in the water,36,260,20","Sabrina","Love the natural vibe,50,120,20","7"
"8178","","survey-text","177","1036137","0.0-173.0-0.0","A36QGCT3MMXC4Q","","","","{""Q0"":""ugly scribbles""}","","","","","","","","","","","","","","","","","","","","","","",""
"2950.800000011921","","image-slider-response","178","1039094","0.0-174.0","A36QGCT3MMXC4Q","","","","","-29","","","","","","","","","","","","","","","","","","","","","",""
"null","","image-button-response","179","1044114","0.0-175.0","A36QGCT3MMXC4Q","img_art/3.jpg","null","","","","","","","","","","","","","","","","","","","","","","","","",""
"518","","image-button-response","180","1044636","0.0-176.0","A36QGCT3MMXC4Q","img_art/3.jpg","0","","","","","","","","","","","","","","","","","","","","","","","","",""
"689","","image-button-response","181","1045329","0.0-177.0-0.0","A36QGCT3MMXC4Q","img_art/3.jpg","1","","","","","","","","","","","","","","","","","","","","","","","","",""
"4169","","image-button-response","182","1049503","0.0-178.0-0.0","A36QGCT3MMXC4Q","img_art/3.jpg","3","","","","","","","","","","","","","","","","","","","","","","","","",""
"null","","html-keyboard-response","183","1050521","0.0-179.0","A36QGCT3MMXC4Q","<p style=""font-size: 48px;"">+</p>","","","","","null","allTrialResponses","1000","1","19","img_art/3.jpg","-29","ugly scribbles","Emily,Leah,Crystal,Emma,Sabrina,Angela","Looks like someone mentalyl unstable drew and is ready to go a a killing spree.,-50,40,20","Scratchy scrawly all one color, looks like a mistake,-28,360,20","I like the abstract flowing lines. It lacks hard rigid marks and flow nicely into a piece of calamity.,32,300,20","Feels upset .......,-10,60,20","I dont really feel anything from this, i cant see or understand any of it,-20,120,20","Like the colors and energy of this work.,10,260,20","Emily","Looks like someone mentalyl unstable drew and is ready to go a a killing spree.,-50,40,20","Leah","Scratchy scrawly all one color, looks like a mistake,-28,360,20","Emma","Feels upset .......,-10,60,20","7"
"12526","","survey-text","184","1063061","0.0-180.0-0.0","A36QGCT3MMXC4Q","","","","{""Q0"":""i like the abstract geometric shapes""}","","","","","","","","","","","","","","","","","","","","","","",""
"2532.699999988079","","image-slider-response","185","1065600","0.0-181.0","A36QGCT3MMXC4Q","","","","","25","","","","","","","","","","","","","","","","","","","","","",""
"null","","image-button-response","186","1070612","0.0-182.0","A36QGCT3MMXC4Q","img_art/8.jpg","null","","","","","","","","","","","","","","","","","","","","","","","","",""
"805","","image-button-response","187","1071421","0.0-183.0","A36QGCT3MMXC4Q","img_art/8.jpg","4","","","","","","","","","","","","","","","","","","","","","","","","",""
"733","","image-button-response","188","1072157","0.0-184.0-0.0","A36QGCT3MMXC4Q","img_art/8.jpg","3","","","","","","","","","","","","","","","","","","","","","","","","",""
"2800","","image-button-response","189","1074962","0.0-185.0-0.0","A36QGCT3MMXC4Q","img_art/8.jpg","0","","","","","","","","","","","","","","","","","","","","","","","","",""
"null","","html-keyboard-response","190","1075471","0.0-186.0","A36QGCT3MMXC4Q","<p style=""font-size: 48px;"">+</p>","","","","","null","allTrialResponses","500","1","20","img_art/8.jpg","25","i like the abstract geometric shapes","Emily,Leah,Michaela,Emma,Savannah,Amy","It is interesting to look at. Abstract but ordered.,9,40,20","Nice formats, I just don't like it much,-16,360,20","It's too boxy for my taste,-10,260,20","Love the colors & block-style,50,60,20","Despite the detail, this picture is very abstract!,31,200,20","The definition and the colors give make this painting accessible and thought provoking.,30,220,20","Savannah","Despite the detail, this picture is very abstract!,31,200,20","Emma","Love the colors & block-style,50,60,20","Emily","It is interesting to look at. Abstract but ordered.,9,40,20","7"
"4155","","survey-text","191","1079651","0.0-187.0-0.0","A36QGCT3MMXC4Q","","","","{""Q0"":""we""}","","","","","","","","","","","","","","","","","","","","","","",""
"9445","","survey-text","192","1089101","0.0-188.0-0.0","A36QGCT3MMXC4Q","","","","{""Q0"":""ugly green color""}","","","","","","","","","","","","","","","","","","","","","","",""
"2638.800000011921","","image-slider-response","193","1091745","0.0-189.0","A36QGCT3MMXC4Q","","","","","-21","","","","","","","","","","","","","","","","","","","","","",""
"null","","image-button-response","194","1096758","0.0-190.0","A36QGCT3MMXC4Q","img_art/2.jpg","null","","","","","","","","","","","","","","","","","","","","","","","","",""
"1864","","image-button-response","195","1098625","0.0-191.0","A36QGCT3MMXC4Q","img_art/2.jpg","1","","","","","","","","","","","","","","","","","","","","","","","","",""
"1345","","image-button-response","196","1099975","0.0-192.0-0.0","A36QGCT3MMXC4Q","img_art/2.jpg","2","","","","","","","","","","","","","","","","","","","","","","","","",""
"2688","","image-button-response","197","1102668","0.0-193.0-0.0","A36QGCT3MMXC4Q","img_art/2.jpg","3","","","","","","","","","","","","","","","","","","","","","","","","",""
"null","","html-keyboard-response","198","1103171","0.0-194.0","A36QGCT3MMXC4Q","<p style=""font-size: 48px;"">+</p>","","","","","null","allTrialResponses","500","1","21","img_art/2.jpg","-21","ugly green color","Emily,Jenna,Brooke,Emma,Savannah,Kristen","Random colors and shapes mashed together. Nothing artistic, but better than some of the other ones.,-37,40,20","the colors are a bit odd, and the squiggly line at the top is distracting,0,360,20","Ugly version of that park painting.,-31,60,20","Don't love the colors,-30,60,20","Very gross colors. What were they thinking?,-47,200,20","smilely face, soulful,11,280,20","Jenna","the colors are a bit odd, and the squiggly line at the top is distracting,0,360,20","Brooke","Ugly version of that park painting.,-31,60,20","Emma","Don't love the colors,-30,60,20","7"
"9493","","survey-text","199","1112679","0.0-195.0-0.0","A36QGCT3MMXC4Q","","","","{""Q0"":""very plain muted colors""}","","","","","","","","","","","","","","","","","","","","","","",""
"2541.899999976158","","image-slider-response","200","1115226","0.0-196.0","A36QGCT3MMXC4Q","","","","","-22","","","","","","","","","","","","","","","","","","","","","",""
"null","","image-button-response","201","1120237","0.0-197.0","A36QGCT3MMXC4Q","img_art/12.jpg","null","","","","","","","","","","","","","","","","","","","","","","","","",""
"609","","image-button-response","202","1120850","0.0-198.0","A36QGCT3MMXC4Q","img_art/12.jpg","5","","","","","","","","","","","","","","","","","","","","","","","","",""
"2101","","image-button-response","203","1122955","0.0-199.0-0.0","A36QGCT3MMXC4Q","img_art/12.jpg","0","","","","","","","","","","","","","","","","","","","","","","","","",""
"1466","","image-button-response","204","1124427","0.0-200.0-0.0","A36QGCT3MMXC4Q","img_art/12.jpg","3","","","","","","","","","","","","","","","","","","","","","","","","",""
"null","","html-keyboard-response","205","1125443","0.0-201.0","A36QGCT3MMXC4Q","<p style=""font-size: 48px;"">+</p>","","","","","null","allTrialResponses","1000","1","22","img_art/12.jpg","-22","very plain muted colors","Kimberly,Jenna,Brooke,Emma,Danielle,Allison","Just not a fan, I can't figure out why,-17,260,20","interesting, but feels like someone cut up a picture and pasted it together wrong. want to see the original,15,360,20","Dislike the style, the sharp rectangular pattern very jarring.,-20,60,20","Pretty but not a huge fan of the colors,20,60,20","Kind of interesting, seems almost nostalgic in a way to me.,10,340,20","Minimalist colors and shapes.,-5,140,20","Allison","Minimalist colors and shapes.,-5,140,20","Kimberly","Just not a fan, I can't figure out why,-17,260,20","Emma","Pretty but not a huge fan of the colors,20,60,20","7"
"15673","","survey-text","206","1141130","0.0-202.0-0.0","A36QGCT3MMXC4Q","","","","{""Q0"":""i like the touches of blue""}","","","","","","","","","","","","","","","","","","","","","","",""
"4528.199999988079","","image-slider-response","207","1145665","0.0-203.0","A36QGCT3MMXC4Q","","","","","40","","","","","","","","","","","","","","","","","","","","","",""
"null","","image-button-response","208","1150674","0.0-204.0","A36QGCT3MMXC4Q","img_art/15.jpg","null","","","","","","","","","","","","","","","","","","","","","","","","",""
"801","","image-button-response","209","1151479","0.0-205.0","A36QGCT3MMXC4Q","img_art/15.jpg","3","","","","","","","","","","","","","","","","","","","","","","","","",""
"1076","","image-button-response","210","1152560","0.0-206.0-0.0","A36QGCT3MMXC4Q","img_art/15.jpg","5","","","","","","","","","","","","","","","","","","","","","","","","",""
"1218","","image-button-response","211","1153783","0.0-207.0-0.0","A36QGCT3MMXC4Q","img_art/15.jpg","0","","","","","","","","","","","","","","","","","","","","","","","","",""
"null","","html-keyboard-response","212","1155299","0.0-208.0","A36QGCT3MMXC4Q","<p style=""font-size: 48px;"">+</p>","","","","","null","allTrialResponses","1500","1","23","img_art/15.jpg","40","i like the touches of blue","Kimberly,Heather,Maria,Emma,Katelyn,Allison","it looks like lavender,10,260,20","black leaves makes the blue birds stand out.,1,260,20","i enjoy its apaprent simplicity (of colour and shape),32,120,20","Don't love it but it's cute,16,60,20","Doesnt trigger much of a reaction overall,-2,100,20","Eyes hunt for the blue in the black.,5,140,20","Emma","Don't love it but it's cute,16,60,20","Allison","Eyes hunt for the blue in the black.,5,140,20","Kimberly","it looks like lavender,10,260,20","7"
"18439","","survey-text","213","1173753","0.0-209.0-0.0","A36QGCT3MMXC4Q","","","","{""Q0"":""I like the paint splatter and colors""}","","","","","","","","","","","","","","","","","","","","","","",""
"3116.400000035763","","image-slider-response","214","1176879","0.0-210.0","A36QGCT3MMXC4Q","","","","","14","","","","","","","","","","","","","","","","","","","","","",""
"null","","image-button-response","215","1181889","0.0-211.0","A36QGCT3MMXC4Q","img_art/13.jpg","null","","","","","","","","","","","","","","","","","","","","","","","","",""
"2823","","image-button-response","216","1184716","0.0-212.0","A36QGCT3MMXC4Q","img_art/13.jpg","3","","","","","","","","","","","","","","","","","","","","","","","","",""
"725","","image-button-response","217","1185446","0.0-213.0-0.0","A36QGCT3MMXC4Q","img_art/13.jpg","2","","","","","","","","","","","","","","","","","","","","","","","","",""
"1882","","image-button-response","218","1187334","0.0-214.0-0.0","A36QGCT3MMXC4Q","img_art/13.jpg","5","","","","","","","","","","","","","","","","","","","","","","","","",""
"null","","html-keyboard-response","219","1188850","0.0-215.0","A36QGCT3MMXC4Q","<p style=""font-size: 48px;"">+</p>","","","","","null","allTrialResponses","1500","1","24","img_art/13.jpg","14","I like the paint splatter and colors","Kimberly,Leslie,Nicole,Emma,Morgan,Allison","It's like a pattern on a bus seat,10,260,20","This elicits no reaction in me.,0,380,20","It's pretty basic but it makes me feel like I'm looking at the ocean,30,20,20","It's pretty ...........,41,60,20","Seeing the world through different lenses.,15,380,20","Generic mix of colors. Cool and messy.,10,140,20","Emma","It's pretty ...........,41,60,20","Nicole","It's pretty basic but it makes me feel like I'm looking at the ocean,30,20,20","Allison","Generic mix of colors. Cool and messy.,10,140,20","7"
"9824","","survey-text","220","1198690","0.0-216.0-0.0","A36QGCT3MMXC4Q","","","","{""Q0"":""too simple""}","","","","","","","","","","","","","","","","","","","","","","",""
"2149.5","","image-slider-response","221","1200845","0.0-217.0","A36QGCT3MMXC4Q","","","","","-17","","","","","","","","","","","","","","","","","","","","","",""
"null","","image-button-response","222","1205864","0.0-218.0","A36QGCT3MMXC4Q","img_art/5.jpg","null","","","","","","","","","","","","","","","","","","","","","","","","",""
"587","","image-button-response","223","1206454","0.0-219.0","A36QGCT3MMXC4Q","img_art/5.jpg","3","","","","","","","","","","","","","","","","","","","","","","","","",""
"699","","image-button-response","224","1207159","0.0-220.0-0.0","A36QGCT3MMXC4Q","img_art/5.jpg","4","","","","","","","","","","","","","","","","","","","","","","","","",""
"1040","","image-button-response","225","1208204","0.0-221.0-0.0","A36QGCT3MMXC4Q","img_art/5.jpg","5","","","","","","","","","","","","","","","","","","","","","","","","",""
"null","","html-keyboard-response","226","1208710","0.0-222.0","A36QGCT3MMXC4Q","<p style=""font-size: 48px;"">+</p>","","","","","null","allTrialResponses","500","1","25","img_art/5.jpg","-17","too simple","Autumn,Sydney,Nicole,Emma,Cheyenne,Allison","Appealing but shapeless,24,340,20","I'm reminded of a volcano with weird colors.,-5,320,20","I hate the shapes,-30,20,20","Kind of ugly ....,-21,60,20","Very little going on.,-4,200,20","Too loud. Dislike the bright yellow.,-5,140,20","Emma","Kind of ugly ....,-21,60,20","Cheyenne","Very little going on.,-4,200,20","Allison","Too loud. Dislike the bright yellow.,-5,140,20","7"
"4180","","survey-text","227","1212919","0.0-223.0-0.0","A36QGCT3MMXC4Q","","","","{""Q0"":""table""}","","","","","","","","","","","","","","","","","","","","","","",""
"9990","","survey-text","228","1222917","0.0-224.0-0.0","A36QGCT3MMXC4Q","","","","{""Q0"":""I love the muted pastel colors""}","","","","","","","","","","","","","","","","","","","","","","",""
"2214","","image-slider-response","229","1225138","0.0-225.0","A36QGCT3MMXC4Q","","","","","23","","","","","","","","","","","","","","","","","","","","","",""
"null","","image-button-response","230","1230156","0.0-226.0","A36QGCT3MMXC4Q","img_art/21.jpg","null","","","","","","","","","","","","","","","","","","","","","","","","",""
"584","","image-button-response","231","1230743","0.0-227.0","A36QGCT3MMXC4Q","img_art/21.jpg","0","","","","","","","","","","","","","","","","","","","","","","","","",""
"1810","","image-button-response","232","1232558","0.0-228.0-0.0","A36QGCT3MMXC4Q","img_art/21.jpg","3","","","","","","","","","","","","","","","","","","","","","","","","",""
"1157","","image-button-response","233","1233720","0.0-229.0-0.0","A36QGCT3MMXC4Q","img_art/21.jpg","5","","","","","","","","","","","","","","","","","","","","","","","","",""
"null","","html-keyboard-response","234","1235235","0.0-230.0","A36QGCT3MMXC4Q","<p style=""font-size: 48px;"">+</p>","","","","","null","allTrialResponses","1500","1","26","img_art/21.jpg","23","I love the muted pastel colors","Makayla,Elizabeth,Paige,Emma,Cheyenne,Allison","I like the two sides meeting, like a movie scene,15,80,20","Touches the heart,50,20,20","the picture is boring,1,60,20","Pretty, good colors,30,60,20","Don't see anything special about it,-21,200,20","I like color mix here,15,140,20","Makayla","I like the two sides meeting, like a movie scene,15,80,20","Emma","Pretty, good colors,30,60,20","Allison","I like color mix here,15,140,20","7"
"19506","","survey-text","235","1254757","0.0-231.0-0.0","A36QGCT3MMXC4Q","","","","{""Q0"":""looks like there should be words in the middle""}","","","","","","","","","","","","","","","","","","","","","","",""
"3894.199999988079","","image-slider-response","236","1258658","0.0-232.0","A36QGCT3MMXC4Q","","","","","-11","","","","","","","","","","","","","","","","","","","","","",""
"null","","image-button-response","237","1263669","0.0-233.0","A36QGCT3MMXC4Q","img_art/23.jpg","null","","","","","","","","","","","","","","","","","","","","","","","","",""
"4110","","image-button-response","238","1267784","0.0-234.0","A36QGCT3MMXC4Q","img_art/23.jpg","3","","","","","","","","","","","","","","","","","","","","","","","","",""
"2149","","image-button-response","239","1269937","0.0-235.0-0.0","A36QGCT3MMXC4Q","img_art/23.jpg","0","","","","","","","","","","","","","","","","","","","","","","","","",""
"1098","","image-button-response","240","1271039","0.0-236.0-0.0","A36QGCT3MMXC4Q","img_art/23.jpg","4","","","","","","","","","","","","","","","","","","","","","","","","",""
"null","","html-keyboard-response","241","1272043","0.0-237.0","A36QGCT3MMXC4Q","<p style=""font-size: 48px;"">+</p>","","","","","null","allTrialResponses","1000","1","27","img_art/23.jpg","-11","looks like there should be words in the middle","Makayla,Anna,Kylie,Emma,Samantha,Allison","Reminds me of disco/70's, not my favorite design,-12,80,20","I love the colors and the contrast.,50,300,20","Universal celebration,40,300,20","Love the use of colors and light,50,60,20","The more i look at it the more i like it  the dots of color and very interesting,50,140,20","I like the color contrast, though I'm unable to tell what the white shapes are.,25,140,20","Emma","Love the use of colors and light,50,60,20","Makayla","Reminds me of disco/70's, not my favorite design,-12,80,20","Samantha","The more i look at it the more i like it  the dots of color and very interesting,50,140,20","7"
"9715","","survey-text","242","1281775","0.0-238.0-0.0","A36QGCT3MMXC4Q","","","","{""Q0"":""I like the combination of colors""}","","","","","","","","","","","","","","","","","","","","","","",""
"7723.699999988079","","image-slider-response","243","1289504","0.0-239.0","A36QGCT3MMXC4Q","","","","","13","","","","","","","","","","","","","","","","","","","","","",""
"null","","image-button-response","244","1294515","0.0-240.0","A36QGCT3MMXC4Q","img_art/22.jpg","null","","","","","","","","","","","","","","","","","","","","","","","","",""
"1091","","image-button-response","245","1295609","0.0-241.0","A36QGCT3MMXC4Q","img_art/22.jpg","2","","","","","","","","","","","","","","","","","","","","","","","","",""
"612","","image-button-response","246","1296228","0.0-242.0-0.0","A36QGCT3MMXC4Q","img_art/22.jpg","5","","","","","","","","","","","","","","","","","","","","","","","","",""
"1349","","image-button-response","247","1297583","0.0-243.0-0.0","A36QGCT3MMXC4Q","img_art/22.jpg","3","","","","","","","","","","","","","","","","","","","","","","","","",""
"null","","html-keyboard-response","248","1298598","0.0-244.0","A36QGCT3MMXC4Q","<p style=""font-size: 48px;"">+</p>","","","","","null","allTrialResponses","1000","1","28","img_art/22.jpg","13","I like the combination of colors","Makayla,Kaylee,Kathryn,Emma,Samantha,Miranda","Just neutral no feelings,2,80,20","its just ugly for me,-50,200,20","This piece gives off a cool vibe. Reminds me of being out in the city at night.,20,140,20","Love the use of color,50,60,20","Pretty colors but something seems sinister about it,25,140,20","Its very warm, it reminds of someone not liking their painting so they destoryed it,26,320,20","Kathryn","This piece gives off a cool vibe. Reminds me of being out in the city at night.,20,140,20","Miranda","Its very warm, it reminds of someone not liking their painting so they destoryed it,26,320,20","Emma","Love the use of color,50,60,20","7"
"13977","","survey-text","249","1312592","0.0-245.0-0.0","A36QGCT3MMXC4Q","","","","{""Q0"":""looks like dog foot prints in the sand""}","","","","","","","","","","","","","","","","","","","","","","",""
"1604.4000000357628","","image-slider-response","250","1314202","0.0-246.0","A36QGCT3MMXC4Q","","","","","-20","","","","","","","","","","","","","","","","","","","","","",""
"null","","image-button-response","251","1319221","0.0-247.0","A36QGCT3MMXC4Q","img_art/7.jpg","null","","","","","","","","","","","","","","","","","","","","","","","","",""
"2098","","image-button-response","252","1321322","0.0-248.0","A36QGCT3MMXC4Q","img_art/7.jpg","0","","","","","","","","","","","","","","","","","","","","","","","","",""
"1193","","image-button-response","253","1322520","0.0-249.0-0.0","A36QGCT3MMXC4Q","img_art/7.jpg","1","","","","","","","","","","","","","","","","","","","","","","","","",""
"4078","","image-button-response","254","1326603","0.0-250.0-0.0","A36QGCT3MMXC4Q","img_art/7.jpg","5","","","","","","","","","","","","","","","","","","","","","","","","",""
"null","","html-keyboard-response","255","1327109","0.0-251.0","A36QGCT3MMXC4Q","<p style=""font-size: 48px;"">+</p>","","","","","null","allTrialResponses","500","1","29","img_art/7.jpg","-20","looks like dog foot prints in the sand","Caitlin,Victoria,Kathryn,Emma,Laura,Miranda","Looks like a photo taken from the moon.,-6,80,20","looks like a photograph,-4,400,20","It's off-putting because it reminds me of walking over rough sand/rocks or having scabs on my skin.,-10,140,20","Cool, makes me think of archeology,15,60,20","I feel thirsty - reminds me of desert sand,11,320,20","This looks like a literal picture of the ground so I'm really not too sure about this one.,-42,320,20","Caitlin","Looks like a photo taken from the moon.,-6,80,20","Victoria","looks like a photograph,-4,400,20","Miranda","This looks like a literal picture of the ground so I'm really not too sure about this one.,-42,320,20","7"
"12602","","survey-text","256","1339731","0.0-252.0-0.0","A36QGCT3MMXC4Q","","","","{""Q0"":""I don't like the muted colors""}","","","","","","","","","","","","","","","","","","","","","","",""
"3673.600000023842","","image-slider-response","257","1343411","0.0-253.0","A36QGCT3MMXC4Q","","","","","-24","","","","","","","","","","","","","","","","","","","","","",""
"null","","image-button-response","258","1348425","0.0-254.0","A36QGCT3MMXC4Q","img_art/28.jpg","null","","","","","","","","","","","","","","","","","","","","","","","","",""
"364","","image-button-response","259","1348791","0.0-255.0","A36QGCT3MMXC4Q","img_art/28.jpg","1","","","","","","","","","","","","","","","","","","","","","","","","",""
"1838","","image-button-response","260","1350632","0.0-256.0-0.0","A36QGCT3MMXC4Q","img_art/28.jpg","2","","","","","","","","","","","","","","","","","","","","","","","","",""
"2652","","image-button-response","261","1353289","0.0-257.0-0.0","A36QGCT3MMXC4Q","img_art/28.jpg","4","","","","","","","","","","","","","","","","","","","","","","","","",""
"null","","html-keyboard-response","262","1354800","0.0-258.0","A36QGCT3MMXC4Q","<p style=""font-size: 48px;"">+</p>","","","","","null","allTrialResponses","1500","1","30","img_art/28.jpg","-24","I don't like the muted colors","Caitlin,Victoria,Lindsey,Jordan,Margaret,Miranda","Bug meets bug in a dark alley.,-20,80,20","drab and dreary,-21,400,20","Not a fan of the drab colors but it looks a little bit interesting.,-7,400,20","It's a bike that was left abandoned by someone who doesnt care for it,1,20,20","i like the neutral color pallette but i dont know what i am looking at,26,100,20","This one looks very dark and seems like it has a lot of depth to it.,31,320,20","Victoria","drab and dreary,-21,400,20","Lindsey","Not a fan of the drab colors but it looks a little bit interesting.,-7,400,20","Margaret","i like the neutral color pallette but i dont know what i am looking at,26,100,20","7"
"3129","","image-button-response_instructions","263","1357951","0.0-259.0","A36QGCT3MMXC4Q","","0","instructions","","","","","","","","","","","","","","","","","","","","","","","",""
"1813","","image-button-response","264","1359781","0.0-260.0","A36QGCT3MMXC4Q","","0","","","","","","","","","","","","","","","","","","","","","","","","",""
