"rt","url","trial_type","trial_index","time_elapsed","internal_node_id","participant_id","stimulus","button_pressed","Name","responses","response","key_press","variableName","fixationTime","condition","trial","photo","subjectRating","subjectResponse","agentsNames","agent_1_Response","agent_2_Response","agent_3_Response","agent_4_Response","agent_5_Response","agent_6_Response","kept_1_name","kept_1_response","kept_2_name","kept_2_response","kept_3_name","kept_3_response","errorCounter"
"24865","external_page_harvard.html","external-html","0","25283","0.0-0.0","A36SNKUPZRJMHX","","","","","","","","","","","","","","","","","","","","","","","","","","",""
"5297","","image-button-response","1","30591","0.0-1.0","A36SNKUPZRJMHX","","1","","","","","","","","","","","","","","","","","","","","","","","","",""
"3584","","image-button-response","2","34196","0.0-2.0-0.0","A36SNKUPZRJMHX","","1","phone","","","","","","","","","","","","","","","","","","","","","","","",""
"12901","","survey-text","3","47104","0.0-3.0-0.0","A36SNKUPZRJMHX","","","","{""Q0"":""A36SNKUPZRJMHX""}","","","","","","","","","","","","","","","","","","","","","","",""
"15429","","image-button-response_instructions","4","62542","0.0-4.0","A36SNKUPZRJMHX","","0","instructions","","","","","","","","","","","","","","","","","","","","","","","",""
"38236","","image-button-response_instructions","5","100783","0.0-5.0","A36SNKUPZRJMHX","img_art/ins/popularity/ins1.png","0","instructions","","","","","","","","","","","","","","","","","","","","","","","",""
"10489","","image-button-response_instructions","6","111278","0.0-6.0","A36SNKUPZRJMHX","img_art/ins/popularity/ins2.png","0","instructions","","","","","","","","","","","","","","","","","","","","","","","",""
"9041","","image-button-response_instructions","7","120326","0.0-7.0","A36SNKUPZRJMHX","img_art/ins/popularity/ins2Extreme.png","0","instructions","","","","","","","","","","","","","","","","","","","","","","","",""
"33847","","image-button-response_instructions","8","154182","0.0-8.0","A36SNKUPZRJMHX","img_art/ins/popularity/ins3KEEPpop.PNG","0","instructions","","","","","","","","","","","","","","","","","","","","","","","",""
"8129","","image-button-response_instructions","9","162318","0.0-9.0","A36SNKUPZRJMHX","img_art/ins/popularity/ins3ANamepop.PNG","0","instructions","","","","","","","","","","","","","","","","","","","","","","","",""
"5670","","image-button-response_instructions","10","167993","0.0-10.0","A36SNKUPZRJMHX","img_art/ins/popularity/ins3ARatingpop.png","0","instructions","","","","","","","","","","","","","","","","","","","","","","","",""
"6258","","image-button-response_instructions","11","174256","0.0-11.0","A36SNKUPZRJMHX","img_art/ins/popularity/ins3ATextpop.png","0","instructions","","","","","","","","","","","","","","","","","","","","","","","",""
"12693","","image-button-response_instructions","12","186954","0.0-12.0","A36SNKUPZRJMHX","img_art/ins/popularity/ins3ALikespop.png","0","instructions","","","","","","","","","","","","","","","","","","","","","","","",""
"16280","","image-button-response_instructions","13","203238","0.0-13.0","A36SNKUPZRJMHX","img_art/ins/popularity/ins3KEEPpop.PNG","0","instructions","","","","","","","","","","","","","","","","","","","","","","","",""
"20660","","image-button-response_instructions","14","223904","0.0-14.0","A36SNKUPZRJMHX","img_art/ins/popularity/ins3_5RED.png","0","instructions","","","","","","","","","","","","","","","","","","","","","","","",""
"5418","","image-button-response_instructions","15","229327","0.0-15.0","A36SNKUPZRJMHX","img_art/ins/popularity/ins3KEEPpop.PNG","0","instructions","","","","","","","","","","","","","","","","","","","","","","","",""
"11993","","image-button-response_instructions","16","241327","0.0-16.0","A36SNKUPZRJMHX","img_art/ins/popularity/ins4KEEPpop.PNG","0","instructions","","","","","","","","","","","","","","","","","","","","","","","",""
"18207","","image-button-response_instructions","17","259540","0.0-17.0","A36SNKUPZRJMHX","img_art/ins/popularity/ins5KEEPpop.PNG","0","instructions","","","","","","","","","","","","","","","","","","","","","","","",""
"2156","","image-button-response_instructions","18","261700","0.0-18.0","A36SNKUPZRJMHX","","0","instructions","","","","","","","","","","","","","","","","","","","","","","","",""
"10526","","survey-text","19","272311","0.0-19.0-0.0","A36SNKUPZRJMHX","","","","{""Q0"":""but""}","","","","","","","","","","","","","","","","","","","","","","",""
"80156","","survey-text","20","352474","0.0-20.0-0.0","A36SNKUPZRJMHX","","","","{""Q0"":""Not something I would hang on a wall.""}","","","","","","","","","","","","","","","","","","","","","","",""
"21509","","image-slider-response","21","373995","0.0-21.0","A36SNKUPZRJMHX","","","","","-50","","","","","","","","","","","","","","","","","","","","","",""
"null","","image-button-response","22","379006","0.0-22.0","A36SNKUPZRJMHX","img_art/ins/1.jpg","null","","","","","","","","","","","","","","","","","","","","","","","","",""
"11985","","image-button-response","23","390997","0.0-23.0","A36SNKUPZRJMHX","img_art/ins/1.jpg","3","","","","","","","","","","","","","","","","","","","","","","","","",""
"3522","","image-button-response","24","394526","0.0-24.0-0.0","A36SNKUPZRJMHX","img_art/ins/1.jpg","2","","","","","","","","","","","","","","","","","","","","","","","","",""
"3144","","image-button-response","25","397679","0.0-25.0-0.0","A36SNKUPZRJMHX","img_art/ins/1.jpg","1","","","","","","","","","","","","","","","","","","","","","","","","",""
"null","","html-keyboard-response","26","398686","0.0-26.0","A36SNKUPZRJMHX","<p style=""font-size: 48px;"">+</p>","","","","","null","allTrialResponses","1000","1","-2","img_art/ins/1.jpg","-50","Not something I would hang on a wall.","Allison,Ashley,Beth,Dora,Erika,Jen","looks like a lot of things going on in the mist,20,20,20","I just don't get why these type of art would be popular,-32,40,20","This color reminds me of poo,-46,60,20","looks like what my niece in 3rd grade did this afternoon,-50,80,20","I like the sophisticated brushwork,40,100,20","It reminds me of a candy land dream I had,36,120,20","Dora","looks like what my niece in 3rd grade did this afternoon,-50,80,20","Beth","This color reminds me of poo,-46,60,20","Ashley","I just don't get why these type of art would be popular,-32,40,20","0"
"57940","","survey-text","27","456651","0.0-27.0-0.0","A36SNKUPZRJMHX","","","","{""Q0"":""The piece makes me feel anxious.""}","","","","","","","","","","","","","","","","","","","","","","",""
"18569","","image-slider-response","28","475226","0.0-28.0","A36SNKUPZRJMHX","","","","","-40","","","","","","","","","","","","","","","","","","","","","",""
"null","","image-button-response","29","480235","0.0-29.0","A36SNKUPZRJMHX","img_art/ins/2.jpg","null","","","","","","","","","","","","","","","","","","","","","","","","",""
"3797","","image-button-response","30","484036","0.0-30.0","A36SNKUPZRJMHX","img_art/ins/2.jpg","2","","","","","","","","","","","","","","","","","","","","","","","","",""
"8270","","image-button-response","31","492312","0.0-31.0-0.0","A36SNKUPZRJMHX","img_art/ins/2.jpg","1","","","","","","","","","","","","","","","","","","","","","","","","",""
"3062","","image-button-response","32","495383","0.0-32.0-0.0","A36SNKUPZRJMHX","img_art/ins/2.jpg","3","","","","","","","","","","","","","","","","","","","","","","","","",""
"null","","html-keyboard-response","33","495893","0.0-33.0","A36SNKUPZRJMHX","<p style=""font-size: 48px;"">+</p>","","","","","null","allTrialResponses","500","1","-1","img_art/ins/2.jpg","-40","The piece makes me feel anxious.","Jenna,Ashley,Beth,Dora,Kara,Katie","One of my pet peevs,-48,140,20","Idk, it is just annoying,-32,40,20","meaningless painting,-45,60,20","looks too angry,-50,80,20","I like the blocks of color arrangements,30,160,20","too much color!,-28,180,20","Beth","meaningless painting,-45,60,20","Ashley","Idk, it is just annoying,-32,40,20","Dora","looks too angry,-50,80,20","0"
"83842","","survey-text","34","579750","0.0-34.0-0.0","A36SNKUPZRJMHX","","","","{""Q0"":""The blues are pleasant in this piece.""}","","","","","","","","","","","","","","","","","","","","","","",""
"24339","","image-slider-response","35","604098","0.0-35.0","A36SNKUPZRJMHX","","","","","20","","","","","","","","","","","","","","","","","","","","","",""
"null","","image-button-response","36","609106","0.0-36.0","A36SNKUPZRJMHX","img_art/ins/3.jpg","null","","","","","","","","","","","","","","","","","","","","","","","","",""
"11250","","image-button-response","37","620360","0.0-37.0","A36SNKUPZRJMHX","img_art/ins/3.jpg","0","","","","","","","","","","","","","","","","","","","","","","","","",""
"15291","","image-button-response","38","635658","0.0-38.0-0.0","A36SNKUPZRJMHX","img_art/ins/3.jpg","4","","","","","","","","","","","","","","","","","","","","","","","","",""
"7260","","image-button-response","39","642924","0.0-39.0-0.0","A36SNKUPZRJMHX","img_art/ins/3.jpg","0","","","","","","","","","","","","","","","","","","","","","","","","",""
"25463","","image-button-response","40","675160","0.0-39.1-0.1","A36SNKUPZRJMHX","img_art/ins/3.jpg","1","","","","","","","","","","","","","","","","","","","","","","","","",""
"null","","html-keyboard-response","41","676665","0.0-40.0","A36SNKUPZRJMHX","<p style=""font-size: 48px;"">+</p>","","","","","null","allTrialResponses","1500","1","0","img_art/ins/3.jpg","20","The blues are pleasant in this piece.","Leslie,Ashley,Beth,Dora,Mary,Rose","It's an alright work,15,200,20","It looks like a playground for bats,-36,40,20","This thing gives me anxiety,-41,60,20","My worst nightmare,-42,80,20","I like the overlapping of brushes,41,220,20","My daily routine, it's depressing,-20,240,20","Leslie","It's an alright work,15,200,20","Mary","I like the overlapping of brushes,41,220,20","Ashley","It looks like a playground for bats,-36,40,20","2"
"8721","","image-button-response_instructions","42","685403","0.0-41.0","A36SNKUPZRJMHX","","0","instructions","","","","","","","","","","","","","","","","","","","","","","","",""
"20405","","survey-likert","43","705815","0.0-42.0-0.0","A36SNKUPZRJMHX","","","","{""Q0"":"""",""Q1"":0,""Q2"":1}","","","","","","","","","","","","","","","","","","","","","","",""
"5991","","survey-text","44","711818","0.0-43.0-0.0","A36SNKUPZRJMHX","","","","{""Q0"":""rock""}","","","","","","","","","","","","","","","","","","","","","","",""
"61315","","survey-text","45","773138","0.0-44.0-0.0","A36SNKUPZRJMHX","","","","{""Q0"":""Someone accidently spilled paint on a painting of a room.""}","","","","","","","","","","","","","","","","","","","","","","",""
"10983","","image-slider-response","46","784129","0.0-45.0","A36SNKUPZRJMHX","","","","","-50","","","","","","","","","","","","","","","","","","","","","",""
"null","","image-button-response","47","789192","0.0-46.0","A36SNKUPZRJMHX","img_art/26.jpg","null","","","","","","","","","","","","","","","","","","","","","","","","",""
"13666","","image-button-response","48","802862","0.0-47.0","A36SNKUPZRJMHX","img_art/26.jpg","4","","","","","","","","","","","","","","","","","","","","","","","","",""
"5160","","image-button-response","49","808029","0.0-48.0-0.0","A36SNKUPZRJMHX","img_art/26.jpg","3","","","","","","","","","","","","","","","","","","","","","","","","",""
"11127","","image-button-response","50","819164","0.0-49.0-0.0","A36SNKUPZRJMHX","img_art/26.jpg","1","","","","","","","","","","","","","","","","","","","","","","","","",""
"null","","html-keyboard-response","51","820671","0.0-50.0","A36SNKUPZRJMHX","<p style=""font-size: 48px;"">+</p>","","","","","null","allTrialResponses","1500","1","1","img_art/26.jpg","-50","Someone accidently spilled paint on a painting of a room.","Hailey,Sydney,Victoria,Anna,Mary,Kylie","bedroom in the outdoors. warm,9,200,20","I wish there was more detail, but I really like this simple piece.,35,320,20","feels a tad old,30,400,20","It looks like a watercolor I did when I was 6.,-30,300,20","I can tell it's some sort of outdoor scene. It looks very amateurish.,-9,180,20","Picturesque little town,45,300,20","Mary","I can tell it's some sort of outdoor scene. It looks very amateurish.,-9,180,20","Anna","It looks like a watercolor I did when I was 6.,-30,300,20","Sydney","I wish there was more detail, but I really like this simple piece.,35,320,20","2"
"89425","","survey-text","52","910110","0.0-51.0-0.0","A36SNKUPZRJMHX","","","","{""Q0"":""The right arms looks like a snake.""}","","","","","","","","","","","","","","","","","","","","","","",""
"13309","","image-slider-response","53","923426","0.0-52.0","A36SNKUPZRJMHX","","","","","10","","","","","","","","","","","","","","","","","","","","","",""
"null","","image-button-response","54","928435","0.0-53.0","A36SNKUPZRJMHX","img_art/25.jpg","null","","","","","","","","","","","","","","","","","","","","","","","","",""
"16399","","image-button-response","55","944838","0.0-54.0","A36SNKUPZRJMHX","img_art/25.jpg","3","","","","","","","","","","","","","","","","","","","","","","","","",""
"3927","","image-button-response","56","948772","0.0-55.0-0.0","A36SNKUPZRJMHX","img_art/25.jpg","0","","","","","","","","","","","","","","","","","","","","","","","","",""
"7391","","image-button-response","57","956170","0.0-56.0-0.0","A36SNKUPZRJMHX","img_art/25.jpg","1","","","","","","","","","","","","","","","","","","","","","","","","",""
"null","","html-keyboard-response","58","957677","0.0-57.0","A36SNKUPZRJMHX","<p style=""font-size: 48px;"">+</p>","","","","","null","allTrialResponses","1500","1","2","img_art/25.jpg","10","The right arms looks like a snake.","Alyssa,Sydney,Christina,Anna,Mary,Jenna","Dark silhouette against the murky background Illicites an ominous feeling. Don't really like it.,-20,160,20","This piece gives me a lot of questions which I kind of like.,10,320,20","nice colors and it looks like a native work,32,240,20","I love the green and the texture,50,300,20","The artist was daring to create this. Don't love the green and black combo though.,9,180,20","beautiful in a primitive way,10,360,20","Anna","I love the green and the texture,50,300,20","Alyssa","Dark silhouette against the murky background Illicites an ominous feeling. Don't really like it.,-20,160,20","Sydney","This piece gives me a lot of questions which I kind of like.,10,320,20","2"
"132854","","survey-text","59","1090544","0.0-58.0-0.0","A36SNKUPZRJMHX","","","","{""Q0"":""Has a stormy vibe which I like.""}","","","","","","","","","","","","","","","","","","","","","","",""
"10381","","image-slider-response","60","1100933","0.0-59.0","A36SNKUPZRJMHX","","","","","20","","","","","","","","","","","","","","","","","","","","","",""
"null","","image-button-response","61","1105939","0.0-60.0","A36SNKUPZRJMHX","img_art/21.jpg","null","","","","","","","","","","","","","","","","","","","","","","","","",""
"19432","","image-button-response","62","1125376","0.0-61.0","A36SNKUPZRJMHX","img_art/21.jpg","5","","","","","","","","","","","","","","","","","","","","","","","","",""
"6544","","image-button-response","63","1131926","0.0-62.0-0.0","A36SNKUPZRJMHX","img_art/21.jpg","4","","","","","","","","","","","","","","","","","","","","","","","","",""
"7372","","image-button-response","64","1139306","0.0-63.0-0.0","A36SNKUPZRJMHX","img_art/21.jpg","0","","","","","","","","","","","","","","","","","","","","","","","","",""
"null","","html-keyboard-response","65","1140311","0.0-64.0","A36SNKUPZRJMHX","<p style=""font-size: 48px;"">+</p>","","","","","null","allTrialResponses","1000","1","3","img_art/21.jpg","20","Has a stormy vibe which I like.","Alyssa,Sydney,Kelsey,Anna,Angela,Samantha","I like the colors that were used and the stark contrast between the two sides,25,160,20","I love everything about this piece.,50,320,20","i like watercolor,22,240,20","I love the colors and the differences between the left and right sides.,22,300,20","I feel like I'm looking at two different paintings mashed together in the middle.,20,260,20","Love the colors and the relationship between the light and storm,50,140,20","Samantha","Love the colors and the relationship between the light and storm,50,140,20","Angela","I feel like I'm looking at two different paintings mashed together in the middle.,20,260,20","Alyssa","I like the colors that were used and the stark contrast between the two sides,25,160,20","2"
"115606","","survey-text","66","1255931","0.0-65.0-0.0","A36SNKUPZRJMHX","","","","{""Q0"":""Looks like an outdoor scene, but not sure what it is.""}","","","","","","","","","","","","","","","","","","","","","","",""
"18364","","image-slider-response","67","1274303","0.0-66.0","A36SNKUPZRJMHX","","","","","-10","","","","","","","","","","","","","","","","","","","","","",""
"null","","image-button-response","68","1279312","0.0-67.0","A36SNKUPZRJMHX","img_art/24.jpg","null","","","","","","","","","","","","","","","","","","","","","","","","",""
"28664","","image-button-response","69","1307978","0.0-68.0","A36SNKUPZRJMHX","img_art/24.jpg","1","","","","","","","","","","","","","","","","","","","","","","","","",""
"2774","","image-button-response","70","1310759","0.0-69.0-0.0","A36SNKUPZRJMHX","img_art/24.jpg","2","","","","","","","","","","","","","","","","","","","","","","","","",""
"5206","","image-button-response","71","1315973","0.0-70.0-0.0","A36SNKUPZRJMHX","img_art/24.jpg","4","","","","","","","","","","","","","","","","","","","","","","","","",""
"null","","html-keyboard-response","72","1316979","0.0-71.0","A36SNKUPZRJMHX","<p style=""font-size: 48px;"">+</p>","","","","","null","allTrialResponses","1000","1","4","img_art/24.jpg","-10","Looks like an outdoor scene, but not sure what it is.","Alyssa,Michelle,Laura,Katelyn,Angela,Samantha","Beautiful.Nice use of colors and invokes feelings of serene and peace,40,160,20","Looks like a waterfall or a brook, the colors are very nice,15,280,20","chunky fresh color,27,320,20","Love the colors and contrast. Feels peaceful.,33,100,20","Love the colors in this work, and the sense of motion in the water,36,260,20","Happy and relaxing bubbling brook,37,140,20","Michelle","Looks like a waterfall or a brook, the colors are very nice,15,280,20","Laura","chunky fresh color,27,320,20","Angela","Love the colors in this work, and the sense of motion in the water,36,260,20","2"
"63011","","survey-text","73","1380002","0.0-72.0-0.0","A36SNKUPZRJMHX","","","","{""Q0"":""Not liking the browns in the piece.""}","","","","","","","","","","","","","","","","","","","","","","",""
"10124","","image-slider-response","74","1390135","0.0-73.0","A36SNKUPZRJMHX","","","","","-40","","","","","","","","","","","","","","","","","","","","","",""
"null","","image-button-response","75","1395143","0.0-74.0","A36SNKUPZRJMHX","img_art/7.jpg","null","","","","","","","","","","","","","","","","","","","","","","","","",""
"4156","","image-button-response","76","1399302","0.0-75.0","A36SNKUPZRJMHX","img_art/7.jpg","0","","","","","","","","","","","","","","","","","","","","","","","","",""
"7473","","image-button-response","77","1406781","0.0-76.0-0.0","A36SNKUPZRJMHX","img_art/7.jpg","4","","","","","","","","","","","","","","","","","","","","","","","","",""
"4806","","image-button-response","78","1411594","0.0-77.0-0.0","A36SNKUPZRJMHX","img_art/7.jpg","3","","","","","","","","","","","","","","","","","","","","","","","","",""
"null","","html-keyboard-response","79","1412599","0.0-78.0","A36SNKUPZRJMHX","<p style=""font-size: 48px;"">+</p>","","","","","null","allTrialResponses","1000","1","5","img_art/7.jpg","-40","Not liking the browns in the piece.","Amy,Michelle,Laura,Alexis,Angela,Paige","Limited emotional reaction for me. No focus and highly abstract,-20,220,20","Hmm interesting, looks like mars or something terrestrial. Too abstract for me and too much brown,4,280,20","I feel thirsty - reminds me of desert sand,11,320,20","Looks like bad wallpaper,-29,100,20","Looks like vomit, or chunky feces,-42,260,20","Happy. Looking at the moon,43,60,20","Amy","Limited emotional reaction for me. No focus and highly abstract,-20,220,20","Angela","Looks like vomit, or chunky feces,-42,260,20","Alexis","Looks like bad wallpaper,-29,100,20","2"
"5122","","survey-text","80","1417765","0.0-79.0-0.0","A36SNKUPZRJMHX","","","","{""Q0"":""sky""}","","","","","","","","","","","","","","","","","","","","","","",""
"102654","","survey-text","81","1520423","0.0-80.0-0.0","A36SNKUPZRJMHX","","","","{""Q0"":""My eye is drawn to the orange, but not liking this piece.""}","","","","","","","","","","","","","","","","","","","","","","",""
"5927","","image-slider-response","82","1526358","0.0-81.0","A36SNKUPZRJMHX","","","","","-50","","","","","","","","","","","","","","","","","","","","","",""
"null","","image-button-response","83","1531364","0.0-82.0","A36SNKUPZRJMHX","img_art/27.jpg","null","","","","","","","","","","","","","","","","","","","","","","","","",""
"2194","","image-button-response","84","1533561","0.0-83.0","A36SNKUPZRJMHX","img_art/27.jpg","1","","","","","","","","","","","","","","","","","","","","","","","","",""
"2418","","image-button-response","85","1535985","0.0-84.0-0.0","A36SNKUPZRJMHX","img_art/27.jpg","2","","","","","","","","","","","","","","","","","","","","","","","","",""
"11418","","image-button-response","86","1547412","0.0-85.0-0.0","A36SNKUPZRJMHX","img_art/27.jpg","4","","","","","","","","","","","","","","","","","","","","","","","","",""
"null","","html-keyboard-response","87","1548419","0.0-86.0","A36SNKUPZRJMHX","<p style=""font-size: 48px;"">+</p>","","","","","null","allTrialResponses","1000","1","6","img_art/27.jpg","-50","My eye is drawn to the orange, but not liking this piece.","Amy,Abigail,Breanna,Alexis,Angela,Angelica","The colors provide a complexity to the nearly child-like sketches.,5,220,20","Looks like a little kids drawing,20,20,20","Not too impressed with the work,6,380,20","Too abstract, doesn't remind me of anything,-42,100,20","It's okay. Not really interesting to me.,-10,260,20","This looks like a poor copy of Cy Twombly's style.,-3,280,20","Abigail","Looks like a little kids drawing,20,20,20","Breanna","Not too impressed with the work,6,380,20","Angela","It's okay. Not really interesting to me.,-10,260,20","2"
"47491","","survey-text","88","1595928","0.0-87.0-0.0","A36SNKUPZRJMHX","","","","{""Q0"":""Looke like a finger painting, but I like the colors.""}","","","","","","","","","","","","","","","","","","","","","","",""
"16216","","image-slider-response","89","1612152","0.0-88.0","A36SNKUPZRJMHX","","","","","20","","","","","","","","","","","","","","","","","","","","","",""
"null","","image-button-response","90","1617160","0.0-89.0","A36SNKUPZRJMHX","img_art/30.jpg","null","","","","","","","","","","","","","","","","","","","","","","","","",""
"17052","","image-button-response","91","1634216","0.0-90.0","A36SNKUPZRJMHX","img_art/30.jpg","5","","","","","","","","","","","","","","","","","","","","","","","","",""
"9091","","image-button-response","92","1643313","0.0-91.0-0.0","A36SNKUPZRJMHX","img_art/30.jpg","0","","","","","","","","","","","","","","","","","","","","","","","","",""
"7602","","image-button-response","93","1650923","0.0-92.0-0.0","A36SNKUPZRJMHX","img_art/30.jpg","2","","","","","","","","","","","","","","","","","","","","","","","","",""
"null","","html-keyboard-response","94","1652432","0.0-93.0","A36SNKUPZRJMHX","<p style=""font-size: 48px;"">+</p>","","","","","null","allTrialResponses","1500","1","7","img_art/30.jpg","20","Looke like a finger painting, but I like the colors.","Catherine,Abigail,Breanna,Emma,Angela,Heather","connection, Everything is connected even in contrast.,42,160,20","Combination of colors arent good,-6,20,20","Paint scribbled on canvas,-25,380,20","Like the design, not a big fan of the colors,20,60,20","Really don't like this piece. It feels very lazy to me.,-31,260,20","beautiful paint brush strokes,1,260,20","Heather","beautiful paint brush strokes,1,260,20","Catherine","connection, Everything is connected even in contrast.,42,160,20","Breanna","Paint scribbled on canvas,-25,380,20","2"
"77303","","survey-text","95","1729752","0.0-94.0-0.0","A36SNKUPZRJMHX","","","","{""Q0"":""The teddy bear is the only thing I like.""}","","","","","","","","","","","","","","","","","","","","","","",""
"14347","","image-slider-response","96","1744109","0.0-95.0","A36SNKUPZRJMHX","","","","","-30","","","","","","","","","","","","","","","","","","","","","",""
"null","","image-button-response","97","1749117","0.0-96.0","A36SNKUPZRJMHX","img_art/16.jpg","null","","","","","","","","","","","","","","","","","","","","","","","","",""
"10521","","image-button-response","98","1759642","0.0-97.0","A36SNKUPZRJMHX","img_art/16.jpg","3","","","","","","","","","","","","","","","","","","","","","","","","",""
"8361","","image-button-response","99","1768010","0.0-98.0-0.0","A36SNKUPZRJMHX","img_art/16.jpg","5","","","","","","","","","","","","","","","","","","","","","","","","",""
"10800","","image-button-response","100","1778818","0.0-99.0-0.0","A36SNKUPZRJMHX","img_art/16.jpg","0","","","","","","","","","","","","","","","","","","","","","","","","",""
"null","","html-keyboard-response","101","1779326","0.0-100.0","A36SNKUPZRJMHX","<p style=""font-size: 48px;"">+</p>","","","","","null","allTrialResponses","500","1","8","img_art/16.jpg","-30","The teddy bear is the only thing I like.","Catherine,Lauren,Breanna,Isabella,Alexandria,Heather","A teddybear, gun, crying person does not give a happy reaction. Death, still, no life.,-50,160,20","The colored teddy bear clashes with the color scheme.,-20,340,20","The bear is terrifying,-50,380,20","This looks chaotic,-25,280,20","while simple, it seems to have a deeper meaning on childhood,33,80,20","lol i dont know how i feel about this.,1,260,20","Isabella","This looks chaotic,-25,280,20","Heather","lol i dont know how i feel about this.,1,260,20","Catherine","A teddybear, gun, crying person does not give a happy reaction. Death, still, no life.,-50,160,20","2"
"52528","","survey-text","102","1831868","0.0-101.0-0.0","A36SNKUPZRJMHX","","","","{""Q0"":""Liking the bright colors in the piece.""}","","","","","","","","","","","","","","","","","","","","","","",""
"12106","","image-slider-response","103","1843983","0.0-102.0","A36SNKUPZRJMHX","","","","","25","","","","","","","","","","","","","","","","","","","","","",""
"null","","image-button-response","104","1848988","0.0-103.0","A36SNKUPZRJMHX","img_art/1.jpg","null","","","","","","","","","","","","","","","","","","","","","","","","",""
"1847","","image-button-response","105","1850840","0.0-104.0","A36SNKUPZRJMHX","img_art/1.jpg","1","","","","","","","","","","","","","","","","","","","","","","","","",""
"7791","","image-button-response","106","1858637","0.0-105.0-0.0","A36SNKUPZRJMHX","img_art/1.jpg","5","","","","","","","","","","","","","","","","","","","","","","","","",""
"10943","","image-button-response","107","1869588","0.0-106.0-0.0","A36SNKUPZRJMHX","img_art/1.jpg","3","","","","","","","","","","","","","","","","","","","","","","","","",""
"null","","html-keyboard-response","108","1870093","0.0-107.0","A36SNKUPZRJMHX","<p style=""font-size: 48px;"">+</p>","","","","","null","allTrialResponses","500","1","9","img_art/1.jpg","25","Liking the bright colors in the piece.","Catherine,Marissa,Sierra,Isabella,Crystal,Heather","confused,animal like brain fog,0,160,20","It is beautiful, I really enjoy the colors,32,160,20","there isnt anything clear to look at,-2,260,20","Warmth of the sun,22,280,20","Interesting color scheme but to bled to me,11,300,20","the colors are vibrant and beautiful,1,260,20","Marissa","It is beautiful, I really enjoy the colors,32,160,20","Heather","the colors are vibrant and beautiful,1,260,20","Isabella","Warmth of the sun,22,280,20","2"
"51859","","survey-text","109","1921966","0.0-108.0-0.0","A36SNKUPZRJMHX","","","","{""Q0"":""Eye is drawn to the circle, like looking through a hole in a wall.""}","","","","","","","","","","","","","","","","","","","","","","",""
"14138","","image-slider-response","110","1936112","0.0-109.0","A36SNKUPZRJMHX","","","","","25","","","","","","","","","","","","","","","","","","","","","",""
"null","","image-button-response","111","1941121","0.0-110.0","A36SNKUPZRJMHX","img_art/22.jpg","null","","","","","","","","","","","","","","","","","","","","","","","","",""
"15409","","image-button-response","112","1956535","0.0-111.0","A36SNKUPZRJMHX","img_art/22.jpg","3","","","","","","","","","","","","","","","","","","","","","","","","",""
"2432","","image-button-response","113","1958972","0.0-112.0-0.0","A36SNKUPZRJMHX","img_art/22.jpg","1","","","","","","","","","","","","","","","","","","","","","","","","",""
"6669","","image-button-response","114","1965649","0.0-113.0-0.0","A36SNKUPZRJMHX","img_art/22.jpg","0","","","","","","","","","","","","","","","","","","","","","","","","",""
"null","","html-keyboard-response","115","1966654","0.0-114.0","A36SNKUPZRJMHX","<p style=""font-size: 48px;"">+</p>","","","","","null","allTrialResponses","1000","1","10","img_art/22.jpg","25","Eye is drawn to the circle, like looking through a hole in a wall.","Madison,Marissa,Sarah,Isabella,Brianna,Heather","Like the colors, and the even blur. The more I look, the more a story forms. A very narrative image.,18,60,20","I enjoy the vibrant colors,23,160,20","boring, too many red and yellow tones for my taste,-15,180,20","Sunsets at the beach,42,280,20","Like the black key and the rainbow color theme.,31,20,20","i think its pretty but im not sure what i see,1,260,20","Isabella","Sunsets at the beach,42,280,20","Marissa","I enjoy the vibrant colors,23,160,20","Madison","Like the colors, and the even blur. The more I look, the more a story forms. A very narrative image.,18,60,20","2"
"4836","","survey-text","116","1971515","0.0-115.0-0.0","A36SNKUPZRJMHX","","","","{""Q0"":""our""}","","","","","","","","","","","","","","","","","","","","","","",""
"77792","","survey-text","117","2049312","0.0-116.0-0.0","A36SNKUPZRJMHX","","","","{""Q0"":""I like it although it makes me feel itchy.""}","","","","","","","","","","","","","","","","","","","","","","",""
"14150","","image-slider-response","118","2063470","0.0-117.0","A36SNKUPZRJMHX","","","","","40","","","","","","","","","","","","","","","","","","","","","",""
"null","","image-button-response","119","2068477","0.0-118.0","A36SNKUPZRJMHX","img_art/13.jpg","null","","","","","","","","","","","","","","","","","","","","","","","","",""
"10358","","image-button-response","120","2078839","0.0-119.0","A36SNKUPZRJMHX","img_art/13.jpg","3","","","","","","","","","","","","","","","","","","","","","","","","",""
"2870","","image-button-response","121","2081716","0.0-120.0-0.0","A36SNKUPZRJMHX","img_art/13.jpg","5","","","","","","","","","","","","","","","","","","","","","","","","",""
"4155","","image-button-response","122","2085878","0.0-121.0-0.0","A36SNKUPZRJMHX","img_art/13.jpg","0","","","","","","","","","","","","","","","","","","","","","","","","",""
"null","","html-keyboard-response","123","2086383","0.0-122.0","A36SNKUPZRJMHX","<p style=""font-size: 48px;"">+</p>","","","","","null","allTrialResponses","500","1","11","img_art/13.jpg","40","I like it although it makes me feel itchy.","Madison,Marissa,Shelby,Isabella,Jordan,Sabrina","Pollock? Love the juxtaposition of colors. Soothing and stirring, a beautiful inexplicable paradox.,50,60,20","It reminds me of looking out the window on a stormy night at cars drive by,21,160,20","Doesnt really provoke an emotional responce,0,240,20","Rain drops on a window,35,280,20","It's just paint splatter, no real meaning to me,-50,20,20","I love the edgy nature,50,120,20","Isabella","Rain drops on a window,35,280,20","Sabrina","I love the edgy nature,50,120,20","Madison","Pollock? Love the juxtaposition of colors. Soothing and stirring, a beautiful inexplicable paradox.,50,60,20","2"
"101748","","survey-text","124","2188149","0.0-123.0-0.0","A36SNKUPZRJMHX","","","","{""Q0"":""Looks like a busy highway or bridge scene.""}","","","","","","","","","","","","","","","","","","","","","","",""
"15551","","image-slider-response","125","2203706","0.0-124.0","A36SNKUPZRJMHX","","","","","10","","","","","","","","","","","","","","","","","","","","","",""
"null","","image-button-response","126","2208713","0.0-125.0","A36SNKUPZRJMHX","img_art/11.jpg","null","","","","","","","","","","","","","","","","","","","","","","","","",""
"3737","","image-button-response","127","2212454","0.0-126.0","A36SNKUPZRJMHX","img_art/11.jpg","1","","","","","","","","","","","","","","","","","","","","","","","","",""
"5615","","image-button-response","128","2218074","0.0-127.0-0.0","A36SNKUPZRJMHX","img_art/11.jpg","4","","","","","","","","","","","","","","","","","","","","","","","","",""
"10056","","image-button-response","129","2228136","0.0-128.0-0.0","A36SNKUPZRJMHX","img_art/11.jpg","0","","","","","","","","","","","","","","","","","","","","","","","","",""
"null","","html-keyboard-response","130","2228641","0.0-129.0","A36SNKUPZRJMHX","<p style=""font-size: 48px;"">+</p>","","","","","null","allTrialResponses","500","1","12","img_art/11.jpg","10","Looks like a busy highway or bridge scene.","Madison,Rebecca,Jacqueline,Isabella,Jamie,Sabrina","Rainy day at an urban sea port. Portugal?,30,60,20","to me, perfect reflection of the modern commute,32,100,20","It's too dark and dingy.,-30,300,20","City on a hill, tranquility,42,280,20","Looks like a cityscape,25,320,20","I love the city chaos from this,50,120,20","Rebecca","to me, perfect reflection of the modern commute,32,100,20","Jamie","Looks like a cityscape,25,320,20","Madison","Rainy day at an urban sea port. Portugal?,30,60,20","2"
"155285","","survey-text","131","2383943","0.0-130.0-0.0","A36SNKUPZRJMHX","","","","{""Q0"":""A burning building in a southwestern landscape.""}","","","","","","","","","","","","","","","","","","","","","","",""
"10904","","image-slider-response","132","2394853","0.0-131.0","A36SNKUPZRJMHX","","","","","-30","","","","","","","","","","","","","","","","","","","","","",""
"null","","image-button-response","133","2399863","0.0-132.0","A36SNKUPZRJMHX","img_art/20.jpg","null","","","","","","","","","","","","","","","","","","","","","","","","",""
"12792","","image-button-response","134","2412659","0.0-133.0","A36SNKUPZRJMHX","img_art/20.jpg","4","","","","","","","","","","","","","","","","","","","","","","","","",""
"8996","","image-button-response","135","2421661","0.0-134.0-0.0","A36SNKUPZRJMHX","img_art/20.jpg","0","","","","","","","","","","","","","","","","","","","","","","","","",""
"6623","","image-button-response","136","2428291","0.0-135.0-0.0","A36SNKUPZRJMHX","img_art/20.jpg","1","","","","","","","","","","","","","","","","","","","","","","","","",""
"null","","html-keyboard-response","137","2429295","0.0-136.0","A36SNKUPZRJMHX","<p style=""font-size: 48px;"">+</p>","","","","","null","allTrialResponses","1000","1","13","img_art/20.jpg","-30","A burning building in a southwestern landscape.","Madison,Rebecca,Cassidy,Jasmine,Jamie,Cassandra","This is not abstract art, it is representative.,0,60,20","reminds me of georgia o'keeffe's skull,22,100,20","sort of pleasant to look at, but can't tell if it's supposed to be something,13,140,20","This one is okay but I don't really care for it,5,340,20","Looks like some type of future dystopian civilization,35,320,20","I liked this...I liked the blue and the black and I liked the smoothness to it.,31,120,20","Jamie","Looks like some type of future dystopian civilization,35,320,20","Madison","This is not abstract art, it is representative.,0,60,20","Rebecca","reminds me of georgia o'keeffe's skull,22,100,20","2"
"71271","","survey-text","138","2500583","0.0-137.0-0.0","A36SNKUPZRJMHX","","","","{""Q0"":""Dark clouds on a seaside landscape.""}","","","","","","","","","","","","","","","","","","","","","","",""
"19009","","image-slider-response","139","2519598","0.0-138.0","A36SNKUPZRJMHX","","","","","-30","","","","","","","","","","","","","","","","","","","","","",""
"null","","image-button-response","140","2524607","0.0-139.0","A36SNKUPZRJMHX","img_art/19.jpg","null","","","","","","","","","","","","","","","","","","","","","","","","",""
"5127","","image-button-response","141","2529738","0.0-140.0","A36SNKUPZRJMHX","img_art/19.jpg","3","","","","","","","","","","","","","","","","","","","","","","","","",""
"2934","","image-button-response","142","2532678","0.0-141.0-0.0","A36SNKUPZRJMHX","img_art/19.jpg","4","","","","","","","","","","","","","","","","","","","","","","","","",""
"3603","","image-button-response","143","2536289","0.0-142.0-0.0","A36SNKUPZRJMHX","img_art/19.jpg","0","","","","","","","","","","","","","","","","","","","","","","","","",""
"null","","html-keyboard-response","144","2537792","0.0-143.0","A36SNKUPZRJMHX","<p style=""font-size: 48px;"">+</p>","","","","","null","allTrialResponses","1500","1","14","img_art/19.jpg","-30","Dark clouds on a seaside landscape.","Madison,Rebecca,Erica,Jennifer,Jamie,Elizabeth","Seems unfinished and sloppy,-11,60,20","interesting take on depth (reminds me of those 1000 piece puzzles),2,100,20","very lively and colourful,21,80,20","Very, very ugly and sloppy,-31,380,20","Looks like a busy port,10,320,20","Like the painting strokes,39,20,20","Jennifer","Very, very ugly and sloppy,-31,380,20","Jamie","Looks like a busy port,10,320,20","Madison","Seems unfinished and sloppy,-11,60,20","2"
"38564","","survey-text","145","2576376","0.0-144.0-0.0","A36SNKUPZRJMHX","","","","{""Q0"":""Feels like I'm looking down into a tar pit.""}","","","","","","","","","","","","","","","","","","","","","","",""
"12786","","image-slider-response","146","2589170","0.0-145.0","A36SNKUPZRJMHX","","","","","-40","","","","","","","","","","","","","","","","","","","","","",""
"null","","image-button-response","147","2594178","0.0-146.0","A36SNKUPZRJMHX","img_art/29.jpg","null","","","","","","","","","","","","","","","","","","","","","","","","",""
"2089","","image-button-response","148","2596273","0.0-147.0","A36SNKUPZRJMHX","img_art/29.jpg","0","","","","","","","","","","","","","","","","","","","","","","","","",""
"13232","","image-button-response","149","2609510","0.0-148.0-0.0","A36SNKUPZRJMHX","img_art/29.jpg","5","","","","","","","","","","","","","","","","","","","","","","","","",""
"10911","","image-button-response","150","2620429","0.0-149.0-0.0","A36SNKUPZRJMHX","img_art/29.jpg","2","","","","","","","","","","","","","","","","","","","","","","","","",""
"null","","html-keyboard-response","151","2620936","0.0-150.0","A36SNKUPZRJMHX","<p style=""font-size: 48px;"">+</p>","","","","","null","allTrialResponses","500","1","15","img_art/29.jpg","-40","Feels like I'm looking down into a tar pit.","Madison,Meghan,Destiny,Jennifer,Jamie,Andrea","Well if the artist themself is crossing it out, why should I pay any mind?,-30,60,20","feels random and not thoughtout,-37,220,20","is this supposed to be edgy,-21,360,20","Very interesting composition,41,380,20","3D looks is really cool,30,320,20","Bottomless pit and prison. Feels like its saying time is precious.,11,240,20","Madison","Well if the artist themself is crossing it out, why should I pay any mind?,-30,60,20","Andrea","Bottomless pit and prison. Feels like its saying time is precious.,11,240,20","Destiny","is this supposed to be edgy,-21,360,20","2"
"4975","","survey-text","152","2625937","0.0-151.0-0.0","A36SNKUPZRJMHX","","","","{""Q0"":""course""}","","","","","","","","","","","","","","","","","","","","","","",""
"67481","","survey-text","153","2693424","0.0-152.0-0.0","A36SNKUPZRJMHX","","","","{""Q0"":""I'm confused, and it makes me feel sad.""}","","","","","","","","","","","","","","","","","","","","","","",""
"12016","","image-slider-response","154","2705446","0.0-153.0","A36SNKUPZRJMHX","","","","","-50","","","","","","","","","","","","","","","","","","","","","",""
"null","","image-button-response","155","2710453","0.0-154.0","A36SNKUPZRJMHX","img_art/28.jpg","null","","","","","","","","","","","","","","","","","","","","","","","","",""
"7951","","image-button-response","156","2718407","0.0-155.0","A36SNKUPZRJMHX","img_art/28.jpg","3","","","","","","","","","","","","","","","","","","","","","","","","",""
"9318","","image-button-response","157","2727731","0.0-156.0-0.0","A36SNKUPZRJMHX","img_art/28.jpg","5","","","","","","","","","","","","","","","","","","","","","","","","",""
"6187","","image-button-response","158","2733925","0.0-157.0-0.0","A36SNKUPZRJMHX","img_art/28.jpg","1","","","","","","","","","","","","","","","","","","","","","","","","",""
"null","","html-keyboard-response","159","2734929","0.0-158.0","A36SNKUPZRJMHX","<p style=""font-size: 48px;"">+</p>","","","","","null","allTrialResponses","1000","1","16","img_art/28.jpg","-50","I'm confused, and it makes me feel sad.","Madison,Savannah,Destiny,Hannah,Kristen,Andrea","It's okay. There is harmony and balance.,11,60,20","White and dark balance is way off- Seems dull.,-33,200,20","I wish I knew why I liked it, maybes its the pinky tones,36,360,20","The colors are drab and a little depressing.,-20,240,20","almost reminds me of thomas becket getting his head cut off,21,280,20","It reminds me of the cantina in Star Wars.,37,240,20","Hannah","The colors are drab and a little depressing.,-20,240,20","Andrea","It reminds me of the cantina in Star Wars.,37,240,20","Savannah","White and dark balance is way off- Seems dull.,-33,200,20","2"
"116090","","survey-text","160","2851034","0.0-159.0-0.0","A36SNKUPZRJMHX","","","","{""Q0"":""I see a faceless rider on a horse coming from the clouds or the sea.""}","","","","","","","","","","","","","","","","","","","","","","",""
"9047","","image-slider-response","161","2860087","0.0-160.0","A36SNKUPZRJMHX","","","","","10","","","","","","","","","","","","","","","","","","","","","",""
"null","","image-button-response","162","2865095","0.0-161.0","A36SNKUPZRJMHX","img_art/18.jpg","null","","","","","","","","","","","","","","","","","","","","","","","","",""
"9419","","image-button-response","163","2874518","0.0-162.0","A36SNKUPZRJMHX","img_art/18.jpg","5","","","","","","","","","","","","","","","","","","","","","","","","",""
"4332","","image-button-response","164","2878855","0.0-163.0-0.0","A36SNKUPZRJMHX","img_art/18.jpg","3","","","","","","","","","","","","","","","","","","","","","","","","",""
"12352","","image-button-response","165","2891213","0.0-164.0-0.0","A36SNKUPZRJMHX","img_art/18.jpg","4","","","","","","","","","","","","","","","","","","","","","","","","",""
"null","","html-keyboard-response","166","2891720","0.0-165.0","A36SNKUPZRJMHX","<p style=""font-size: 48px;"">+</p>","","","","","null","allTrialResponses","500","1","17","img_art/18.jpg","10","I see a faceless rider on a horse coming from the clouds or the sea.","Kaitlin,Savannah,Dominique,Hannah,Madeline,Andrea","I really like this one - there seems to be a story behind it,32,60,20","Accents make this piece.,21,200,20","Very conversational and can see many different looks and feels from this .,34,400,20","Looks like ghost figures on a boat. It's okay.,7,240,20","Good concept but then scribbled on a bit?,15,40,20","I see an artistic representation of the riding of last of the four horseman. Its stunning.,45,240,20","Andrea","I see an artistic representation of the riding of last of the four horseman. Its stunning.,45,240,20","Hannah","Looks like ghost figures on a boat. It's okay.,7,240,20","Madeline","Good concept but then scribbled on a bit?,15,40,20","2"
"101354","","survey-text","167","2993101","0.0-166.0-0.0","A36SNKUPZRJMHX","","","","{""Q0"":""I see people being observed by supernatural beings in this piece.""}","","","","","","","","","","","","","","","","","","","","","","",""
"13420","","image-slider-response","168","3006529","0.0-167.0","A36SNKUPZRJMHX","","","","","20","","","","","","","","","","","","","","","","","","","","","",""
"null","","image-button-response","169","3011537","0.0-168.0","A36SNKUPZRJMHX","img_art/8.jpg","null","","","","","","","","","","","","","","","","","","","","","","","","",""
"19242","","image-button-response","170","3030783","0.0-169.0","A36SNKUPZRJMHX","img_art/8.jpg","5","","","","","","","","","","","","","","","","","","","","","","","","",""
"9892","","image-button-response","171","3040679","0.0-170.0-0.0","A36SNKUPZRJMHX","img_art/8.jpg","1","","","","","","","","","","","","","","","","","","","","","","","","",""
"4202","","image-button-response","172","3044889","0.0-171.0-0.0","A36SNKUPZRJMHX","img_art/8.jpg","4","","","","","","","","","","","","","","","","","","","","","","","","",""
"null","","html-keyboard-response","173","3046394","0.0-172.0","A36SNKUPZRJMHX","<p style=""font-size: 48px;"">+</p>","","","","","null","allTrialResponses","1500","1","18","img_art/8.jpg","20","I see people being observed by supernatural beings in this piece.","Kimberly,Gabriela,Megan,Hannah,Madeline,Andrea","Feels very 90's but I like the doorway,15,260,20","I like that it sort of looks like a cityscape,9,140,20","Cortez's influence with fair color choices,10,200,20","I don't understand it. Makes no sense to me.,5,240,20","Very nice detail and colors!,10,40,20","The face makes me think its a statement of the almighty of big brother watching us. onfuCsion limits my enjoyment.,6,240,20","Andrea","The face makes me think its a statement of the almighty of big brother watching us. onfuCsion limits my enjoyment.,6,240,20","Gabriela","I like that it sort of looks like a cityscape,9,140,20","Madeline","Very nice detail and colors!,10,40,20","2"
"78942","","survey-text","174","3125352","0.0-173.0-0.0","A36SNKUPZRJMHX","","","","{""Q0"":""Feels like I'm on a balcony overlooking the ocean, with the trees behind me.""}","","","","","","","","","","","","","","","","","","","","","","",""
"6957","","image-slider-response","175","3132316","0.0-174.0","A36SNKUPZRJMHX","","","","","50","","","","","","","","","","","","","","","","","","","","","",""
"null","","image-button-response","176","3137324","0.0-175.0","A36SNKUPZRJMHX","img_art/17.jpg","null","","","","","","","","","","","","","","","","","","","","","","","","",""
"1390","","image-button-response","177","3138718","0.0-176.0","A36SNKUPZRJMHX","img_art/17.jpg","0","","","","","","","","","","","","","","","","","","","","","","","","",""
"13643","","image-button-response","178","3152366","0.0-177.0-0.0","A36SNKUPZRJMHX","img_art/17.jpg","1","","","","","","","","","","","","","","","","","","","","","","","","",""
"3475","","image-button-response","179","3155848","0.0-178.0-0.0","A36SNKUPZRJMHX","img_art/17.jpg","3","","","","","","","","","","","","","","","","","","","","","","","","",""
"null","","html-keyboard-response","180","3156356","0.0-179.0","A36SNKUPZRJMHX","<p style=""font-size: 48px;"">+</p>","","","","","null","allTrialResponses","500","1","19","img_art/17.jpg","50","Feels like I'm on a balcony overlooking the ocean, with the trees behind me.","Brittany,Gabriela,Amber,Bailey,Madeline,Andrea","I like the colors and the design.,20,40,20","This makes me feel inspired and happy. I love everything about this portrait,45,140,20","Don't really like pastels.,-10,200,20","I like the artistic sketching pattern.,24,360,20","So expressive and wonderful wow!,17,40,20","A coming storm but I think I would appreciate it more with more contrast.,-12,240,20","Brittany","I like the colors and the design.,20,40,20","Gabriela","This makes me feel inspired and happy. I love everything about this portrait,45,140,20","Bailey","I like the artistic sketching pattern.,24,360,20","2"
"50653","","survey-text","181","3207023","0.0-180.0-0.0","A36SNKUPZRJMHX","","","","{""Q0"":""A solitary crow standing on scorching earth.""}","","","","","","","","","","","","","","","","","","","","","","",""
"9765","","image-slider-response","182","3216797","0.0-181.0","A36SNKUPZRJMHX","","","","","40","","","","","","","","","","","","","","","","","","","","","",""
"null","","image-button-response","183","3221805","0.0-182.0","A36SNKUPZRJMHX","img_art/6.jpg","null","","","","","","","","","","","","","","","","","","","","","","","","",""
"5046","","image-button-response","184","3226854","0.0-183.0","A36SNKUPZRJMHX","img_art/6.jpg","2","","","","","","","","","","","","","","","","","","","","","","","","",""
"11952","","image-button-response","185","3238813","0.0-184.0-0.0","A36SNKUPZRJMHX","img_art/6.jpg","5","","","","","","","","","","","","","","","","","","","","","","","","",""
"10149","","image-button-response","186","3248970","0.0-185.0-0.0","A36SNKUPZRJMHX","img_art/6.jpg","1","","","","","","","","","","","","","","","","","","","","","","","","",""
"null","","html-keyboard-response","187","3249975","0.0-186.0","A36SNKUPZRJMHX","<p style=""font-size: 48px;"">+</p>","","","","","null","allTrialResponses","1000","1","20","img_art/6.jpg","40","A solitary crow standing on scorching earth.","Brittany,Gabriela,Olivia,Bailey,Leah,Caitlin","It's alright. I imagined the peach from James and the Giant Peach.,1,40,20","This looks like a crow, sort of bleak,-26,140,20","surviving the dryness of life,30,40,20","Not my favorite, but I like the empty vibe and the imagination it invokes. A skinny girl with long legs, perhaps, looking over a cliff,9,360,20","Boring, looks like a sad tree in wind,-37,360,20","A crow on one leg?,-10,80,20","Olivia","surviving the dryness of life,30,40,20","Caitlin","A crow on one leg?,-10,80,20","Gabriela","This looks like a crow, sort of bleak,-26,140,20","2"
"3960","","survey-text","188","3253963","0.0-187.0-0.0","A36SNKUPZRJMHX","","","","{""Q0"":""we""}","","","","","","","","","","","","","","","","","","","","","","",""
"73903","","survey-text","189","3327871","0.0-188.0-0.0","A36SNKUPZRJMHX","","","","{""Q0"":""I see a reclining, sleeping girl in this piece on an island.""}","","","","","","","","","","","","","","","","","","","","","","",""
"13130","","image-slider-response","190","3341008","0.0-189.0","A36SNKUPZRJMHX","","","","","30","","","","","","","","","","","","","","","","","","","","","",""
"null","","image-button-response","191","3346015","0.0-190.0","A36SNKUPZRJMHX","img_art/9.jpg","null","","","","","","","","","","","","","","","","","","","","","","","","",""
"2919","","image-button-response","192","3348938","0.0-191.0","A36SNKUPZRJMHX","img_art/9.jpg","1","","","","","","","","","","","","","","","","","","","","","","","","",""
"11247","","image-button-response","193","3360191","0.0-192.0-0.0","A36SNKUPZRJMHX","img_art/9.jpg","0","","","","","","","","","","","","","","","","","","","","","","","","",""
"15051","","image-button-response","194","3375249","0.0-193.0-0.0","A36SNKUPZRJMHX","img_art/9.jpg","2","","","","","","","","","","","","","","","","","","","","","","","","",""
"null","","html-keyboard-response","195","3376253","0.0-194.0","A36SNKUPZRJMHX","<p style=""font-size: 48px;"">+</p>","","","","","null","allTrialResponses","1000","1","21","img_art/9.jpg","30","I see a reclining, sleeping girl in this piece on an island.","Erika,Gabriela,Olivia,Leslie,Sara,Caitlin","Colorful and expressive,15,100,20","This photo make me feel peaceful. It looks like a woman sleeping in a garden,42,140,20","what a wild ride,11,40,20","The colors are pretty, and remind me of a circus.,5,380,20","Spiral patterns are not my thing,-30,160,20","Caveman. Not for my walls.,-5,80,20","Gabriela","This photo make me feel peaceful. It looks like a woman sleeping in a garden,42,140,20","Erika","Colorful and expressive,15,100,20","Olivia","what a wild ride,11,40,20","2"
"56138","","survey-text","196","3432407","0.0-195.0-0.0","A36SNKUPZRJMHX","","","","{""Q0"":""My eye is drawn to the white, human reclining figures.""}","","","","","","","","","","","","","","","","","","","","","","",""
"8822","","image-slider-response","197","3441235","0.0-196.0","A36SNKUPZRJMHX","","","","","5","","","","","","","","","","","","","","","","","","","","","",""
"null","","image-button-response","198","3446242","0.0-197.0","A36SNKUPZRJMHX","img_art/23.jpg","null","","","","","","","","","","","","","","","","","","","","","","","","",""
"1592","","image-button-response","199","3447836","0.0-198.0","A36SNKUPZRJMHX","img_art/23.jpg","0","","","","","","","","","","","","","","","","","","","","","","","","",""
"15572","","image-button-response","200","3463420","0.0-199.0-0.0","A36SNKUPZRJMHX","img_art/23.jpg","2","","","","","","","","","","","","","","","","","","","","","","","","",""
"2866","","image-button-response","201","3466294","0.0-200.0-0.0","A36SNKUPZRJMHX","img_art/23.jpg","1","","","","","","","","","","","","","","","","","","","","","","","","",""
"null","","html-keyboard-response","202","3466800","0.0-201.0","A36SNKUPZRJMHX","<p style=""font-size: 48px;"">+</p>","","","","","null","allTrialResponses","500","1","22","img_art/23.jpg","5","My eye is drawn to the white, human reclining figures.","Erika,Gabriela,Olivia,Katherine,Margaret,Chloe","Very intense and unique,3,100,20","It looks like a parade of musicians full of excitement. Makes me feel upbeat,33,140,20","happiness in the universe,28,40,20","This one is awesome, kinda looks like a cake with sprinkles but in a different universe,50,120,20","white reminds me of screamo music band tshirts when they have their name in the unreadable lettering,-9,100,20","Poster shop camp.,-40,220,20","Erika","Very intense and unique,3,100,20","Olivia","happiness in the universe,28,40,20","Gabriela","It looks like a parade of musicians full of excitement. Makes me feel upbeat,33,140,20","2"
"86104","","survey-text","203","3552919","0.0-202.0-0.0","A36SNKUPZRJMHX","","","","{""Q0"":""Feels like a city at the bottom, but confused by the top of the piece.""}","","","","","","","","","","","","","","","","","","","","","","",""
"9306","","image-slider-response","204","3562234","0.0-203.0","A36SNKUPZRJMHX","","","","","-40","","","","","","","","","","","","","","","","","","","","","",""
"null","","image-button-response","205","3567242","0.0-204.0","A36SNKUPZRJMHX","img_art/14.jpg","null","","","","","","","","","","","","","","","","","","","","","","","","",""
"7085","","image-button-response","206","3574331","0.0-205.0","A36SNKUPZRJMHX","img_art/14.jpg","3","","","","","","","","","","","","","","","","","","","","","","","","",""
"2059","","image-button-response","207","3576397","0.0-206.0-0.0","A36SNKUPZRJMHX","img_art/14.jpg","5","","","","","","","","","","","","","","","","","","","","","","","","",""
"9546","","image-button-response","208","3585948","0.0-207.0-0.0","A36SNKUPZRJMHX","img_art/14.jpg","0","","","","","","","","","","","","","","","","","","","","","","","","",""
"null","","html-keyboard-response","209","3586453","0.0-208.0","A36SNKUPZRJMHX","<p style=""font-size: 48px;"">+</p>","","","","","null","allTrialResponses","500","1","23","img_art/14.jpg","-40","Feels like a city at the bottom, but confused by the top of the piece.","Erika,Gabriela,Olivia,Autumn,Chelsea,Erin","It's alright, something I'd see in a guest bedroom,10,100,20","It looks like a table centerpiece,-22,140,20","tree of life brings hope,7,40,20","It's too basic.,23,340,20","The colors are pleasing.,29,180,20","Looks childish and basic,-42,120,20","Autumn","It's too basic.,23,340,20","Erin","Looks childish and basic,-42,120,20","Erika","It's alright, something I'd see in a guest bedroom,10,100,20","2"
"29472","","survey-text","210","3615957","0.0-209.0-0.0","A36SNKUPZRJMHX","","","","{""Q0"":""Really don't like the colors or composition.""}","","","","","","","","","","","","","","","","","","","","","","",""
"6481","","image-slider-response","211","3622445","0.0-210.0","A36SNKUPZRJMHX","","","","","-50","","","","","","","","","","","","","","","","","","","","","",""
"3960","","image-button-response","212","3627454","0.0-211.0","A36SNKUPZRJMHX","img_art/2.jpg","1","","","","","","","","","","","","","","","","","","","","","","","","",""
"2284","","image-button-response","213","3629744","0.0-212.0","A36SNKUPZRJMHX","img_art/2.jpg","3","","","","","","","","","","","","","","","","","","","","","","","","",""
"7447","","image-button-response","214","3637198","0.0-213.0-0.0","A36SNKUPZRJMHX","img_art/2.jpg","4","","","","","","","","","","","","","","","","","","","","","","","","",""
"18629","","image-button-response","215","3655834","0.0-214.0-0.0","A36SNKUPZRJMHX","img_art/2.jpg","1","","","","","","","","","","","","","","","","","","","","","","","","",""
"null","","html-keyboard-response","216","3656839","0.0-215.0","A36SNKUPZRJMHX","<p style=""font-size: 48px;"">+</p>","","","","","null","allTrialResponses","1000","1","24","img_art/2.jpg","-50","Really don't like the colors or composition.","Erika,Lindsey,Haley,Autumn,Sophia,Erin","Indistinct and too bright,-21,100,20","Not a fan of the colors or the style.,-31,400,20","My first thought was that it looks like a children's art project,-30,220,20","7 year old painted?,-35,340,20","I'm not fond of the colors in this one.,-33,280,20","There is an odd face here that is creepy,-4,120,20","Autumn","7 year old painted?,-35,340,20","Sophia","I'm not fond of the colors in this one.,-33,280,20","Lindsey","Not a fan of the colors or the style.,-31,400,20","2"
"44963","","survey-text","217","3701817","0.0-216.0-0.0","A36SNKUPZRJMHX","","","","{""Q0"":""The piece captures a scene during the day and at night.""}","","","","","","","","","","","","","","","","","","","","","","",""
"14185","","image-slider-response","218","3716011","0.0-217.0","A36SNKUPZRJMHX","","","","","15","","","","","","","","","","","","","","","","","","","","","",""
"null","","image-button-response","219","3721018","0.0-218.0","A36SNKUPZRJMHX","img_art/12.jpg","null","","","","","","","","","","","","","","","","","","","","","","","","",""
"9836","","image-button-response","220","3730859","0.0-219.0","A36SNKUPZRJMHX","img_art/12.jpg","4","","","","","","","","","","","","","","","","","","","","","","","","",""
"3535","","image-button-response","221","3734401","0.0-220.0-0.0","A36SNKUPZRJMHX","img_art/12.jpg","5","","","","","","","","","","","","","","","","","","","","","","","","",""
"5844","","image-button-response","222","3740251","0.0-221.0-0.0","A36SNKUPZRJMHX","img_art/12.jpg","1","","","","","","","","","","","","","","","","","","","","","","","","",""
"null","","html-keyboard-response","223","3741754","0.0-222.0","A36SNKUPZRJMHX","<p style=""font-size: 48px;"">+</p>","","","","","null","allTrialResponses","1500","1","25","img_art/12.jpg","15","The piece captures a scene during the day and at night.","Alicia,Lindsey,Briana,Autumn,Sophia,Alexandra","it's ok, but blocky, looks old.,3,120,20","Ugly colors and I'm just not too much a fan of cubist abstract art.,-50,400,20","Interesting colors. I really dont like modern art though,24,400,20","Good too basic.,18,340,20","Good technique. It's just not my thing.,2,280,20","I like the pattern of this picture, but the colors could be nicer,11,60,20","Sophia","Good technique. It's just not my thing.,2,280,20","Alexandra","I like the pattern of this picture, but the colors could be nicer,11,60,20","Lindsey","Ugly colors and I'm just not too much a fan of cubist abstract art.,-50,400,20","2"
"4801","","survey-text","224","3746586","0.0-223.0-0.0","A36SNKUPZRJMHX","","","","{""Q0"":""table""}","","","","","","","","","","","","","","","","","","","","","","",""
"61935","","survey-text","225","3808527","0.0-224.0-0.0","A36SNKUPZRJMHX","","","","{""Q0"":""it feels like finger painted art.""}","","","","","","","","","","","","","","","","","","","","","","",""
"13152","","image-slider-response","226","3821688","0.0-225.0","A36SNKUPZRJMHX","","","","","-40","","","","","","","","","","","","","","","","","","","","","",""
"null","","image-button-response","227","3826696","0.0-226.0","A36SNKUPZRJMHX","img_art/15.jpg","null","","","","","","","","","","","","","","","","","","","","","","","","",""
"21067","","image-button-response","228","3847766","0.0-227.0","A36SNKUPZRJMHX","img_art/15.jpg","1","","","","","","","","","","","","","","","","","","","","","","","","",""
"3863","","image-button-response","229","3851635","0.0-228.0-0.0","A36SNKUPZRJMHX","img_art/15.jpg","0","","","","","","","","","","","","","","","","","","","","","","","","",""
"5293","","image-button-response","230","3856936","0.0-229.0-0.0","A36SNKUPZRJMHX","img_art/15.jpg","4","","","","","","","","","","","","","","","","","","","","","","","","",""
"null","","html-keyboard-response","231","3857942","0.0-230.0","A36SNKUPZRJMHX","<p style=""font-size: 48px;"">+</p>","","","","","null","allTrialResponses","1000","1","26","img_art/15.jpg","-40","it feels like finger painted art.","Jessica,Lindsey,Taylor,Brooke,Sophia,Alexandra","I think it's trying to execute a cool idea, but unfortunately it doesn't appeal,5,400,20","Not a fan. This piece would only go with very specific decor in a modern home.,-35,400,20","The blues are soothing,21,340,20","This one reminds me of a postage stamp, but branches and leaves. Kind of fun.,15,60,20","I feel like there's ski jumping going on here.,2,280,20","This is sort of ugly, but I do like the design.,10,60,20","Lindsey","Not a fan. This piece would only go with very specific decor in a modern home.,-35,400,20","Jessica","I think it's trying to execute a cool idea, but unfortunately it doesn't appeal,5,400,20","Sophia","I feel like there's ski jumping going on here.,2,280,20","2"
"35701","","survey-text","232","3893659","0.0-231.0-0.0","A36SNKUPZRJMHX","","","","{""Q0"":""A red candlestick with burning flame. ""}","","","","","","","","","","","","","","","","","","","","","","",""
"9766","","image-slider-response","233","3903432","0.0-232.0","A36SNKUPZRJMHX","","","","","-25","","","","","","","","","","","","","","","","","","","","","",""
"null","","image-button-response","234","3908439","0.0-233.0","A36SNKUPZRJMHX","img_art/4.jpg","null","","","","","","","","","","","","","","","","","","","","","","","","",""
"20381","","image-button-response","235","3928824","0.0-234.0","A36SNKUPZRJMHX","img_art/4.jpg","0","","","","","","","","","","","","","","","","","","","","","","","","",""
"7955","","image-button-response","236","3936786","0.0-235.0-0.0","A36SNKUPZRJMHX","img_art/4.jpg","2","","","","","","","","","","","","","","","","","","","","","","","","",""
"5630","","image-button-response","237","3942423","0.0-236.0-0.0","A36SNKUPZRJMHX","img_art/4.jpg","3","","","","","","","","","","","","","","","","","","","","","","","","",""
"null","","html-keyboard-response","238","3943928","0.0-237.0","A36SNKUPZRJMHX","<p style=""font-size: 48px;"">+</p>","","","","","null","allTrialResponses","1500","1","27","img_art/4.jpg","-25","A red candlestick with burning flame. ","Jessica,Lindsey,Stephanie,Cynthia,Sophia,Monica","Looks like they just smothered on some paint and called it a day.,-17,400,20","Looks like feces smeared on the canvas. I hate it.,-50,400,20","It looks like a hand someone scribbled over,-30,300,20","creepy as it looks like fingernails,-23,320,20","This looks like what happens when someone steps on a mustard packet.,-7,280,20","The dark yellow color makes me think of mustard, which I dislike,-27,360,20","Jessica","Looks like they just smothered on some paint and called it a day.,-17,400,20","Stephanie","It looks like a hand someone scribbled over,-30,300,20","Cynthia","creepy as it looks like fingernails,-23,320,20","2"
"42690","","survey-text","239","3986635","0.0-238.0-0.0","A36SNKUPZRJMHX","","","","{""Q0"":""A strange ship on a calm sea.""}","","","","","","","","","","","","","","","","","","","","","","",""
"10284","","image-slider-response","240","3996928","0.0-239.0","A36SNKUPZRJMHX","","","","","-30","","","","","","","","","","","","","","","","","","","","","",""
"null","","image-button-response","241","4001934","0.0-240.0","A36SNKUPZRJMHX","img_art/10.jpg","null","","","","","","","","","","","","","","","","","","","","","","","","",""
"8458","","image-button-response","242","4010396","0.0-241.0","A36SNKUPZRJMHX","img_art/10.jpg","4","","","","","","","","","","","","","","","","","","","","","","","","",""
"2577","","image-button-response","243","4012981","0.0-242.0-0.0","A36SNKUPZRJMHX","img_art/10.jpg","5","","","","","","","","","","","","","","","","","","","","","","","","",""
"11625","","image-button-response","244","4024612","0.0-243.0-0.0","A36SNKUPZRJMHX","img_art/10.jpg","2","","","","","","","","","","","","","","","","","","","","","","","","",""
"null","","html-keyboard-response","245","4026118","0.0-244.0","A36SNKUPZRJMHX","<p style=""font-size: 48px;"">+</p>","","","","","null","allTrialResponses","1500","1","28","img_art/10.jpg","-30","A strange ship on a calm sea.","Jessica,Nicole,Stephanie,Cynthia,Morgan,Kaitlyn","I feel like this has a cool concept behind it.,11,400,20","Too much negative space makes it feel unfinished,-25,20,20","The black color is depressing.,-50,300,20","cultural with a symphony,40,320,20","Roller coaster on an island.,9,380,20","Picture looks smudged,-7,80,20","Morgan","Roller coaster on an island.,9,380,20","Kaitlyn","Picture looks smudged,-7,80,20","Stephanie","The black color is depressing.,-50,300,20","2"
"88538","","survey-text","246","4114674","0.0-245.0-0.0","A36SNKUPZRJMHX","","","","{""Q0"":""I only feel motion in this piece, but confused on what I'm seeing.""}","","","","","","","","","","","","","","","","","","","","","","",""
"12141","","image-slider-response","247","4126822","0.0-246.0","A36SNKUPZRJMHX","","","","","-25","","","","","","","","","","","","","","","","","","","","","",""
"null","","image-button-response","248","4131830","0.0-247.0","A36SNKUPZRJMHX","img_art/5.jpg","null","","","","","","","","","","","","","","","","","","","","","","","","",""
"5731","","image-button-response","249","4137565","0.0-248.0","A36SNKUPZRJMHX","img_art/5.jpg","0","","","","","","","","","","","","","","","","","","","","","","","","",""
"1490","","image-button-response","250","4139061","0.0-249.0-0.0","A36SNKUPZRJMHX","img_art/5.jpg","2","","","","","","","","","","","","","","","","","","","","","","","","",""
"22526","","image-button-response","251","4161593","0.0-250.0-0.0","A36SNKUPZRJMHX","img_art/5.jpg","3","","","","","","","","","","","","","","","","","","","","","","","","",""
"null","","html-keyboard-response","252","4162597","0.0-251.0","A36SNKUPZRJMHX","<p style=""font-size: 48px;"">+</p>","","","","","null","allTrialResponses","1000","1","29","img_art/5.jpg","-25","I only feel motion in this piece, but confused on what I'm seeing.","Kayla,Mariah,Stephanie,Diana,Morgan,Kaitlyn","I like that the pyramid is putting off a beacon of light.,11,180,20","It feels very strong and open.,31,140,20","This did not do a thing for me.,-50,300,20","I didn't care for this art piece. I wasn't sure about the color choice.,-15,380,20","Dull pyramid that says nothing.,7,380,20","Wish the background had been kept clean; distracts from main object,11,80,20","Kayla","I like that the pyramid is putting off a beacon of light.,11,180,20","Stephanie","This did not do a thing for me.,-50,300,20","Diana","I didn't care for this art piece. I wasn't sure about the color choice.,-15,380,20","2"
"39106","","survey-text","253","4201719","0.0-252.0-0.0","A36SNKUPZRJMHX","","","","{""Q0"":""Is this a crime scene?""}","","","","","","","","","","","","","","","","","","","","","","",""
"6224","","image-slider-response","254","4207949","0.0-253.0","A36SNKUPZRJMHX","","","","","-50","","","","","","","","","","","","","","","","","","","","","",""
"null","","image-button-response","255","4212958","0.0-254.0","A36SNKUPZRJMHX","img_art/3.jpg","null","","","","","","","","","","","","","","","","","","","","","","","","",""
"2204","","image-button-response","256","4215166","0.0-255.0","A36SNKUPZRJMHX","img_art/3.jpg","1","","","","","","","","","","","","","","","","","","","","","","","","",""
"5805","","image-button-response","257","4220979","0.0-256.0-0.0","A36SNKUPZRJMHX","img_art/3.jpg","4","","","","","","","","","","","","","","","","","","","","","","","","",""
"4350","","image-button-response","258","4225335","0.0-257.0-0.0","A36SNKUPZRJMHX","img_art/3.jpg","5","","","","","","","","","","","","","","","","","","","","","","","","",""
"null","","html-keyboard-response","259","4225840","0.0-258.0","A36SNKUPZRJMHX","<p style=""font-size: 48px;"">+</p>","","","","","null","allTrialResponses","500","1","30","img_art/3.jpg","-50","Is this a crime scene?","Kayla,Caroline,Stephanie,Diana,Tiffany,Claire","Really have no idea what I'm looking at.,1,180,20","The red makes me think of blood which makes me think of pain,-50,100,20","I think of an angry child,-50,300,20","I didn't feel the color choice when I first looked. I did however like the placement of the gray.,-28,380,20","I feel uncomfortable, like I am looking at a crime scene.,-17,360,20","looks like a kid scribbled with crayon,-35,260,20","Caroline","The red makes me think of blood which makes me think of pain,-50,100,20","Tiffany","I feel uncomfortable, like I am looking at a crime scene.,-17,360,20","Claire","looks like a kid scribbled with crayon,-35,260,20","2"
"4585","","image-button-response_instructions","260","4230455","0.0-259.0","A36SNKUPZRJMHX","","0","instructions","","","","","","","","","","","","","","","","","","","","","","","",""
