"rt","url","trial_type","trial_index","time_elapsed","internal_node_id","participant_id","stimulus","button_pressed","Name","responses","response","key_press","variableName","fixationTime","condition","trial","photo","subjectRating","subjectResponse","agentsNames","agent_1_Response","agent_2_Response","agent_3_Response","agent_4_Response","agent_5_Response","agent_6_Response","kept_1_name","kept_1_response","kept_2_name","kept_2_response","kept_3_name","kept_3_response","errorCounter"
"4323","external_page_harvard.html","external-html","0","4363","0.0-0.0","A37OW71AEYVEDM","","","","","","","","","","","","","","","","","","","","","","","","","","",""
"2227","","image-button-response","1","6591","0.0-1.0","A37OW71AEYVEDM","","1","","","","","","","","","","","","","","","","","","","","","","","","",""
"1910","","image-button-response","2","8507","0.0-2.0-0.0","A37OW71AEYVEDM","","1","phone","","","","","","","","","","","","","","","","","","","","","","","",""
"8861","","survey-text","3","17370","0.0-3.0-0.0","A37OW71AEYVEDM","","","","{""Q0"":""A37OW71AEYVEDM""}","","","","","","","","","","","","","","","","","","","","","","",""
"5623","","image-button-response_instructions","4","22995","0.0-4.0","A37OW71AEYVEDM","","0","instructions","","","","","","","","","","","","","","","","","","","","","","","",""
"13801","","image-button-response_instructions","5","36797","0.0-5.0","A37OW71AEYVEDM","img_art/ins/popularity/ins1.png","0","instructions","","","","","","","","","","","","","","","","","","","","","","","",""
"7819","","image-button-response_instructions","6","44616","0.0-6.0","A37OW71AEYVEDM","img_art/ins/popularity/ins2.png","0","instructions","","","","","","","","","","","","","","","","","","","","","","","",""
"9523","","image-button-response_instructions","7","54140","0.0-7.0","A37OW71AEYVEDM","img_art/ins/popularity/ins2Extreme.png","0","instructions","","","","","","","","","","","","","","","","","","","","","","","",""
"6009","","image-button-response_instructions","8","60149","0.0-8.0","A37OW71AEYVEDM","img_art/ins/popularity/ins3KEEPpop.PNG","0","instructions","","","","","","","","","","","","","","","","","","","","","","","",""
"8753","","image-button-response_instructions","9","68902","0.0-9.0","A37OW71AEYVEDM","img_art/ins/popularity/ins3ANamepop.PNG","0","instructions","","","","","","","","","","","","","","","","","","","","","","","",""
"19460","","image-button-response_instructions","10","88363","0.0-10.0","A37OW71AEYVEDM","img_art/ins/popularity/ins3ARatingpop.png","0","instructions","","","","","","","","","","","","","","","","","","","","","","","",""
"3396","","image-button-response_instructions","11","91760","0.0-11.0","A37OW71AEYVEDM","img_art/ins/popularity/ins3ATextpop.png","0","instructions","","","","","","","","","","","","","","","","","","","","","","","",""
"3820","","image-button-response_instructions","12","95582","0.0-12.0","A37OW71AEYVEDM","img_art/ins/popularity/ins3ALikespop.png","0","instructions","","","","","","","","","","","","","","","","","","","","","","","",""
"9308","","image-button-response_instructions","13","104890","0.0-13.0","A37OW71AEYVEDM","img_art/ins/popularity/ins3KEEPpop.PNG","0","instructions","","","","","","","","","","","","","","","","","","","","","","","",""
"5386","","image-button-response_instructions","14","110277","0.0-14.0","A37OW71AEYVEDM","img_art/ins/popularity/ins3_5RED.png","0","instructions","","","","","","","","","","","","","","","","","","","","","","","",""
"1777","","image-button-response_instructions","15","112055","0.0-15.0","A37OW71AEYVEDM","img_art/ins/popularity/ins3KEEPpop.PNG","0","instructions","","","","","","","","","","","","","","","","","","","","","","","",""
"8010","","image-button-response_instructions","16","120066","0.0-16.0","A37OW71AEYVEDM","img_art/ins/popularity/ins4KEEPpop.PNG","0","instructions","","","","","","","","","","","","","","","","","","","","","","","",""
"6040","","image-button-response_instructions","17","126106","0.0-17.0","A37OW71AEYVEDM","img_art/ins/popularity/ins5KEEPpop.PNG","0","instructions","","","","","","","","","","","","","","","","","","","","","","","",""
"1451","","image-button-response_instructions","18","127557","0.0-18.0","A37OW71AEYVEDM","","0","instructions","","","","","","","","","","","","","","","","","","","","","","","",""
"4761","","survey-text","19","132340","0.0-19.0-0.0","A37OW71AEYVEDM","","","","{""Q0"":""but""}","","","","","","","","","","","","","","","","","","","","","","",""
"46577","","survey-text","20","178919","0.0-20.0-0.0","A37OW71AEYVEDM","","","","{""Q0"":""It would appear that the kindergarteners used the pastel colored crayons today.""}","","","","","","","","","","","","","","","","","","","","","","",""
"4333","","image-slider-response","21","183253","0.0-21.0","A37OW71AEYVEDM","","","","","-30","","","","","","","","","","","","","","","","","","","","","",""
"null","","image-button-response","22","188257","0.0-22.0","A37OW71AEYVEDM","img_art/ins/1.jpg","null","","","","","","","","","","","","","","","","","","","","","","","","",""
"11443","","image-button-response","23","199701","0.0-23.0","A37OW71AEYVEDM","img_art/ins/1.jpg","3","","","","","","","","","","","","","","","","","","","","","","","","",""
"8690","","image-button-response","24","208392","0.0-24.0-0.0","A37OW71AEYVEDM","img_art/ins/1.jpg","5","","","","","","","","","","","","","","","","","","","","","","","","",""
"1470","","image-button-response","25","209864","0.0-25.0-0.0","A37OW71AEYVEDM","img_art/ins/1.jpg","2","","","","","","","","","","","","","","","","","","","","","","","","",""
"null","","html-keyboard-response","26","210367","0.0-26.0","A37OW71AEYVEDM","<p style=""font-size: 48px;"">+</p>","","","","","null","allTrialResponses","500","1","-2","img_art/ins/1.jpg","-30","It would appear that the kindergarteners used the pastel colored crayons today.","Allison,Ashley,Beth,Dora,Erika,Jen","looks like a lot of things going on in the mist,20,20,20","I just don't get why these type of art would be popular,-32,40,20","This color reminds me of poo,-46,60,20","looks like what my niece in 3rd grade did this afternoon,-50,80,20","I like the sophisticated brushwork,40,100,20","It reminds me of a candy land dream I had,36,120,20","Dora","looks like what my niece in 3rd grade did this afternoon,-50,80,20","Jen","It reminds me of a candy land dream I had,36,120,20","Beth","This color reminds me of poo,-46,60,20","0"
"27084","","survey-text","27","237456","0.0-27.0-0.0","A37OW71AEYVEDM","","","","{""Q0"":""Lumpy cubism trying to pass as art.""}","","","","","","","","","","","","","","","","","","","","","","",""
"5636.000000000029","","image-slider-response","28","243093","0.0-28.0","A37OW71AEYVEDM","","","","","-50","","","","","","","","","","","","","","","","","","","","","",""
"null","","image-button-response","29","248096","0.0-29.0","A37OW71AEYVEDM","img_art/ins/2.jpg","null","","","","","","","","","","","","","","","","","","","","","","","","",""
"1443","","image-button-response","30","249540","0.0-30.0","A37OW71AEYVEDM","img_art/ins/2.jpg","1","","","","","","","","","","","","","","","","","","","","","","","","",""
"1150","","image-button-response","31","250692","0.0-31.0-0.0","A37OW71AEYVEDM","img_art/ins/2.jpg","2","","","","","","","","","","","","","","","","","","","","","","","","",""
"1808","","image-button-response","32","252502","0.0-32.0-0.0","A37OW71AEYVEDM","img_art/ins/2.jpg","5","","","","","","","","","","","","","","","","","","","","","","","","",""
"null","","html-keyboard-response","33","254004","0.0-33.0","A37OW71AEYVEDM","<p style=""font-size: 48px;"">+</p>","","","","","null","allTrialResponses","1500","1","-1","img_art/ins/2.jpg","-50","Lumpy cubism trying to pass as art.","Katie,Jenna,Beth,Dora,Kara,Jen","too much color!,-28,180,20","One of my pet peevs,-48,140,20","meaningless painting,-45,60,20","looks too angry,-50,80,20","I like the blocks of color arrangements,30,160,20","It reminds me of a fireplace,36,120,20","Jenna","One of my pet peevs,-48,140,20","Beth","meaningless painting,-45,60,20","Jen","It reminds me of a fireplace,36,120,20","0"
"27087","","survey-text","34","281096","0.0-34.0-0.0","A37OW71AEYVEDM","","","","{""Q0"":""New tube of blue paint and only 1 paintbrush.""}","","","","","","","","","","","","","","","","","","","","","","",""
"5050","","image-slider-response","35","286147","0.0-35.0","A37OW71AEYVEDM","","","","","-23","","","","","","","","","","","","","","","","","","","","","",""
"null","","image-button-response","36","291150","0.0-36.0","A37OW71AEYVEDM","img_art/ins/3.jpg","null","","","","","","","","","","","","","","","","","","","","","","","","",""
"5274","","image-button-response","37","296425","0.0-37.0","A37OW71AEYVEDM","img_art/ins/3.jpg","2","","","","","","","","","","","","","","","","","","","","","","","","",""
"1261","","image-button-response","38","297688","0.0-38.0-0.0","A37OW71AEYVEDM","img_art/ins/3.jpg","0","","","","","","","","","","","","","","","","","","","","","","","","",""
"8237","","image-button-response","39","305925","0.0-39.0-0.0","A37OW71AEYVEDM","img_art/ins/3.jpg","1","","","","","","","","","","","","","","","","","","","","","","","","",""
"null","","html-keyboard-response","40","307427","0.0-40.0","A37OW71AEYVEDM","<p style=""font-size: 48px;"">+</p>","","","","","null","allTrialResponses","1500","1","0","img_art/ins/3.jpg","-23","New tube of blue paint and only 1 paintbrush.","Rose,Jenna,Beth,Leslie,Mary,Jen","My daily routine, it's depressing,-20,240,20","looks like a murder room,-35,140,20","This thing gives me anxiety,-41,60,20","It's an alright work,15,200,20","I like the overlapping of brushes,41,220,20","I can feel a rainy day from this painting,18,120,20","Beth","This thing gives me anxiety,-41,60,20","Rose","My daily routine, it's depressing,-20,240,20","Jenna","looks like a murder room,-35,140,20","0"
"4426","","image-button-response_instructions","41","311858","0.0-41.0","A37OW71AEYVEDM","","0","instructions","","","","","","","","","","","","","","","","","","","","","","","",""
"16824","","survey-likert","42","328684","0.0-42.0-0.0","A37OW71AEYVEDM","","","","{""Q0"":"""",""Q1"":0,""Q2"":1}","","","","","","","","","","","","","","","","","","","","","","",""
"4169","","survey-text","43","332857","0.0-43.0-0.0","A37OW71AEYVEDM","","","","{""Q0"":""rock""}","","","","","","","","","","","","","","","","","","","","","","",""
"56109","","survey-text","44","388967","0.0-44.0-0.0","A37OW71AEYVEDM","","","","{""Q0"":""Powerful man destroying an ancient civilization.""}","","","","","","","","","","","","","","","","","","","","","","",""
"6408","","image-slider-response","45","395376","0.0-45.0","A37OW71AEYVEDM","","","","","12","","","","","","","","","","","","","","","","","","","","","",""
"null","","image-button-response","46","400401","0.0-46.0","A37OW71AEYVEDM","img_art/8.jpg","null","","","","","","","","","","","","","","","","","","","","","","","","",""
"4762","","image-button-response","47","405164","0.0-47.0","A37OW71AEYVEDM","img_art/8.jpg","2","","","","","","","","","","","","","","","","","","","","","","","","",""
"6554","","image-button-response","48","411719","0.0-48.0-0.0","A37OW71AEYVEDM","img_art/8.jpg","3","","","","","","","","","","","","","","","","","","","","","","","","",""
"2958","","image-button-response","49","414679","0.0-49.0-0.0","A37OW71AEYVEDM","img_art/8.jpg","5","","","","","","","","","","","","","","","","","","","","","","","","",""
"null","","html-keyboard-response","50","415181","0.0-50.0","A37OW71AEYVEDM","<p style=""font-size: 48px;"">+</p>","","","","","null","allTrialResponses","500","1","1","img_art/8.jpg","12","Powerful man destroying an ancient civilization.","Leah,Savannah,Jennifer,Monica,Jamie,Rebecca","Nice formats, I just don't like it much,-16,360,20","Despite the detail, this picture is very abstract!,31,200,20","Not my favorite but has an interesting concept,32,380,20","The faces in the upper left show agony and contrast with the geometric shapes too much,-31,360,20","Cool designs and color schemes,44,320,20","gives off inception vibes <3,50,100,20","Jennifer","Not my favorite but has an interesting concept,32,380,20","Monica","The faces in the upper left show agony and contrast with the geometric shapes too much,-31,360,20","Rebecca","gives off inception vibes <3,50,100,20","0"
"62380","","survey-text","51","477566","0.0-51.0-0.0","A37OW71AEYVEDM","","","","{""Q0"":""Dystopian Future.  Blurred edges make it look like everything melted during the destruction.""}","","","","","","","","","","","","","","","","","","","","","","",""
"5324","","image-slider-response","52","482891","0.0-52.0","A37OW71AEYVEDM","","","","","-17","","","","","","","","","","","","","","","","","","","","","",""
"null","","image-button-response","53","487894","0.0-53.0","A37OW71AEYVEDM","img_art/20.jpg","null","","","","","","","","","","","","","","","","","","","","","","","","",""
"7109","","image-button-response","54","495005","0.0-54.0","A37OW71AEYVEDM","img_art/20.jpg","3","","","","","","","","","","","","","","","","","","","","","","","","",""
"4111","","image-button-response","55","499117","0.0-55.0-0.0","A37OW71AEYVEDM","img_art/20.jpg","0","","","","","","","","","","","","","","","","","","","","","","","","",""
"3447","","image-button-response","56","502565","0.0-56.0-0.0","A37OW71AEYVEDM","img_art/20.jpg","1","","","","","","","","","","","","","","","","","","","","","","","","",""
"null","","html-keyboard-response","57","503568","0.0-57.0","A37OW71AEYVEDM","<p style=""font-size: 48px;"">+</p>","","","","","null","allTrialResponses","1000","1","2","img_art/20.jpg","-17","Dystopian Future.  Blurred edges make it look like everything melted during the destruction.","Meghan,Heather,Jennifer,Monica,Morgan,Rebecca","feels distorted and uncomfortable,-41,220,20","make me feel like its a little country maybe a tractor and a skull head of a bull,1,260,20","Neutral, this piece doesn't strike me as particularly bad or good,0,380,20","It looks like a junkyard and isn't appealing,-22,360,20","The beach and industry.,12,380,20","reminds me of georgia o'keeffe's skull,22,100,20","Monica","It looks like a junkyard and isn't appealing,-22,360,20","Meghan","feels distorted and uncomfortable,-41,220,20","Heather","make me feel like its a little country maybe a tractor and a skull head of a bull,1,260,20","0"
"37187","","survey-text","58","540761","0.0-58.0-0.0","A37OW71AEYVEDM","","","","{""Q0"":""Looks like someone got stoned and made a sketch.""}","","","","","","","","","","","","","","","","","","","","","","",""
"4309","","image-slider-response","59","545071","0.0-59.0","A37OW71AEYVEDM","","","","","-50","","","","","","","","","","","","","","","","","","","","","",""
"null","","image-button-response","60","550074","0.0-60.0","A37OW71AEYVEDM","img_art/28.jpg","null","","","","","","","","","","","","","","","","","","","","","","","","",""
"609","","image-button-response","61","550684","0.0-61.0","A37OW71AEYVEDM","img_art/28.jpg","2","","","","","","","","","","","","","","","","","","","","","","","","",""
"4272","","image-button-response","62","554957","0.0-62.0-0.0","A37OW71AEYVEDM","img_art/28.jpg","4","","","","","","","","","","","","","","","","","","","","","","","","",""
"4837","","image-button-response","63","559796","0.0-63.0-0.0","A37OW71AEYVEDM","img_art/28.jpg","5","","","","","","","","","","","","","","","","","","","","","","","","",""
"null","","html-keyboard-response","64","560298","0.0-64.0","A37OW71AEYVEDM","<p style=""font-size: 48px;"">+</p>","","","","","null","allTrialResponses","500","1","3","img_art/28.jpg","-50","Looks like someone got stoned and made a sketch.","Meghan,Heather,Jasmine,Monica,Angela,Megan","I don't like the color choice,-30,220,20","not sure what i feel but it makes me feel uncomfortable,1,260,20","Colors too dull for me,-10,340,20","The dark colors make it look dirty and the shapes make me uncomfortable,-50,360,20","This reminds me of internal organs.,-10,260,20","Compact grey mess lack negative space,-10,200,20","Jasmine","Colors too dull for me,-10,340,20","Angela","This reminds me of internal organs.,-10,260,20","Megan","Compact grey mess lack negative space,-10,200,20","0"
"24420","","survey-text","65","584724","0.0-65.0-0.0","A37OW71AEYVEDM","","","","{""Q0"":""Immediately thought of the surface of the moon!""}","","","","","","","","","","","","","","","","","","","","","","",""
"8009","","image-slider-response","66","592734","0.0-66.0","A37OW71AEYVEDM","","","","","2","","","","","","","","","","","","","","","","","","","","","",""
"4899","","image-button-response","67","597736","0.0-67.0","A37OW71AEYVEDM","img_art/7.jpg","1","","","","","","","","","","","","","","","","","","","","","","","","",""
"6105","","image-button-response","68","603842","0.0-68.0","A37OW71AEYVEDM","img_art/7.jpg","4","","","","","","","","","","","","","","","","","","","","","","","","",""
"6062","","image-button-response","69","609905","0.0-69.0-0.0","A37OW71AEYVEDM","img_art/7.jpg","1","","","","","","","","","","","","","","","","","","","","","","","","",""
"8980","","image-button-response","70","618887","0.0-70.0-0.0","A37OW71AEYVEDM","img_art/7.jpg","3","","","","","","","","","","","","","","","","","","","","","","","","",""
"null","","html-keyboard-response","71","620389","0.0-71.0","A37OW71AEYVEDM","<p style=""font-size: 48px;"">+</p>","","","","","null","allTrialResponses","1500","1","4","img_art/7.jpg","2","Immediately thought of the surface of the moon!","Angelica,Kelsey,Jasmine,Stephanie,Angela,Megan","This is vague and ugly.,-3,280,20","its like oatmeal with granola,-47,240,20","It just reminds me of dirt,-10,340,20","This looks muddy and stomped on. I think of destruction.,-50,300,20","Looks like vomit, or chunky feces,-42,260,20","Great portrayal of solid surface,19,200,20","Angela","Looks like vomit, or chunky feces,-42,260,20","Kelsey","its like oatmeal with granola,-47,240,20","Stephanie","This looks muddy and stomped on. I think of destruction.,-50,300,20","0"
"44443","","survey-text","72","664836","0.0-72.0-0.0","A37OW71AEYVEDM","","","","{""Q0"":""Looks like sound travelling through the universe after ingesting mushrooms.""}","","","","","","","","","","","","","","","","","","","","","","",""
"5538.999999999884","","image-slider-response","73","670377","0.0-73.0","A37OW71AEYVEDM","","","","","13","","","","","","","","","","","","","","","","","","","","","",""
"null","","image-button-response","74","675379","0.0-74.0","A37OW71AEYVEDM","img_art/23.jpg","null","","","","","","","","","","","","","","","","","","","","","","","","",""
"12907","","image-button-response","75","688288","0.0-75.0","A37OW71AEYVEDM","img_art/23.jpg","3","","","","","","","","","","","","","","","","","","","","","","","","",""
"3659","","image-button-response","76","691948","0.0-76.0-0.0","A37OW71AEYVEDM","img_art/23.jpg","0","","","","","","","","","","","","","","","","","","","","","","","","",""
"3717","","image-button-response","77","695665","0.0-77.0-0.0","A37OW71AEYVEDM","img_art/23.jpg","0","","","","","","","","","","","","","","","","","","","","","","","","",""
"11556","","image-button-response","78","710970","0.0-77.1-0.1","A37OW71AEYVEDM","img_art/23.jpg","2","","","","","","","","","","","","","","","","","","","","","","","","",""
"null","","html-keyboard-response","79","711472","0.0-78.0","A37OW71AEYVEDM","<p style=""font-size: 48px;"">+</p>","","","","","null","allTrialResponses","500","1","5","img_art/23.jpg","13","Looks like sound travelling through the universe after ingesting mushrooms.","Madison,Kelsey,Brittany,Stephanie,Angela,Allison","Looks celebratory and joyful! However, the photograph does not do the original work's colors justice.,27,60,20","i think this ones okay,10,240,20","The white paint through the middle really draws the eye.,30,40,20","This makes me think of an orchestra playing a forth of july song,12,300,20","Like the background colors and the energy, but the white bits ruin it for me,-7,260,20","I like the color contrast, though I'm unable to tell what the white shapes are.,25,140,20","Stephanie","This makes me think of an orchestra playing a forth of july song,12,300,20","Madison","Looks celebratory and joyful! However, the photograph does not do the original work's colors justice.,27,60,20","Brittany","The white paint through the middle really draws the eye.,30,40,20","2"
"3921","","survey-text","80","715400","0.0-79.0-0.0","A37OW71AEYVEDM","","","","{""Q0"":""sky""}","","","","","","","","","","","","","","","","","","","","","","",""
"46763","","survey-text","81","762164","0.0-80.0-0.0","A37OW71AEYVEDM","","","","{""Q0"":""A 7yo painting the city with her new watercolors.""}","","","","","","","","","","","","","","","","","","","","","","",""
"6809.999999999884","","image-slider-response","82","768976","0.0-81.0","A37OW71AEYVEDM","","","","","-22","","","","","","","","","","","","","","","","","","","","","",""
"null","","image-button-response","83","773979","0.0-82.0","A37OW71AEYVEDM","img_art/26.jpg","null","","","","","","","","","","","","","","","","","","","","","","","","",""
"2561","","image-button-response","84","776542","0.0-83.0","A37OW71AEYVEDM","img_art/26.jpg","2","","","","","","","","","","","","","","","","","","","","","","","","",""
"4134","","image-button-response","85","780677","0.0-84.0-0.0","A37OW71AEYVEDM","img_art/26.jpg","5","","","","","","","","","","","","","","","","","","","","","","","","",""
"11533","","image-button-response","86","792211","0.0-85.0-0.0","A37OW71AEYVEDM","img_art/26.jpg","3","","","","","","","","","","","","","","","","","","","","","","","","",""
"null","","html-keyboard-response","87","793713","0.0-86.0","A37OW71AEYVEDM","<p style=""font-size: 48px;"">+</p>","","","","","null","allTrialResponses","1500","1","6","img_art/26.jpg","-22","A 7yo painting the city with her new watercolors.","Madison,Kylie,Brittany,Stephanie,Grace,Cassandra","Colors look glum; photograph is not properly contrasted and does not reflect the appropriate amount of natural light.,-10,60,20","Picturesque little town,45,300,20","It looks boring and too rough.,-9,40,20","Day just begun in the city and the stores are opening their doors.,41,300,20","Like the muted colors & the scene which seems to be serene.,14,180,20","Neutral...nothing to say.,3,120,20","Brittany","It looks boring and too rough.,-9,40,20","Cassandra","Neutral...nothing to say.,3,120,20","Stephanie","Day just begun in the city and the stores are opening their doors.,41,300,20","2"
"55129","","survey-text","88","848847","0.0-87.0-0.0","A37OW71AEYVEDM","","","","{""Q0"":""Looking down to the bay in San Francisco after way too much partying.""}","","","","","","","","","","","","","","","","","","","","","","",""
"6096","","image-slider-response","89","854944","0.0-88.0","A37OW71AEYVEDM","","","","","16","","","","","","","","","","","","","","","","","","","","","",""
"null","","image-button-response","90","859947","0.0-89.0","A37OW71AEYVEDM","img_art/19.jpg","null","","","","","","","","","","","","","","","","","","","","","","","","",""
"3274","","image-button-response","91","863222","0.0-90.0","A37OW71AEYVEDM","img_art/19.jpg","4","","","","","","","","","","","","","","","","","","","","","","","","",""
"8297","","image-button-response","92","871520","0.0-91.0-0.0","A37OW71AEYVEDM","img_art/19.jpg","1","","","","","","","","","","","","","","","","","","","","","","","","",""
"5966","","image-button-response","93","877488","0.0-92.0-0.0","A37OW71AEYVEDM","img_art/19.jpg","5","","","","","","","","","","","","","","","","","","","","","","","","",""
"null","","html-keyboard-response","94","877990","0.0-93.0","A37OW71AEYVEDM","<p style=""font-size: 48px;"">+</p>","","","","","null","allTrialResponses","500","1","7","img_art/19.jpg","16","Looking down to the bay in San Francisco after way too much partying.","Jessica,Jenna,Brittany,Stephanie,Lindsey,Cassandra","Vibrant and colorful,13,400,20","love the muted colors and added sketchy lines. calming without being boring.,50,360,20","It looks too much of a rough sketch. Don't really enjoy looking at it.,-9,40,20","A dreary town in the fall.,-4,300,20","Pleasant colors with just enough detail to be recognizable. I can see a scene in it that tells a story.,7,400,20","Nuetral...can't think of anything to say,4,120,20","Lindsey","Pleasant colors with just enough detail to be recognizable. I can see a scene in it that tells a story.,7,400,20","Jenna","love the muted colors and added sketchy lines. calming without being boring.,50,360,20","Cassandra","Nuetral...can't think of anything to say,4,120,20","2"
"51001","","survey-text","95","928997","0.0-94.0-0.0","A37OW71AEYVEDM","","","","{""Q0"":""Definitely getting an 80s vibe from the splatters and colors. ""}","","","","","","","","","","","","","","","","","","","","","","",""
"4859","","image-slider-response","96","933856","0.0-95.0","A37OW71AEYVEDM","","","","","-32","","","","","","","","","","","","","","","","","","","","","",""
"null","","image-button-response","97","938859","0.0-96.0","A37OW71AEYVEDM","img_art/13.jpg","null","","","","","","","","","","","","","","","","","","","","","","","","",""
"3289","","image-button-response","98","942149","0.0-97.0","A37OW71AEYVEDM","img_art/13.jpg","4","","","","","","","","","","","","","","","","","","","","","","","","",""
"4096","","image-button-response","99","946245","0.0-98.0-0.0","A37OW71AEYVEDM","img_art/13.jpg","2","","","","","","","","","","","","","","","","","","","","","","","","",""
"5434","","image-button-response","100","951681","0.0-99.0-0.0","A37OW71AEYVEDM","img_art/13.jpg","3","","","","","","","","","","","","","","","","","","","","","","","","",""
"null","","html-keyboard-response","101","953183","0.0-100.0","A37OW71AEYVEDM","<p style=""font-size: 48px;"">+</p>","","","","","null","allTrialResponses","1500","1","8","img_art/13.jpg","-32","Definitely getting an 80s vibe from the splatters and colors. ","Mariah,Jenna,Chloe,Haley,Lindsey,Cassandra","Rain on a cold window.,22,140,20","exciting & chaotic. love the colors.,50,360,20","Industrial Jackson Pollock knock-off,-20,220,20","Nothing about this stands out to me,-10,220,20","I find this oddly pleasant, but I object to this style. It's just a background with splatters. How is that art?,-5,400,20","I love the colors and the texture,37,120,20","Lindsey","I find this oddly pleasant, but I object to this style. It's just a background with splatters. How is that art?,-5,400,20","Chloe","Industrial Jackson Pollock knock-off,-20,220,20","Haley","Nothing about this stands out to me,-10,220,20","2"
"39623","","survey-text","102","992811","0.0-101.0-0.0","A37OW71AEYVEDM","","","","{""Q0"":""Diarrhea green should never dominate anything.""}","","","","","","","","","","","","","","","","","","","","","","",""
"3996.0000000001164","","image-slider-response","103","996809","0.0-102.0","A37OW71AEYVEDM","","","","","-50","","","","","","","","","","","","","","","","","","","","","",""
"null","","image-button-response","104","1001811","0.0-103.0","A37OW71AEYVEDM","img_art/2.jpg","null","","","","","","","","","","","","","","","","","","","","","","","","",""
"962","","image-button-response","105","1002774","0.0-104.0","A37OW71AEYVEDM","img_art/2.jpg","2","","","","","","","","","","","","","","","","","","","","","","","","",""
"4924","","image-button-response","106","1007700","0.0-105.0-0.0","A37OW71AEYVEDM","img_art/2.jpg","4","","","","","","","","","","","","","","","","","","","","","","","","",""
"800","","image-button-response","107","1008501","0.0-106.0-0.0","A37OW71AEYVEDM","img_art/2.jpg","3","","","","","","","","","","","","","","","","","","","","","","","","",""
"null","","html-keyboard-response","108","1010004","0.0-107.0","A37OW71AEYVEDM","<p style=""font-size: 48px;"">+</p>","","","","","null","allTrialResponses","1500","1","9","img_art/2.jpg","-50","Diarrhea green should never dominate anything.","Taylor,Andrea,Chloe,Haley,Lindsey,Shelby","Doesn't give me a reaction,10,340,20","It feels like a party and Moulin Rouge.,20,240,20","The color choices and lines seem a bit sloppy?,-10,220,20","My first thought was that it looks like a children's art project,-30,220,20","Not a fan of the colors or the style.,-31,400,20","The contrasting colors are a bit harsh,-10,240,20","Chloe","The color choices and lines seem a bit sloppy?,-10,220,20","Lindsey","Not a fan of the colors or the style.,-31,400,20","Haley","My first thought was that it looks like a children's art project,-30,220,20","2"
"38807","","survey-text","109","1048822","0.0-108.0-0.0","A37OW71AEYVEDM","","","","{""Q0"":""Ghostly trees.  This would make a good book cover.""}","","","","","","","","","","","","","","","","","","","","","","",""
"5157","","image-slider-response","110","1053980","0.0-109.0","A37OW71AEYVEDM","","","","","25","","","","","","","","","","","","","","","","","","","","","",""
"null","","image-button-response","111","1058983","0.0-110.0","A37OW71AEYVEDM","img_art/17.jpg","null","","","","","","","","","","","","","","","","","","","","","","","","",""
"9638","","image-button-response","112","1068622","0.0-111.0","A37OW71AEYVEDM","img_art/17.jpg","3","","","","","","","","","","","","","","","","","","","","","","","","",""
"3802","","image-button-response","113","1072425","0.0-112.0-0.0","A37OW71AEYVEDM","img_art/17.jpg","5","","","","","","","","","","","","","","","","","","","","","","","","",""
"2147","","image-button-response","114","1074574","0.0-113.0-0.0","A37OW71AEYVEDM","img_art/17.jpg","4","","","","","","","","","","","","","","","","","","","","","","","","",""
"null","","html-keyboard-response","115","1075576","0.0-114.0","A37OW71AEYVEDM","<p style=""font-size: 48px;"">+</p>","","","","","null","allTrialResponses","1000","1","10","img_art/17.jpg","25","Ghostly trees.  This would make a good book cover.","Kathryn,Michelle,Chloe,Haley,Lindsey,Cassidy","Reminds me of the modern art museum in Rome. I didn't ""get"" many pieces, but had a positive cultural experience overall.,20,140,20","I can tell there are tress and maybe some doors but I'm not a fan of the style,-2,280,20","Pretty but a little cheesy,-10,220,20","Colors and composition are beautiful. I would hang this in my home.,50,220,20","Pretty composition and I like the colors.,20,400,20","cool. Sharp and blocky below, light and flowing on top. Overall pleasing to look at,32,140,20","Haley","Colors and composition are beautiful. I would hang this in my home.,50,220,20","Cassidy","cool. Sharp and blocky below, light and flowing on top. Overall pleasing to look at,32,140,20","Lindsey","Pretty composition and I like the colors.,20,400,20","2"
"3267","","survey-text","116","1078851","0.0-115.0-0.0","A37OW71AEYVEDM","","","","{""Q0"":""our""}","","","","","","","","","","","","","","","","","","","","","","",""
"48197","","survey-text","117","1127049","0.0-116.0-0.0","A37OW71AEYVEDM","","","","{""Q0"":""Finger painting of a hand sculpture?  How ironic!""}","","","","","","","","","","","","","","","","","","","","","","",""
"4890","","image-slider-response","118","1131941","0.0-117.0","A37OW71AEYVEDM","","","","","6","","","","","","","","","","","","","","","","","","","","","",""
"null","","image-button-response","119","1136944","0.0-118.0","A37OW71AEYVEDM","img_art/4.jpg","null","","","","","","","","","","","","","","","","","","","","","","","","",""
"2536","","image-button-response","120","1139481","0.0-119.0","A37OW71AEYVEDM","img_art/4.jpg","4","","","","","","","","","","","","","","","","","","","","","","","","",""
"3928","","image-button-response","121","1143410","0.0-120.0-0.0","A37OW71AEYVEDM","img_art/4.jpg","5","","","","","","","","","","","","","","","","","","","","","","","","",""
"12493","","image-button-response","122","1155904","0.0-121.0-0.0","A37OW71AEYVEDM","img_art/4.jpg","2","","","","","","","","","","","","","","","","","","","","","","","","",""
"null","","html-keyboard-response","123","1157407","0.0-122.0","A37OW71AEYVEDM","<p style=""font-size: 48px;"">+</p>","","","","","null","allTrialResponses","1500","1","11","img_art/4.jpg","6","Finger painting of a hand sculpture?  How ironic!","Shannon,Melissa,Sara,Haley,Lindsey,Cassidy","I think that this picture is too boring in terms of color and it looks ugly.,-41,220,20","appealing warm palette,6,240,20","Random swirls again,-30,160,20","This image doesn't invoke anything in me,-9,220,20","Looks like feces smeared on the canvas. I hate it.,-50,400,20","Hate the color, and just do not get the point.,-13,140,20","Lindsey","Looks like feces smeared on the canvas. I hate it.,-50,400,20","Cassidy","Hate the color, and just do not get the point.,-13,140,20","Sara","Random swirls again,-30,160,20","2"
"59912","","survey-text","124","1217324","0.0-123.0-0.0","A37OW71AEYVEDM","","","","{""Q0"":""Looks like someone restarted the same picture multiple times without erasing the mistakes.""}","","","","","","","","","","","","","","","","","","","","","","",""
"4625","","image-slider-response","125","1221951","0.0-124.0","A37OW71AEYVEDM","","","","","-50","","","","","","","","","","","","","","","","","","","","","",""
"4246","","image-button-response","126","1226954","0.0-125.0","A37OW71AEYVEDM","img_art/9.jpg","0","","","","","","","","","","","","","","","","","","","","","","","","",""
"3691","","image-button-response","127","1230646","0.0-126.0","A37OW71AEYVEDM","img_art/9.jpg","3","","","","","","","","","","","","","","","","","","","","","","","","",""
"11736","","image-button-response","128","1242383","0.0-127.0-0.0","A37OW71AEYVEDM","img_art/9.jpg","5","","","","","","","","","","","","","","","","","","","","","","","","",""
"6089","","image-button-response","129","1248473","0.0-128.0-0.0","A37OW71AEYVEDM","img_art/9.jpg","0","","","","","","","","","","","","","","","","","","","","","","","","",""
"null","","html-keyboard-response","130","1248976","0.0-129.0","A37OW71AEYVEDM","<p style=""font-size: 48px;"">+</p>","","","","","null","allTrialResponses","500","1","12","img_art/9.jpg","-50","Looks like someone restarted the same picture multiple times without erasing the mistakes.","Hannah,Paige,Sara,Isabella,Lindsey,Cassidy","Someone lying in bed?  Don't care for it.,-14,240,20","I feel this incites anger,-16,60,20","Spiral patterns are not my thing,-30,160,20","Angry beast mouth,-37,280,20","Looks like my niece's doodles.,-50,400,20","The colors are okay, but this looks like someone scribbled with a crayon,1,140,20","Isabella","Angry beast mouth,-37,280,20","Cassidy","The colors are okay, but this looks like someone scribbled with a crayon,1,140,20","Hannah","Someone lying in bed?  Don't care for it.,-14,240,20","2"
"40105","","survey-text","131","1289086","0.0-130.0-0.0","A37OW71AEYVEDM","","","","{""Q0"":""A cat walked on a watercolor.""}","","","","","","","","","","","","","","","","","","","","","","",""
"4685","","image-slider-response","132","1293772","0.0-131.0","A37OW71AEYVEDM","","","","","2","","","","","","","","","","","","","","","","","","","","","",""
"null","","image-button-response","133","1298774","0.0-132.0","A37OW71AEYVEDM","img_art/1.jpg","null","","","","","","","","","","","","","","","","","","","","","","","","",""
"2177","","image-button-response","134","1300952","0.0-133.0","A37OW71AEYVEDM","img_art/1.jpg","1","","","","","","","","","","","","","","","","","","","","","","","","",""
"5141","","image-button-response","135","1306094","0.0-134.0-0.0","A37OW71AEYVEDM","img_art/1.jpg","4","","","","","","","","","","","","","","","","","","","","","","","","",""
"2363","","image-button-response","136","1308458","0.0-135.0-0.0","A37OW71AEYVEDM","img_art/1.jpg","5","","","","","","","","","","","","","","","","","","","","","","","","",""
"null","","html-keyboard-response","137","1309959","0.0-136.0","A37OW71AEYVEDM","<p style=""font-size: 48px;"">+</p>","","","","","null","allTrialResponses","1500","1","13","img_art/1.jpg","2","A cat walked on a watercolor.","Hannah,Margaret,Gabriela,Isabella,Alyssa,Cassidy","Reminds me of fall.,7,240,20","basic reminds me of something a school would have on the wall,-7,100,20","This photo reminds me of a fall afternoon, serene,11,140,20","Warmth of the sun,22,280,20","Its okay,not great.,1,160,20","I like the colors and layers,25,140,20","Margaret","basic reminds me of something a school would have on the wall,-7,100,20","Alyssa","Its okay,not great.,1,160,20","Cassidy","I like the colors and layers,25,140,20","2"
"29055","","survey-text","138","1339020","0.0-137.0-0.0","A37OW71AEYVEDM","","","","{""Q0"":""Apparently the artist hated this piece as well.""}","","","","","","","","","","","","","","","","","","","","","","",""
"4696","","image-slider-response","139","1343717","0.0-138.0","A37OW71AEYVEDM","","","","","-43","","","","","","","","","","","","","","","","","","","","","",""
"null","","image-button-response","140","1348721","0.0-139.0","A37OW71AEYVEDM","img_art/29.jpg","null","","","","","","","","","","","","","","","","","","","","","","","","",""
"7830","","image-button-response","141","1356551","0.0-140.0","A37OW71AEYVEDM","img_art/29.jpg","1","","","","","","","","","","","","","","","","","","","","","","","","",""
"2665","","image-button-response","142","1359217","0.0-141.0-0.0","A37OW71AEYVEDM","img_art/29.jpg","5","","","","","","","","","","","","","","","","","","","","","","","","",""
"9293","","image-button-response","143","1368513","0.0-142.0-0.0","A37OW71AEYVEDM","img_art/29.jpg","3","","","","","","","","","","","","","","","","","","","","","","","","",""
"null","","html-keyboard-response","144","1369515","0.0-143.0","A37OW71AEYVEDM","<p style=""font-size: 48px;"">+</p>","","","","","null","allTrialResponses","1000","1","14","img_art/29.jpg","-43","Apparently the artist hated this piece as well.","Anna,Margaret,Autumn,Chelsea,Alyssa,Cassidy","I like the texture and colors and how it makes me feel. I like how it's different from other abstract art.,45,300,20","this does nothing for me. hate the colors. hate the design,-50,100,20","It's too messy.,-25,340,20","It is intriguing but I don't like the red X.,6,180,20","Its interesting although doesnt illicit any strong emotions from me,10,160,20","I like the colors but it looks very amateur,1,140,20","Margaret","this does nothing for me. hate the colors. hate the design,-50,100,20","Cassidy","I like the colors but it looks very amateur,1,140,20","Chelsea","It is intriguing but I don't like the red X.,6,180,20","2"
"62734","","survey-text","145","1432255","0.0-144.0-0.0","A37OW71AEYVEDM","","","","{""Q0"":""Stab, stab, stab with black.  Shit, too much black.  Here’s some blue.""}","","","","","","","","","","","","","","","","","","","","","","",""
"4889.000000000233","","image-slider-response","146","1437145","0.0-145.0","A37OW71AEYVEDM","","","","","-47","","","","","","","","","","","","","","","","","","","","","",""
"null","","image-button-response","147","1442147","0.0-146.0","A37OW71AEYVEDM","img_art/15.jpg","null","","","","","","","","","","","","","","","","","","","","","","","","",""
"666","","image-button-response","148","1442815","0.0-147.0","A37OW71AEYVEDM","img_art/15.jpg","5","","","","","","","","","","","","","","","","","","","","","","","","",""
"1682","","image-button-response","149","1444498","0.0-148.0-0.0","A37OW71AEYVEDM","img_art/15.jpg","4","","","","","","","","","","","","","","","","","","","","","","","","",""
"4664","","image-button-response","150","1449164","0.0-149.0-0.0","A37OW71AEYVEDM","img_art/15.jpg","0","","","","","","","","","","","","","","","","","","","","","","","","",""
"null","","html-keyboard-response","151","1450667","0.0-150.0","A37OW71AEYVEDM","<p style=""font-size: 48px;"">+</p>","","","","","null","allTrialResponses","1500","1","15","img_art/15.jpg","-47","Stab, stab, stab with black.  Shit, too much black.  Here’s some blue.","Emily,Margaret,Elizabeth,Chelsea,Molly,Cassidy","Looks incomplete.,-19,40,20","i like the pop of blue within all the black,8,100,20","Perfect Abstract painting,50,20,20","The colors are too busy.,-39,180,20","I can't see the meaning of the painting.,-30,340,20","I like the random blue dabs to break up the black, but it looks unfinished.,4,140,20","Cassidy","I like the random blue dabs to break up the black, but it looks unfinished.,4,140,20","Molly","I can't see the meaning of the painting.,-30,340,20","Emily","Looks incomplete.,-19,40,20","2"
"4188","","survey-text","152","1454863","0.0-151.0-0.0","A37OW71AEYVEDM","","","","{""Q0"":""course""}","","","","","","","","","","","","","","","","","","","","","","",""
"78477","","survey-text","153","1533341","0.0-152.0-0.0","A37OW71AEYVEDM","","","","{""Q0"":""The keys to the city art too harsh against the muted city.""}","","","","","","","","","","","","","","","","","","","","","","",""
"4946","","image-slider-response","154","1538288","0.0-153.0","A37OW71AEYVEDM","","","","","-8","","","","","","","","","","","","","","","","","","","","","",""
"null","","image-button-response","155","1543291","0.0-154.0","A37OW71AEYVEDM","img_art/22.jpg","null","","","","","","","","","","","","","","","","","","","","","","","","",""
"10986","","image-button-response","156","1554278","0.0-155.0","A37OW71AEYVEDM","img_art/22.jpg","0","","","","","","","","","","","","","","","","","","","","","","","","",""
"1598","","image-button-response","157","1555878","0.0-156.0-0.0","A37OW71AEYVEDM","img_art/22.jpg","2","","","","","","","","","","","","","","","","","","","","","","","","",""
"8228","","image-button-response","158","1564106","0.0-157.0-0.0","A37OW71AEYVEDM","img_art/22.jpg","3","","","","","","","","","","","","","","","","","","","","","","","","",""
"null","","html-keyboard-response","159","1565608","0.0-158.0","A37OW71AEYVEDM","<p style=""font-size: 48px;"">+</p>","","","","","null","allTrialResponses","1500","1","16","img_art/22.jpg","-8","The keys to the city art too harsh against the muted city.","Emily,Jacqueline,Tiffany,Leslie,Molly,Cassidy","There is some flow and organization.,10,40,20","I feel like I've seen this one already.,-9,300,20","The painting makes me feel a little sad.,12,360,20","The way the colors seem to be reflected is a bit mesmerizing.,10,380,20","Unfortunately, I can't see anything special in this painting.,-20,340,20","I don't really know why, I just like looking at it,10,140,20","Emily","There is some flow and organization.,10,40,20","Tiffany","The painting makes me feel a little sad.,12,360,20","Leslie","The way the colors seem to be reflected is a bit mesmerizing.,10,380,20","2"
"54032","","survey-text","160","1619646","0.0-159.0-0.0","A37OW71AEYVEDM","","","","{""Q0"":""Tryed to do collage with paint and failed.""}","","","","","","","","","","","","","","","","","","","","","","",""
"3805.999999999767","","image-slider-response","161","1623453","0.0-160.0","A37OW71AEYVEDM","","","","","-49","","","","","","","","","","","","","","","","","","","","","",""
"null","","image-button-response","162","1628456","0.0-161.0","A37OW71AEYVEDM","img_art/12.jpg","null","","","","","","","","","","","","","","","","","","","","","","","","",""
"8015","","image-button-response","163","1636473","0.0-162.0","A37OW71AEYVEDM","img_art/12.jpg","2","","","","","","","","","","","","","","","","","","","","","","","","",""
"6520","","image-button-response","164","1642993","0.0-163.0-0.0","A37OW71AEYVEDM","img_art/12.jpg","3","","","","","","","","","","","","","","","","","","","","","","","","",""
"1546","","image-button-response","165","1644540","0.0-164.0-0.0","A37OW71AEYVEDM","img_art/12.jpg","5","","","","","","","","","","","","","","","","","","","","","","","","",""
"null","","html-keyboard-response","166","1645543","0.0-165.0","A37OW71AEYVEDM","<p style=""font-size: 48px;"">+</p>","","","","","null","allTrialResponses","1000","1","17","img_art/12.jpg","-49","Tryed to do collage with paint and failed.","Emily,Miranda,Tiffany,Leslie,Dominique,Lauren","Not quite my style but there more of a pattern and it is interesting to look at.,15,40,20","This is like going to a really old mcdoanlds in a tiny town and it's never been renovated so it's breaking down,-31,320,20","The painting makes me uncomfortable. The smears in the boxes feel like a giant mess.,-16,360,20","This elicits no reaction in me.,0,380,20","I have seen some like this before very popular and full of life,42,400,20","This doesn't invoke anything. Just a mosaic of random images.,0,340,20","Tiffany","The painting makes me uncomfortable. The smears in the boxes feel like a giant mess.,-16,360,20","Leslie","This elicits no reaction in me.,0,380,20","Lauren","This doesn't invoke anything. Just a mosaic of random images.,0,340,20","2"
"74116","","survey-text","167","1719666","0.0-166.0-0.0","A37OW71AEYVEDM","","","","{""Q0"":""Generally felt immersive, but spoiled because the water is coming out of a pipe.""}","","","","","","","","","","","","","","","","","","","","","","",""
"5603","","image-slider-response","168","1725270","0.0-167.0","A37OW71AEYVEDM","","","","","12","","","","","","","","","","","","","","","","","","","","","",""
"4661","","image-button-response","169","1730273","0.0-168.0","A37OW71AEYVEDM","img_art/24.jpg","2","","","","","","","","","","","","","","","","","","","","","","","","",""
"3144","","image-button-response","170","1733418","0.0-169.0","A37OW71AEYVEDM","img_art/24.jpg","2","","","","","","","","","","","","","","","","","","","","","","","","",""
"5505","","image-button-response","171","1738924","0.0-170.0-0.0","A37OW71AEYVEDM","img_art/24.jpg","5","","","","","","","","","","","","","","","","","","","","","","","","",""
"3093","","image-button-response","172","1742018","0.0-171.0-0.0","A37OW71AEYVEDM","img_art/24.jpg","4","","","","","","","","","","","","","","","","","","","","","","","","",""
"null","","html-keyboard-response","173","1743021","0.0-172.0","A37OW71AEYVEDM","<p style=""font-size: 48px;"">+</p>","","","","","null","allTrialResponses","1000","1","18","img_art/24.jpg","12","Generally felt immersive, but spoiled because the water is coming out of a pipe.","Olivia,Laura,Tiffany,Leslie,Alexandria,Lauren","tranquility in the stream,34,40,20","chunky fresh color,27,320,20","I feel relaxed and happy, looking at the stream, but it feels hollow, like something is fake.,5,360,20","The colors look nice, but the painting bores me.,-20,380,20","very colorful and intricate and makes me feel at peace,50,80,20","Invokes a strong sense of nature, since the piece can interpreted as a stream or an abstracted bird.,40,340,20","Tiffany","I feel relaxed and happy, looking at the stream, but it feels hollow, like something is fake.,5,360,20","Lauren","Invokes a strong sense of nature, since the piece can interpreted as a stream or an abstracted bird.,40,340,20","Alexandria","very colorful and intricate and makes me feel at peace,50,80,20","2"
"29184","","survey-text","174","1772211","0.0-173.0-0.0","A37OW71AEYVEDM","","","","{""Q0"":""Is it a crow or a turd on a stick?""}","","","","","","","","","","","","","","","","","","","","","","",""
"4084","","image-slider-response","175","1776296","0.0-174.0","A37OW71AEYVEDM","","","","","-42","","","","","","","","","","","","","","","","","","","","","",""
"null","","image-button-response","176","1781300","0.0-175.0","A37OW71AEYVEDM","img_art/6.jpg","null","","","","","","","","","","","","","","","","","","","","","","","","",""
"8671","","image-button-response","177","1789972","0.0-176.0","A37OW71AEYVEDM","img_art/6.jpg","3","","","","","","","","","","","","","","","","","","","","","","","","",""
"3479","","image-button-response","178","1793452","0.0-177.0-0.0","A37OW71AEYVEDM","img_art/6.jpg","2","","","","","","","","","","","","","","","","","","","","","","","","",""
"3024","","image-button-response","179","1796476","0.0-178.0-0.0","A37OW71AEYVEDM","img_art/6.jpg","4","","","","","","","","","","","","","","","","","","","","","","","","",""
"null","","html-keyboard-response","180","1797479","0.0-179.0","A37OW71AEYVEDM","<p style=""font-size: 48px;"">+</p>","","","","","null","allTrialResponses","1000","1","19","img_art/6.jpg","-42","Is it a crow or a turd on a stick?","Sabrina,Mikayla,Tiffany,Natalie,Alexandria,Lauren","I love the representation of death and life.,50,120,20","Not very exciting.,-34,300,20","The painting makes me happy. Like I'm looking at a little bird.,6,360,20","reminds me a giant peach,19,400,20","i like it but it is very neutral,9,80,20","I like the simplicity of the piece.,10,340,20","Natalie","reminds me a giant peach,19,400,20","Tiffany","The painting makes me happy. Like I'm looking at a little bird.,6,360,20","Alexandria","i like it but it is very neutral,9,80,20","2"
"86368","","survey-text","181","1883854","0.0-180.0-0.0","A37OW71AEYVEDM","","","","{""Q0"":""I started to make a tree, but then I tried the black paint and ruined it.""}","","","","","","","","","","","","","","","","","","","","","","",""
"4202","","image-slider-response","182","1888058","0.0-181.0","A37OW71AEYVEDM","","","","","-50","","","","","","","","","","","","","","","","","","","","","",""
"4792","","image-button-response","183","1893060","0.0-182.0","A37OW71AEYVEDM","img_art/14.jpg","2","","","","","","","","","","","","","","","","","","","","","","","","",""
"1209","","image-button-response","184","1894269","0.0-183.0","A37OW71AEYVEDM","img_art/14.jpg","2","","","","","","","","","","","","","","","","","","","","","","","","",""
"6445","","image-button-response","185","1900715","0.0-184.0-0.0","A37OW71AEYVEDM","img_art/14.jpg","5","","","","","","","","","","","","","","","","","","","","","","","","",""
"4664","","image-button-response","186","1905381","0.0-185.0-0.0","A37OW71AEYVEDM","img_art/14.jpg","3","","","","","","","","","","","","","","","","","","","","","","","","",""
"null","","html-keyboard-response","187","1906883","0.0-186.0","A37OW71AEYVEDM","<p style=""font-size: 48px;"">+</p>","","","","","null","allTrialResponses","1500","1","20","img_art/14.jpg","-50","I started to make a tree, but then I tried the black paint and ruined it.","Makayla,Sydney,Tiffany,Natalie,Alexandria,Briana","I like that it's like a snippet of a field in the desert,21,80,20","I'm imagining a flower bouquet with pretty colors which I like.,35,320,20","I feel uncomfortable looking at this painting, it is a mess that needs to be cleaned up.,-16,360,20","my reaction is that the picture is wierd,-14,400,20","looks like it's symbolizing rebirth which is hopeful,22,80,20","Simplistic. Looks like a child did it,14,400,20","Tiffany","I feel uncomfortable looking at this painting, it is a mess that needs to be cleaned up.,-16,360,20","Briana","Simplistic. Looks like a child did it,14,400,20","Natalie","my reaction is that the picture is wierd,-14,400,20","2"
"3434","","survey-text","188","1910327","0.0-187.0-0.0","A37OW71AEYVEDM","","","","{""Q0"":""we""}","","","","","","","","","","","","","","","","","","","","","","",""
"56390","","survey-text","189","1966718","0.0-188.0-0.0","A37OW71AEYVEDM","","","","{""Q0"":""Death and destruction of the apocalyse.  Disturbing.""}","","","","","","","","","","","","","","","","","","","","","","",""
"5111.999999999767","","image-slider-response","190","1971832","0.0-189.0","A37OW71AEYVEDM","","","","","-44","","","","","","","","","","","","","","","","","","","","","",""
"null","","image-button-response","191","1976835","0.0-190.0","A37OW71AEYVEDM","img_art/18.jpg","null","","","","","","","","","","","","","","","","","","","","","","","","",""
"1000","","image-button-response","192","1977836","0.0-191.0","A37OW71AEYVEDM","img_art/18.jpg","3","","","","","","","","","","","","","","","","","","","","","","","","",""
"2116","","image-button-response","193","1979953","0.0-192.0-0.0","A37OW71AEYVEDM","img_art/18.jpg","1","","","","","","","","","","","","","","","","","","","","","","","","",""
"7513","","image-button-response","194","1987468","0.0-193.0-0.0","A37OW71AEYVEDM","img_art/18.jpg","0","","","","","","","","","","","","","","","","","","","","","","","","",""
"null","","html-keyboard-response","195","1987970","0.0-194.0","A37OW71AEYVEDM","<p style=""font-size: 48px;"">+</p>","","","","","null","allTrialResponses","500","1","21","img_art/18.jpg","-44","Death and destruction of the apocalyse.  Disturbing.","Amber,Nicole,Tiffany,Natalie,Hailey,Briana","ugly and lots of movement,-6,200,20","There's danger in this painting and it's awesome,40,20,20","I'm mildly disgusted by the colors, and can't piece together the story the figures are trying to tell.,-10,360,20","my response to the picture is a little bit of anxiety but I like the detail,16,400,20","i like the colors. outerspace,21,200,20","Two people fighting with one watching,17,400,20","Natalie","my response to the picture is a little bit of anxiety but I like the detail,16,400,20","Nicole","There's danger in this painting and it's awesome,40,20,20","Amber","ugly and lots of movement,-6,200,20","2"
"32659","","survey-text","196","2020635","0.0-195.0-0.0","A37OW71AEYVEDM","","","","{""Q0"":""Art therapy at the psych ward.""}","","","","","","","","","","","","","","","","","","","","","","",""
"4938","","image-slider-response","197","2025574","0.0-196.0","A37OW71AEYVEDM","","","","","-36","","","","","","","","","","","","","","","","","","","","","",""
"null","","image-button-response","198","2030577","0.0-197.0","A37OW71AEYVEDM","img_art/16.jpg","null","","","","","","","","","","","","","","","","","","","","","","","","",""
"823","","image-button-response","199","2031401","0.0-198.0","A37OW71AEYVEDM","img_art/16.jpg","3","","","","","","","","","","","","","","","","","","","","","","","","",""
"3009","","image-button-response","200","2034411","0.0-199.0-0.0","A37OW71AEYVEDM","img_art/16.jpg","4","","","","","","","","","","","","","","","","","","","","","","","","",""
"7066","","image-button-response","201","2041479","0.0-200.0-0.0","A37OW71AEYVEDM","img_art/16.jpg","0","","","","","","","","","","","","","","","","","","","","","","","","",""
"null","","html-keyboard-response","202","2042482","0.0-201.0","A37OW71AEYVEDM","<p style=""font-size: 48px;"">+</p>","","","","","null","allTrialResponses","1000","1","22","img_art/16.jpg","-36","Art therapy at the psych ward.","Amber,Nicole,Kelly,Natalie,Diana,Cheyenne","Don't like the teddy bear. It takes away from the painting.,-39,200,20","It's a little anxiety inducing in a good way,16,20,20","Looks like someone got really high and did a bad photoshop job.,-27,220,20","my reaction is that the picture is creepy,-19,400,20","This one isn't for me. It came off as strange but not in a good way.,-44,380,20","Cute but there's a lot going on.,7,200,20","Natalie","my reaction is that the picture is creepy,-19,400,20","Diana","This one isn't for me. It came off as strange but not in a good way.,-44,380,20","Amber","Don't like the teddy bear. It takes away from the painting.,-39,200,20","2"
"33911","","survey-text","203","2076400","0.0-202.0-0.0","A37OW71AEYVEDM","","","","{""Q0"":""Cool!  It looks like a cave painting of aliens!""}","","","","","","","","","","","","","","","","","","","","","","",""
"4595.000000000233","","image-slider-response","204","2080995","0.0-203.0","A37OW71AEYVEDM","","","","","26","","","","","","","","","","","","","","","","","","","","","",""
"4617","","image-button-response","205","2085999","0.0-204.0","A37OW71AEYVEDM","img_art/25.jpg","4","","","","","","","","","","","","","","","","","","","","","","","","",""
"790","","image-button-response","206","2086789","0.0-205.0","A37OW71AEYVEDM","img_art/25.jpg","4","","","","","","","","","","","","","","","","","","","","","","","","",""
"5003","","image-button-response","207","2091794","0.0-206.0-0.0","A37OW71AEYVEDM","img_art/25.jpg","0","","","","","","","","","","","","","","","","","","","","","","","","",""
"892","","image-button-response","208","2092687","0.0-207.0-0.0","A37OW71AEYVEDM","img_art/25.jpg","0","","","","","","","","","","","","","","","","","","","","","","","","",""
"5319","","image-button-response","209","2102177","0.0-207.1-0.1","A37OW71AEYVEDM","img_art/25.jpg","1","","","","","","","","","","","","","","","","","","","","","","","","",""
"null","","html-keyboard-response","210","2103680","0.0-208.0","A37OW71AEYVEDM","<p style=""font-size: 48px;"">+</p>","","","","","null","allTrialResponses","1500","1","23","img_art/25.jpg","26","Cool!  It looks like a cave painting of aliens!","Amber,Katelyn,Victoria,Natalie,Diana,Claire","Regal. Reminds me of Egyptian art.,11,200,20","Creates a bit of fear in me for some reason,-26,100,20","makes me think of a scary movie,-20,400,20","my response to the picture its weird,-9,400,20","This piece feels cultural. Like it represents something culturally.,22,380,20","the colors are pretty,11,260,20","Diana","This piece feels cultural. Like it represents something culturally.,22,380,20","Amber","Regal. Reminds me of Egyptian art.,11,200,20","Katelyn","Creates a bit of fear in me for some reason,-26,100,20","4"
"62039","","survey-text","211","2165726","0.0-209.0-0.0","A37OW71AEYVEDM","","","","{""Q0"":""Microscopic view of a spill from within the carpet.""}","","","","","","","","","","","","","","","","","","","","","","",""
"3957","","image-slider-response","212","2169684","0.0-210.0","A37OW71AEYVEDM","","","","","-34","","","","","","","","","","","","","","","","","","","","","",""
"null","","image-button-response","213","2174687","0.0-211.0","A37OW71AEYVEDM","img_art/30.jpg","null","","","","","","","","","","","","","","","","","","","","","","","","",""
"4420","","image-button-response","214","2179108","0.0-212.0","A37OW71AEYVEDM","img_art/30.jpg","3","","","","","","","","","","","","","","","","","","","","","","","","",""
"2511","","image-button-response","215","2181621","0.0-213.0-0.0","A37OW71AEYVEDM","img_art/30.jpg","2","","","","","","","","","","","","","","","","","","","","","","","","",""
"7454","","image-button-response","216","2189076","0.0-214.0-0.0","A37OW71AEYVEDM","img_art/30.jpg","1","","","","","","","","","","","","","","","","","","","","","","","","",""
"null","","html-keyboard-response","217","2190078","0.0-215.0","A37OW71AEYVEDM","<p style=""font-size: 48px;"">+</p>","","","","","null","allTrialResponses","1000","1","24","img_art/30.jpg","-34","Microscopic view of a spill from within the carpet.","Amber,Katelyn,Mary,Kaylee,Diana,Amanda","fresh and bold. outgoing.,15,200,20","I do like the multi-dimensional aspect of this piece,10,100,20","I hate this piece. It looks like a child created it. The colors are awful.,-46,180,20","i cant really get it,-35,200,20","I love the color contrast of the red against the blue.,9,380,20","Love how the red stands out,20,180,20","Kaylee","i cant really get it,-35,200,20","Mary","I hate this piece. It looks like a child created it. The colors are awful.,-46,180,20","Katelyn","I do like the multi-dimensional aspect of this piece,10,100,20","4"
"50558","","survey-text","218","2240643","0.0-216.0-0.0","A37OW71AEYVEDM","","","","{""Q0"":""A kid used a marker on some else’s artwork.""}","","","","","","","","","","","","","","","","","","","","","","",""
"4283","","image-slider-response","219","2244936","0.0-217.0","A37OW71AEYVEDM","","","","","-48","","","","","","","","","","","","","","","","","","","","","",""
"4412","","image-button-response","220","2249947","0.0-218.0","A37OW71AEYVEDM","img_art/27.jpg","1","","","","","","","","","","","","","","","","","","","","","","","","",""
"912","","image-button-response","221","2250859","0.0-219.0","A37OW71AEYVEDM","img_art/27.jpg","1","","","","","","","","","","","","","","","","","","","","","","","","",""
"4312","","image-button-response","222","2255173","0.0-220.0-0.0","A37OW71AEYVEDM","img_art/27.jpg","3","","","","","","","","","","","","","","","","","","","","","","","","",""
"2483","","image-button-response","223","2257658","0.0-221.0-0.0","A37OW71AEYVEDM","img_art/27.jpg","4","","","","","","","","","","","","","","","","","","","","","","","","",""
"null","","html-keyboard-response","224","2259161","0.0-222.0","A37OW71AEYVEDM","<p style=""font-size: 48px;"">+</p>","","","","","null","allTrialResponses","1500","1","25","img_art/27.jpg","-48","A kid used a marker on some else’s artwork.","Kaitlin,Katelyn,Mary,Kaylee,Breanna,Kaitlyn","this reminds me of simpler time,31,60,20","Doesnt look like anything to me. Doesnt capture my attention.,-25,100,20","I like the layer upon layer of different mediums used here.,21,180,20","nice firestorm on desert,23,200,20","Not too impressed with the work,6,380,20","The variation of orange is nice,9,80,20","Katelyn","Doesnt look like anything to me. Doesnt capture my attention.,-25,100,20","Kaylee","nice firestorm on desert,23,200,20","Breanna","Not too impressed with the work,6,380,20","4"
"5945","","survey-text","225","2265118","0.0-223.0-0.0","A37OW71AEYVEDM","","","","{""Q0"":""table""}","","","","","","","","","","","","","","","","","","","","","","",""
"30582","","survey-text","226","2295700","0.0-224.0-0.0","A37OW71AEYVEDM","","","","{""Q0"":""A broken guitar playing broken music.""}","","","","","","","","","","","","","","","","","","","","","","",""
"4481.999999999534","","image-slider-response","227","2300185","0.0-225.0","A37OW71AEYVEDM","","","","","14","","","","","","","","","","","","","","","","","","","","","",""
"null","","image-button-response","228","2305188","0.0-226.0","A37OW71AEYVEDM","img_art/10.jpg","null","","","","","","","","","","","","","","","","","","","","","","","","",""
"6314","","image-button-response","229","2311503","0.0-227.0","A37OW71AEYVEDM","img_art/10.jpg","5","","","","","","","","","","","","","","","","","","","","","","","","",""
"2788","","image-button-response","230","2314292","0.0-228.0-0.0","A37OW71AEYVEDM","img_art/10.jpg","1","","","","","","","","","","","","","","","","","","","","","","","","",""
"8803","","image-button-response","231","2323096","0.0-229.0-0.0","A37OW71AEYVEDM","img_art/10.jpg","3","","","","","","","","","","","","","","","","","","","","","","","","",""
"null","","html-keyboard-response","232","2323599","0.0-230.0","A37OW71AEYVEDM","<p style=""font-size: 48px;"">+</p>","","","","","null","allTrialResponses","500","1","26","img_art/10.jpg","14","A broken guitar playing broken music.","Jordan,Katelyn,Erika,Kaylee,Breanna,Catherine","I dont like it, there is too much going on,-19,20,20","It makes me think of music and i love the reflective aspect,29,100,20","Good texture, expressive,18,100,20","a blue whale on the sea,12,200,20","Makes me feel amazed,23,380,20","Circle of life, with highs and lows, good and bad. You always weather the storm and come out on top.,40,160,20","Catherine","Circle of life, with highs and lows, good and bad. You always weather the storm and come out on top.,40,160,20","Katelyn","It makes me think of music and i love the reflective aspect,29,100,20","Kaylee","a blue whale on the sea,12,200,20","4"
"51447","","survey-text","233","2375053","0.0-231.0-0.0","A37OW71AEYVEDM","","","","{""Q0"":""Anger and rage interupted by something.""}","","","","","","","","","","","","","","","","","","","","","","",""
"4140","","image-slider-response","234","2379195","0.0-232.0","A37OW71AEYVEDM","","","","","-50","","","","","","","","","","","","","","","","","","","","","",""
"3997","","image-button-response","235","2384198","0.0-233.0","A37OW71AEYVEDM","img_art/3.jpg","0","","","","","","","","","","","","","","","","","","","","","","","","",""
"3742","","image-button-response","236","2387940","0.0-234.0","A37OW71AEYVEDM","img_art/3.jpg","5","","","","","","","","","","","","","","","","","","","","","","","","",""
"2766","","image-button-response","237","2390707","0.0-235.0-0.0","A37OW71AEYVEDM","img_art/3.jpg","0","","","","","","","","","","","","","","","","","","","","","","","","",""
"5976","","image-button-response","238","2396684","0.0-236.0-0.0","A37OW71AEYVEDM","img_art/3.jpg","4","","","","","","","","","","","","","","","","","","","","","","","","",""
"null","","html-keyboard-response","239","2397187","0.0-237.0","A37OW71AEYVEDM","<p style=""font-size: 48px;"">+</p>","","","","","null","allTrialResponses","500","1","27","img_art/3.jpg","-50","Anger and rage interupted by something.","Courtney,Katelyn,Brianna,Kaylee,Sarah,Catherine","That just looks like a mess..,-18,280,20","No substance or feeling to it,-20,100,20","It's very plain,-20,20,20","i really cant get it,-44,200,20","the red is impactful but the work overall doesn't say anything to me,-8,180,20","Anger, like something a serial killer may paint.,-30,160,20","Catherine","Anger, like something a serial killer may paint.,-30,160,20","Courtney","That just looks like a mess..,-18,280,20","Sarah","the red is impactful but the work overall doesn't say anything to me,-8,180,20","4"
"42686","","survey-text","240","2439878","0.0-238.0-0.0","A37OW71AEYVEDM","","","","{""Q0"":""A ship fully engulfed in fire on a stormy sea.""}","","","","","","","","","","","","","","","","","","","","","","",""
"6712","","image-slider-response","241","2446593","0.0-239.0","A37OW71AEYVEDM","","","","","22","","","","","","","","","","","","","","","","","","","","","",""
"3997","","image-button-response","242","2451595","0.0-240.0","A37OW71AEYVEDM","img_art/21.jpg","0","","","","","","","","","","","","","","","","","","","","","","","","",""
"4599","","image-button-response","243","2456195","0.0-241.0","A37OW71AEYVEDM","img_art/21.jpg","1","","","","","","","","","","","","","","","","","","","","","","","","",""
"4429","","image-button-response","244","2460624","0.0-242.0-0.0","A37OW71AEYVEDM","img_art/21.jpg","0","","","","","","","","","","","","","","","","","","","","","","","","",""
"10747","","image-button-response","245","2471373","0.0-243.0-0.0","A37OW71AEYVEDM","img_art/21.jpg","5","","","","","","","","","","","","","","","","","","","","","","","","",""
"null","","html-keyboard-response","246","2472875","0.0-244.0","A37OW71AEYVEDM","<p style=""font-size: 48px;"">+</p>","","","","","null","allTrialResponses","1500","1","28","img_art/21.jpg","22","A ship fully engulfed in fire on a stormy sea.","Courtney,Bailey,Mackenzie,Ashley,Sarah,Catherine","Another ship on fire.,-10,280,20","Looks like two ships on fire. Cool image.,12,360,20","The shapes and colors are very interesting to look at.,41,20,20","Disturbing, land meets ocean, lvoely really.,43,320,20","I love the section of blues, the colors overall are really lovely,31,180,20","Nature, water, ever changing. Cold then warm. Reaction is mostly positive and some negative,30,160,20","Bailey","Looks like two ships on fire. Cool image.,12,360,20","Courtney","Another ship on fire.,-10,280,20","Catherine","Nature, water, ever changing. Cold then warm. Reaction is mostly positive and some negative,30,160,20","4"
"47652","","survey-text","247","2520534","0.0-245.0-0.0","A37OW71AEYVEDM","","","","{""Q0"":""Information traveling over the internet is becoming more lifelike than reality.""}","","","","","","","","","","","","","","","","","","","","","","",""
"6441","","image-slider-response","248","2526977","0.0-246.0","A37OW71AEYVEDM","","","","","37","","","","","","","","","","","","","","","","","","","","","",""
"null","","image-button-response","249","2531980","0.0-247.0","A37OW71AEYVEDM","img_art/11.jpg","null","","","","","","","","","","","","","","","","","","","","","","","","",""
"5412","","image-button-response","250","2537394","0.0-248.0","A37OW71AEYVEDM","img_art/11.jpg","0","","","","","","","","","","","","","","","","","","","","","","","","",""
"4107","","image-button-response","251","2541502","0.0-249.0-0.0","A37OW71AEYVEDM","img_art/11.jpg","5","","","","","","","","","","","","","","","","","","","","","","","","",""
"13285","","image-button-response","252","2554789","0.0-250.0-0.0","A37OW71AEYVEDM","img_art/11.jpg","1","","","","","","","","","","","","","","","","","","","","","","","","",""
"null","","html-keyboard-response","253","2555792","0.0-251.0","A37OW71AEYVEDM","<p style=""font-size: 48px;"">+</p>","","","","","null","allTrialResponses","1000","1","29","img_art/11.jpg","37","Information traveling over the internet is becoming more lifelike than reality.","Courtney,Bailey,Kristen,Katie,Erin,Catherine","Thats a creepy old rollercoasters abandoned,-2,280,20","Kind of bizzare in that I can imagine ships or something from it.,11,360,20","small town, friendly. calm,35,280,20","Dark and dreary. Makes me think of rain/water. I see grey clouds and high waves. Looks unsettling.,-20,160,20","Frank Lloyd Wright, music,24,120,20","Busy city life. transportation, anxiety.,10,160,20","Courtney","Thats a creepy old rollercoasters abandoned,-2,280,20","Catherine","Busy city life. transportation, anxiety.,10,160,20","Bailey","Kind of bizzare in that I can imagine ships or something from it.,11,360,20","4"
"51749","","survey-text","254","2607547","0.0-252.0-0.0","A37OW71AEYVEDM","","","","{""Q0"":""Piercing a pyramid from the sky to release the soul.""}","","","","","","","","","","","","","","","","","","","","","","",""
"7294","","image-slider-response","255","2614842","0.0-253.0","A37OW71AEYVEDM","","","","","-13","","","","","","","","","","","","","","","","","","","","","",""
"4000","","image-button-response","256","2619844","0.0-254.0","A37OW71AEYVEDM","img_art/5.jpg","3","","","","","","","","","","","","","","","","","","","","","","","","",""
"303","","image-button-response","257","2620148","0.0-255.0","A37OW71AEYVEDM","img_art/5.jpg","3","","","","","","","","","","","","","","","","","","","","","","","","",""
"5343","","image-button-response","258","2625493","0.0-256.0-0.0","A37OW71AEYVEDM","img_art/5.jpg","5","","","","","","","","","","","","","","","","","","","","","","","","",""
"14871","","image-button-response","259","2640366","0.0-257.0-0.0","A37OW71AEYVEDM","img_art/5.jpg","1","","","","","","","","","","","","","","","","","","","","","","","","",""
"null","","html-keyboard-response","260","2640868","0.0-258.0","A37OW71AEYVEDM","<p style=""font-size: 48px;"">+</p>","","","","","null","allTrialResponses","500","1","30","img_art/5.jpg","-13","Piercing a pyramid from the sky to release the soul.","Courtney,Bailey,Madeline,Alexa,Erica,Catherine","A rabbits head.,4,280,20","Not sure what that even is. Looks like a 2-year old drawing,-40,360,20","A bit too messy in my eyes,-4,40,20","It's okay. Don't hate it but don't love it either,0,40,20","positive colours; yellow calls attention,6,80,20","Building remnants in the sand.,1,160,20","Alexa","It's okay. Don't hate it but don't love it either,0,40,20","Catherine","Building remnants in the sand.,1,160,20","Bailey","Not sure what that even is. Looks like a 2-year old drawing,-40,360,20","4"
"1951","","image-button-response_instructions","261","2642828","0.0-259.0","A37OW71AEYVEDM","","0","instructions","","","","","","","","","","","","","","","","","","","","","","","",""
"1737","","image-button-response","262","2644570","0.0-260.0","A37OW71AEYVEDM","","0","","","","","","","","","","","","","","","","","","","","","","","","",""
