"rt","url","trial_type","trial_index","time_elapsed","internal_node_id","participant_id","stimulus","button_pressed","Name","responses","response","key_press","variableName","fixationTime","condition","trial","photo","subjectRating","subjectResponse","agentsNames","agent_1_Response","agent_2_Response","agent_3_Response","agent_4_Response","agent_5_Response","agent_6_Response","kept_1_name","kept_1_response","kept_2_name","kept_2_response","kept_3_name","kept_3_response","errorCounter"
"111960","external_page_harvard.html","external-html","0","112137","0.0-0.0","A39C22RIL0YJ4D","","","","","","","","","","","","","","","","","","","","","","","","","","",""
"2214","","image-button-response","1","114352","0.0-1.0","A39C22RIL0YJ4D","","0","","","","","","","","","","","","","","","","","","","","","","","","",""
"1864","","image-button-response","2","116220","0.0-2.0-0.0","A39C22RIL0YJ4D","","1","phone","","","","","","","","","","","","","","","","","","","","","","","",""
"4984","","survey-text","3","121205","0.0-3.0-0.0","A39C22RIL0YJ4D","","","","{""Q0"":""A39C22RIL0YJ4D""}","","","","","","","","","","","","","","","","","","","","","","",""
"49072","","image-button-response_instructions","4","170278","0.0-4.0","A39C22RIL0YJ4D","","0","instructions","","","","","","","","","","","","","","","","","","","","","","","",""
"7796","","image-button-response_instructions","5","178074","0.0-5.0","A39C22RIL0YJ4D","img_art/ins/popularity/ins1.png","0","instructions","","","","","","","","","","","","","","","","","","","","","","","",""
"3447","","image-button-response_instructions","6","181521","0.0-6.0","A39C22RIL0YJ4D","img_art/ins/popularity/ins2.png","0","instructions","","","","","","","","","","","","","","","","","","","","","","","",""
"2797","","image-button-response_instructions","7","184319","0.0-7.0","A39C22RIL0YJ4D","img_art/ins/popularity/ins2Extreme.png","0","instructions","","","","","","","","","","","","","","","","","","","","","","","",""
"139168","","image-button-response_instructions","8","323488","0.0-8.0","A39C22RIL0YJ4D","img_art/ins/popularity/ins3KEEPpop.PNG","0","instructions","","","","","","","","","","","","","","","","","","","","","","","",""
"3661","","image-button-response_instructions","9","327150","0.0-9.0","A39C22RIL0YJ4D","img_art/ins/popularity/ins3ANamepop.PNG","0","instructions","","","","","","","","","","","","","","","","","","","","","","","",""
"3212","","image-button-response_instructions","10","330363","0.0-10.0","A39C22RIL0YJ4D","img_art/ins/popularity/ins3ARatingpop.png","0","instructions","","","","","","","","","","","","","","","","","","","","","","","",""
"4137","","image-button-response_instructions","11","334501","0.0-11.0","A39C22RIL0YJ4D","img_art/ins/popularity/ins3ATextpop.png","0","instructions","","","","","","","","","","","","","","","","","","","","","","","",""
"80","","image-button-response_instructions","12","334582","0.0-12.0","A39C22RIL0YJ4D","img_art/ins/popularity/ins3ALikespop.png","0","instructions","","","","","","","","","","","","","","","","","","","","","","","",""
"13510","","image-button-response_instructions","13","348093","0.0-13.0","A39C22RIL0YJ4D","img_art/ins/popularity/ins3KEEPpop.PNG","0","instructions","","","","","","","","","","","","","","","","","","","","","","","",""
"9276","","image-button-response_instructions","14","357370","0.0-14.0","A39C22RIL0YJ4D","img_art/ins/popularity/ins3_5RED.png","0","instructions","","","","","","","","","","","","","","","","","","","","","","","",""
"73034","","image-button-response_instructions","15","430405","0.0-15.0","A39C22RIL0YJ4D","img_art/ins/popularity/ins3KEEPpop.PNG","0","instructions","","","","","","","","","","","","","","","","","","","","","","","",""
"12640","","image-button-response_instructions","16","443046","0.0-16.0","A39C22RIL0YJ4D","img_art/ins/popularity/ins4KEEPpop.PNG","0","instructions","","","","","","","","","","","","","","","","","","","","","","","",""
"50300","","image-button-response_instructions","17","493346","0.0-17.0","A39C22RIL0YJ4D","img_art/ins/popularity/ins5KEEPpop.PNG","0","instructions","","","","","","","","","","","","","","","","","","","","","","","",""
"5831","","image-button-response_instructions","18","499179","0.0-18.0","A39C22RIL0YJ4D","","0","instructions","","","","","","","","","","","","","","","","","","","","","","","",""
"9523","","survey-text","19","508715","0.0-19.0-0.0","A39C22RIL0YJ4D","","","","{""Q0"":""but""}","","","","","","","","","","","","","","","","","","","","","","",""
"43703","","survey-text","20","552418","0.0-20.0-0.0","A39C22RIL0YJ4D","","","","{""Q0"":""Looks like abstract fields on fire painted from a child.""}","","","","","","","","","","","","","","","","","","","","","","",""
"3607.600000023842","","image-slider-response","21","556027","0.0-21.0","A39C22RIL0YJ4D","","","","","-16","","","","","","","","","","","","","","","","","","","","","",""
"null","","image-button-response","22","561030","0.0-22.0","A39C22RIL0YJ4D","img_art/ins/1.jpg","null","","","","","","","","","","","","","","","","","","","","","","","","",""
"1110","","image-button-response","23","562141","0.0-23.0","A39C22RIL0YJ4D","img_art/ins/1.jpg","4","","","","","","","","","","","","","","","","","","","","","","","","",""
"10391","","image-button-response","24","572533","0.0-24.0-0.0","A39C22RIL0YJ4D","img_art/ins/1.jpg","1","","","","","","","","","","","","","","","","","","","","","","","","",""
"598","","image-button-response","25","573132","0.0-25.0-0.0","A39C22RIL0YJ4D","img_art/ins/1.jpg","5","","","","","","","","","","","","","","","","","","","","","","","","",""
"null","","html-keyboard-response","26","574634","0.0-26.0","A39C22RIL0YJ4D","<p style=""font-size: 48px;"">+</p>","","","","","null","allTrialResponses","1500","1","-2","img_art/ins/1.jpg","-16","Looks like abstract fields on fire painted from a child.","Adam,Alex,Ben,Carl,Daniel,Jack","Seems like doodles,-20,20,20","very creative work.,36,40,20","This color reminds me of poo,-46,60,20","very calming artwork,42,80,20","It looks like a murder scene.,-48,100,20","I like the sophisticated brushwork,40,120,20","Daniel","It looks like a murder scene.,-48,100,20","Alex","very creative work.,36,40,20","Jack","I like the sophisticated brushwork,40,120,20","0"
"17322","","survey-text","27","591959","0.0-27.0-0.0","A39C22RIL0YJ4D","","","","{""Q0"":""Looks like a fire box ""}","","","","","","","","","","","","","","","","","","","","","","",""
"2671","","image-slider-response","28","594631","0.0-28.0","A39C22RIL0YJ4D","","","","","9","","","","","","","","","","","","","","","","","","","","","",""
"null","","image-button-response","29","599634","0.0-29.0","A39C22RIL0YJ4D","img_art/ins/2.jpg","null","","","","","","","","","","","","","","","","","","","","","","","","",""
"410","","image-button-response","30","600045","0.0-30.0","A39C22RIL0YJ4D","img_art/ins/2.jpg","0","","","","","","","","","","","","","","","","","","","","","","","","",""
"8155","","image-button-response","31","608202","0.0-31.0-0.0","A39C22RIL0YJ4D","img_art/ins/2.jpg","5","","","","","","","","","","","","","","","","","","","","","","","","",""
"1676","","image-button-response","32","609880","0.0-32.0-0.0","A39C22RIL0YJ4D","img_art/ins/2.jpg","3","","","","","","","","","","","","","","","","","","","","","","","","",""
"null","","html-keyboard-response","33","610881","0.0-33.0","A39C22RIL0YJ4D","<p style=""font-size: 48px;"">+</p>","","","","","null","allTrialResponses","1000","1","-1","img_art/ins/2.jpg","9","Looks like a fire box ","John,Alex,Kyle,James,Daniel,Jack","love the texture of paint,48,160,20","I like the blocks of color arrangements,30,40,20","Idk, it is just annoying,-32,180,20","looks too angry,-50,140,20","One of my pet peevs,-48,100,20","I would never be able to compose a sophisticated pallete like this,48,120,20","John","love the texture of paint,48,160,20","Jack","I would never be able to compose a sophisticated pallete like this,48,120,20","James","looks too angry,-50,140,20","0"
"40881","","survey-text","34","651765","0.0-34.0-0.0","A39C22RIL0YJ4D","","","","{""Q0"":""blue paint on glacier""}","","","","","","","","","","","","","","","","","","","","","","",""
"2521.399999976158","","image-slider-response","35","654288","0.0-35.0","A39C22RIL0YJ4D","","","","","25","","","","","","","","","","","","","","","","","","","","","",""
"4747","","image-button-response","36","659301","0.0-36.0","A39C22RIL0YJ4D","img_art/ins/3.jpg","2","","","","","","","","","","","","","","","","","","","","","","","","",""
"4396","","image-button-response","37","663698","0.0-37.0","A39C22RIL0YJ4D","img_art/ins/3.jpg","5","","","","","","","","","","","","","","","","","","","","","","","","",""
"1520","","image-button-response","38","665219","0.0-38.0-0.0","A39C22RIL0YJ4D","img_art/ins/3.jpg","1","","","","","","","","","","","","","","","","","","","","","","","","",""
"882","","image-button-response","39","666103","0.0-39.0-0.0","A39C22RIL0YJ4D","img_art/ins/3.jpg","2","","","","","","","","","","","","","","","","","","","","","","","","",""
"null","","html-keyboard-response","40","667104","0.0-40.0","A39C22RIL0YJ4D","<p style=""font-size: 48px;"">+</p>","","","","","null","allTrialResponses","1000","1","0","img_art/ins/3.jpg","25","blue paint on glacier","John,Mike,Sam,James,Ron,Jack","I like the overlapping of brushes,41,160,20","enjoy the different shades of blue,22,200,20","I can feel a rainy day from this painting,18,240,20","My worst nightmare,-42,140,20","It looks depressing,-26,220,20","I feel connected to the artist,40,120,20","Jack","I feel connected to the artist,40,120,20","Mike","enjoy the different shades of blue,22,200,20","Sam","I can feel a rainy day from this painting,18,240,20","0"
"3270","","image-button-response_instructions","41","670378","0.0-41.0","A39C22RIL0YJ4D","","0","instructions","","","","","","","","","","","","","","","","","","","","","","","",""
"21450","","survey-likert","42","691828","0.0-42.0-0.0","A39C22RIL0YJ4D","","","","{""Q0"":"""",""Q1"":0,""Q2"":1}","","","","","","","","","","","","","","","","","","","","","","",""
"4603","","survey-text","43","696437","0.0-43.0-0.0","A39C22RIL0YJ4D","","","","{""Q0"":""rock""}","","","","","","","","","","","","","","","","","","","","","","",""
"22812","","survey-text","44","719250","0.0-44.0-0.0","A39C22RIL0YJ4D","","","","{""Q0"":""a bird calming looking across a field of hay""}","","","","","","","","","","","","","","","","","","","","","","",""
"2794.099999964237","","image-slider-response","45","722045","0.0-45.0","A39C22RIL0YJ4D","","","","","8","","","","","","","","","","","","","","","","","","","","","",""
"4290","","image-button-response","46","727061","0.0-46.0","A39C22RIL0YJ4D","img_art/6.jpg","0","","","","","","","","","","","","","","","","","","","","","","","","",""
"8588","","image-button-response","47","735649","0.0-47.0","A39C22RIL0YJ4D","img_art/6.jpg","5","","","","","","","","","","","","","","","","","","","","","","","","",""
"1828","","image-button-response","48","737478","0.0-48.0-0.0","A39C22RIL0YJ4D","img_art/6.jpg","0","","","","","","","","","","","","","","","","","","","","","","","","",""
"520","","image-button-response","49","738000","0.0-49.0-0.0","A39C22RIL0YJ4D","img_art/6.jpg","1","","","","","","","","","","","","","","","","","","","","","","","","",""
"null","","html-keyboard-response","50","739502","0.0-50.0","A39C22RIL0YJ4D","<p style=""font-size: 48px;"">+</p>","","","","","null","allTrialResponses","1500","1","1","img_art/6.jpg","8","a bird calming looking across a field of hay","Alexis,Angel,Christian,Colton,Chase,Tanner","This looks like a crow, sort of bleak,-26,140,20","This piece feels hopeful, like an oasis in the desert.,20,180,20","??????? fake floating leaf? headless bird,-28,140,20","very minimalistic,22,220,20","It's a bit bland, but looks like a bird standing.,11,120,20","loneliness, fragile, forever alone, a girl who's been there for eternity, only think tracking time is the length of her hair,9,180,20","Tanner","loneliness, fragile, forever alone, a girl who's been there for eternity, only think tracking time is the length of her hair,9,180,20","Alexis","This looks like a crow, sort of bleak,-26,140,20","Angel","This piece feels hopeful, like an oasis in the desert.,20,180,20","0"
"17227","","survey-text","51","756732","0.0-51.0-0.0","A39C22RIL0YJ4D","","","","{""Q0"":""looks like a bunch of ants ""}","","","","","","","","","","","","","","","","","","","","","","",""
"1981.5999999642372","","image-slider-response","52","758714","0.0-52.0","A39C22RIL0YJ4D","","","","","-39","","","","","","","","","","","","","","","","","","","","","",""
"4249","","image-button-response","53","763716","0.0-53.0","A39C22RIL0YJ4D","img_art/15.jpg","0","","","","","","","","","","","","","","","","","","","","","","","","",""
"666","","image-button-response","54","764384","0.0-54.0","A39C22RIL0YJ4D","img_art/15.jpg","0","","","","","","","","","","","","","","","","","","","","","","","","",""
"3692","","image-button-response","55","768077","0.0-55.0-0.0","A39C22RIL0YJ4D","img_art/15.jpg","5","","","","","","","","","","","","","","","","","","","","","","","","",""
"3729","","image-button-response","56","771807","0.0-56.0-0.0","A39C22RIL0YJ4D","img_art/15.jpg","4","","","","","","","","","","","","","","","","","","","","","","","","",""
"null","","html-keyboard-response","57","772310","0.0-57.0","A39C22RIL0YJ4D","<p style=""font-size: 48px;"">+</p>","","","","","null","allTrialResponses","500","1","2","img_art/15.jpg","-39","looks like a bunch of ants ","Alexis,Angel,Scott,Brendan,Grant,Tanner","it is dark and gloomy,-9,140,20","This is looking at a forest from above. I can see water and some pathways throughout. Nature.,20,180,20","I like the pattern of it,11,20,20","some trees in the forest,15,340,20","This elicits no reaction in me.,0,200,20","darkness, hatred, fear,-29,180,20","Alexis","it is dark and gloomy,-9,140,20","Tanner","darkness, hatred, fear,-29,180,20","Grant","This elicits no reaction in me.,0,200,20","0"
"10208","","survey-text","58","782521","0.0-58.0-0.0","A39C22RIL0YJ4D","","","","{""Q0"":""looks like a perfume bottle""}","","","","","","","","","","","","","","","","","","","","","","",""
"1816.4000000357628","","image-slider-response","59","784339","0.0-59.0","A39C22RIL0YJ4D","","","","","5","","","","","","","","","","","","","","","","","","","","","",""
"null","","image-button-response","60","789341","0.0-60.0","A39C22RIL0YJ4D","img_art/5.jpg","null","","","","","","","","","","","","","","","","","","","","","","","","",""
"1953","","image-button-response","61","791296","0.0-61.0","A39C22RIL0YJ4D","img_art/5.jpg","3","","","","","","","","","","","","","","","","","","","","","","","","",""
"1923","","image-button-response","62","793219","0.0-62.0-0.0","A39C22RIL0YJ4D","img_art/5.jpg","5","","","","","","","","","","","","","","","","","","","","","","","","",""
"2704","","image-button-response","63","795926","0.0-63.0-0.0","A39C22RIL0YJ4D","img_art/5.jpg","0","","","","","","","","","","","","","","","","","","","","","","","","",""
"null","","html-keyboard-response","64","797438","0.0-64.0","A39C22RIL0YJ4D","<p style=""font-size: 48px;"">+</p>","","","","","null","allTrialResponses","1500","1","3","img_art/5.jpg","5","looks like a perfume bottle","Alexis,Devin,Jason,Aaron,Grant,Tanner","I am confused as to what this is supposed to be,6,140,20","A bit too messy in my eyes,-4,380,20","Wish the background had been kept clean; distracts from main object,11,20,20","It's kind of boring.,-20,20,20","This elicits no reaction in me.,0,200,20","sharp, painful yet playful,-5,180,20","Aaron","It's kind of boring.,-20,20,20","Tanner","sharp, painful yet playful,-5,180,20","Alexis","I am confused as to what this is supposed to be,6,140,20","0"
"15361","","survey-text","65","812802","0.0-65.0-0.0","A39C22RIL0YJ4D","","","","{""Q0"":"" A messy sidewalk in new york""}","","","","","","","","","","","","","","","","","","","","","","",""
"3710.400000035763","","image-slider-response","66","816513","0.0-66.0","A39C22RIL0YJ4D","","","","","-20","","","","","","","","","","","","","","","","","","","","","",""
"null","","image-button-response","67","821519","0.0-67.0","A39C22RIL0YJ4D","img_art/29.jpg","null","","","","","","","","","","","","","","","","","","","","","","","","",""
"1134","","image-button-response","68","822653","0.0-68.0","A39C22RIL0YJ4D","img_art/29.jpg","2","","","","","","","","","","","","","","","","","","","","","","","","",""
"1479","","image-button-response","69","824134","0.0-69.0-0.0","A39C22RIL0YJ4D","img_art/29.jpg","5","","","","","","","","","","","","","","","","","","","","","","","","",""
"5242","","image-button-response","70","829378","0.0-70.0-0.0","A39C22RIL0YJ4D","img_art/29.jpg","4","","","","","","","","","","","","","","","","","","","","","","","","",""
"null","","html-keyboard-response","71","830893","0.0-71.0","A39C22RIL0YJ4D","<p style=""font-size: 48px;"">+</p>","","","","","null","allTrialResponses","1500","1","4","img_art/29.jpg","-20"," A messy sidewalk in new york","Alexis,Tyler,Devon,Aaron,Brett,Tanner","I like that it looks like a scene from perhaps a failed painted project,10,140,20","Well if the artist themself is crossing it out, why should I pay any mind?,-30,320,20","seems fun, looks like a battle zone,22,400,20","I like the texture and colors and how it makes me feel. I like how it's different from other abstract art.,45,20,20","Reminds me of graffitti gone wrong,15,360,20","danger, crime scene,,10,180,20","Devon","seems fun, looks like a battle zone,22,400,20","Tanner","danger, crime scene,,10,180,20","Brett","Reminds me of graffitti gone wrong,15,360,20","0"
"72245","","survey-text","72","903144","0.0-72.0-0.0","A39C22RIL0YJ4D","","","","{""Q0"":""spaceship landing near an ancient temple""}","","","","","","","","","","","","","","","","","","","","","","",""
"4897.400000035763","","image-slider-response","73","908042","0.0-73.0","A39C22RIL0YJ4D","","","","","27","","","","","","","","","","","","","","","","","","","","","",""
"null","","image-button-response","74","913044","0.0-74.0","A39C22RIL0YJ4D","img_art/20.jpg","null","","","","","","","","","","","","","","","","","","","","","","","","",""
"3696","","image-button-response","75","916741","0.0-75.0","A39C22RIL0YJ4D","img_art/20.jpg","4","","","","","","","","","","","","","","","","","","","","","","","","",""
"871","","image-button-response","76","917613","0.0-76.0-0.0","A39C22RIL0YJ4D","img_art/20.jpg","3","","","","","","","","","","","","","","","","","","","","","","","","",""
"7547","","image-button-response","77","925161","0.0-77.0-0.0","A39C22RIL0YJ4D","img_art/20.jpg","2","","","","","","","","","","","","","","","","","","","","","","","","",""
"null","","html-keyboard-response","78","926677","0.0-78.0","A39C22RIL0YJ4D","<p style=""font-size: 48px;"">+</p>","","","","","null","allTrialResponses","1500","1","5","img_art/20.jpg","27","spaceship landing near an ancient temple","Vincent,Kenneth,Devon,Lucas,Brett,Tanner","I love the colors and coukd spend alot of time with the picture,33,360,20","I want to like this more, but i wish it was more detailed. It's hard for me to see what it is.,5,300,20","i can feel the intensity in this,11,400,20","Phenomenal painting of building.,25,380,20","City life vs shore life,40,360,20","danger, car crash, stressful,-12,180,20","Brett","City life vs shore life,40,360,20","Lucas","Phenomenal painting of building.,25,380,20","Devon","i can feel the intensity in this,11,400,20","0"
"5031","","survey-text","79","931715","0.0-79.0-0.0","A39C22RIL0YJ4D","","","","{""Q0"":""sky""}","","","","","","","","","","","","","","","","","","","","","","",""
"31178","","survey-text","80","962895","0.0-80.0-0.0","A39C22RIL0YJ4D","","","","{""Q0"":""looks like a plant that blooms different fruit""}","","","","","","","","","","","","","","","","","","","","","","",""
"2577.900000035763","","image-slider-response","81","965474","0.0-81.0","A39C22RIL0YJ4D","","","","","14","","","","","","","","","","","","","","","","","","","","","",""
"4315","","image-button-response","82","970477","0.0-82.0","A39C22RIL0YJ4D","img_art/14.jpg","4","","","","","","","","","","","","","","","","","","","","","","","","",""
"366","","image-button-response","83","970845","0.0-83.0","A39C22RIL0YJ4D","img_art/14.jpg","3","","","","","","","","","","","","","","","","","","","","","","","","",""
"986","","image-button-response","84","971832","0.0-84.0-0.0","A39C22RIL0YJ4D","img_art/14.jpg","4","","","","","","","","","","","","","","","","","","","","","","","","",""
"376","","image-button-response","85","972210","0.0-85.0-0.0","A39C22RIL0YJ4D","img_art/14.jpg","5","","","","","","","","","","","","","","","","","","","","","","","","",""
"null","","html-keyboard-response","86","973217","0.0-86.0","A39C22RIL0YJ4D","<p style=""font-size: 48px;"">+</p>","","","","","null","allTrialResponses","1000","1","6","img_art/14.jpg","14","looks like a plant that blooms different fruit","Bryce,Travis,Devon,Lucas,Brett,Isaac","The red looks like blood and im not a huge fan,15,20,20","I kind of like it...I like the white back ground,11,260,20","this would make a very beautiful art project,22,400,20","In my opinion it's spectacular.,35,380,20","Confusion or an explosion,40,360,20","The colors are pleasing.,29,280,20","Lucas","In my opinion it's spectacular.,35,380,20","Brett","Confusion or an explosion,40,360,20","Isaac","The colors are pleasing.,29,280,20","0"
"71783","","survey-text","87","1045005","0.0-87.0-0.0","A39C22RIL0YJ4D","","","","{""Q0"":""looks like a demon with one eye""}","","","","","","","","","","","","","","","","","","","","","","",""
"2346.400000035763","","image-slider-response","88","1047352","0.0-88.0","A39C22RIL0YJ4D","","","","","14","","","","","","","","","","","","","","","","","","","","","",""
"2756","","image-button-response","89","1052355","0.0-89.0","A39C22RIL0YJ4D","img_art/30.jpg","0","","","","","","","","","","","","","","","","","","","","","","","","",""
"2916","","image-button-response","90","1055272","0.0-90.0","A39C22RIL0YJ4D","img_art/30.jpg","4","","","","","","","","","","","","","","","","","","","","","","","","",""
"2031","","image-button-response","91","1057304","0.0-91.0-0.0","A39C22RIL0YJ4D","img_art/30.jpg","3","","","","","","","","","","","","","","","","","","","","","","","","",""
"2191","","image-button-response","92","1059496","0.0-92.0-0.0","A39C22RIL0YJ4D","img_art/30.jpg","0","","","","","","","","","","","","","","","","","","","","","","","","",""
"null","","html-keyboard-response","93","1061011","0.0-93.0","A39C22RIL0YJ4D","<p style=""font-size: 48px;"">+</p>","","","","","null","allTrialResponses","1500","1","7","img_art/30.jpg","14","looks like a demon with one eye","Malik,Christopher,Shane,Lucas,Brett,Isaac","I can't parse any intention or emotion,-17,40,20","looks simple, I can't see a lot of care going into this,-33,160,20","I like the back but the red lines in the front distress me,-7,80,20","I like the way the artist has painted his work.,40,380,20","I can't figure this out,25,360,20","It looks like it was painted in 5 minutes.,-32,280,20","Brett","I can't figure this out,25,360,20","Lucas","I like the way the artist has painted his work.,40,380,20","Malik","I can't parse any intention or emotion,-17,40,20","0"
"19254","","survey-text","94","1080270","0.0-94.0-0.0","A39C22RIL0YJ4D","","","","{""Q0"":""looks like a key unlocking the secrets of a planet""}","","","","","","","","","","","","","","","","","","","","","","",""
"1854.1000000238419","","image-slider-response","95","1082125","0.0-95.0","A39C22RIL0YJ4D","","","","","16","","","","","","","","","","","","","","","","","","","","","",""
"3974","","image-button-response","96","1087128","0.0-96.0","A39C22RIL0YJ4D","img_art/22.jpg","4","","","","","","","","","","","","","","","","","","","","","","","","",""
"4925","","image-button-response","97","1092055","0.0-97.0","A39C22RIL0YJ4D","img_art/22.jpg","4","","","","","","","","","","","","","","","","","","","","","","","","",""
"9195","","image-button-response","98","1101251","0.0-98.0-0.0","A39C22RIL0YJ4D","img_art/22.jpg","1","","","","","","","","","","","","","","","","","","","","","","","","",""
"513","","image-button-response","99","1101765","0.0-99.0-0.0","A39C22RIL0YJ4D","img_art/22.jpg","0","","","","","","","","","","","","","","","","","","","","","","","","",""
"null","","html-keyboard-response","100","1102268","0.0-100.0","A39C22RIL0YJ4D","<p style=""font-size: 48px;"">+</p>","","","","","null","allTrialResponses","500","1","8","img_art/22.jpg","16","looks like a key unlocking the secrets of a planet","Malik,Jordan,Mark,Lucas,Brett,Luke","Beautiful forms, using color to define shape,14,40,20","The colors are too dark, too much red,2,160,20","I don't feel much of anything.,0,80,20","Unfortunately, I can't see anything special in this painting.,-20,380,20","Climate change in a big city,35,360,20","the colors and shapes makes me want to keep looking at it,22,20,20","Brett","Climate change in a big city,35,360,20","Jordan","The colors are too dark, too much red,2,160,20","Malik","Beautiful forms, using color to define shape,14,40,20","0"
"21309","","survey-text","101","1123581","0.0-101.0-0.0","A39C22RIL0YJ4D","","","","{""Q0"":""music notes written on a violin""}","","","","","","","","","","","","","","","","","","","","","","",""
"1773.5999999642372","","image-slider-response","102","1125356","0.0-102.0","A39C22RIL0YJ4D","","","","","7","","","","","","","","","","","","","","","","","","","","","",""
"null","","image-button-response","103","1130358","0.0-103.0","A39C22RIL0YJ4D","img_art/10.jpg","null","","","","","","","","","","","","","","","","","","","","","","","","",""
"183","","image-button-response","104","1130543","0.0-104.0","A39C22RIL0YJ4D","img_art/10.jpg","4","","","","","","","","","","","","","","","","","","","","","","","","",""
"878","","image-button-response","105","1131422","0.0-105.0-0.0","A39C22RIL0YJ4D","img_art/10.jpg","5","","","","","","","","","","","","","","","","","","","","","","","","",""
"1138","","image-button-response","106","1132561","0.0-106.0-0.0","A39C22RIL0YJ4D","img_art/10.jpg","1","","","","","","","","","","","","","","","","","","","","","","","","",""
"null","","html-keyboard-response","107","1133064","0.0-107.0","A39C22RIL0YJ4D","<p style=""font-size: 48px;"">+</p>","","","","","null","allTrialResponses","500","1","9","img_art/10.jpg","7","music notes written on a violin","Malik,Jordan,William,Noah,Brett,Nicholas","Good texture, expressive,18,40,20","Looks gross and messy,-39,160,20","absolutely beautiful piece of art,49,380,20","not sure what to make of this one,0,260,20","Musical guitar whimsy,45,360,20","I like it but do not love it. It is sort of depressing,13,240,20","Brett","Musical guitar whimsy,45,360,20","Nicholas","I like it but do not love it. It is sort of depressing,13,240,20","Jordan","Looks gross and messy,-39,160,20","0"
"24857","","survey-text","108","1157926","0.0-108.0-0.0","A39C22RIL0YJ4D","","","","{""Q0"":""a tree within a modern house""}","","","","","","","","","","","","","","","","","","","","","","",""
"2526.699999988079","","image-slider-response","109","1160454","0.0-109.0","A39C22RIL0YJ4D","","","","","-8","","","","","","","","","","","","","","","","","","","","","",""
"null","","image-button-response","110","1165464","0.0-110.0","A39C22RIL0YJ4D","img_art/17.jpg","null","","","","","","","","","","","","","","","","","","","","","","","","",""
"3728","","image-button-response","111","1169192","0.0-111.0","A39C22RIL0YJ4D","img_art/17.jpg","2","","","","","","","","","","","","","","","","","","","","","","","","",""
"829","","image-button-response","112","1170023","0.0-112.0-0.0","A39C22RIL0YJ4D","img_art/17.jpg","1","","","","","","","","","","","","","","","","","","","","","","","","",""
"2999","","image-button-response","113","1173024","0.0-113.0-0.0","A39C22RIL0YJ4D","img_art/17.jpg","4","","","","","","","","","","","","","","","","","","","","","","","","",""
"null","","html-keyboard-response","114","1173527","0.0-114.0","A39C22RIL0YJ4D","<p style=""font-size: 48px;"">+</p>","","","","","null","allTrialResponses","500","1","10","img_art/17.jpg","-8","a tree within a modern house","Dalton,Jordan,Richard,Marcus,Brett,Nicholas","Beautiful simply beautiful. i would love this,,50,300,20","Really love the branches. The bottom made it not perfect,42,160,20","nice composition and colors, fairy land,28,340,20","I like this, but it's a bit bland.,10,60,20","Looks like an explosion of pretty artwork,45,360,20","Nice colors, shapes, flow,31,240,20","Richard","nice composition and colors, fairy land,28,340,20","Jordan","Really love the branches. The bottom made it not perfect,42,160,20","Brett","Looks like an explosion of pretty artwork,45,360,20","0"
"4079","","survey-text","115","1177614","0.0-115.0-0.0","A39C22RIL0YJ4D","","","","{""Q0"":""our""}","","","","","","","","","","","","","","","","","","","","","","",""
"28506","","survey-text","116","1206121","0.0-116.0-0.0","A39C22RIL0YJ4D","","","","{""Q0"":""looks like a mirage of city blocks ""}","","","","","","","","","","","","","","","","","","","","","","",""
"1865.4000000357628","","image-slider-response","117","1207988","0.0-117.0","A39C22RIL0YJ4D","","","","","-34","","","","","","","","","","","","","","","","","","","","","",""
"null","","image-button-response","118","1212989","0.0-118.0","A39C22RIL0YJ4D","img_art/12.jpg","null","","","","","","","","","","","","","","","","","","","","","","","","",""
"913","","image-button-response","119","1213903","0.0-119.0","A39C22RIL0YJ4D","img_art/12.jpg","4","","","","","","","","","","","","","","","","","","","","","","","","",""
"441","","image-button-response","120","1214345","0.0-120.0-0.0","A39C22RIL0YJ4D","img_art/12.jpg","3","","","","","","","","","","","","","","","","","","","","","","","","",""
"920","","image-button-response","121","1215267","0.0-121.0-0.0","A39C22RIL0YJ4D","img_art/12.jpg","1","","","","","","","","","","","","","","","","","","","","","","","","",""
"null","","html-keyboard-response","122","1215768","0.0-122.0","A39C22RIL0YJ4D","<p style=""font-size: 48px;"">+</p>","","","","","null","allTrialResponses","500","1","11","img_art/12.jpg","-34","looks like a mirage of city blocks ","Jared,Jordan,Richard,Mason,Brett,Steven","i dont see the point.,-19,400,20","Made me uncomfortable, reminded me of the 90s,-9,160,20","seems too dark on top and too common on the bottom,-19,340,20","it's ok, but blocky, looks old.,3,100,20","Night and day, light and dark,35,360,20","not my kind of thing,1,160,20","Brett","Night and day, light and dark,35,360,20","Mason","it's ok, but blocky, looks old.,3,100,20","Jordan","Made me uncomfortable, reminded me of the 90s,-9,160,20","0"
"16608","","survey-text","123","1232384","0.0-123.0-0.0","A39C22RIL0YJ4D","","","","{""Q0"":""looks like warriors and singers lined up""}","","","","","","","","","","","","","","","","","","","","","","",""
"2248.399999976158","","image-slider-response","124","1234634","0.0-124.0","A39C22RIL0YJ4D","","","","","17","","","","","","","","","","","","","","","","","","","","","",""
"null","","image-button-response","125","1239637","0.0-125.0","A39C22RIL0YJ4D","img_art/23.jpg","null","","","","","","","","","","","","","","","","","","","","","","","","",""
"520","","image-button-response","126","1240157","0.0-126.0","A39C22RIL0YJ4D","img_art/23.jpg","0","","","","","","","","","","","","","","","","","","","","","","","","",""
"1242","","image-button-response","127","1241401","0.0-127.0-0.0","A39C22RIL0YJ4D","img_art/23.jpg","2","","","","","","","","","","","","","","","","","","","","","","","","",""
"738","","image-button-response","128","1242141","0.0-128.0-0.0","A39C22RIL0YJ4D","img_art/23.jpg","5","","","","","","","","","","","","","","","","","","","","","","","","",""
"null","","html-keyboard-response","129","1242643","0.0-129.0","A39C22RIL0YJ4D","<p style=""font-size: 48px;"">+</p>","","","","","null","allTrialResponses","500","1","12","img_art/23.jpg","17","looks like warriors and singers lined up","Jeffrey,Jordan,Luis,Mason,Brett,Thomas","Very energetic, seems like it is pulling me in,24,40,20","I like the contrast,29,160,20","I dont like the chaos of this,-20,400,20","No reactions, childish.,-19,100,20","Universal celebration,40,360,20","Beautiful. Very detailed and colorful. I enjoy looking at it.,50,220,20","Jeffrey","Very energetic, seems like it is pulling me in,24,40,20","Luis","I dont like the chaos of this,-20,400,20","Thomas","Beautiful. Very detailed and colorful. I enjoy looking at it.,50,220,20","0"
"8962","","survey-text","130","1251610","0.0-130.0-0.0","A39C22RIL0YJ4D","","","","{""Q0"":""looks like a golden statue ""}","","","","","","","","","","","","","","","","","","","","","","",""
"2292.400000035763","","image-slider-response","131","1253904","0.0-131.0","A39C22RIL0YJ4D","","","","","-14","","","","","","","","","","","","","","","","","","","","","",""
"null","","image-button-response","132","1258917","0.0-132.0","A39C22RIL0YJ4D","img_art/4.jpg","null","","","","","","","","","","","","","","","","","","","","","","","","",""
"4984","","image-button-response","133","1263903","0.0-133.0","A39C22RIL0YJ4D","img_art/4.jpg","4","","","","","","","","","","","","","","","","","","","","","","","","",""
"814","","image-button-response","134","1264718","0.0-134.0-0.0","A39C22RIL0YJ4D","img_art/4.jpg","5","","","","","","","","","","","","","","","","","","","","","","","","",""
"2787","","image-button-response","135","1267507","0.0-135.0-0.0","A39C22RIL0YJ4D","img_art/4.jpg","0","","","","","","","","","","","","","","","","","","","","","","","","",""
"null","","html-keyboard-response","136","1269009","0.0-136.0","A39C22RIL0YJ4D","<p style=""font-size: 48px;"">+</p>","","","","","null","allTrialResponses","1500","1","13","img_art/4.jpg","-14","looks like a golden statue ","Jeffrey,Alexander,Luis,Jake,Jacob,Thomas","Easy and relaxing,23,40,20","Pretzel noodles.,7,120,20","Its just not giving the vibe i should be finding,-31,400,20","This is ugly in color and in terms of the shape on it.,-32,360,20","Looks like they just smothered on some paint and called it a day.,-17,340,20","This image doesn't invoke anything in me,-9,220,20","Jacob","Looks like they just smothered on some paint and called it a day.,-17,340,20","Thomas","This image doesn't invoke anything in me,-9,220,20","Jeffrey","Easy and relaxing,23,40,20","0"
"29767","","survey-text","137","1298782","0.0-137.0-0.0","A39C22RIL0YJ4D","","","","{""Q0"":""Looks like a woman relaxing in a garden room""}","","","","","","","","","","","","","","","","","","","","","","",""
"1849.300000011921","","image-slider-response","138","1300632","0.0-138.0","A39C22RIL0YJ4D","","","","","4","","","","","","","","","","","","","","","","","","","","","",""
"null","","image-button-response","139","1305635","0.0-139.0","A39C22RIL0YJ4D","img_art/9.jpg","null","","","","","","","","","","","","","","","","","","","","","","","","",""
"1707","","image-button-response","140","1307343","0.0-140.0","A39C22RIL0YJ4D","img_art/9.jpg","0","","","","","","","","","","","","","","","","","","","","","","","","",""
"535","","image-button-response","141","1307879","0.0-141.0-0.0","A39C22RIL0YJ4D","img_art/9.jpg","1","","","","","","","","","","","","","","","","","","","","","","","","",""
"587","","image-button-response","142","1308467","0.0-142.0-0.0","A39C22RIL0YJ4D","img_art/9.jpg","3","","","","","","","","","","","","","","","","","","","","","","","","",""
"null","","html-keyboard-response","143","1308969","0.0-143.0","A39C22RIL0YJ4D","<p style=""font-size: 48px;"">+</p>","","","","","null","allTrialResponses","500","1","14","img_art/9.jpg","4","Looks like a woman relaxing in a garden room","Jeffrey,Joshua,Juan,Edward,Jacob,Thomas","Looks very relaxing; someone laying in a meadow,13,40,20","Someone lying in bed?  Don't care for it.,-14,240,20","It's too abstract for my taste. I wish there were more definition.,-9,260,20","The colors remind me of peacocks,24,60,20","So I don't really like this style but it looks somewhat okay,3,340,20","I don't like the picture, but it wouldn't surprise me if someone did,-20,220,20","Jeffrey","Looks very relaxing; someone laying in a meadow,13,40,20","Joshua","Someone lying in bed?  Don't care for it.,-14,240,20","Edward","The colors remind me of peacocks,24,60,20","0"
"20052","","survey-text","144","1329028","0.0-144.0-0.0","A39C22RIL0YJ4D","","","","{""Q0"":""looks like mars soil""}","","","","","","","","","","","","","","","","","","","","","","",""
"1939.800000011921","","image-slider-response","145","1330969","0.0-145.0","A39C22RIL0YJ4D","","","","","-22","","","","","","","","","","","","","","","","","","","","","",""
"null","","image-button-response","146","1335972","0.0-146.0","A39C22RIL0YJ4D","img_art/7.jpg","null","","","","","","","","","","","","","","","","","","","","","","","","",""
"655","","image-button-response","147","1336627","0.0-147.0","A39C22RIL0YJ4D","img_art/7.jpg","3","","","","","","","","","","","","","","","","","","","","","","","","",""
"485","","image-button-response","148","1337114","0.0-148.0-0.0","A39C22RIL0YJ4D","img_art/7.jpg","4","","","","","","","","","","","","","","","","","","","","","","","","",""
"753","","image-button-response","149","1337869","0.0-149.0-0.0","A39C22RIL0YJ4D","img_art/7.jpg","1","","","","","","","","","","","","","","","","","","","","","","","","",""
"null","","html-keyboard-response","150","1339371","0.0-150.0","A39C22RIL0YJ4D","<p style=""font-size: 48px;"">+</p>","","","","","null","allTrialResponses","1500","1","15","img_art/7.jpg","-22","looks like mars soil","Jeffrey,Joshua,Blake,Edward,Zachary,Daniel","No not cause many emotions,1,40,20","Looks almost like a photograph of nature.,11,240,20","hot desert with big rocks.,-19,280,20","It looks like maybe some seeds?,14,60,20","Looks like a desert or another planet. While the color choices are narrow, it's still interesting because it is very natural.,12,400,20","Great portrayal of solid surface,19,320,20","Edward","It looks like maybe some seeds?,14,60,20","Zachary","Looks like a desert or another planet. While the color choices are narrow, it's still interesting because it is very natural.,12,400,20","Joshua","Looks almost like a photograph of nature.,11,240,20","0"
"6516","","survey-text","151","1345903","0.0-151.0-0.0","A39C22RIL0YJ4D","","","","{""Q0"":""course""}","","","","","","","","","","","","","","","","","","","","","","",""
"35968","","survey-text","152","1381871","0.0-152.0-0.0","A39C22RIL0YJ4D","","","","{""Q0"":""looks like a collection of stories from different people in a city of disasters.""}","","","","","","","","","","","","","","","","","","","","","","",""
"1808","","image-slider-response","153","1383680","0.0-153.0","A39C22RIL0YJ4D","","","","","30","","","","","","","","","","","","","","","","","","","","","",""
"null","","image-button-response","154","1388693","0.0-154.0","A39C22RIL0YJ4D","img_art/8.jpg","null","","","","","","","","","","","","","","","","","","","","","","","","",""
"4863","","image-button-response","155","1393558","0.0-155.0","A39C22RIL0YJ4D","img_art/8.jpg","5","","","","","","","","","","","","","","","","","","","","","","","","",""
"856","","image-button-response","156","1394415","0.0-156.0-0.0","A39C22RIL0YJ4D","img_art/8.jpg","2","","","","","","","","","","","","","","","","","","","","","","","","",""
"678","","image-button-response","157","1395095","0.0-157.0-0.0","A39C22RIL0YJ4D","img_art/8.jpg","0","","","","","","","","","","","","","","","","","","","","","","","","",""
"null","","html-keyboard-response","158","1396597","0.0-158.0","A39C22RIL0YJ4D","<p style=""font-size: 48px;"">+</p>","","","","","null","allTrialResponses","1500","1","16","img_art/8.jpg","30","looks like a collection of stories from different people in a city of disasters.","Dakota,Joshua,Antonio,Edward,Zachary,Bryan","chaotic and disassembled,-8,280,20","I don't understand it. Makes no sense to me.,5,240,20","I love the colors in it and also the faces and door ways. Made me feel hopeful,35,220,20","It's too boxy for my taste,-10,60,20","I like all of the faces that can be found in this piece. Interesting.,35,400,20","Like the colors & the imagery - old city, native peoples maybe.,20,400,20","Bryan","Like the colors & the imagery - old city, native peoples maybe.,20,400,20","Antonio","I love the colors in it and also the faces and door ways. Made me feel hopeful,35,220,20","Dakota","chaotic and disassembled,-8,280,20","0"
"43221","","survey-text","159","1439824","0.0-159.0-0.0","A39C22RIL0YJ4D","","","","{""Q0"":""Looks like a conquistador battling a sea creature""}","","","","","","","","","","","","","","","","","","","","","","",""
"3353.899999976158","","image-slider-response","160","1443179","0.0-160.0","A39C22RIL0YJ4D","","","","","41","","","","","","","","","","","","","","","","","","","","","",""
"null","","image-button-response","161","1448196","0.0-161.0","A39C22RIL0YJ4D","img_art/18.jpg","null","","","","","","","","","","","","","","","","","","","","","","","","",""
"2750","","image-button-response","162","1450947","0.0-162.0","A39C22RIL0YJ4D","img_art/18.jpg","1","","","","","","","","","","","","","","","","","","","","","","","","",""
"2464","","image-button-response","163","1453412","0.0-163.0-0.0","A39C22RIL0YJ4D","img_art/18.jpg","4","","","","","","","","","","","","","","","","","","","","","","","","",""
"1035","","image-button-response","164","1454448","0.0-164.0-0.0","A39C22RIL0YJ4D","img_art/18.jpg","5","","","","","","","","","","","","","","","","","","","","","","","","",""
"null","","html-keyboard-response","165","1454951","0.0-165.0","A39C22RIL0YJ4D","<p style=""font-size: 48px;"">+</p>","","","","","null","allTrialResponses","500","1","17","img_art/18.jpg","41","Looks like a conquistador battling a sea creature","Dakota,Brian,Antonio,Elijah,Jesse,Bryan","afraid and anxious,21,280,20","Very classy, I feel like it's the apocalypse.,25,380,20","I think of the ocean and a boat tossed about on the waves. In the upper left is a figure. It is pleasant,30,220,20","Makes me feel confused,16,80,20","It reminds me of ghosts on a boat. Makes me nervous.,-27,80,20","First saw sailing ship in bad weather but then saw woman in upper left - not sure what I'm seeing.,21,400,20","Brian","Very classy, I feel like it's the apocalypse.,25,380,20","Jesse","It reminds me of ghosts on a boat. Makes me nervous.,-27,80,20","Bryan","First saw sailing ship in bad weather but then saw woman in upper left - not sure what I'm seeing.,21,400,20","0"
"19425","","survey-text","166","1474383","0.0-166.0-0.0","A39C22RIL0YJ4D","","","","{""Q0"":""looks like organs talking to each other""}","","","","","","","","","","","","","","","","","","","","","","",""
"2066","","image-slider-response","167","1476450","0.0-167.0","A39C22RIL0YJ4D","","","","","10","","","","","","","","","","","","","","","","","","","","","",""
"null","","image-button-response","168","1481465","0.0-168.0","A39C22RIL0YJ4D","img_art/28.jpg","null","","","","","","","","","","","","","","","","","","","","","","","","",""
"3311","","image-button-response","169","1484778","0.0-169.0","A39C22RIL0YJ4D","img_art/28.jpg","5","","","","","","","","","","","","","","","","","","","","","","","","",""
"1234","","image-button-response","170","1486013","0.0-170.0-0.0","A39C22RIL0YJ4D","img_art/28.jpg","1","","","","","","","","","","","","","","","","","","","","","","","","",""
"308","","image-button-response","171","1486323","0.0-171.0-0.0","A39C22RIL0YJ4D","img_art/28.jpg","0","","","","","","","","","","","","","","","","","","","","","","","","",""
"null","","html-keyboard-response","172","1486824","0.0-172.0","A39C22RIL0YJ4D","<p style=""font-size: 48px;"">+</p>","","","","","null","allTrialResponses","500","1","18","img_art/28.jpg","10","looks like organs talking to each other","Seth,Brian,Hunter,Adam,Jesse,Bryan","I think this piece is interesting. I love the faces drawn into it.,29,60,20","the people kind of scare me in this one,-15,380,20","reminds me of kandinsky,14,240,20","Dislike the colors.,-20,40,20","Just all blurs together for me. No substance.,-23,80,20","A meeting in Old Jerusalem.,11,400,20","Bryan","A meeting in Old Jerusalem.,11,400,20","Brian","the people kind of scare me in this one,-15,380,20","Seth","I think this piece is interesting. I love the faces drawn into it.,29,60,20","0"
"48104","","survey-text","173","1534934","0.0-173.0-0.0","A39C22RIL0YJ4D","","","","{""Q0"":""looks like a person overlooking a city that is about to be overwhelmed by a large fire.""}","","","","","","","","","","","","","","","","","","","","","","",""
"1435.1000000238419","","image-slider-response","174","1536371","0.0-174.0","A39C22RIL0YJ4D","","","","","9","","","","","","","","","","","","","","","","","","","","","",""
"null","","image-button-response","175","1541373","0.0-175.0","A39C22RIL0YJ4D","img_art/27.jpg","null","","","","","","","","","","","","","","","","","","","","","","","","",""
"3168","","image-button-response","176","1544543","0.0-176.0","A39C22RIL0YJ4D","img_art/27.jpg","2","","","","","","","","","","","","","","","","","","","","","","","","",""
"6039","","image-button-response","177","1550583","0.0-177.0-0.0","A39C22RIL0YJ4D","img_art/27.jpg","4","","","","","","","","","","","","","","","","","","","","","","","","",""
"691","","image-button-response","178","1551276","0.0-178.0-0.0","A39C22RIL0YJ4D","img_art/27.jpg","5","","","","","","","","","","","","","","","","","","","","","","","","",""
"null","","html-keyboard-response","179","1551778","0.0-179.0","A39C22RIL0YJ4D","<p style=""font-size: 48px;"">+</p>","","","","","null","allTrialResponses","500","1","19","img_art/27.jpg","9","looks like a person overlooking a city that is about to be overwhelmed by a large fire.","Seth,Brian,Carlos,Joseph,Cody,Bryan","I don't care for the green scribbles; not sure what they are. But I adore the colors in the background.,24,60,20","Colors could be more pleasing, but I really like the thinner lines superimposed over the background,25,380,20","The green lines disrupt the image in an unpleasant and hurried way.,-30,80,20","Don't know what it is, but I do like it.,10,220,20","Not sure how I feel about this. Messy, even for art. But good colors.,0,180,20","Not fond of the bad pencil drawing mixed with the drab colors.,-21,400,20","Carlos","The green lines disrupt the image in an unpleasant and hurried way.,-30,80,20","Cody","Not sure how I feel about this. Messy, even for art. But good colors.,0,180,20","Bryan","Not fond of the bad pencil drawing mixed with the drab colors.,-21,400,20","0"
"29539","","survey-text","180","1581325","0.0-180.0-0.0","A39C22RIL0YJ4D","","","","{""Q0"":""marble graffiti on metal""}","","","","","","","","","","","","","","","","","","","","","","",""
"2090.100000023842","","image-slider-response","181","1583416","0.0-181.0","A39C22RIL0YJ4D","","","","","26","","","","","","","","","","","","","","","","","","","","","",""
"null","","image-button-response","182","1588946","0.0-182.0","A39C22RIL0YJ4D","img_art/13.jpg","null","","","","","","","","","","","","","","","","","","","","","","","","",""
"63656","","image-button-response","183","1652603","0.0-183.0","A39C22RIL0YJ4D","img_art/13.jpg","1","","","","","","","","","","","","","","","","","","","","","","","","",""
"2620","","image-button-response","184","1655224","0.0-184.0-0.0","A39C22RIL0YJ4D","img_art/13.jpg","5","","","","","","","","","","","","","","","","","","","","","","","","",""
"546","","image-button-response","185","1655772","0.0-185.0-0.0","A39C22RIL0YJ4D","img_art/13.jpg","2","","","","","","","","","","","","","","","","","","","","","","","","",""
"null","","html-keyboard-response","186","1656773","0.0-186.0","A39C22RIL0YJ4D","<p style=""font-size: 48px;"">+</p>","","","","","null","allTrialResponses","1000","1","20","img_art/13.jpg","26","marble graffiti on metal","Cole,Alex,Carlos,Austin,Cody,Bryan","The blue colors are very calming. Reminds me of water,33,200,20","I like the blue colors and the symmetry and paint splatters but I would not hang it in my house,8,100,20","Rain on a cold window.,22,80,20","Love the splash of colors,50,240,20","It's pretty ...........,41,180,20","Love the colors, love the abstractness, love this Jackson Pollock type painting.,48,400,20","Alex","I like the blue colors and the symmetry and paint splatters but I would not hang it in my house,8,100,20","Bryan","Love the colors, love the abstractness, love this Jackson Pollock type painting.,48,400,20","Carlos","Rain on a cold window.,22,80,20","0"
"4121","","survey-text","187","1660907","0.0-187.0-0.0","A39C22RIL0YJ4D","","","","{""Q0"":""we""}","","","","","","","","","","","","","","","","","","","","","","",""
"23351","","survey-text","188","1684259","0.0-188.0-0.0","A39C22RIL0YJ4D","","","","{""Q0"":""shaman wizard displaying his powers""}","","","","","","","","","","","","","","","","","","","","","","",""
"3032","","image-slider-response","189","1687293","0.0-189.0","A39C22RIL0YJ4D","","","","","20","","","","","","","","","","","","","","","","","","","","","",""
"4894","","image-button-response","190","1692295","0.0-190.0","A39C22RIL0YJ4D","img_art/25.jpg","1","","","","","","","","","","","","","","","","","","","","","","","","",""
"821","","image-button-response","191","1693117","0.0-191.0","A39C22RIL0YJ4D","img_art/25.jpg","1","","","","","","","","","","","","","","","","","","","","","","","","",""
"676","","image-button-response","192","1693794","0.0-192.0-0.0","A39C22RIL0YJ4D","img_art/25.jpg","4","","","","","","","","","","","","","","","","","","","","","","","","",""
"286","","image-button-response","193","1694081","0.0-193.0-0.0","A39C22RIL0YJ4D","img_art/25.jpg","5","","","","","","","","","","","","","","","","","","","","","","","","",""
"null","","html-keyboard-response","194","1694584","0.0-194.0","A39C22RIL0YJ4D","<p style=""font-size: 48px;"">+</p>","","","","","null","allTrialResponses","500","1","21","img_art/25.jpg","20","shaman wizard displaying his powers","Garrett,Alex,Carlos,Paul,James,Bryan","I like the way the persons clothes look, there could be more color though.,10,180,20","I can get behind this but only because I like the green. it reminds me of a graveyard,11,100,20","The proportions are unpleasant.,-30,80,20","The skeletal figure is a bit scary,-12,300,20","This would definitely be hanging in my bedroom in my house,50,380,20","Scary. Something out of a Stephen King book/movie.,-31,400,20","Alex","I can get behind this but only because I like the green. it reminds me of a graveyard,11,100,20","James","This would definitely be hanging in my bedroom in my house,50,380,20","Bryan","Scary. Something out of a Stephen King book/movie.,-31,400,20","0"
"54310","","survey-text","195","1748900","0.0-195.0-0.0","A39C22RIL0YJ4D","","","","{""Q0"":""sports gone wrong""}","","","","","","","","","","","","","","","","","","","","","","",""
"1742.5","","image-slider-response","196","1750644","0.0-196.0","A39C22RIL0YJ4D","","","","","-31","","","","","","","","","","","","","","","","","","","","","",""
"null","","image-button-response","197","1755647","0.0-197.0","A39C22RIL0YJ4D","img_art/2.jpg","null","","","","","","","","","","","","","","","","","","","","","","","","",""
"611","","image-button-response","198","1756259","0.0-198.0","A39C22RIL0YJ4D","img_art/2.jpg","4","","","","","","","","","","","","","","","","","","","","","","","","",""
"575","","image-button-response","199","1756836","0.0-199.0-0.0","A39C22RIL0YJ4D","img_art/2.jpg","5","","","","","","","","","","","","","","","","","","","","","","","","",""
"590","","image-button-response","200","1757427","0.0-200.0-0.0","A39C22RIL0YJ4D","img_art/2.jpg","1","","","","","","","","","","","","","","","","","","","","","","","","",""
"null","","html-keyboard-response","201","1758937","0.0-201.0","A39C22RIL0YJ4D","<p style=""font-size: 48px;"">+</p>","","","","","null","allTrialResponses","1500","1","22","img_art/2.jpg","-31","sports gone wrong","Gregory,Alex,Kevin,Jesus,James,Bryan","Awful color coordination and design,-35,220,20","Don't like the puke green color and also too abstact,-14,100,20","That looks look a cartoon character of some kind.,11,320,20","Muted green is overpowering,-10,100,20","The only parts I like is the light blue, red and black. The green color isn't very flattering.,11,380,20","Like the colors but reminds me of a kids show done in cubism.,0,400,20","James","The only parts I like is the light blue, red and black. The green color isn't very flattering.,11,380,20","Bryan","Like the colors but reminds me of a kids show done in cubism.,0,400,20","Alex","Don't like the puke green color and also too abstact,-14,100,20","0"
"15294","","survey-text","202","1774239","0.0-202.0-0.0","A39C22RIL0YJ4D","","","","{""Q0"":""looks like people in a city overlooking a beach""}","","","","","","","","","","","","","","","","","","","","","","",""
"1649.699999988079","","image-slider-response","203","1775890","0.0-203.0","A39C22RIL0YJ4D","","","","","6","","","","","","","","","","","","","","","","","","","","","",""
"4075","","image-button-response","204","1780893","0.0-204.0","A39C22RIL0YJ4D","img_art/19.jpg","1","","","","","","","","","","","","","","","","","","","","","","","","",""
"478","","image-button-response","205","1781371","0.0-205.0","A39C22RIL0YJ4D","img_art/19.jpg","1","","","","","","","","","","","","","","","","","","","","","","","","",""
"567","","image-button-response","206","1781940","0.0-206.0-0.0","A39C22RIL0YJ4D","img_art/19.jpg","2","","","","","","","","","","","","","","","","","","","","","","","","",""
"787","","image-button-response","207","1782729","0.0-207.0-0.0","A39C22RIL0YJ4D","img_art/19.jpg","5","","","","","","","","","","","","","","","","","","","","","","","","",""
"null","","html-keyboard-response","208","1783230","0.0-208.0","A39C22RIL0YJ4D","<p style=""font-size: 48px;"">+</p>","","","","","null","allTrialResponses","500","1","23","img_art/19.jpg","6","looks like people in a city overlooking a beach","Stephen,Alex,Jose,Spencer,James,Bryan","Solid use of colors but wished it looked more realistic.,12,140,20","I like the water but again, the small lines with no detail are irritating,3,100,20","I dig the not being able to tell what anything is but knowing everything is supposed to be something,46,200,20","Very abstract but I like it, it's busy, lots of colors,43,120,20","I don't know what's going on, and I realise that I don't like it,-21,380,20","Looks like a child's rendering of a city street but not too sure.,0,400,20","Alex","I like the water but again, the small lines with no detail are irritating,3,100,20","Jose","I dig the not being able to tell what anything is but knowing everything is supposed to be something,46,200,20","Bryan","Looks like a child's rendering of a city street but not too sure.,0,400,20","0"
"8900","","survey-text","209","1792138","0.0-209.0-0.0","A39C22RIL0YJ4D","","","","{""Q0"":""looks like a city park""}","","","","","","","","","","","","","","","","","","","","","","",""
"2379.699999988079","","image-slider-response","210","1794519","0.0-210.0","A39C22RIL0YJ4D","","","","","-17","","","","","","","","","","","","","","","","","","","","","",""
"null","","image-button-response","211","1799522","0.0-211.0","A39C22RIL0YJ4D","img_art/26.jpg","null","","","","","","","","","","","","","","","","","","","","","","","","",""
"582","","image-button-response","212","1800106","0.0-212.0","A39C22RIL0YJ4D","img_art/26.jpg","4","","","","","","","","","","","","","","","","","","","","","","","","",""
"539","","image-button-response","213","1800646","0.0-213.0-0.0","A39C22RIL0YJ4D","img_art/26.jpg","5","","","","","","","","","","","","","","","","","","","","","","","","",""
"1347","","image-button-response","214","1801995","0.0-214.0-0.0","A39C22RIL0YJ4D","img_art/26.jpg","2","","","","","","","","","","","","","","","","","","","","","","","","",""
"null","","html-keyboard-response","215","1802996","0.0-215.0","A39C22RIL0YJ4D","<p style=""font-size: 48px;"">+</p>","","","","","null","allTrialResponses","1000","1","24","img_art/26.jpg","-17","looks like a city park","Dylan,Alex,Jose,John,Ethan,Bryan","I like the colors but it is still a little boring,22,40,20","I can make out a street view and I am a fan of watercolors but still too boring,15,100,20","This style of objects that are supposed to be something but then are blurry is interesting.,38,200,20","Its pretty.And a nice use of water colors.,25,120,20","I can tell it's some sort of outdoor scene. It looks very amateurish.,-9,120,20","Like the muted colors & the scene which seems to be serene.,14,400,20","Ethan","I can tell it's some sort of outdoor scene. It looks very amateurish.,-9,120,20","Bryan","Like the muted colors & the scene which seems to be serene.,14,400,20","Jose","This style of objects that are supposed to be something but then are blurry is interesting.,38,200,20","0"
"27104","","survey-text","216","1830108","0.0-216.0-0.0","A39C22RIL0YJ4D","","","","{""Q0"":""looks like childs story board.""}","","","","","","","","","","","","","","","","","","","","","","",""
"2069.5","","image-slider-response","217","1832180","0.0-217.0","A39C22RIL0YJ4D","","","","","23","","","","","","","","","","","","","","","","","","","","","",""
"null","","image-button-response","218","1837182","0.0-218.0","A39C22RIL0YJ4D","img_art/16.jpg","null","","","","","","","","","","","","","","","","","","","","","","","","",""
"552","","image-button-response","219","1837736","0.0-219.0","A39C22RIL0YJ4D","img_art/16.jpg","5","","","","","","","","","","","","","","","","","","","","","","","","",""
"509","","image-button-response","220","1838246","0.0-220.0-0.0","A39C22RIL0YJ4D","img_art/16.jpg","4","","","","","","","","","","","","","","","","","","","","","","","","",""
"908","","image-button-response","221","1839156","0.0-221.0-0.0","A39C22RIL0YJ4D","img_art/16.jpg","1","","","","","","","","","","","","","","","","","","","","","","","","",""
"null","","html-keyboard-response","222","1839659","0.0-222.0","A39C22RIL0YJ4D","<p style=""font-size: 48px;"">+</p>","","","","","null","allTrialResponses","500","1","25","img_art/16.jpg","23","looks like childs story board.","Logan,Isaiah,Jose,Ryan,Ethan,Bryan","what is this doing for anyone. If you connect with this you're literally lying to yourself. pretentious,-50,360,20","I feel irked, like somehow the items in this painting just happened to fall on the page together.,-44,300,20","Super weird. Id like to know more about it,24,200,20","Very modern, reminds me of bansky,43,380,20","This is a neat piece. Sort of shocking. I think it's too monochromatic though.,19,120,20","Something terrible happened. Either the figure on the right is the victim or another shredded toy.,-49,400,20","Bryan","Something terrible happened. Either the figure on the right is the victim or another shredded toy.,-49,400,20","Ethan","This is a neat piece. Sort of shocking. I think it's too monochromatic though.,19,120,20","Isaiah","I feel irked, like somehow the items in this painting just happened to fall on the page together.,-44,300,20","0"
"3663","","survey-text","223","1843338","0.0-223.0-0.0","A39C22RIL0YJ4D","","","","{""Q0"":""table""}","","","","","","","","","","","","","","","","","","","","","","",""
"30449","","survey-text","224","1873789","0.0-224.0-0.0","A39C22RIL0YJ4D","","","","{""Q0"":""looks like a spaceship approaching a city in the sky""}","","","","","","","","","","","","","","","","","","","","","","",""
"2164.099999964237","","image-slider-response","225","1875954","0.0-225.0","A39C22RIL0YJ4D","","","","","7","","","","","","","","","","","","","","","","","","","","","",""
"null","","image-button-response","226","1880957","0.0-226.0","A39C22RIL0YJ4D","img_art/1.jpg","null","","","","","","","","","","","","","","","","","","","","","","","","",""
"430","","image-button-response","227","1881389","0.0-227.0","A39C22RIL0YJ4D","img_art/1.jpg","4","","","","","","","","","","","","","","","","","","","","","","","","",""
"764","","image-button-response","228","1882153","0.0-228.0-0.0","A39C22RIL0YJ4D","img_art/1.jpg","0","","","","","","","","","","","","","","","","","","","","","","","","",""
"852","","image-button-response","229","1883008","0.0-229.0-0.0","A39C22RIL0YJ4D","img_art/1.jpg","3","","","","","","","","","","","","","","","","","","","","","","","","",""
"null","","html-keyboard-response","230","1884509","0.0-230.0","A39C22RIL0YJ4D","<p style=""font-size: 48px;"">+</p>","","","","","null","allTrialResponses","1500","1","26","img_art/1.jpg","7","looks like a spaceship approaching a city in the sky","Tristan,Isaiah,Matthew,Cameron,Ethan,Bryan","Unpleasing palette. I see a figure but it seems incongrous to the highly abstract background.,-20,300,20","I feel relaxed, like I'm watching the leaves change color.,17,300,20","More passable, colorful, abstract.,13,120,20","It's okay, colors remind me of autumn.,10,60,20","This piece feels soft and romantic to me. I do not care for so much orange though.,3,120,20","Again, like the colors & abstractness.,29,400,20","Ethan","This piece feels soft and romantic to me. I do not care for so much orange though.,3,120,20","Tristan","Unpleasing palette. I see a figure but it seems incongrous to the highly abstract background.,-20,300,20","Cameron","It's okay, colors remind me of autumn.,10,60,20","0"
"62724","","survey-text","231","1947243","0.0-231.0-0.0","A39C22RIL0YJ4D","","","","{""Q0"":""beautful streaks of red and blue overlapping white colors""}","","","","","","","","","","","","","","","","","","","","","","",""
"2188.800000011921","","image-slider-response","232","1949433","0.0-232.0","A39C22RIL0YJ4D","","","","","37","","","","","","","","","","","","","","","","","","","","","",""
"null","","image-button-response","233","1954439","0.0-233.0","A39C22RIL0YJ4D","img_art/21.jpg","null","","","","","","","","","","","","","","","","","","","","","","","","",""
"334","","image-button-response","234","1954775","0.0-234.0","A39C22RIL0YJ4D","img_art/21.jpg","4","","","","","","","","","","","","","","","","","","","","","","","","",""
"750","","image-button-response","235","1955525","0.0-235.0-0.0","A39C22RIL0YJ4D","img_art/21.jpg","5","","","","","","","","","","","","","","","","","","","","","","","","",""
"652","","image-button-response","236","1956179","0.0-236.0-0.0","A39C22RIL0YJ4D","img_art/21.jpg","3","","","","","","","","","","","","","","","","","","","","","","","","",""
"null","","html-keyboard-response","237","1957681","0.0-237.0","A39C22RIL0YJ4D","<p style=""font-size: 48px;"">+</p>","","","","","null","allTrialResponses","1500","1","27","img_art/21.jpg","37","beautful streaks of red and blue overlapping white colors","Tristan,Michael,Justin,Cameron,Ethan,Samuel","A landscape that leaves me inspired and hopeful.,20,300,20","What's the point?,-30,140,20","Alright. I like the colors.,5,280,20","Like the colors. Don't like the white dots on the right side of the painting though.,15,60,20","This is lovely. I like the mix of colors, the warn and cool slowly combining.,39,120,20","feels like a wave coming into light,9,400,20","Ethan","This is lovely. I like the mix of colors, the warn and cool slowly combining.,39,120,20","Samuel","feels like a wave coming into light,9,400,20","Cameron","Like the colors. Don't like the white dots on the right side of the painting though.,15,60,20","0"
"12835","","survey-text","238","1970528","0.0-238.0-0.0","A39C22RIL0YJ4D","","","","{""Q0"":""city of sea waves""}","","","","","","","","","","","","","","","","","","","","","","",""
"1866","","image-slider-response","239","1972396","0.0-239.0","A39C22RIL0YJ4D","","","","","15","","","","","","","","","","","","","","","","","","","","","",""
"null","","image-button-response","240","1977398","0.0-240.0","A39C22RIL0YJ4D","img_art/11.jpg","null","","","","","","","","","","","","","","","","","","","","","","","","",""
"702","","image-button-response","241","1978101","0.0-241.0","A39C22RIL0YJ4D","img_art/11.jpg","3","","","","","","","","","","","","","","","","","","","","","","","","",""
"405","","image-button-response","242","1978508","0.0-242.0-0.0","A39C22RIL0YJ4D","img_art/11.jpg","4","","","","","","","","","","","","","","","","","","","","","","","","",""
"806","","image-button-response","243","1979315","0.0-243.0-0.0","A39C22RIL0YJ4D","img_art/11.jpg","1","","","","","","","","","","","","","","","","","","","","","","","","",""
"null","","html-keyboard-response","244","1979816","0.0-244.0","A39C22RIL0YJ4D","<p style=""font-size: 48px;"">+</p>","","","","","null","allTrialResponses","500","1","28","img_art/11.jpg","15","city of sea waves","Trevor,Corey,Derek,Cameron,Ethan,Samuel","I like how it looks like buildings but i'm not a fan of colors,20,280,20","dont like the colors. Its a gloomy day in london and this is the transit system,-26,260,20","There's a lot going on in this painting but it is pleasing and neat looking,31,360,20","futuristic arching railways,25,60,20","I don't care for the color combo. The wavy lines give dimension though.,-13,120,20","business of traffic,10,400,20","Cameron","futuristic arching railways,25,60,20","Ethan","I don't care for the color combo. The wavy lines give dimension though.,-13,120,20","Corey","dont like the colors. Its a gloomy day in london and this is the transit system,-26,260,20","0"
"18632","","survey-text","245","1998457","0.0-245.0-0.0","A39C22RIL0YJ4D","","","","{""Q0"":""a woman overlooking  waterfall pond""}","","","","","","","","","","","","","","","","","","","","","","",""
"1635.699999988079","","image-slider-response","246","2000094","0.0-246.0","A39C22RIL0YJ4D","","","","","12","","","","","","","","","","","","","","","","","","","","","",""
"null","","image-button-response","247","2005098","0.0-247.0","A39C22RIL0YJ4D","img_art/24.jpg","null","","","","","","","","","","","","","","","","","","","","","","","","",""
"181","","image-button-response","248","2005280","0.0-248.0","A39C22RIL0YJ4D","img_art/24.jpg","1","","","","","","","","","","","","","","","","","","","","","","","","",""
"2492","","image-button-response","249","2007774","0.0-249.0-0.0","A39C22RIL0YJ4D","img_art/24.jpg","4","","","","","","","","","","","","","","","","","","","","","","","","",""
"732","","image-button-response","250","2008507","0.0-250.0-0.0","A39C22RIL0YJ4D","img_art/24.jpg","5","","","","","","","","","","","","","","","","","","","","","","","","",""
"null","","html-keyboard-response","251","2010009","0.0-251.0","A39C22RIL0YJ4D","<p style=""font-size: 48px;"">+</p>","","","","","null","allTrialResponses","1500","1","29","img_art/24.jpg","12","a woman overlooking  waterfall pond","Miguel,Corey,Shawn,Cameron,Ethan,Anthony","Very cute amateur piece.,18,160,20","peaceful and serene but Im not the biggest landscape fan,4,260,20","Pretty but cheesy,-15,100,20","Mountain stream pineapple texture?,30,60,20","This is sort of interesting. I think it's a bit busy. Less is more.,3,120,20","This piece resembles a waterfall surrounded by trees.,21,200,20","Corey","peaceful and serene but Im not the biggest landscape fan,4,260,20","Ethan","This is sort of interesting. I think it's a bit busy. Less is more.,3,120,20","Anthony","This piece resembles a waterfall surrounded by trees.,21,200,20","0"
"30760","","survey-text","252","2040777","0.0-252.0-0.0","A39C22RIL0YJ4D","","","","{""Q0"":""red scribbles looks like an angry person""}","","","","","","","","","","","","","","","","","","","","","","",""
"1994.699999988079","","image-slider-response","253","2042773","0.0-253.0","A39C22RIL0YJ4D","","","","","-21","","","","","","","","","","","","","","","","","","","","","",""
"null","","image-button-response","254","2047785","0.0-254.0","A39C22RIL0YJ4D","img_art/3.jpg","null","","","","","","","","","","","","","","","","","","","","","","","","",""
"2835","","image-button-response","255","2050622","0.0-255.0","A39C22RIL0YJ4D","img_art/3.jpg","2","","","","","","","","","","","","","","","","","","","","","","","","",""
"1619","","image-button-response","256","2052242","0.0-256.0-0.0","A39C22RIL0YJ4D","img_art/3.jpg","4","","","","","","","","","","","","","","","","","","","","","","","","",""
"409","","image-button-response","257","2052653","0.0-257.0-0.0","A39C22RIL0YJ4D","img_art/3.jpg","5","","","","","","","","","","","","","","","","","","","","","","","","",""
"null","","html-keyboard-response","258","2053154","0.0-258.0","A39C22RIL0YJ4D","<p style=""font-size: 48px;"">+</p>","","","","","null","allTrialResponses","500","1","30","img_art/3.jpg","-21","red scribbles looks like an angry person","Robert,Corey,Evan,Charles,Ethan,Anthony","I think of an angry child,-50,360,20","seems distressing. a blood scene,-3,260,20","It feels like a half assed and failed imitation of Japanese signatures on old paintings,-22,140,20","I like that it feels kind of simple but still chaotic,6,100,20","I usually don't like red. Red in this angry piece is very fitting.,19,120,20","This looks like something a child created in 5 minutes.,-50,200,20","Evan","It feels like a half assed and failed imitation of Japanese signatures on old paintings,-22,140,20","Ethan","I usually don't like red. Red in this angry piece is very fitting.,19,120,20","Anthony","This looks like something a child created in 5 minutes.,-50,200,20","0"
"2740","","image-button-response_instructions","259","2055902","0.0-259.0","A39C22RIL0YJ4D","","0","instructions","","","","","","","","","","","","","","","","","","","","","","","",""
"1334","","image-button-response","260","2057244","0.0-260.0","A39C22RIL0YJ4D","","0","","","","","","","","","","","","","","","","","","","","","","","","",""
