"rt","url","trial_type","trial_index","time_elapsed","internal_node_id","participant_id","stimulus","button_pressed","Name","responses","response","key_press","variableName","fixationTime","condition","trial","photo","subjectRating","subjectResponse","agentsNames","agent_1_Response","agent_2_Response","agent_3_Response","agent_4_Response","agent_5_Response","agent_6_Response","kept_1_name","kept_1_response","kept_2_name","kept_2_response","kept_3_name","kept_3_response","errorCounter"
"22695","external_page_harvard.html","external-html","0","22912","0.0-0.0","A39D2O58VQ5GMO","","","","","","","","","","","","","","","","","","","","","","","","","","",""
"1676","","image-button-response","1","24590","0.0-1.0","A39D2O58VQ5GMO","","1","","","","","","","","","","","","","","","","","","","","","","","","",""
"1292","","image-button-response","2","25888","0.0-2.0-0.0","A39D2O58VQ5GMO","","1","phone","","","","","","","","","","","","","","","","","","","","","","","",""
"4465","","survey-text","3","30356","0.0-3.0-0.0","A39D2O58VQ5GMO","","","","{""Q0"":""A39D2O58VQ5GMO""}","","","","","","","","","","","","","","","","","","","","","","",""
"11074","","image-button-response_instructions","4","41431","0.0-4.0","A39D2O58VQ5GMO","","0","instructions","","","","","","","","","","","","","","","","","","","","","","","",""
"4666","","image-button-response_instructions","5","46099","0.0-5.0","A39D2O58VQ5GMO","img_art/ins/popularity/ins1.png","0","instructions","","","","","","","","","","","","","","","","","","","","","","","",""
"2378","","image-button-response_instructions","6","48478","0.0-6.0","A39D2O58VQ5GMO","img_art/ins/popularity/ins2.png","0","instructions","","","","","","","","","","","","","","","","","","","","","","","",""
"4963","","image-button-response_instructions","7","53442","0.0-7.0","A39D2O58VQ5GMO","img_art/ins/popularity/ins2Extreme.png","0","instructions","","","","","","","","","","","","","","","","","","","","","","","",""
"3373","","image-button-response_instructions","8","56816","0.0-8.0","A39D2O58VQ5GMO","img_art/ins/popularity/ins3KEEPpop.PNG","0","instructions","","","","","","","","","","","","","","","","","","","","","","","",""
"3327","","image-button-response_instructions","9","60145","0.0-9.0","A39D2O58VQ5GMO","img_art/ins/popularity/ins3ANamepop.PNG","0","instructions","","","","","","","","","","","","","","","","","","","","","","","",""
"1975","","image-button-response_instructions","10","62121","0.0-10.0","A39D2O58VQ5GMO","img_art/ins/popularity/ins3ARatingpop.png","0","instructions","","","","","","","","","","","","","","","","","","","","","","","",""
"2019","","image-button-response_instructions","11","64141","0.0-11.0","A39D2O58VQ5GMO","img_art/ins/popularity/ins3ATextpop.png","0","instructions","","","","","","","","","","","","","","","","","","","","","","","",""
"1969","","image-button-response_instructions","12","66111","0.0-12.0","A39D2O58VQ5GMO","img_art/ins/popularity/ins3ALikespop.png","0","instructions","","","","","","","","","","","","","","","","","","","","","","","",""
"4919","","image-button-response_instructions","13","71030","0.0-13.0","A39D2O58VQ5GMO","img_art/ins/popularity/ins3KEEPpop.PNG","0","instructions","","","","","","","","","","","","","","","","","","","","","","","",""
"12117","","image-button-response_instructions","14","83149","0.0-14.0","A39D2O58VQ5GMO","img_art/ins/popularity/ins3_5RED.png","0","instructions","","","","","","","","","","","","","","","","","","","","","","","",""
"1747","","image-button-response_instructions","15","84897","0.0-15.0","A39D2O58VQ5GMO","img_art/ins/popularity/ins3KEEPpop.PNG","0","instructions","","","","","","","","","","","","","","","","","","","","","","","",""
"8214","","image-button-response_instructions","16","93113","0.0-16.0","A39D2O58VQ5GMO","img_art/ins/popularity/ins4KEEPpop.PNG","0","instructions","","","","","","","","","","","","","","","","","","","","","","","",""
"2230","","image-button-response_instructions","17","95345","0.0-17.0","A39D2O58VQ5GMO","img_art/ins/popularity/ins5KEEPpop.PNG","0","instructions","","","","","","","","","","","","","","","","","","","","","","","",""
"1264","","image-button-response_instructions","18","96611","0.0-18.0","A39D2O58VQ5GMO","","0","instructions","","","","","","","","","","","","","","","","","","","","","","","",""
"5980","","survey-text","19","102617","0.0-19.0-0.0","A39D2O58VQ5GMO","","","","{""Q0"":""but""}","","","","","","","","","","","","","","","","","","","","","","",""
"19676","","survey-text","20","122295","0.0-20.0-0.0","A39D2O58VQ5GMO","","","","{""Q0"":""I like the different strokes of colors""}","","","","","","","","","","","","","","","","","","","","","","",""
"12412.899999976158","","image-slider-response","21","134711","0.0-21.0","A39D2O58VQ5GMO","","","","","14","","","","","","","","","","","","","","","","","","","","","",""
"null","","image-button-response","22","139716","0.0-22.0","A39D2O58VQ5GMO","img_art/ins/1.jpg","null","","","","","","","","","","","","","","","","","","","","","","","","",""
"11098","","image-button-response","23","150818","0.0-23.0","A39D2O58VQ5GMO","img_art/ins/1.jpg","5","","","","","","","","","","","","","","","","","","","","","","","","",""
"1413","","image-button-response","24","152233","0.0-24.0-0.0","A39D2O58VQ5GMO","img_art/ins/1.jpg","4","","","","","","","","","","","","","","","","","","","","","","","","",""
"7575","","image-button-response","25","159811","0.0-25.0-0.0","A39D2O58VQ5GMO","img_art/ins/1.jpg","0","","","","","","","","","","","","","","","","","","","","","","","","",""
"null","","html-keyboard-response","26","160814","0.0-26.0","A39D2O58VQ5GMO","<p style=""font-size: 48px;"">+</p>","","","","","null","allTrialResponses","1000","1","-2","img_art/ins/1.jpg","14","I like the different strokes of colors","Allison,Ashley,Beth,Dora,Erika,Jen","looks like a lot of things going on in the mist,20,20,20","I just don't get why these type of art would be popular,-32,40,20","This color reminds me of poo,-46,60,20","looks like what my niece in 3rd grade did this afternoon,-50,80,20","I like the sophisticated brushwork,40,100,20","It reminds me of a candy land dream I had,36,120,20","Jen","It reminds me of a candy land dream I had,36,120,20","Erika","I like the sophisticated brushwork,40,100,20","Allison","looks like a lot of things going on in the mist,20,20,20","0"
"28551","","survey-text","27","189375","0.0-27.0-0.0","A39D2O58VQ5GMO","","","","{""Q0"":""I like the varying colors and textures""}","","","","","","","","","","","","","","","","","","","","","","",""
"2290.600000023842","","image-slider-response","28","191668","0.0-28.0","A39D2O58VQ5GMO","","","","","16","","","","","","","","","","","","","","","","","","","","","",""
"null","","image-button-response","29","196675","0.0-29.0","A39D2O58VQ5GMO","img_art/ins/2.jpg","null","","","","","","","","","","","","","","","","","","","","","","","","",""
"280","","image-button-response","30","196958","0.0-30.0","A39D2O58VQ5GMO","img_art/ins/2.jpg","5","","","","","","","","","","","","","","","","","","","","","","","","",""
"2996","","image-button-response","31","199957","0.0-31.0-0.0","A39D2O58VQ5GMO","img_art/ins/2.jpg","4","","","","","","","","","","","","","","","","","","","","","","","","",""
"3496","","image-button-response","32","203456","0.0-32.0-0.0","A39D2O58VQ5GMO","img_art/ins/2.jpg","1","","","","","","","","","","","","","","","","","","","","","","","","",""
"null","","html-keyboard-response","33","204472","0.0-33.0","A39D2O58VQ5GMO","<p style=""font-size: 48px;"">+</p>","","","","","null","allTrialResponses","1000","1","-1","img_art/ins/2.jpg","16","I like the varying colors and textures","Allison,Kara,Katie,Jenna,Erika,Jen","I don't have strong feelings about this,10,20,20","I like the blocks of color arrangements,30,160,20","too much color!,-28,180,20","One of my pet peevs,-48,140,20","I would never be able to compose a sophisticated pallete like this,48,100,20","It reminds me of a fireplace,36,120,20","Jen","It reminds me of a fireplace,36,120,20","Erika","I would never be able to compose a sophisticated pallete like this,48,100,20","Kara","I like the blocks of color arrangements,30,160,20","0"
"28965","","survey-text","34","233447","0.0-34.0-0.0","A39D2O58VQ5GMO","","","","{""Q0"":""Reminds me of water tribe in Avatar The Last Airbender""}","","","","","","","","","","","","","","","","","","","","","","",""
"4889.300000071526","","image-slider-response","35","238338","0.0-35.0","A39D2O58VQ5GMO","","","","","50","","","","","","","","","","","","","","","","","","","","","",""
"3440","","image-button-response","36","243341","0.0-36.0","A39D2O58VQ5GMO","img_art/ins/3.jpg","1","","","","","","","","","","","","","","","","","","","","","","","","",""
"95","","image-button-response","37","243440","0.0-37.0","A39D2O58VQ5GMO","img_art/ins/3.jpg","5","","","","","","","","","","","","","","","","","","","","","","","","",""
"1449","","image-button-response","38","244892","0.0-38.0-0.0","A39D2O58VQ5GMO","img_art/ins/3.jpg","1","","","","","","","","","","","","","","","","","","","","","","","","",""
"581","","image-button-response","39","245475","0.0-39.0-0.0","A39D2O58VQ5GMO","img_art/ins/3.jpg","0","","","","","","","","","","","","","","","","","","","","","","","","",""
"null","","html-keyboard-response","40","246977","0.0-40.0","A39D2O58VQ5GMO","<p style=""font-size: 48px;"">+</p>","","","","","null","allTrialResponses","1500","1","0","img_art/ins/3.jpg","50","Reminds me of water tribe in Avatar The Last Airbender","Mary,Kara,Rose,Leslie,Erika,Jen","I like the overlapping of brushes,41,220,20","calming blue is very nice,36,160,20","My daily routine, it's depressing,-20,240,20","It's an alright work,15,200,20","I feel connected to the artist,40,100,20","I can feel a rainy day from this painting,18,120,20","Jen","I can feel a rainy day from this painting,18,120,20","Kara","calming blue is very nice,36,160,20","Mary","I like the overlapping of brushes,41,220,20","0"
"5261","","image-button-response_instructions","41","252244","0.0-41.0","A39D2O58VQ5GMO","","0","instructions","","","","","","","","","","","","","","","","","","","","","","","",""
"8910","","survey-likert","42","261157","0.0-42.0-0.0","A39D2O58VQ5GMO","","","","{""Q0"":"""",""Q1"":0,""Q2"":1}","","","","","","","","","","","","","","","","","","","","","","",""
"3188","","survey-text","43","264352","0.0-43.0-0.0","A39D2O58VQ5GMO","","","","{""Q0"":""rock""}","","","","","","","","","","","","","","","","","","","","","","",""
"42698","","survey-text","44","307052","0.0-44.0-0.0","A39D2O58VQ5GMO","","","","{""Q0"":""There is so much going on in this, beautifully done""}","","","","","","","","","","","","","","","","","","","","","","",""
"3902.5","","image-slider-response","45","310956","0.0-45.0","A39D2O58VQ5GMO","","","","","44","","","","","","","","","","","","","","","","","","","","","",""
"4416","","image-button-response","46","315991","0.0-46.0","A39D2O58VQ5GMO","img_art/18.jpg","0","","","","","","","","","","","","","","","","","","","","","","","","",""
"620","","image-button-response","47","316615","0.0-47.0","A39D2O58VQ5GMO","img_art/18.jpg","0","","","","","","","","","","","","","","","","","","","","","","","","",""
"10548","","image-button-response","48","327165","0.0-48.0-0.0","A39D2O58VQ5GMO","img_art/18.jpg","5","","","","","","","","","","","","","","","","","","","","","","","","",""
"9705","","image-button-response","49","336873","0.0-49.0-0.0","A39D2O58VQ5GMO","img_art/18.jpg","2","","","","","","","","","","","","","","","","","","","","","","","","",""
"null","","html-keyboard-response","50","338376","0.0-50.0","A39D2O58VQ5GMO","<p style=""font-size: 48px;"">+</p>","","","","","null","allTrialResponses","1500","1","1","img_art/18.jpg","44","There is so much going on in this, beautifully done","Diana,Alexandria,Erica,Emily,Cheyenne,Briana","This painting reminds me of the 4 horsemen of the apocalypse. It feels haunting.,31,380,20","the harsh lines with the smooth lines makes me think of wild animals,20,80,20","Makes me to look at it and investigate what it is about and what is going on,17,80,20","Not my style but I can see some serious skill went int it.,21,40,20","Too abstract to me,-30,200,20","Two people fighting with one watching,17,400,20","Diana","This painting reminds me of the 4 horsemen of the apocalypse. It feels haunting.,31,380,20","Briana","Two people fighting with one watching,17,400,20","Erica","Makes me to look at it and investigate what it is about and what is going on,17,80,20","0"
"17830","","survey-text","51","356216","0.0-51.0-0.0","A39D2O58VQ5GMO","","","","{""Q0"":""This is what I imagine the moon to look like""}","","","","","","","","","","","","","","","","","","","","","","",""
"9759.5","","image-slider-response","52","365978","0.0-52.0","A39D2O58VQ5GMO","","","","","0","","","","","","","","","","","","","","","","","","","","","",""
"null","","image-button-response","53","370982","0.0-53.0","A39D2O58VQ5GMO","img_art/7.jpg","null","","","","","","","","","","","","","","","","","","","","","","","","",""
"2868","","image-button-response","54","373853","0.0-54.0","A39D2O58VQ5GMO","img_art/7.jpg","4","","","","","","","","","","","","","","","","","","","","","","","","",""
"4320","","image-button-response","55","378176","0.0-55.0-0.0","A39D2O58VQ5GMO","img_art/7.jpg","1","","","","","","","","","","","","","","","","","","","","","","","","",""
"8347","","image-button-response","56","386526","0.0-56.0-0.0","A39D2O58VQ5GMO","img_art/7.jpg","5","","","","","","","","","","","","","","","","","","","","","","","","",""
"null","","html-keyboard-response","57","388029","0.0-57.0","A39D2O58VQ5GMO","<p style=""font-size: 48px;"">+</p>","","","","","null","allTrialResponses","1500","1","2","img_art/7.jpg","0","This is what I imagine the moon to look like","Diana,Christina,Erica,Kaylee,Destiny,Briana","This piece reminds me of ants and it makes my skin crawl.,-37,380,20","looks like the surface of the moon,-28,240,20","No not cause many emotions,1,80,20","some rocks on a mars?,7,200,20","mars also crunchy leaves maybe a beehive,32,360,20","Are these ancient cave paintings?,-7,400,20","Destiny","mars also crunchy leaves maybe a beehive,32,360,20","Christina","looks like the surface of the moon,-28,240,20","Briana","Are these ancient cave paintings?,-7,400,20","0"
"26052","","survey-text","58","414088","0.0-58.0-0.0","A39D2O58VQ5GMO","","","","{""Q0"":""A tribal painting perhaps?""}","","","","","","","","","","","","","","","","","","","","","","",""
"2847.2999999523163","","image-slider-response","59","416938","0.0-59.0","A39D2O58VQ5GMO","","","","","21","","","","","","","","","","","","","","","","","","","","","",""
"null","","image-button-response","60","421956","0.0-60.0","A39D2O58VQ5GMO","img_art/12.jpg","null","","","","","","","","","","","","","","","","","","","","","","","","",""
"4925","","image-button-response","61","426884","0.0-61.0","A39D2O58VQ5GMO","img_art/12.jpg","4","","","","","","","","","","","","","","","","","","","","","","","","",""
"8631","","image-button-response","62","435517","0.0-62.0-0.0","A39D2O58VQ5GMO","img_art/12.jpg","3","","","","","","","","","","","","","","","","","","","","","","","","",""
"1074","","image-button-response","63","436594","0.0-63.0-0.0","A39D2O58VQ5GMO","img_art/12.jpg","0","","","","","","","","","","","","","","","","","","","","","","","","",""
"null","","html-keyboard-response","64","437597","0.0-64.0","A39D2O58VQ5GMO","<p style=""font-size: 48px;"">+</p>","","","","","null","allTrialResponses","1000","1","3","img_art/12.jpg","21","A tribal painting perhaps?","Claire,Christina,Victoria,Chelsea,Destiny,Briana","i like the repetition,30,260,20","way too 90s/80s for me,-9,240,20","to contemporary for me,3,400,20","I like the gradient of little color on the top to colorful on the bottom.,24,180,20","giving me major endless summer vibes,26,360,20","Interesting colors. I really dont like modern art though,24,400,20","Destiny","giving me major endless summer vibes,26,360,20","Chelsea","I like the gradient of little color on the top to colorful on the bottom.,24,180,20","Claire","i like the repetition,30,260,20","0"
"42260","","survey-text","65","479867","0.0-65.0-0.0","A39D2O58VQ5GMO","","","","{""Q0"":""Ants dancing in a confetti party?""}","","","","","","","","","","","","","","","","","","","","","","",""
"2579.5999999046326","","image-slider-response","66","482449","0.0-66.0","A39D2O58VQ5GMO","","","","","8","","","","","","","","","","","","","","","","","","","","","",""
"3365","","image-button-response","67","487452","0.0-67.0","A39D2O58VQ5GMO","img_art/23.jpg","3","","","","","","","","","","","","","","","","","","","","","","","","",""
"180","","image-button-response","68","487635","0.0-68.0","A39D2O58VQ5GMO","img_art/23.jpg","0","","","","","","","","","","","","","","","","","","","","","","","","",""
"885","","image-button-response","69","488524","0.0-69.0-0.0","A39D2O58VQ5GMO","img_art/23.jpg","3","","","","","","","","","","","","","","","","","","","","","","","","",""
"5078","","image-button-response","70","493605","0.0-70.0-0.0","A39D2O58VQ5GMO","img_art/23.jpg","1","","","","","","","","","","","","","","","","","","","","","","","","",""
"null","","html-keyboard-response","71","494108","0.0-71.0","A39D2O58VQ5GMO","<p style=""font-size: 48px;"">+</p>","","","","","null","allTrialResponses","500","1","4","img_art/23.jpg","8","Ants dancing in a confetti party?","Claire,Crystal,Lindsey,Chelsea,Destiny,Sophia","the pattern is pleasing to the eye,28,260,20","I love the funky colors accompanied by perhaps dancing silhouettes. I love the white against the chaotic surroundings.,50,300,20","Too much contrasting colors together. I hate it.,-50,400,20","I like the royal colors.,38,180,20","This looks like the cover art for a scene band,-29,360,20","I like the contrast and the bright colors in this one.,6,280,20","Claire","the pattern is pleasing to the eye,28,260,20","Chelsea","I like the royal colors.,38,180,20","Crystal","I love the funky colors accompanied by perhaps dancing silhouettes. I love the white against the chaotic surroundings.,50,300,20","0"
"27403","","survey-text","72","521519","0.0-72.0-0.0","A39D2O58VQ5GMO","","","","{""Q0"":""A feather pen with ink?""}","","","","","","","","","","","","","","","","","","","","","","",""
"6031.799999952316","","image-slider-response","73","527553","0.0-73.0","A39D2O58VQ5GMO","","","","","4","","","","","","","","","","","","","","","","","","","","","",""
"4248","","image-button-response","74","532557","0.0-74.0","A39D2O58VQ5GMO","img_art/5.jpg","2","","","","","","","","","","","","","","","","","","","","","","","","",""
"3912","","image-button-response","75","536472","0.0-75.0","A39D2O58VQ5GMO","img_art/5.jpg","4","","","","","","","","","","","","","","","","","","","","","","","","",""
"834","","image-button-response","76","537307","0.0-76.0-0.0","A39D2O58VQ5GMO","img_art/5.jpg","0","","","","","","","","","","","","","","","","","","","","","","","","",""
"892","","image-button-response","77","538202","0.0-77.0-0.0","A39D2O58VQ5GMO","img_art/5.jpg","2","","","","","","","","","","","","","","","","","","","","","","","","",""
"null","","html-keyboard-response","78","538710","0.0-78.0","A39D2O58VQ5GMO","<p style=""font-size: 48px;"">+</p>","","","","","null","allTrialResponses","500","1","5","img_art/5.jpg","4","A feather pen with ink?","Claire,Crystal,Kylie,Chelsea,Brianna,Bailey","I like the strokes and colors used,20,260,20","Confused as to what the artist is attempting to do.,-50,300,20","It reminds me of a piece of lemon candy, which is one of my favorite flavors,20,300,20","I'm not sure what is going on here.,-46,180,20","Very bright and has colors you wouldn't think would go together,11,20,20","Not sure what that even is. Looks like a 2-year old drawing,-40,360,20","Brianna","Very bright and has colors you wouldn't think would go together,11,20,20","Claire","I like the strokes and colors used,20,260,20","Kylie","It reminds me of a piece of lemon candy, which is one of my favorite flavors,20,300,20","0"
"5121","","survey-text","79","543847","0.0-79.0-0.0","A39D2O58VQ5GMO","","","","{""Q0"":""sky""}","","","","","","","","","","","","","","","","","","","","","","",""
"34059","","survey-text","80","577907","0.0-80.0-0.0","A39D2O58VQ5GMO","","","","{""Q0"":""I like the different color combinations of strokes""}","","","","","","","","","","","","","","","","","","","","","","",""
"2713.5999999046326","","image-slider-response","81","580623","0.0-81.0","A39D2O58VQ5GMO","","","","","7","","","","","","","","","","","","","","","","","","","","","",""
"3752","","image-button-response","82","585627","0.0-82.0","A39D2O58VQ5GMO","img_art/30.jpg","1","","","","","","","","","","","","","","","","","","","","","","","","",""
"1147","","image-button-response","83","586776","0.0-83.0","A39D2O58VQ5GMO","img_art/30.jpg","4","","","","","","","","","","","","","","","","","","","","","","","","",""
"847","","image-button-response","84","587625","0.0-84.0-0.0","A39D2O58VQ5GMO","img_art/30.jpg","1","","","","","","","","","","","","","","","","","","","","","","","","",""
"686","","image-button-response","85","588314","0.0-85.0-0.0","A39D2O58VQ5GMO","img_art/30.jpg","2","","","","","","","","","","","","","","","","","","","","","","","","",""
"null","","html-keyboard-response","86","589815","0.0-86.0","A39D2O58VQ5GMO","<p style=""font-size: 48px;"">+</p>","","","","","null","allTrialResponses","1500","1","6","img_art/30.jpg","7","I like the different color combinations of strokes","Claire,Paige,Kylie,Alyssa,Brianna,Savannah","too segmented, looks sloppy,-37,260,20","Happy. Makes me think of childhood finger painting,49,60,20","I can't figure this out,25,300,20","ugly nasty colors,-10,160,20","I like the fact that it's a painting.,21,20,20","Colors are nice but it just seems too simple.,-26,200,20","Brianna","I like the fact that it's a painting.,21,20,20","Paige","Happy. Makes me think of childhood finger painting,49,60,20","Kylie","I can't figure this out,25,300,20","0"
"37498","","survey-text","87","627323","0.0-87.0-0.0","A39D2O58VQ5GMO","","","","{""Q0"":""Interesting choices.. I wish I knew what they meant""}","","","","","","","","","","","","","","","","","","","","","","",""
"3258.100000023842","","image-slider-response","88","630583","0.0-88.0","A39D2O58VQ5GMO","","","","","-4","","","","","","","","","","","","","","","","","","","","","",""
"4177","","image-button-response","89","635588","0.0-89.0","A39D2O58VQ5GMO","img_art/16.jpg","2","","","","","","","","","","","","","","","","","","","","","","","","",""
"3135","","image-button-response","90","638725","0.0-90.0","A39D2O58VQ5GMO","img_art/16.jpg","2","","","","","","","","","","","","","","","","","","","","","","","","",""
"2336","","image-button-response","91","641063","0.0-91.0-0.0","A39D2O58VQ5GMO","img_art/16.jpg","3","","","","","","","","","","","","","","","","","","","","","","","","",""
"702","","image-button-response","92","641768","0.0-92.0-0.0","A39D2O58VQ5GMO","img_art/16.jpg","4","","","","","","","","","","","","","","","","","","","","","","","","",""
"null","","html-keyboard-response","93","643285","0.0-93.0","A39D2O58VQ5GMO","<p style=""font-size: 48px;"">+</p>","","","","","null","allTrialResponses","1500","1","7","img_art/16.jpg","-4","Interesting choices.. I wish I knew what they meant","Michaela,Paige,Kylie,Mary,Brianna,Catherine","It feels lazily done,-9,260,20","very disturbed seening a gun in the same picture as a teddy bear,-50,60,20","Mixed feelings. Warm and comfy yet somewhat violent. A stark contrast,0,300,20","This is a neat piece. Sort of shocking. I think it's too monochromatic though.,19,180,20","It is interesting to say the least,0,20,20","A teddybear, gun, crying person does not give a happy reaction. Death, still, no life.,-50,160,20","Kylie","Mixed feelings. Warm and comfy yet somewhat violent. A stark contrast,0,300,20","Mary","This is a neat piece. Sort of shocking. I think it's too monochromatic though.,19,180,20","Brianna","It is interesting to say the least,0,20,20","0"
"69511","","survey-text","94","712807","0.0-94.0-0.0","A39D2O58VQ5GMO","","","","{""Q0"":""A bird contemplating over the harsh land?""}","","","","","","","","","","","","","","","","","","","","","","",""
"2887.6999999284744","","image-slider-response","95","715697","0.0-95.0","A39D2O58VQ5GMO","","","","","17","","","","","","","","","","","","","","","","","","","","","",""
"2691","","image-button-response","96","720715","0.0-96.0","A39D2O58VQ5GMO","img_art/6.jpg","0","","","","","","","","","","","","","","","","","","","","","","","","",""
"1127","","image-button-response","97","721845","0.0-97.0","A39D2O58VQ5GMO","img_art/6.jpg","0","","","","","","","","","","","","","","","","","","","","","","","","",""
"2042","","image-button-response","98","723889","0.0-98.0-0.0","A39D2O58VQ5GMO","img_art/6.jpg","5","","","","","","","","","","","","","","","","","","","","","","","","",""
"2883","","image-button-response","99","726775","0.0-99.0-0.0","A39D2O58VQ5GMO","img_art/6.jpg","3","","","","","","","","","","","","","","","","","","","","","","","","",""
"null","","html-keyboard-response","100","728280","0.0-100.0","A39D2O58VQ5GMO","<p style=""font-size: 48px;"">+</p>","","","","","null","allTrialResponses","1500","1","8","img_art/6.jpg","17","A bird contemplating over the harsh land?","Kayla,Jessica,Kylie,Mary,Brianna,Katherine","Little birdie in a desert. Seeking better frontiers.,13,180,20","Is this a leaf?,4,400,20","Reminds me of feeling incomplete,1,300,20","This piece has some emotion of isolation. I like it.,6,180,20","Nice desert scene,10,20,20","This could be so many different things. I saw a bird first but then it looks like a needle going into skin,34,120,20","Kayla","Little birdie in a desert. Seeking better frontiers.,13,180,20","Katherine","This could be so many different things. I saw a bird first but then it looks like a needle going into skin,34,120,20","Mary","This piece has some emotion of isolation. I like it.,6,180,20","0"
"24059","","survey-text","101","752350","0.0-101.0-0.0","A39D2O58VQ5GMO","","","","{""Q0"":""A storm or a musical instrument?""}","","","","","","","","","","","","","","","","","","","","","","",""
"2814.3000000715256","","image-slider-response","102","755166","0.0-102.0","A39D2O58VQ5GMO","","","","","9","","","","","","","","","","","","","","","","","","","","","",""
"3902","","image-button-response","103","760182","0.0-103.0","A39D2O58VQ5GMO","img_art/10.jpg","0","","","","","","","","","","","","","","","","","","","","","","","","",""
"544","","image-button-response","104","760728","0.0-104.0","A39D2O58VQ5GMO","img_art/10.jpg","0","","","","","","","","","","","","","","","","","","","","","","","","",""
"1329","","image-button-response","105","762059","0.0-105.0-0.0","A39D2O58VQ5GMO","img_art/10.jpg","0","","","","","","","","","","","","","","","","","","","","","","","","",""
"2051","","image-button-response","106","767845","0.0-105.1-0.1","A39D2O58VQ5GMO","img_art/10.jpg","4","","","","","","","","","","","","","","","","","","","","","","","","",""
"1838","","image-button-response","107","769686","0.0-106.0-0.0","A39D2O58VQ5GMO","img_art/10.jpg","5","","","","","","","","","","","","","","","","","","","","","","","","",""
"null","","html-keyboard-response","108","770188","0.0-107.0","A39D2O58VQ5GMO","<p style=""font-size: 48px;"">+</p>","","","","","null","allTrialResponses","500","1","9","img_art/10.jpg","9","A storm or a musical instrument?","Kayla,Marissa,Rebecca,Mary,Mariah,Katherine","The loop type thing reminds me of interconnectedness and life and hope.,12,180,20","My immediate thought is WTF is this,-20,160,20","gives a sense of a roller coaster unit splashed in water. it's not but i love it nevertheless,44,100,20","The flow of lines is off. There are curvy and straight angry lines. It's not flattering at all.,-27,180,20","The colors and shapes are soothing but also disconcerting.,21,140,20","This is pretty rad. The outline looks like a music staff,15,120,20","Kayla","The loop type thing reminds me of interconnectedness and life and hope.,12,180,20","Mariah","The colors and shapes are soothing but also disconcerting.,21,140,20","Katherine","This is pretty rad. The outline looks like a music staff,15,120,20","2"
"13965","","survey-text","109","784163","0.0-108.0-0.0","A39D2O58VQ5GMO","","","","{""Q0"":""Gives me ominous feelings""}","","","","","","","","","","","","","","","","","","","","","","",""
"2538.2999999523163","","image-slider-response","110","786703","0.0-109.0","A39D2O58VQ5GMO","","","","","-15","","","","","","","","","","","","","","","","","","","","","",""
"null","","image-button-response","111","791707","0.0-110.0","A39D2O58VQ5GMO","img_art/25.jpg","null","","","","","","","","","","","","","","","","","","","","","","","","",""
"2516","","image-button-response","112","794226","0.0-111.0","A39D2O58VQ5GMO","img_art/25.jpg","5","","","","","","","","","","","","","","","","","","","","","","","","",""
"1563","","image-button-response","113","795791","0.0-112.0-0.0","A39D2O58VQ5GMO","img_art/25.jpg","2","","","","","","","","","","","","","","","","","","","","","","","","",""
"881","","image-button-response","114","796673","0.0-113.0-0.0","A39D2O58VQ5GMO","img_art/25.jpg","1","","","","","","","","","","","","","","","","","","","","","","","","",""
"null","","html-keyboard-response","115","798190","0.0-114.0","A39D2O58VQ5GMO","<p style=""font-size: 48px;"">+</p>","","","","","null","allTrialResponses","1500","1","10","img_art/25.jpg","-15","Gives me ominous feelings","Kayla,Erika,Makayla,Brittany,Mariah,Katherine","Ghosts are NOT my thing.,-13,180,20","Very cryptic and ancient,36,100,20","It's very mystical.,5,80,20","It's a rather intriguing design,12,40,20","The proportions are unpleasant.,-30,140,20","That's pretty awesome. I love the green and black combo, reminds me of one of those cartoon creepy movies,47,120,20","Katherine","That's pretty awesome. I love the green and black combo, reminds me of one of those cartoon creepy movies,47,120,20","Makayla","It's very mystical.,5,80,20","Erika","Very cryptic and ancient,36,100,20","2"
"3123","","survey-text","116","801331","0.0-115.0-0.0","A39D2O58VQ5GMO","","","","{""Q0"":""our""}","","","","","","","","","","","","","","","","","","","","","","",""
"91753","","survey-text","117","893086","0.0-116.0-0.0","A39D2O58VQ5GMO","","","","{""Q0"":""I like the splashes of blue in the sea of red and yellow""}","","","","","","","","","","","","","","","","","","","","","","",""
"2012.6000000238419","","image-slider-response","118","895101","0.0-117.0","A39D2O58VQ5GMO","","","","","15","","","","","","","","","","","","","","","","","","","","","",""
"4591","","image-button-response","119","900106","0.0-118.0","A39D2O58VQ5GMO","img_art/1.jpg","5","","","","","","","","","","","","","","","","","","","","","","","","",""
"551","","image-button-response","120","900658","0.0-119.0","A39D2O58VQ5GMO","img_art/1.jpg","5","","","","","","","","","","","","","","","","","","","","","","","","",""
"3051","","image-button-response","121","903712","0.0-120.0-0.0","A39D2O58VQ5GMO","img_art/1.jpg","4","","","","","","","","","","","","","","","","","","","","","","","","",""
"5132","","image-button-response","122","908847","0.0-121.0-0.0","A39D2O58VQ5GMO","img_art/1.jpg","3","","","","","","","","","","","","","","","","","","","","","","","","",""
"null","","html-keyboard-response","123","909853","0.0-122.0","A39D2O58VQ5GMO","<p style=""font-size: 48px;"">+</p>","","","","","null","allTrialResponses","1000","1","11","img_art/1.jpg","15","I like the splashes of blue in the sea of red and yellow","Katie,Erika,Makayla,Alexis,Kaitlyn,Katherine","Too messy. Just looks like a mess of dark colors.,-20,160,20","Vague and directionless,-14,100,20","Nothing whatsoever,2,80,20","Taco Bell wallpaper. Doesn't really make me feel anything,3,100,20","Interesting blend of colors,9,80,20","Blurry but that's how emotions are a lot of the time.,27,120,20","Katherine","Blurry but that's how emotions are a lot of the time.,27,120,20","Kaitlyn","Interesting blend of colors,9,80,20","Alexis","Taco Bell wallpaper. Doesn't really make me feel anything,3,100,20","2"
"48198","","survey-text","124","958069","0.0-123.0-0.0","A39D2O58VQ5GMO","","","","{""Q0"":""Taking a moment to ponder in a busy life""}","","","","","","","","","","","","","","","","","","","","","","",""
"2838.899999976158","","image-slider-response","125","960909","0.0-124.0","A39D2O58VQ5GMO","","","","","30","","","","","","","","","","","","","","","","","","","","","",""
"4254","","image-button-response","126","965913","0.0-125.0","A39D2O58VQ5GMO","img_art/19.jpg","2","","","","","","","","","","","","","","","","","","","","","","","","",""
"2575","","image-button-response","127","968491","0.0-126.0","A39D2O58VQ5GMO","img_art/19.jpg","2","","","","","","","","","","","","","","","","","","","","","","","","",""
"1968","","image-button-response","128","970461","0.0-127.0-0.0","A39D2O58VQ5GMO","img_art/19.jpg","0","","","","","","","","","","","","","","","","","","","","","","","","",""
"3011","","image-button-response","129","973476","0.0-128.0-0.0","A39D2O58VQ5GMO","img_art/19.jpg","5","","","","","","","","","","","","","","","","","","","","","","","","",""
"null","","html-keyboard-response","130","974978","0.0-129.0","A39D2O58VQ5GMO","<p style=""font-size: 48px;"">+</p>","","","","","null","allTrialResponses","1500","1","12","img_art/19.jpg","30","Taking a moment to ponder in a busy life","Jamie,Samantha,Alicia,Alexis,Kaitlyn,Katherine","Looks like a busy port,10,320,20","Intersting but not for me,21,140,20","calming, like the drips,25,120,20","Not a fan of the blobbiness,-22,100,20","The picture contains a lot of brown and weird drips,-4,80,20","I dig the not being able to tell what anything is but knowing everything is supposed to be something,46,120,20","Alicia","calming, like the drips,25,120,20","Jamie","Looks like a busy port,10,320,20","Katherine","I dig the not being able to tell what anything is but knowing everything is supposed to be something,46,120,20","2"
"23604","","survey-text","131","998596","0.0-130.0-0.0","A39D2O58VQ5GMO","","","","{""Q0"":""A creature smiling :)""}","","","","","","","","","","","","","","","","","","","","","","",""
"2220.2999999523163","","image-slider-response","132","1000819","0.0-131.0","A39D2O58VQ5GMO","","","","","20","","","","","","","","","","","","","","","","","","","","","",""
"null","","image-button-response","133","1005822","0.0-132.0","A39D2O58VQ5GMO","img_art/2.jpg","null","","","","","","","","","","","","","","","","","","","","","","","","",""
"6376","","image-button-response","134","1012201","0.0-133.0","A39D2O58VQ5GMO","img_art/2.jpg","5","","","","","","","","","","","","","","","","","","","","","","","","",""
"5610","","image-button-response","135","1017814","0.0-134.0-0.0","A39D2O58VQ5GMO","img_art/2.jpg","4","","","","","","","","","","","","","","","","","","","","","","","","",""
"2134","","image-button-response","136","1019951","0.0-135.0-0.0","A39D2O58VQ5GMO","img_art/2.jpg","2","","","","","","","","","","","","","","","","","","","","","","","","",""
"null","","html-keyboard-response","137","1020456","0.0-136.0","A39D2O58VQ5GMO","<p style=""font-size: 48px;"">+</p>","","","","","null","allTrialResponses","500","1","13","img_art/2.jpg","20","A creature smiling :)","Jamie,Allison,Alicia,Jasmine,Cynthia,Katherine","Awful color coordination and design,-35,320,20","Hate the vomit green.,-31,140,20","retro, amateurish, not a fan of the colors together.,-10,120,20","Color picks are a bad mesh with each other,-17,340,20","Confused and disoriented,-33,320,20","The color combo is kind of ugly but there's something charming about it still,17,120,20","Katherine","The color combo is kind of ugly but there's something charming about it still,17,120,20","Cynthia","Confused and disoriented,-33,320,20","Alicia","retro, amateurish, not a fan of the colors together.,-10,120,20","2"
"30545","","survey-text","138","1051021","0.0-137.0-0.0","A39D2O58VQ5GMO","","","","{""Q0"":""It looks a tree of possible effects of one action""}","","","","","","","","","","","","","","","","","","","","","","",""
"3147.4000000953674","","image-slider-response","139","1054170","0.0-138.0","A39D2O58VQ5GMO","","","","","22","","","","","","","","","","","","","","","","","","","","","",""
"1681","","image-button-response","140","1059190","0.0-139.0","A39D2O58VQ5GMO","img_art/14.jpg","1","","","","","","","","","","","","","","","","","","","","","","","","",""
"1069","","image-button-response","141","1060262","0.0-140.0","A39D2O58VQ5GMO","img_art/14.jpg","0","","","","","","","","","","","","","","","","","","","","","","","","",""
"2253","","image-button-response","142","1062517","0.0-141.0-0.0","A39D2O58VQ5GMO","img_art/14.jpg","1","","","","","","","","","","","","","","","","","","","","","","","","",""
"4480","","image-button-response","143","1066999","0.0-142.0-0.0","A39D2O58VQ5GMO","img_art/14.jpg","2","","","","","","","","","","","","","","","","","","","","","","","","",""
"null","","html-keyboard-response","144","1068002","0.0-143.0","A39D2O58VQ5GMO","<p style=""font-size: 48px;"">+</p>","","","","","null","allTrialResponses","1000","1","14","img_art/14.jpg","22","It looks a tree of possible effects of one action","Amanda,Gabrielle,Alicia,Cassidy,Cynthia,Katherine","Gorgeous use of water color,50,180,20","the colors are peaceful and nature colors, soft,37,160,20","ok, gloomy though.,12,120,20","Meh. Pleasant to look at. Colors are nice,6,140,20","unsure and dull feeling,-1,320,20","I don't like the color red,30,120,20","Amanda","Gorgeous use of water color,50,180,20","Gabrielle","the colors are peaceful and nature colors, soft,37,160,20","Alicia","ok, gloomy though.,12,120,20","2"
"40062","","survey-text","145","1108072","0.0-144.0-0.0","A39D2O58VQ5GMO","","","","{""Q0"":""Wild mushrooms, a volcano, and tons of greenery""}","","","","","","","","","","","","","","","","","","","","","","",""
"4985.799999952316","","image-slider-response","146","1113060","0.0-145.0","A39D2O58VQ5GMO","","","","","-3","","","","","","","","","","","","","","","","","","","","","",""
"null","","image-button-response","147","1118063","0.0-146.0","A39D2O58VQ5GMO","img_art/9.jpg","null","","","","","","","","","","","","","","","","","","","","","","","","",""
"270","","image-button-response","148","1118335","0.0-147.0","A39D2O58VQ5GMO","img_art/9.jpg","4","","","","","","","","","","","","","","","","","","","","","","","","",""
"1767","","image-button-response","149","1120105","0.0-148.0-0.0","A39D2O58VQ5GMO","img_art/9.jpg","2","","","","","","","","","","","","","","","","","","","","","","","","",""
"1590","","image-button-response","150","1121697","0.0-149.0-0.0","A39D2O58VQ5GMO","img_art/9.jpg","1","","","","","","","","","","","","","","","","","","","","","","","","",""
"null","","html-keyboard-response","151","1122699","0.0-150.0","A39D2O58VQ5GMO","<p style=""font-size: 48px;"">+</p>","","","","","null","allTrialResponses","1000","1","15","img_art/9.jpg","-3","Wild mushrooms, a volcano, and tons of greenery","Amanda,Gabrielle,Alicia,Haley,Sierra,Mackenzie","Makes me feel angry, its not very clear,-50,180,20","looks like an imitation of a real piece of art, reclining lady,-1,160,20","Abstract titanic scene. It's nice though. I like how it makes me feel.,28,120,20","I don't like the picture, but it wouldn't surprise me if someone did,-20,220,20","it looks like a lady resting. it is soothing.,4,260,20","I enjoy the design, but the colors look waxy,-7,20,20","Sierra","it looks like a lady resting. it is soothing.,4,260,20","Alicia","Abstract titanic scene. It's nice though. I like how it makes me feel.,28,120,20","Gabrielle","looks like an imitation of a real piece of art, reclining lady,-1,160,20","2"
"3046","","survey-text","152","1125766","0.0-151.0-0.0","A39D2O58VQ5GMO","","","","{""Q0"":""course""}","","","","","","","","","","","","","","","","","","","","","","",""
"15571","","survey-text","153","1141338","0.0-152.0-0.0","A39D2O58VQ5GMO","","","","{""Q0"":""I'm not sure how I feel about this shade of yellow""}","","","","","","","","","","","","","","","","","","","","","","",""
"3044","","image-slider-response","154","1144384","0.0-153.0","A39D2O58VQ5GMO","","","","","-6","","","","","","","","","","","","","","","","","","","","","",""
"null","","image-button-response","155","1149388","0.0-154.0","A39D2O58VQ5GMO","img_art/4.jpg","null","","","","","","","","","","","","","","","","","","","","","","","","",""
"2451","","image-button-response","156","1151841","0.0-155.0","A39D2O58VQ5GMO","img_art/4.jpg","5","","","","","","","","","","","","","","","","","","","","","","","","",""
"9416","","image-button-response","157","1161259","0.0-156.0-0.0","A39D2O58VQ5GMO","img_art/4.jpg","4","","","","","","","","","","","","","","","","","","","","","","","","",""
"1777","","image-button-response","158","1163039","0.0-157.0-0.0","A39D2O58VQ5GMO","img_art/4.jpg","1","","","","","","","","","","","","","","","","","","","","","","","","",""
"null","","html-keyboard-response","159","1164041","0.0-158.0","A39D2O58VQ5GMO","<p style=""font-size: 48px;"">+</p>","","","","","null","allTrialResponses","1000","1","16","img_art/4.jpg","-6","I'm not sure how I feel about this shade of yellow","Madison,Gabrielle,Alicia,Sara,Sierra,Vanessa","This is what makes suburban dads say, ""my 4-year-old can do that."",-49,60,20","too childish, not really art in my world,-50,160,20","ordinary, bland. unmoving.,-6,120,20","Random swirls again,-30,160,20","it looks like a deformed hand,-9,260,20","Again, this is too abstract and I really don't like the colors.,-21,380,20","Vanessa","Again, this is too abstract and I really don't like the colors.,-21,380,20","Sierra","it looks like a deformed hand,-9,260,20","Gabrielle","too childish, not really art in my world,-50,160,20","2"
"37460","","survey-text","160","1201512","0.0-159.0-0.0","A39D2O58VQ5GMO","","","","{""Q0"":""A representation of Fall?""}","","","","","","","","","","","","","","","","","","","","","","",""
"2193.600000023842","","image-slider-response","161","1203708","0.0-160.0","A39D2O58VQ5GMO","","","","","-8","","","","","","","","","","","","","","","","","","","","","",""
"null","","image-button-response","162","1208717","0.0-161.0","A39D2O58VQ5GMO","img_art/27.jpg","null","","","","","","","","","","","","","","","","","","","","","","","","",""
"7115","","image-button-response","163","1215835","0.0-162.0","A39D2O58VQ5GMO","img_art/27.jpg","4","","","","","","","","","","","","","","","","","","","","","","","","",""
"2357","","image-button-response","164","1218195","0.0-163.0-0.0","A39D2O58VQ5GMO","img_art/27.jpg","5","","","","","","","","","","","","","","","","","","","","","","","","",""
"5157","","image-button-response","165","1223355","0.0-164.0-0.0","A39D2O58VQ5GMO","img_art/27.jpg","0","","","","","","","","","","","","","","","","","","","","","","","","",""
"null","","html-keyboard-response","166","1223857","0.0-165.0","A39D2O58VQ5GMO","<p style=""font-size: 48px;"">+</p>","","","","","null","allTrialResponses","500","1","17","img_art/27.jpg","-8","A representation of Fall?","Sabrina,Gabrielle,Hailey,Melissa,Sierra,Vanessa","Love the representation of home,22,120,20","like the patterns and colors all but the orange blob on the right,32,160,20","fruity and sweet. warm and juicy,10,200,20","reminds me of kandinsky,10,240,20","meh. it is neutral to me.,1,260,20","Colors make me think of fall, but I don't like how the picture was done or the weird lines across the background,6,380,20","Sierra","meh. it is neutral to me.,1,260,20","Vanessa","Colors make me think of fall, but I don't like how the picture was done or the weird lines across the background,6,380,20","Sabrina","Love the representation of home,22,120,20","2"
"32500","","survey-text","167","1256369","0.0-166.0-0.0","A39D2O58VQ5GMO","","","","{""Q0"":""Feels a little too gory for me""}","","","","","","","","","","","","","","","","","","","","","","",""
"2358.600000023842","","image-slider-response","168","1258730","0.0-167.0","A39D2O58VQ5GMO","","","","","-17","","","","","","","","","","","","","","","","","","","","","",""
"3526","","image-button-response","169","1263734","0.0-168.0","A39D2O58VQ5GMO","img_art/3.jpg","1","","","","","","","","","","","","","","","","","","","","","","","","",""
"2341","","image-button-response","170","1266078","0.0-169.0","A39D2O58VQ5GMO","img_art/3.jpg","4","","","","","","","","","","","","","","","","","","","","","","","","",""
"1370","","image-button-response","171","1267451","0.0-170.0-0.0","A39D2O58VQ5GMO","img_art/3.jpg","0","","","","","","","","","","","","","","","","","","","","","","","","",""
"1525","","image-button-response","172","1268978","0.0-171.0-0.0","A39D2O58VQ5GMO","img_art/3.jpg","1","","","","","","","","","","","","","","","","","","","","","","","","",""
"null","","html-keyboard-response","173","1269481","0.0-172.0","A39D2O58VQ5GMO","<p style=""font-size: 48px;"">+</p>","","","","","null","allTrialResponses","500","1","18","img_art/3.jpg","-17","Feels a little too gory for me","Sabrina,Hannah,Anna,Andrea,Sierra,Vanessa","I dont really feel anything from this, i cant see or understand any of it,-20,120,20","Looks like a Basquiat but just not my cup of tea.,-29,240,20","Definition of mediocre abstract art,-12,300,20","I don't feel anything, it seems childish.,-25,240,20","scattered and angry,-26,260,20","It makes me think of just an angry scribble. There's no beauty to it for me.,-50,380,20","Sierra","scattered and angry,-26,260,20","Sabrina","I dont really feel anything from this, i cant see or understand any of it,-20,120,20","Hannah","Looks like a Basquiat but just not my cup of tea.,-29,240,20","2"
"52123","","survey-text","174","1321620","0.0-173.0-0.0","A39D2O58VQ5GMO","","","","{""Q0"":""The face in the left corner defines the piece""}","","","","","","","","","","","","","","","","","","","","","","",""
"1923.3999999761581","","image-slider-response","175","1323546","0.0-174.0","A39D2O58VQ5GMO","","","","","15","","","","","","","","","","","","","","","","","","","","","",""
"2761","","image-button-response","176","1328549","0.0-175.0","A39D2O58VQ5GMO","img_art/8.jpg","0","","","","","","","","","","","","","","","","","","","","","","","","",""
"446","","image-button-response","177","1328998","0.0-176.0","A39D2O58VQ5GMO","img_art/8.jpg","3","","","","","","","","","","","","","","","","","","","","","","","","",""
"1332","","image-button-response","178","1330332","0.0-177.0-0.0","A39D2O58VQ5GMO","img_art/8.jpg","0","","","","","","","","","","","","","","","","","","","","","","","","",""
"3137","","image-button-response","179","1333470","0.0-178.0-0.0","A39D2O58VQ5GMO","img_art/8.jpg","5","","","","","","","","","","","","","","","","","","","","","","","","",""
"null","","html-keyboard-response","180","1334973","0.0-179.0","A39D2O58VQ5GMO","<p style=""font-size: 48px;"">+</p>","","","","","null","allTrialResponses","1500","1","19","img_art/8.jpg","15","The face in the left corner defines the piece","Sabrina,Hannah,Breanna,Isabella,Sierra,Brooke","I love the expressiveness of this,50,120,20","I don't understand it. Makes no sense to me.,5,240,20","Makes me feel nice,23,380,20","Ancient city looked after by diety,38,280,20","i love the colors, the church and the face,42,260,20","what's going on here. looks like scary town.,-25,60,20","Isabella","Ancient city looked after by diety,38,280,20","Sabrina","I love the expressiveness of this,50,120,20","Brooke","what's going on here. looks like scary town.,-25,60,20","2"
"35222","","survey-text","181","1370210","0.0-180.0-0.0","A39D2O58VQ5GMO","","","","{""Q0"":""I think swamp when I see this ""}","","","","","","","","","","","","","","","","","","","","","","",""
"2073.899999976158","","image-slider-response","182","1372286","0.0-181.0","A39D2O58VQ5GMO","","","","","-7","","","","","","","","","","","","","","","","","","","","","",""
"null","","image-button-response","183","1377304","0.0-182.0","A39D2O58VQ5GMO","img_art/29.jpg","null","","","","","","","","","","","","","","","","","","","","","","","","",""
"8631","","image-button-response","184","1385938","0.0-183.0","A39D2O58VQ5GMO","img_art/29.jpg","4","","","","","","","","","","","","","","","","","","","","","","","","",""
"4752","","image-button-response","185","1390694","0.0-184.0-0.0","A39D2O58VQ5GMO","img_art/29.jpg","3","","","","","","","","","","","","","","","","","","","","","","","","",""
"1582","","image-button-response","186","1392278","0.0-185.0-0.0","A39D2O58VQ5GMO","img_art/29.jpg","0","","","","","","","","","","","","","","","","","","","","","","","","",""
"null","","html-keyboard-response","187","1392782","0.0-186.0","A39D2O58VQ5GMO","<p style=""font-size: 48px;"">+</p>","","","","","null","allTrialResponses","500","1","20","img_art/29.jpg","-7","I think swamp when I see this ","Sabrina,Madeline,Lauren,Isabella,Taylor,Brooke","I love the representation of a mess,50,120,20","Looks a bit messy,-13,40,20","Don't really like the red x. It gives the impression that this a discarded piece.,-10,340,20","Darkness and torment,-50,280,20","It seems like there's anger in the painting.,-20,340,20","Lines and light are clean but subject doesn't interest me,0,60,20","Taylor","It seems like there's anger in the painting.,-20,340,20","Isabella","Darkness and torment,-50,280,20","Sabrina","I love the representation of a mess,50,120,20","2"
"2259","","survey-text","188","1395066","0.0-187.0-0.0","A39D2O58VQ5GMO","","","","{""Q0"":""we""}","","","","","","","","","","","","","","","","","","","","","","",""
"25652","","survey-text","189","1420719","0.0-188.0-0.0","A39D2O58VQ5GMO","","","","{""Q0"":""It's dark but it feels peaceful""}","","","","","","","","","","","","","","","","","","","","","","",""
"4022.2999999523163","","image-slider-response","190","1424744","0.0-189.0","A39D2O58VQ5GMO","","","","","26","","","","","","","","","","","","","","","","","","","","","",""
"1599","","image-button-response","191","1429763","0.0-190.0","A39D2O58VQ5GMO","img_art/20.jpg","0","","","","","","","","","","","","","","","","","","","","","","","","",""
"811","","image-button-response","192","1430578","0.0-191.0","A39D2O58VQ5GMO","img_art/20.jpg","0","","","","","","","","","","","","","","","","","","","","","","","","",""
"741","","image-button-response","193","1431322","0.0-192.0-0.0","A39D2O58VQ5GMO","img_art/20.jpg","4","","","","","","","","","","","","","","","","","","","","","","","","",""
"3216","","image-button-response","194","1434540","0.0-193.0-0.0","A39D2O58VQ5GMO","img_art/20.jpg","2","","","","","","","","","","","","","","","","","","","","","","","","",""
"null","","html-keyboard-response","195","1436050","0.0-194.0","A39D2O58VQ5GMO","<p style=""font-size: 48px;"">+</p>","","","","","null","allTrialResponses","1500","1","21","img_art/20.jpg","26","It's dark but it feels peaceful","Sabrina,Grace,Molly,Isabella,Taylor,Kristen","I love the way it expresses dark nature and uncontrolled situations.,44,120,20","Reminds me of Georgia O'Keefe.,11,180,20","Phenomenal painting of building.,25,340,20","Feels like a town destroyed,-19,280,20","I just love this painting,47,340,20","danger, car crash, stressful,-12,280,20","Sabrina","I love the way it expresses dark nature and uncontrolled situations.,44,120,20","Taylor","I just love this painting,47,340,20","Molly","Phenomenal painting of building.,25,340,20","2"
"44102","","survey-text","196","1480168","0.0-195.0-0.0","A39D2O58VQ5GMO","","","","{""Q0"":""It feels serene""}","","","","","","","","","","","","","","","","","","","","","","",""
"2335.399999976158","","image-slider-response","197","1482505","0.0-196.0","A39D2O58VQ5GMO","","","","","22","","","","","","","","","","","","","","","","","","","","","",""
"2645","","image-button-response","198","1487509","0.0-197.0","A39D2O58VQ5GMO","img_art/26.jpg","3","","","","","","","","","","","","","","","","","","","","","","","","",""
"648","","image-button-response","199","1488160","0.0-198.0","A39D2O58VQ5GMO","img_art/26.jpg","3","","","","","","","","","","","","","","","","","","","","","","","","",""
"2044","","image-button-response","200","1490206","0.0-199.0-0.0","A39D2O58VQ5GMO","img_art/26.jpg","4","","","","","","","","","","","","","","","","","","","","","","","","",""
"1003","","image-button-response","201","1491212","0.0-200.0-0.0","A39D2O58VQ5GMO","img_art/26.jpg","5","","","","","","","","","","","","","","","","","","","","","","","","",""
"null","","html-keyboard-response","202","1492714","0.0-201.0","A39D2O58VQ5GMO","<p style=""font-size: 48px;"">+</p>","","","","","null","allTrialResponses","1500","1","22","img_art/26.jpg","22","It feels serene","Sabrina,Maria,Molly,Rachel,Taylor,Gabriela","I dont see any expression,-29,120,20","fairly neutral, really,8,120,20","Nothing to say.,0,340,20","Pretty trees and bushes around fancy brown stones. I like the soft nature.,20,80,20","Makes me want to walk down a cool street,20,340,20","it makes me feel normal and calm, I like the busy city street,10,140,20","Rachel","Pretty trees and bushes around fancy brown stones. I like the soft nature.,20,80,20","Taylor","Makes me want to walk down a cool street,20,340,20","Gabriela","it makes me feel normal and calm, I like the busy city street,10,140,20","2"
"23985","","survey-text","203","1516713","0.0-202.0-0.0","A39D2O58VQ5GMO","","","","{""Q0"":""I really like the thin splashes and strokes of color on top of the blue, white, and black""}","","","","","","","","","","","","","","","","","","","","","","",""
"173303.60000002384","","image-slider-response","204","1690019","0.0-203.0","A39D2O58VQ5GMO","","","","","29","","","","","","","","","","","","","","","","","","","","","",""
"null","","image-button-response","205","1695030","0.0-204.0","A39D2O58VQ5GMO","img_art/13.jpg","null","","","","","","","","","","","","","","","","","","","","","","","","",""
"609","","image-button-response","206","1695642","0.0-205.0","A39D2O58VQ5GMO","img_art/13.jpg","4","","","","","","","","","","","","","","","","","","","","","","","","",""
"1502","","image-button-response","207","1697146","0.0-206.0-0.0","A39D2O58VQ5GMO","img_art/13.jpg","1","","","","","","","","","","","","","","","","","","","","","","","","",""
"1299","","image-button-response","208","1698448","0.0-207.0-0.0","A39D2O58VQ5GMO","img_art/13.jpg","0","","","","","","","","","","","","","","","","","","","","","","","","",""
"null","","html-keyboard-response","209","1698950","0.0-208.0","A39D2O58VQ5GMO","<p style=""font-size: 48px;"">+</p>","","","","","null","allTrialResponses","500","1","23","img_art/13.jpg","29","I really like the thin splashes and strokes of color on top of the blue, white, and black","Leah,Amber,Danielle,Rachel,Taylor,Gabriela","Like it a lot, reminds me of rainy day on glass,43,360,20","Reminds me of rain running down a window.,35,200,20","While it is a bit basic and doesn't speak to me much, I like the feeling it gives,40,340,20","Peaceful colors.,20,80,20","It makes me think of sitting inside on a rainy day while drinking a warm coffee,32,340,20","It looks too common, is a bit boring,-41,140,20","Taylor","It makes me think of sitting inside on a rainy day while drinking a warm coffee,32,340,20","Amber","Reminds me of rain running down a window.,35,200,20","Leah","Like it a lot, reminds me of rainy day on glass,43,360,20","2"
"28872","","survey-text","210","1727835","0.0-209.0-0.0","A39D2O58VQ5GMO","","","","{""Q0"":""Kind of ordinary""}","","","","","","","","","","","","","","","","","","","","","","",""
"2398","","image-slider-response","211","1730235","0.0-210.0","A39D2O58VQ5GMO","","","","","-5","","","","","","","","","","","","","","","","","","","","","",""
"3849","","image-button-response","212","1735242","0.0-211.0","A39D2O58VQ5GMO","img_art/28.jpg","4","","","","","","","","","","","","","","","","","","","","","","","","",""
"1325","","image-button-response","213","1736570","0.0-212.0","A39D2O58VQ5GMO","img_art/28.jpg","5","","","","","","","","","","","","","","","","","","","","","","","","",""
"825","","image-button-response","214","1737397","0.0-213.0-0.0","A39D2O58VQ5GMO","img_art/28.jpg","4","","","","","","","","","","","","","","","","","","","","","","","","",""
"3733","","image-button-response","215","1741133","0.0-214.0-0.0","A39D2O58VQ5GMO","img_art/28.jpg","3","","","","","","","","","","","","","","","","","","","","","","","","",""
"null","","html-keyboard-response","216","1741635","0.0-215.0","A39D2O58VQ5GMO","<p style=""font-size: 48px;"">+</p>","","","","","null","allTrialResponses","500","1","24","img_art/28.jpg","-5","Kind of ordinary","Leah,Amber,Natalie,Laura,Taylor,Jenna","Too me it's a mish mash, true abstract,-37,360,20","Colors are too dull.,-30,200,20","it looks alright,-1,400,20","musical, animated and happy with somber undertones,7,320,20","Doesn't give me an emotional response,0,340,20","looks like humanoid figures in distress. I like it, but makes me slightly uncomfortable,35,360,20","Jenna","looks like humanoid figures in distress. I like it, but makes me slightly uncomfortable,35,360,20","Taylor","Doesn't give me an emotional response,0,340,20","Laura","musical, animated and happy with somber undertones,7,320,20","2"
"67768","","survey-text","217","1809417","0.0-216.0-0.0","A39D2O58VQ5GMO","","","","{""Q0"":""I see creatures in colors of the wind. Stunning""}","","","","","","","","","","","","","","","","","","","","","","",""
"2999.600000023842","","image-slider-response","218","1812419","0.0-217.0","A39D2O58VQ5GMO","","","","","45","","","","","","","","","","","","","","","","","","","","","",""
"2790","","image-button-response","219","1817422","0.0-218.0","A39D2O58VQ5GMO","img_art/17.jpg","5","","","","","","","","","","","","","","","","","","","","","","","","",""
"810","","image-button-response","220","1818236","0.0-219.0","A39D2O58VQ5GMO","img_art/17.jpg","5","","","","","","","","","","","","","","","","","","","","","","","","",""
"1608","","image-button-response","221","1819845","0.0-220.0-0.0","A39D2O58VQ5GMO","img_art/17.jpg","0","","","","","","","","","","","","","","","","","","","","","","","","",""
"1460","","image-button-response","222","1821308","0.0-221.0-0.0","A39D2O58VQ5GMO","img_art/17.jpg","0","","","","","","","","","","","","","","","","","","","","","","","","",""
"4384","","image-button-response","223","1828262","0.0-221.1-0.1","A39D2O58VQ5GMO","img_art/17.jpg","3","","","","","","","","","","","","","","","","","","","","","","","","",""
"null","","html-keyboard-response","224","1828764","0.0-222.0","A39D2O58VQ5GMO","<p style=""font-size: 48px;"">+</p>","","","","","null","allTrialResponses","500","1","25","img_art/17.jpg","45","I see creatures in colors of the wind. Stunning","Abigail,Kelsey,Mikayla,Laura,Taylor,Jenna","Really love the branches. The bottom made it not perfect,42,20,20","this ones alright,10,240,20","Doesnt really do anythingb for me.,4,300,20","home - reminds me of fond memories of the Barnes Museum courtyard (looks just like it),30,320,20","A very inspiring piece,41,340,20","stunning. makes me feel happy, hopeful, serene, and a little wistful.,50,360,20","Jenna","stunning. makes me feel happy, hopeful, serene, and a little wistful.,50,360,20","Abigail","Really love the branches. The bottom made it not perfect,42,20,20","Laura","home - reminds me of fond memories of the Barnes Museum courtyard (looks just like it),30,320,20","4"
"3145","","survey-text","225","1831934","0.0-223.0-0.0","A39D2O58VQ5GMO","","","","{""Q0"":""table""}","","","","","","","","","","","","","","","","","","","","","","",""
"10817","","survey-text","226","1842753","0.0-224.0-0.0","A39D2O58VQ5GMO","","","","{""Q0"":""Reminds me of busy highways""}","","","","","","","","","","","","","","","","","","","","","","",""
"5985.100000023842","","image-slider-response","227","1848741","0.0-225.0","A39D2O58VQ5GMO","","","","","7","","","","","","","","","","","","","","","","","","","","","",""
"2690","","image-button-response","228","1853744","0.0-226.0","A39D2O58VQ5GMO","img_art/11.jpg","5","","","","","","","","","","","","","","","","","","","","","","","","",""
"2318","","image-button-response","229","1856065","0.0-227.0","A39D2O58VQ5GMO","img_art/11.jpg","3","","","","","","","","","","","","","","","","","","","","","","","","",""
"690","","image-button-response","230","1856758","0.0-228.0-0.0","A39D2O58VQ5GMO","img_art/11.jpg","5","","","","","","","","","","","","","","","","","","","","","","","","",""
"1064","","image-button-response","231","1857825","0.0-229.0-0.0","A39D2O58VQ5GMO","img_art/11.jpg","1","","","","","","","","","","","","","","","","","","","","","","","","",""
"null","","html-keyboard-response","232","1858327","0.0-230.0","A39D2O58VQ5GMO","<p style=""font-size: 48px;"">+</p>","","","","","null","allTrialResponses","500","1","26","img_art/11.jpg","7","Reminds me of busy highways","Abigail,Ashley,Dominique,Laura,Angelica,Jenna","Rainy highways in RI,20,20,20","Dark but bright, city but ocean, musical scales.,50,320,20","Looks like a familiar area,31,400,20","i think of beatnik music and dark piano lounges,25,320,20","This is very unappealing.,-11,280,20","makes me think of city highways & bridges on a rainy, foggy day. I like the melancholy it evokes.,43,360,20","Laura","i think of beatnik music and dark piano lounges,25,320,20","Jenna","makes me think of city highways & bridges on a rainy, foggy day. I like the melancholy it evokes.,43,360,20","Ashley","Dark but bright, city but ocean, musical scales.,50,320,20","4"
"58813","","survey-text","233","1917155","0.0-231.0-0.0","A39D2O58VQ5GMO","","","","{""Q0"":""It feels somber, but I like the patches of blue within the darkness""}","","","","","","","","","","","","","","","","","","","","","","",""
"2349.899999976158","","image-slider-response","234","1919507","0.0-232.0","A39D2O58VQ5GMO","","","","","-5","","","","","","","","","","","","","","","","","","","","","",""
"2269","","image-button-response","235","1924510","0.0-233.0","A39D2O58VQ5GMO","img_art/15.jpg","1","","","","","","","","","","","","","","","","","","","","","","","","",""
"438","","image-button-response","236","1924951","0.0-234.0","A39D2O58VQ5GMO","img_art/15.jpg","1","","","","","","","","","","","","","","","","","","","","","","","","",""
"782","","image-button-response","237","1925735","0.0-235.0-0.0","A39D2O58VQ5GMO","img_art/15.jpg","2","","","","","","","","","","","","","","","","","","","","","","","","",""
"1920","","image-button-response","238","1927657","0.0-236.0-0.0","A39D2O58VQ5GMO","img_art/15.jpg","5","","","","","","","","","","","","","","","","","","","","","","","","",""
"null","","html-keyboard-response","239","1929158","0.0-237.0","A39D2O58VQ5GMO","<p style=""font-size: 48px;"">+</p>","","","","","null","allTrialResponses","1500","1","27","img_art/15.jpg","-5","It feels somber, but I like the patches of blue within the darkness","Sydney,Ashley,Kaitlin,Laura,Jennifer,Jenna","This picture is too confusing for me. I wouldn't want to stare at it to figure it out.,-10,320,20","I think of birds, nature, levels of space.,18,320,20","This one seems a bit frightening,-19,60,20","abrasive, rough, uneven,-31,320,20","This piece isn't particularly attractive, but it's not ugly either.,1,380,20","interesting technique. the blue is very pretty,18,360,20","Ashley","I think of birds, nature, levels of space.,18,320,20","Kaitlin","This one seems a bit frightening,-19,60,20","Jenna","interesting technique. the blue is very pretty,18,360,20","4"
"20510","","survey-text","240","1949691","0.0-238.0-0.0","A39D2O58VQ5GMO","","","","{""Q0"":""It feels like living on a hot galaxy""}","","","","","","","","","","","","","","","","","","","","","","",""
"2665.7000000476837","","image-slider-response","241","1952359","0.0-239.0","A39D2O58VQ5GMO","","","","","4","","","","","","","","","","","","","","","","","","","","","",""
"3273","","image-button-response","242","1957363","0.0-240.0","A39D2O58VQ5GMO","img_art/22.jpg","5","","","","","","","","","","","","","","","","","","","","","","","","",""
"1396","","image-button-response","243","1958762","0.0-241.0","A39D2O58VQ5GMO","img_art/22.jpg","1","","","","","","","","","","","","","","","","","","","","","","","","",""
"822","","image-button-response","244","1959587","0.0-242.0-0.0","A39D2O58VQ5GMO","img_art/22.jpg","5","","","","","","","","","","","","","","","","","","","","","","","","",""
"1010","","image-button-response","245","1960599","0.0-243.0-0.0","A39D2O58VQ5GMO","img_art/22.jpg","2","","","","","","","","","","","","","","","","","","","","","","","","",""
"null","","html-keyboard-response","246","1961102","0.0-244.0","A39D2O58VQ5GMO","<p style=""font-size: 48px;"">+</p>","","","","","null","allTrialResponses","500","1","28","img_art/22.jpg","4","It feels like living on a hot galaxy","Shannon,Ashley,Kaitlin,Cassandra,Courtney,Jenna","I think this picture looks interesting because of the way the colors work together.,20,220,20","Another servicable piece of abstract art?,20,320,20","This represents the hopes in my life.,21,60,20","Don't like it...too much red,-17,120,20","Looks hot where ever that is.,-8,280,20","beautiful. love the bright colors & soft brush strokes, and the imprint of the key is genius.,50,360,20","Ashley","Another servicable piece of abstract art?,20,320,20","Jenna","beautiful. love the bright colors & soft brush strokes, and the imprint of the key is genius.,50,360,20","Kaitlin","This represents the hopes in my life.,21,60,20","4"
"10366","","survey-text","247","1971484","0.0-245.0-0.0","A39D2O58VQ5GMO","","","","{""Q0"":""Beauty within the madness""}","","","","","","","","","","","","","","","","","","","","","","",""
"2564.2000000476837","","image-slider-response","248","1974050","0.0-246.0","A39D2O58VQ5GMO","","","","","22","","","","","","","","","","","","","","","","","","","","","",""
"2908","","image-button-response","249","1979055","0.0-247.0","A39D2O58VQ5GMO","img_art/21.jpg","1","","","","","","","","","","","","","","","","","","","","","","","","",""
"547","","image-button-response","250","1979605","0.0-248.0","A39D2O58VQ5GMO","img_art/21.jpg","5","","","","","","","","","","","","","","","","","","","","","","","","",""
"1237","","image-button-response","251","1980844","0.0-249.0-0.0","A39D2O58VQ5GMO","img_art/21.jpg","4","","","","","","","","","","","","","","","","","","","","","","","","",""
"968","","image-button-response","252","1981813","0.0-250.0-0.0","A39D2O58VQ5GMO","img_art/21.jpg","0","","","","","","","","","","","","","","","","","","","","","","","","",""
"null","","html-keyboard-response","253","1982815","0.0-251.0","A39D2O58VQ5GMO","<p style=""font-size: 48px;"">+</p>","","","","","null","allTrialResponses","1000","1","29","img_art/21.jpg","22","Beauty within the madness","Shelby,Ashley,Kaitlin,Caitlin,Leslie,Jenna","Very calming and soft, makes me feel good,31,240,20","Disturbing, land meets ocean, lvoely really.,43,320,20","waterpaint is attractive,13,60,20","Remove the rocks(?) on the lower right.,5,80,20","The colors make me think of a perilous scene at sea, and are pretty interesting.,15,380,20","beautiful. reminds me of a storm brewing over sea. i love the white dots.,45,360,20","Jenna","beautiful. reminds me of a storm brewing over sea. i love the white dots.,45,360,20","Leslie","The colors make me think of a perilous scene at sea, and are pretty interesting.,15,380,20","Shelby","Very calming and soft, makes me feel good,31,240,20","4"
"19570","","survey-text","254","2002404","0.0-252.0-0.0","A39D2O58VQ5GMO","","","","{""Q0"":""This makes me feel calm and serene. Stunning""}","","","","","","","","","","","","","","","","","","","","","","",""
"1991.8000000715256","","image-slider-response","255","2004398","0.0-253.0","A39D2O58VQ5GMO","","","","","50","","","","","","","","","","","","","","","","","","","","","",""
"2340","","image-button-response","256","2009404","0.0-254.0","A39D2O58VQ5GMO","img_art/24.jpg","0","","","","","","","","","","","","","","","","","","","","","","","","",""
"967","","image-button-response","257","2010372","0.0-255.0","A39D2O58VQ5GMO","img_art/24.jpg","0","","","","","","","","","","","","","","","","","","","","","","","","",""
"736","","image-button-response","258","2011110","0.0-256.0-0.0","A39D2O58VQ5GMO","img_art/24.jpg","1","","","","","","","","","","","","","","","","","","","","","","","","",""
"640","","image-button-response","259","2011753","0.0-257.0-0.0","A39D2O58VQ5GMO","img_art/24.jpg","2","","","","","","","","","","","","","","","","","","","","","","","","",""
"null","","html-keyboard-response","260","2012756","0.0-258.0","A39D2O58VQ5GMO","<p style=""font-size: 48px;"">+</p>","","","","","null","allTrialResponses","1000","1","30","img_art/24.jpg","50","This makes me feel calm and serene. Stunning","Shelby,Alexandra,Angela,Caroline,Leslie,Jenna","Earthy wonderful, love everything about it,50,240,20","This reminds me of a creek or a river. It puts me a peace,42,60,20","Love the colors in this work, and the sense of motion in the water,36,260,20","Waterfalls and spring and gives me a sense of renewal,34,100,20","The colors look nice, but the painting bores me.,-20,380,20","colors are a bit cramped together. really unique take on a waterfall though.,32,360,20","Shelby","Earthy wonderful, love everything about it,50,240,20","Alexandra","This reminds me of a creek or a river. It puts me a peace,42,60,20","Angela","Love the colors in this work, and the sense of motion in the water,36,260,20","4"
"1961","","image-button-response_instructions","261","2014738","0.0-259.0","A39D2O58VQ5GMO","","0","instructions","","","","","","","","","","","","","","","","","","","","","","","",""
"755","","image-button-response","262","2015508","0.0-260.0","A39D2O58VQ5GMO","","0","","","","","","","","","","","","","","","","","","","","","","","","",""
