"rt","url","trial_type","trial_index","time_elapsed","internal_node_id","participant_id","stimulus","button_pressed","Name","responses","response","key_press","variableName","fixationTime","condition","trial","photo","subjectRating","subjectResponse","agentsNames","agent_1_Response","agent_2_Response","agent_3_Response","agent_4_Response","agent_5_Response","agent_6_Response","kept_1_name","kept_1_response","kept_2_name","kept_2_response","kept_3_name","kept_3_response","errorCounter"
"21641","external_page_harvard.html","external-html","0","21769","0.0-0.0","A39GKPIPC99NDV","","","","","","","","","","","","","","","","","","","","","","","","","","",""
"2721","","image-button-response","1","24492","0.0-1.0","A39GKPIPC99NDV","","0","","","","","","","","","","","","","","","","","","","","","","","","",""
"2633","","image-button-response","2","27130","0.0-2.0-0.0","A39GKPIPC99NDV","","1","phone","","","","","","","","","","","","","","","","","","","","","","","",""
"13094","","survey-text","3","40224","0.0-3.0-0.0","A39GKPIPC99NDV","","","","{""Q0"":""A39GKPIPC99NDV""}","","","","","","","","","","","","","","","","","","","","","","",""
"12326","","image-button-response_instructions","4","52552","0.0-4.0","A39GKPIPC99NDV","","0","instructions","","","","","","","","","","","","","","","","","","","","","","","",""
"62589","","image-button-response_instructions","5","115142","0.0-5.0","A39GKPIPC99NDV","img_art/ins/popularity/ins1.png","0","instructions","","","","","","","","","","","","","","","","","","","","","","","",""
"15148","","image-button-response_instructions","6","130292","0.0-6.0","A39GKPIPC99NDV","img_art/ins/popularity/ins2.png","0","instructions","","","","","","","","","","","","","","","","","","","","","","","",""
"5531","","image-button-response_instructions","7","135823","0.0-7.0","A39GKPIPC99NDV","img_art/ins/popularity/ins2Extreme.png","0","instructions","","","","","","","","","","","","","","","","","","","","","","","",""
"5033","","image-button-response_instructions","8","140857","0.0-8.0","A39GKPIPC99NDV","img_art/ins/popularity/ins3KEEPpop.PNG","0","instructions","","","","","","","","","","","","","","","","","","","","","","","",""
"3661","","image-button-response_instructions","9","144519","0.0-9.0","A39GKPIPC99NDV","img_art/ins/popularity/ins3ANamepop.PNG","0","instructions","","","","","","","","","","","","","","","","","","","","","","","",""
"2999","","image-button-response_instructions","10","147520","0.0-10.0","A39GKPIPC99NDV","img_art/ins/popularity/ins3ARatingpop.png","0","instructions","","","","","","","","","","","","","","","","","","","","","","","",""
"5063","","image-button-response_instructions","11","152584","0.0-11.0","A39GKPIPC99NDV","img_art/ins/popularity/ins3ATextpop.png","0","instructions","","","","","","","","","","","","","","","","","","","","","","","",""
"20371","","image-button-response_instructions","12","172956","0.0-12.0","A39GKPIPC99NDV","img_art/ins/popularity/ins3ALikespop.png","0","instructions","","","","","","","","","","","","","","","","","","","","","","","",""
"20148","","image-button-response_instructions","13","193105","0.0-13.0","A39GKPIPC99NDV","img_art/ins/popularity/ins3KEEPpop.PNG","0","instructions","","","","","","","","","","","","","","","","","","","","","","","",""
"13699","","image-button-response_instructions","14","206805","0.0-14.0","A39GKPIPC99NDV","img_art/ins/popularity/ins3_5RED.png","0","instructions","","","","","","","","","","","","","","","","","","","","","","","",""
"4648","","image-button-response_instructions","15","211455","0.0-15.0","A39GKPIPC99NDV","img_art/ins/popularity/ins3KEEPpop.PNG","0","instructions","","","","","","","","","","","","","","","","","","","","","","","",""
"8622","","image-button-response_instructions","16","220078","0.0-16.0","A39GKPIPC99NDV","img_art/ins/popularity/ins4KEEPpop.PNG","0","instructions","","","","","","","","","","","","","","","","","","","","","","","",""
"5493","","image-button-response_instructions","17","225573","0.0-17.0","A39GKPIPC99NDV","img_art/ins/popularity/ins5KEEPpop.PNG","0","instructions","","","","","","","","","","","","","","","","","","","","","","","",""
"1931","","image-button-response_instructions","18","227505","0.0-18.0","A39GKPIPC99NDV","","0","instructions","","","","","","","","","","","","","","","","","","","","","","","",""
"11500","","survey-text","19","239024","0.0-19.0-0.0","A39GKPIPC99NDV","","","","{""Q0"":""but""}","","","","","","","","","","","","","","","","","","","","","","",""
"18923","","survey-text","20","257948","0.0-20.0-0.0","A39GKPIPC99NDV","","","","{""Q0"":""nice painting, beautiful colors""}","","","","","","","","","","","","","","","","","","","","","","",""
"8244.299999952316","","image-slider-response","21","266195","0.0-21.0","A39GKPIPC99NDV","","","","","11","","","","","","","","","","","","","","","","","","","","","",""
"null","","image-button-response","22","271198","0.0-22.0","A39GKPIPC99NDV","img_art/ins/1.jpg","null","","","","","","","","","","","","","","","","","","","","","","","","",""
"6525","","image-button-response","23","277726","0.0-23.0","A39GKPIPC99NDV","img_art/ins/1.jpg","1","","","","","","","","","","","","","","","","","","","","","","","","",""
"4518","","image-button-response","24","282247","0.0-24.0-0.0","A39GKPIPC99NDV","img_art/ins/1.jpg","5","","","","","","","","","","","","","","","","","","","","","","","","",""
"9933","","image-button-response","25","292183","0.0-25.0-0.0","A39GKPIPC99NDV","img_art/ins/1.jpg","3","","","","","","","","","","","","","","","","","","","","","","","","",""
"null","","html-keyboard-response","26","293685","0.0-26.0","A39GKPIPC99NDV","<p style=""font-size: 48px;"">+</p>","","","","","null","allTrialResponses","1500","1","-2","img_art/ins/1.jpg","11","nice painting, beautiful colors","Adam,Alex,Ben,Carl,Daniel,Jack","Seems like doodles,-20,20,20","very creative work.,36,40,20","This color reminds me of poo,-46,60,20","very calming artwork,42,80,20","It looks like a murder scene.,-48,100,20","I like the sophisticated brushwork,40,120,20","Alex","very creative work.,36,40,20","Jack","I like the sophisticated brushwork,40,120,20","Carl","very calming artwork,42,80,20","0"
"42642","","survey-text","27","336336","0.0-27.0-0.0","A39GKPIPC99NDV","","","","{""Q0"":""i like the depiction of structures and the colors used""}","","","","","","","","","","","","","","","","","","","","","","",""
"4138.600000143051","","image-slider-response","28","340477","0.0-28.0","A39GKPIPC99NDV","","","","","23","","","","","","","","","","","","","","","","","","","","","",""
"null","","image-button-response","29","345480","0.0-29.0","A39GKPIPC99NDV","img_art/ins/2.jpg","null","","","","","","","","","","","","","","","","","","","","","","","","",""
"1119","","image-button-response","30","346601","0.0-30.0","A39GKPIPC99NDV","img_art/ins/2.jpg","1","","","","","","","","","","","","","","","","","","","","","","","","",""
"6644","","image-button-response","31","353247","0.0-31.0-0.0","A39GKPIPC99NDV","img_art/ins/2.jpg","2","","","","","","","","","","","","","","","","","","","","","","","","",""
"1412","","image-button-response","32","354661","0.0-32.0-0.0","A39GKPIPC99NDV","img_art/ins/2.jpg","2","","","","","","","","","","","","","","","","","","","","","","","","",""
"12562","","image-button-response","33","375233","0.0-32.1-0.1","A39GKPIPC99NDV","img_art/ins/2.jpg","5","","","","","","","","","","","","","","","","","","","","","","","","",""
"null","","html-keyboard-response","34","376235","0.0-33.0","A39GKPIPC99NDV","<p style=""font-size: 48px;"">+</p>","","","","","null","allTrialResponses","1000","1","-1","img_art/ins/2.jpg","23","i like the depiction of structures and the colors used","James,Alex,Kyle,Carl,John,Jack","looks too angry,-50,140,20","I like the blocks of color arrangements,30,40,20","Idk, it is just annoying,-32,180,20","I can feel the artist's passion in it,45,80,20","love the texture of paint,48,160,20","I would never be able to compose a sophisticated pallete like this,48,120,20","Alex","I like the blocks of color arrangements,30,40,20","Kyle","Idk, it is just annoying,-32,180,20","Jack","I would never be able to compose a sophisticated pallete like this,48,120,20","2"
"39868","","survey-text","35","416112","0.0-34.0-0.0","A39GKPIPC99NDV","","","","{""Q0"":""instantly get a cold chill from these color choices""}","","","","","","","","","","","","","","","","","","","","","","",""
"7551.099999904633","","image-slider-response","36","423665","0.0-35.0","A39GKPIPC99NDV","","","","","25","","","","","","","","","","","","","","","","","","","","","",""
"null","","image-button-response","37","428668","0.0-36.0","A39GKPIPC99NDV","img_art/ins/3.jpg","null","","","","","","","","","","","","","","","","","","","","","","","","",""
"3277","","image-button-response","38","431947","0.0-37.0","A39GKPIPC99NDV","img_art/ins/3.jpg","0","","","","","","","","","","","","","","","","","","","","","","","","",""
"3735","","image-button-response","39","435683","0.0-38.0-0.0","A39GKPIPC99NDV","img_art/ins/3.jpg","1","","","","","","","","","","","","","","","","","","","","","","","","",""
"7157","","image-button-response","40","442841","0.0-39.0-0.0","A39GKPIPC99NDV","img_art/ins/3.jpg","5","","","","","","","","","","","","","","","","","","","","","","","","",""
"null","","html-keyboard-response","41","443843","0.0-40.0","A39GKPIPC99NDV","<p style=""font-size: 48px;"">+</p>","","","","","null","allTrialResponses","1000","1","0","img_art/ins/3.jpg","25","instantly get a cold chill from these color choices","Sam,Alex,Kyle,Mike,Ron,Jack","I can feel a rainy day from this painting,18,240,20","calming blue is very nice,36,40,20","It looks like a playground for bats,-36,180,20","enjoy the different shades of blue,22,200,20","It looks depressing,-26,220,20","I feel connected to the artist,40,120,20","Sam","I can feel a rainy day from this painting,18,240,20","Alex","calming blue is very nice,36,40,20","Jack","I feel connected to the artist,40,120,20","2"
"13837","","image-button-response_instructions","42","457689","0.0-41.0","A39GKPIPC99NDV","","0","instructions","","","","","","","","","","","","","","","","","","","","","","","",""
"15741","","survey-likert","43","473431","0.0-42.0-0.0","A39GKPIPC99NDV","","","","{""Q0"":"""",""Q1"":0,""Q2"":1}","","","","","","","","","","","","","","","","","","","","","","",""
"7239","","survey-text","44","480675","0.0-43.0-0.0","A39GKPIPC99NDV","","","","{""Q0"":""rock""}","","","","","","","","","","","","","","","","","","","","","","",""
"24374","","survey-text","45","505051","0.0-44.0-0.0","A39GKPIPC99NDV","","","","{""Q0"":""really love the shapes and colors in this artwork""}","","","","","","","","","","","","","","","","","","","","","","",""
"11646.599999904633","","image-slider-response","46","516699","0.0-45.0","A39GKPIPC99NDV","","","","","33","","","","","","","","","","","","","","","","","","","","","",""
"null","","image-button-response","47","521719","0.0-46.0","A39GKPIPC99NDV","img_art/22.jpg","null","","","","","","","","","","","","","","","","","","","","","","","","",""
"5247","","image-button-response","48","526968","0.0-47.0","A39GKPIPC99NDV","img_art/22.jpg","3","","","","","","","","","","","","","","","","","","","","","","","","",""
"7569","","image-button-response","49","534539","0.0-48.0-0.0","A39GKPIPC99NDV","img_art/22.jpg","1","","","","","","","","","","","","","","","","","","","","","","","","",""
"5728","","image-button-response","50","540269","0.0-49.0-0.0","A39GKPIPC99NDV","img_art/22.jpg","4","","","","","","","","","","","","","","","","","","","","","","","","",""
"null","","html-keyboard-response","51","541771","0.0-50.0","A39GKPIPC99NDV","<p style=""font-size: 48px;"">+</p>","","","","","null","allTrialResponses","1500","1","1","img_art/22.jpg","33","really love the shapes and colors in this artwork","Isaac,Edward,Jeffrey,Scott,Elijah,Ian","The colors clash, and I don't know what is happening.,-23,280,20","I like the use of primary colors in an interesting way,29,60,20","Picture is very relaxing,32,40,20","really beautiful colors and contrast,30,20,20","Makes me feel a bit anxious,6,80,20","Its very warm, it reminds of someone not liking their painting so they destoryed it,26,260,20","Scott","really beautiful colors and contrast,30,20,20","Edward","I like the use of primary colors in an interesting way,29,60,20","Elijah","Makes me feel a bit anxious,6,80,20","2"
"23618","","survey-text","52","565396","0.0-51.0-0.0","A39GKPIPC99NDV","","","","{""Q0"":""nice contrast of abstract and realistic""}","","","","","","","","","","","","","","","","","","","","","","",""
"4906.599999904633","","image-slider-response","53","570304","0.0-52.0","A39GKPIPC99NDV","","","","","38","","","","","","","","","","","","","","","","","","","","","",""
"null","","image-button-response","54","575318","0.0-53.0","A39GKPIPC99NDV","img_art/13.jpg","null","","","","","","","","","","","","","","","","","","","","","","","","",""
"17312","","image-button-response","55","592632","0.0-54.0","A39GKPIPC99NDV","img_art/13.jpg","0","","","","","","","","","","","","","","","","","","","","","","","","",""
"7983","","image-button-response","56","600616","0.0-55.0-0.0","A39GKPIPC99NDV","img_art/13.jpg","2","","","","","","","","","","","","","","","","","","","","","","","","",""
"6596","","image-button-response","57","607214","0.0-56.0-0.0","A39GKPIPC99NDV","img_art/13.jpg","1","","","","","","","","","","","","","","","","","","","","","","","","",""
"null","","html-keyboard-response","58","607728","0.0-57.0","A39GKPIPC99NDV","<p style=""font-size: 48px;"">+</p>","","","","","null","allTrialResponses","500","1","2","img_art/13.jpg","38","nice contrast of abstract and realistic","Jesus,Edward,Seth,Scott,Elijah,Nathan","I enjoy the cool colors mixed together,31,100,20","The colors are really pretty together,39,60,20","I really loved the color contrast. Having the white stripe in the center makes the it appear 3D.,11,60,20","I like the transition to other colors,24,20,20","Makes me feel nice and calm,18,80,20","While it is a bit basic and doesn't speak to me much, I like the feeling it gives,40,200,20","Jesus","I enjoy the cool colors mixed together,31,100,20","Seth","I really loved the color contrast. Having the white stripe in the center makes the it appear 3D.,11,60,20","Edward","The colors are really pretty together,39,60,20","2"
"27525","","survey-text","59","635262","0.0-58.0-0.0","A39GKPIPC99NDV","","","","{""Q0"":""really interesting, but i don't like the color""}","","","","","","","","","","","","","","","","","","","","","","",""
"3836.7000000476837","","image-slider-response","60","639100","0.0-59.0","A39GKPIPC99NDV","","","","","-11","","","","","","","","","","","","","","","","","","","","","",""
"null","","image-button-response","61","644104","0.0-60.0","A39GKPIPC99NDV","img_art/7.jpg","null","","","","","","","","","","","","","","","","","","","","","","","","",""
"4612","","image-button-response","62","648718","0.0-61.0","A39GKPIPC99NDV","img_art/7.jpg","1","","","","","","","","","","","","","","","","","","","","","","","","",""
"2254","","image-button-response","63","650974","0.0-62.0-0.0","A39GKPIPC99NDV","img_art/7.jpg","2","","","","","","","","","","","","","","","","","","","","","","","","",""
"6368","","image-button-response","64","657344","0.0-63.0-0.0","A39GKPIPC99NDV","img_art/7.jpg","3","","","","","","","","","","","","","","","","","","","","","","","","",""
"null","","html-keyboard-response","65","658847","0.0-64.0","A39GKPIPC99NDV","<p style=""font-size: 48px;"">+</p>","","","","","null","allTrialResponses","1500","1","3","img_art/7.jpg","-11","really interesting, but i don't like the color","Jesus,Edward,Seth,Joshua,Hunter,Jordan","Is simple in color and texture,11,100,20","It looks like maybe some seeds?,14,60,20","This piece reminds me of ants and it makes my skin crawl.,-37,60,20","Looks almost like a photograph of nature.,11,240,20","textures are engaging,8,240,20","Looks like a skin disease,-31,160,20","Edward","It looks like maybe some seeds?,14,60,20","Seth","This piece reminds me of ants and it makes my skin crawl.,-37,60,20","Joshua","Looks almost like a photograph of nature.,11,240,20","2"
"32836","","survey-text","66","691691","0.0-65.0-0.0","A39GKPIPC99NDV","","","","{""Q0"":""nice colors but not enjoying the shapes""}","","","","","","","","","","","","","","","","","","","","","","",""
"3740.699999809265","","image-slider-response","67","695433","0.0-66.0","A39GKPIPC99NDV","","","","","-15","","","","","","","","","","","","","","","","","","","","","",""
"null","","image-button-response","68","700450","0.0-67.0","A39GKPIPC99NDV","img_art/14.jpg","null","","","","","","","","","","","","","","","","","","","","","","","","",""
"4538","","image-button-response","69","704994","0.0-68.0","A39GKPIPC99NDV","img_art/14.jpg","2","","","","","","","","","","","","","","","","","","","","","","","","",""
"3534","","image-button-response","70","708530","0.0-69.0-0.0","A39GKPIPC99NDV","img_art/14.jpg","3","","","","","","","","","","","","","","","","","","","","","","","","",""
"4982","","image-button-response","71","713514","0.0-70.0-0.0","A39GKPIPC99NDV","img_art/14.jpg","5","","","","","","","","","","","","","","","","","","","","","","","","",""
"null","","html-keyboard-response","72","714016","0.0-71.0","A39GKPIPC99NDV","<p style=""font-size: 48px;"">+</p>","","","","","null","allTrialResponses","500","1","4","img_art/14.jpg","-15","nice colors but not enjoying the shapes","Jason,Edward,Seth,Joshua,Cameron,Charles","Focal point is interesting,5,20,20","I just really like light and wispy things,33,60,20","This piece feels inviting. It's like opening up the pages of your favorite book for the first time.,26,60,20","This doesn't speak to me on an emotional level,-6,240,20","cotton candy skies. pretty.,35,60,20","In some ways it looks natural, but I'm just not feeling it,0,100,20","Seth","This piece feels inviting. It's like opening up the pages of your favorite book for the first time.,26,60,20","Joshua","This doesn't speak to me on an emotional level,-6,240,20","Charles","In some ways it looks natural, but I'm just not feeling it,0,100,20","2"
"38793","","survey-text","73","752819","0.0-72.0-0.0","A39GKPIPC99NDV","","","","{""Q0"":""not impressed, a kid could doodle this""}","","","","","","","","","","","","","","","","","","","","","","",""
"4518.599999904633","","image-slider-response","74","757339","0.0-73.0","A39GKPIPC99NDV","","","","","-22","","","","","","","","","","","","","","","","","","","","","",""
"null","","image-button-response","75","762350","0.0-74.0","A39GKPIPC99NDV","img_art/9.jpg","null","","","","","","","","","","","","","","","","","","","","","","","","",""
"3182","","image-button-response","76","765535","0.0-75.0","A39GKPIPC99NDV","img_art/9.jpg","2","","","","","","","","","","","","","","","","","","","","","","","","",""
"4201","","image-button-response","77","769738","0.0-76.0-0.0","A39GKPIPC99NDV","img_art/9.jpg","5","","","","","","","","","","","","","","","","","","","","","","","","",""
"3955","","image-button-response","78","773695","0.0-77.0-0.0","A39GKPIPC99NDV","img_art/9.jpg","3","","","","","","","","","","","","","","","","","","","","","","","","",""
"null","","html-keyboard-response","79","775207","0.0-78.0","A39GKPIPC99NDV","<p style=""font-size: 48px;"">+</p>","","","","","null","allTrialResponses","1500","1","5","img_art/9.jpg","-22","not impressed, a kid could doodle this","Tristan,David,Seth,Joshua,Isaiah,Charles","The busyness and harsh nature of the lines in this painting  mute my emotional response.,-10,300,20","I like how design can be interpreted differently, I see a person sleeping or a mountainous region.,10,340,20","I think it's sleeping beauty but I'm not sure. I didn't care for this piece.,-30,60,20","Someone lying in bed?  Don't care for it.,-14,240,20","The piece of art makes me happy, it reminds me of a lively carnival.,15,300,20","It's too all over the place,-37,100,20","Seth","I think it's sleeping beauty but I'm not sure. I didn't care for this piece.,-30,60,20","Charles","It's too all over the place,-37,100,20","Joshua","Someone lying in bed?  Don't care for it.,-14,240,20","2"
"7622","","survey-text","80","782851","0.0-79.0-0.0","A39GKPIPC99NDV","","","","{""Q0"":""sky""}","","","","","","","","","","","","","","","","","","","","","","",""
"28041","","survey-text","81","810893","0.0-80.0-0.0","A39GKPIPC99NDV","","","","{""Q0"":""really beautiful artwork and colors""}","","","","","","","","","","","","","","","","","","","","","","",""
"3888.5","","image-slider-response","82","814783","0.0-81.0","A39GKPIPC99NDV","","","","","6","","","","","","","","","","","","","","","","","","","","","",""
"null","","image-button-response","83","819792","0.0-82.0","A39GKPIPC99NDV","img_art/24.jpg","null","","","","","","","","","","","","","","","","","","","","","","","","",""
"411","","image-button-response","84","820206","0.0-83.0","A39GKPIPC99NDV","img_art/24.jpg","0","","","","","","","","","","","","","","","","","","","","","","","","",""
"12265","","image-button-response","85","832472","0.0-84.0-0.0","A39GKPIPC99NDV","img_art/24.jpg","4","","","","","","","","","","","","","","","","","","","","","","","","",""
"4512","","image-button-response","86","836985","0.0-85.0-0.0","A39GKPIPC99NDV","img_art/24.jpg","2","","","","","","","","","","","","","","","","","","","","","","","","",""
"null","","html-keyboard-response","87","837493","0.0-86.0","A39GKPIPC99NDV","<p style=""font-size: 48px;"">+</p>","","","","","null","allTrialResponses","500","1","6","img_art/24.jpg","6","really beautiful artwork and colors","Trevor,Colton,Seth,Joshua,James,Charles","I like how it looks like a waterfall in an exotic place,50,280,20","reminds me of a beautiful waterfall,50,220,20","This is stunning. I love how the brown, red and oranges are blended in together.,40,60,20","It's okay but don't love it.,7,240,20","The waterfall looks peaceful,11,380,20","It just feels a little bland for me,-23,100,20","Trevor","I like how it looks like a waterfall in an exotic place,50,280,20","James","The waterfall looks peaceful,11,380,20","Seth","This is stunning. I love how the brown, red and oranges are blended in together.,40,60,20","2"
"22036","","survey-text","88","859537","0.0-87.0-0.0","A39GKPIPC99NDV","","","","{""Q0"":""love this painting, looks like a hand""}","","","","","","","","","","","","","","","","","","","","","","",""
"4962.5","","image-slider-response","89","864501","0.0-88.0","A39GKPIPC99NDV","","","","","27","","","","","","","","","","","","","","","","","","","","","",""
"null","","image-button-response","90","869507","0.0-89.0","A39GKPIPC99NDV","img_art/4.jpg","null","","","","","","","","","","","","","","","","","","","","","","","","",""
"16892","","image-button-response","91","886401","0.0-90.0","A39GKPIPC99NDV","img_art/4.jpg","0","","","","","","","","","","","","","","","","","","","","","","","","",""
"6880","","image-button-response","92","893282","0.0-91.0-0.0","A39GKPIPC99NDV","img_art/4.jpg","2","","","","","","","","","","","","","","","","","","","","","","","","",""
"5317","","image-button-response","93","898602","0.0-92.0-0.0","A39GKPIPC99NDV","img_art/4.jpg","3","","","","","","","","","","","","","","","","","","","","","","","","",""
"null","","html-keyboard-response","94","899614","0.0-93.0","A39GKPIPC99NDV","<p style=""font-size: 48px;"">+</p>","","","","","null","allTrialResponses","1000","1","7","img_art/4.jpg","27","love this painting, looks like a hand","Trevor,Timothy,Seth,Andrew,James,Peter","not enough color and too yellow for me. Not my favorite colors,-10,280,20","The colors feel a bit off to me,-10,240,20","Odd but intriguing. I feel emotion from this. Like a woman bent over carrying these emotions on her back.,33,60,20","Reminds me of a first place trophy,30,160,20","Really don't care for the yellowish brown color in the center.,-19,380,20","Looks like poop on walks,-27,320,20","Trevor","not enough color and too yellow for me. Not my favorite colors,-10,280,20","Seth","Odd but intriguing. I feel emotion from this. Like a woman bent over carrying these emotions on her back.,33,60,20","Andrew","Reminds me of a first place trophy,30,160,20","2"
"26176","","survey-text","95","925798","0.0-94.0-0.0","A39GKPIPC99NDV","","","","{""Q0"":""amazing colors and depiction of mankind""}","","","","","","","","","","","","","","","","","","","","","","",""
"4890.799999952316","","image-slider-response","96","930690","0.0-95.0","A39GKPIPC99NDV","","","","","42","","","","","","","","","","","","","","","","","","","","","",""
"null","","image-button-response","97","935692","0.0-96.0","A39GKPIPC99NDV","img_art/25.jpg","null","","","","","","","","","","","","","","","","","","","","","","","","",""
"5043","","image-button-response","98","940738","0.0-97.0","A39GKPIPC99NDV","img_art/25.jpg","3","","","","","","","","","","","","","","","","","","","","","","","","",""
"2338","","image-button-response","99","943078","0.0-98.0-0.0","A39GKPIPC99NDV","img_art/25.jpg","5","","","","","","","","","","","","","","","","","","","","","","","","",""
"5112","","image-button-response","100","948192","0.0-99.0-0.0","A39GKPIPC99NDV","img_art/25.jpg","0","","","","","","","","","","","","","","","","","","","","","","","","",""
"null","","html-keyboard-response","101","948694","0.0-100.0","A39GKPIPC99NDV","<p style=""font-size: 48px;"">+</p>","","","","","null","allTrialResponses","500","1","8","img_art/25.jpg","42","amazing colors and depiction of mankind","Trevor,Michael,Seth,Andrew,Travis,Luis","nice colors and it looks like a native work,32,280,20","Low skill not impressed.,-14,140,20","This piece feels cultural. Like it represents something culturally.,22,60,20","It makes me feel a little uneasy, but I like the painting,11,160,20","I hate the colors and the scene,-46,260,20","New life, rising from your personal battles,50,400,20","Andrew","It makes me feel a little uneasy, but I like the painting,11,160,20","Luis","New life, rising from your personal battles,50,400,20","Trevor","nice colors and it looks like a native work,32,280,20","2"
"29357","","survey-text","102","978061","0.0-101.0-0.0","A39GKPIPC99NDV","","","","{""Q0"":""love this, reminds me of a guitar""}","","","","","","","","","","","","","","","","","","","","","","",""
"5598.599999904633","","image-slider-response","103","983661","0.0-102.0","A39GKPIPC99NDV","","","","","42","","","","","","","","","","","","","","","","","","","","","",""
"null","","image-button-response","104","988678","0.0-103.0","A39GKPIPC99NDV","img_art/10.jpg","null","","","","","","","","","","","","","","","","","","","","","","","","",""
"6225","","image-button-response","105","994906","0.0-104.0","A39GKPIPC99NDV","img_art/10.jpg","5","","","","","","","","","","","","","","","","","","","","","","","","",""
"4914","","image-button-response","106","999821","0.0-105.0-0.0","A39GKPIPC99NDV","img_art/10.jpg","2","","","","","","","","","","","","","","","","","","","","","","","","",""
"2268","","image-button-response","107","1002091","0.0-106.0-0.0","A39GKPIPC99NDV","img_art/10.jpg","0","","","","","","","","","","","","","","","","","","","","","","","","",""
"null","","html-keyboard-response","108","1003600","0.0-107.0","A39GKPIPC99NDV","<p style=""font-size: 48px;"">+</p>","","","","","null","allTrialResponses","1500","1","9","img_art/10.jpg","42","love this, reminds me of a guitar","Trevor,Shane,Kenneth,Andrew,Angel,Luis","It's very dark and angry looking,-31,280,20","Like a decision making process,46,80,20","I cant tell what this is supposed to be, but I enjoy the simplicity of it.,28,300,20","Makes me think of the exhilaration of a roller coaster,31,160,20","This piece makes me think of music. The music is dark; I like dark music so it edges toward good.,10,180,20","I love the dark and edgy nature of this,50,400,20","Luis","I love the dark and edgy nature of this,50,400,20","Kenneth","I cant tell what this is supposed to be, but I enjoy the simplicity of it.,28,300,20","Trevor","It's very dark and angry looking,-31,280,20","2"
"34130","","survey-text","109","1037737","0.0-108.0-0.0","A39GKPIPC99NDV","","","","{""Q0"":""wonderful buildings, colors and face""}","","","","","","","","","","","","","","","","","","","","","","",""
"4324.699999809265","","image-slider-response","110","1042063","0.0-109.0","A39GKPIPC99NDV","","","","","31","","","","","","","","","","","","","","","","","","","","","",""
"null","","image-button-response","111","1047065","0.0-110.0","A39GKPIPC99NDV","img_art/8.jpg","null","","","","","","","","","","","","","","","","","","","","","","","","",""
"2390","","image-button-response","112","1049458","0.0-111.0","A39GKPIPC99NDV","img_art/8.jpg","1","","","","","","","","","","","","","","","","","","","","","","","","",""
"5174","","image-button-response","113","1054634","0.0-112.0-0.0","A39GKPIPC99NDV","img_art/8.jpg","2","","","","","","","","","","","","","","","","","","","","","","","","",""
"3474","","image-button-response","114","1058110","0.0-113.0-0.0","A39GKPIPC99NDV","img_art/8.jpg","5","","","","","","","","","","","","","","","","","","","","","","","","",""
"null","","html-keyboard-response","115","1059112","0.0-114.0","A39GKPIPC99NDV","<p style=""font-size: 48px;"">+</p>","","","","","null","allTrialResponses","1000","1","10","img_art/8.jpg","31","wonderful buildings, colors and face","Trevor,Miguel,Kenneth,Devin,Derek,Luis","it looks very 80's and kind of scary,-11,280,20","Well painted. Not my style.,27,160,20","Interesting, i really like the face and the moon. Realy detailed and you see something new with each look.,11,300,20","Very nice detail and colors!,10,380,20","It's simply gorgeous. This artist is very talented,50,360,20","I love the expressiveness of this,50,400,20","Miguel","Well painted. Not my style.,27,160,20","Kenneth","Interesting, i really like the face and the moon. Realy detailed and you see something new with each look.,11,300,20","Luis","I love the expressiveness of this,50,400,20","2"
"7166","","survey-text","116","1066295","0.0-115.0-0.0","A39GKPIPC99NDV","","","","{""Q0"":""our""}","","","","","","","","","","","","","","","","","","","","","","",""
"18457","","survey-text","117","1084753","0.0-116.0-0.0","A39GKPIPC99NDV","","","","{""Q0"":""simple but elegant""}","","","","","","","","","","","","","","","","","","","","","","",""
"5352.899999856949","","image-slider-response","118","1090107","0.0-117.0","A39GKPIPC99NDV","","","","","4","","","","","","","","","","","","","","","","","","","","","",""
"null","","image-button-response","119","1095110","0.0-118.0","A39GKPIPC99NDV","img_art/3.jpg","null","","","","","","","","","","","","","","","","","","","","","","","","",""
"8658","","image-button-response","120","1103771","0.0-119.0","A39GKPIPC99NDV","img_art/3.jpg","3","","","","","","","","","","","","","","","","","","","","","","","","",""
"8301","","image-button-response","121","1112073","0.0-120.0-0.0","A39GKPIPC99NDV","img_art/3.jpg","5","","","","","","","","","","","","","","","","","","","","","","","","",""
"2102","","image-button-response","122","1114177","0.0-121.0-0.0","A39GKPIPC99NDV","img_art/3.jpg","4","","","","","","","","","","","","","","","","","","","","","","","","",""
"null","","html-keyboard-response","123","1114679","0.0-122.0","A39GKPIPC99NDV","<p style=""font-size: 48px;"">+</p>","","","","","null","allTrialResponses","500","1","11","img_art/3.jpg","4","simple but elegant","Logan,Miguel,Kenneth,Antonio,Jack,Luis","im just getting more agitated and less appreciative of art. I have absolutely no scale to base on,-34,360,20","Unfocused and rushed.,-28,160,20","Reminds me of blood.,-28,300,20","The red makes me think of blood which makes me think of pain,-50,220,20","unique & stylized. interesting. another one I could keep staring at.,50,320,20","I dont really feel anything from this, i cant see or understand any of it,-20,400,20","Antonio","The red makes me think of blood which makes me think of pain,-50,220,20","Luis","I dont really feel anything from this, i cant see or understand any of it,-20,400,20","Jack","unique & stylized. interesting. another one I could keep staring at.,50,320,20","2"
"25295","","survey-text","124","1139983","0.0-123.0-0.0","A39GKPIPC99NDV","","","","{""Q0"":""nice street scene, but not my favorite""}","","","","","","","","","","","","","","","","","","","","","","",""
"7624.700000047684","","image-slider-response","125","1147609","0.0-124.0","A39GKPIPC99NDV","","","","","-7","","","","","","","","","","","","","","","","","","","","","",""
"null","","image-button-response","126","1152611","0.0-125.0","A39GKPIPC99NDV","img_art/26.jpg","null","","","","","","","","","","","","","","","","","","","","","","","","",""
"2047","","image-button-response","127","1154661","0.0-126.0","A39GKPIPC99NDV","img_art/26.jpg","2","","","","","","","","","","","","","","","","","","","","","","","","",""
"4028","","image-button-response","128","1158691","0.0-127.0-0.0","A39GKPIPC99NDV","img_art/26.jpg","4","","","","","","","","","","","","","","","","","","","","","","","","",""
"8380","","image-button-response","129","1167073","0.0-128.0-0.0","A39GKPIPC99NDV","img_art/26.jpg","3","","","","","","","","","","","","","","","","","","","","","","","","",""
"null","","html-keyboard-response","130","1168576","0.0-129.0","A39GKPIPC99NDV","<p style=""font-size: 48px;"">+</p>","","","","","null","allTrialResponses","1500","1","12","img_art/26.jpg","-7","nice street scene, but not my favorite","Chase,Devon,Brendan,Antonio,Jack,Luis","I don't really see the point in this painting.,-16,120,20","i can feel the warmth,12,400,20","cool cozy town vibes,50,340,20","Calming and relaxing,28,220,20","soft colors & brush work. very easy to look at. makes me happy.,50,320,20","I dont see any expression,-29,400,20","Brendan","cool cozy town vibes,50,340,20","Jack","soft colors & brush work. very easy to look at. makes me happy.,50,320,20","Antonio","Calming and relaxing,28,220,20","2"
"25190","","survey-text","131","1193775","0.0-130.0-0.0","A39GKPIPC99NDV","","","","{""Q0"":""too simple for me, don't really enjoy it""}","","","","","","","","","","","","","","","","","","","","","","",""
"3876.600000143051","","image-slider-response","132","1197653","0.0-131.0","A39GKPIPC99NDV","","","","","-19","","","","","","","","","","","","","","","","","","","","","",""
"null","","image-button-response","133","1202655","0.0-132.0","A39GKPIPC99NDV","img_art/15.jpg","null","","","","","","","","","","","","","","","","","","","","","","","","",""
"564","","image-button-response","134","1203221","0.0-133.0","A39GKPIPC99NDV","img_art/15.jpg","1","","","","","","","","","","","","","","","","","","","","","","","","",""
"8423","","image-button-response","135","1211645","0.0-134.0-0.0","A39GKPIPC99NDV","img_art/15.jpg","3","","","","","","","","","","","","","","","","","","","","","","","","",""
"2500","","image-button-response","136","1214147","0.0-135.0-0.0","A39GKPIPC99NDV","img_art/15.jpg","4","","","","","","","","","","","","","","","","","","","","","","","","",""
"null","","html-keyboard-response","137","1214661","0.0-136.0","A39GKPIPC99NDV","<p style=""font-size: 48px;"">+</p>","","","","","null","allTrialResponses","500","1","13","img_art/15.jpg","-19","too simple for me, don't really enjoy it","Brian,Justin,Brendan,Antonio,Jack,Tyler","This is simply too ""old-school"",-27,380,20","Color scheme and design are rather boring.,-10,280,20","some trees in the forest,15,340,20","Makes me think of a bush and flowers and spring and happy warm times,25,220,20","interesting technique. the blue is very pretty,18,320,20","I am starting to feel description fatigue. This would be pleasant enough in a doctor's office waiting room.,15,320,20","Justin","Color scheme and design are rather boring.,-10,280,20","Antonio","Makes me think of a bush and flowers and spring and happy warm times,25,220,20","Jack","interesting technique. the blue is very pretty,18,320,20","2"
"32493","","survey-text","138","1247163","0.0-137.0-0.0","A39GKPIPC99NDV","","","","{""Q0"":""nice colors and shapes, i personally wouldn't buy it""}","","","","","","","","","","","","","","","","","","","","","","",""
"3998.5","","image-slider-response","139","1251163","0.0-138.0","A39GKPIPC99NDV","","","","","-16","","","","","","","","","","","","","","","","","","","","","",""
"3531","","image-button-response","140","1256166","0.0-139.0","A39GKPIPC99NDV","img_art/2.jpg","0","","","","","","","","","","","","","","","","","","","","","","","","",""
"6108","","image-button-response","141","1262277","0.0-140.0","A39GKPIPC99NDV","img_art/2.jpg","5","","","","","","","","","","","","","","","","","","","","","","","","",""
"2266","","image-button-response","142","1264545","0.0-141.0-0.0","A39GKPIPC99NDV","img_art/2.jpg","3","","","","","","","","","","","","","","","","","","","","","","","","",""
"3152","","image-button-response","143","1267699","0.0-142.0-0.0","A39GKPIPC99NDV","img_art/2.jpg","0","","","","","","","","","","","","","","","","","","","","","","","","",""
"null","","html-keyboard-response","144","1269200","0.0-143.0","A39GKPIPC99NDV","<p style=""font-size: 48px;"">+</p>","","","","","null","allTrialResponses","1500","1","14","img_art/2.jpg","-16","nice colors and shapes, i personally wouldn't buy it","Kyle,Justin,Kevin,Antonio,Jack,Christopher","Color picks are a bad mesh with each other,-17,340,20","This one feels rather flat and not engaging.,-15,280,20","That looks look a cartoon character of some kind.,11,320,20","Colors are drab and cause a sense of blandness,-28,220,20","the colors are a bit odd, and the squiggly line at the top is distracting,0,320,20","nope. just looks like a mess,-28,160,20","Christopher","nope. just looks like a mess,-28,160,20","Antonio","Colors are drab and cause a sense of blandness,-28,220,20","Kyle","Color picks are a bad mesh with each other,-17,340,20","2"
"30361","","survey-text","145","1299570","0.0-144.0-0.0","A39GKPIPC99NDV","","","","{""Q0"":""absolutely love these colors on this drawing""}","","","","","","","","","","","","","","","","","","","","","","",""
"4402.599999904633","","image-slider-response","146","1303974","0.0-145.0","A39GKPIPC99NDV","","","","","43","","","","","","","","","","","","","","","","","","","","","",""
"null","","image-button-response","147","1308976","0.0-146.0","A39GKPIPC99NDV","img_art/18.jpg","null","","","","","","","","","","","","","","","","","","","","","","","","",""
"1918","","image-button-response","148","1310897","0.0-147.0","A39GKPIPC99NDV","img_art/18.jpg","3","","","","","","","","","","","","","","","","","","","","","","","","",""
"7181","","image-button-response","149","1318078","0.0-148.0-0.0","A39GKPIPC99NDV","img_art/18.jpg","5","","","","","","","","","","","","","","","","","","","","","","","","",""
"2026","","image-button-response","150","1320107","0.0-149.0-0.0","A39GKPIPC99NDV","img_art/18.jpg","2","","","","","","","","","","","","","","","","","","","","","","","","",""
"null","","html-keyboard-response","151","1320609","0.0-150.0","A39GKPIPC99NDV","<p style=""font-size: 48px;"">+</p>","","","","","null","allTrialResponses","500","1","15","img_art/18.jpg","43","absolutely love these colors on this drawing","Kyle,Bradley,Caleb,Antonio,Eric,Christopher","I feel indifferent about this one,0,340,20","This one is very dark and apocalyptic indeed!,-30,300,20","Accents make this piece.,21,40,20","I think of the ocean and a boat tossed about on the waves. In the upper left is a figure. It is pleasant,30,220,20","I like the colors being used, but I don't like the chaos in the middle of it.,20,100,20","this is kind of cool. I like the color scheme and the figure in the upper left is interesting,15,160,20","Antonio","I think of the ocean and a boat tossed about on the waves. In the upper left is a figure. It is pleasant,30,220,20","Christopher","this is kind of cool. I like the color scheme and the figure in the upper left is interesting,15,160,20","Caleb","Accents make this piece.,21,40,20","2"
"8310","","survey-text","152","1328937","0.0-151.0-0.0","A39GKPIPC99NDV","","","","{""Q0"":""course""}","","","","","","","","","","","","","","","","","","","","","","",""
"214522","","survey-text","153","1543461","0.0-152.0-0.0","A39GKPIPC99NDV","","","","{""Q0"":""love the lines and colors of this painting""}","","","","","","","","","","","","","","","","","","","","","","",""
"4094.2999999523163","","image-slider-response","154","1547556","0.0-153.0","A39GKPIPC99NDV","","","","","40","","","","","","","","","","","","","","","","","","","","","",""
"4709","","image-button-response","155","1552558","0.0-154.0","A39GKPIPC99NDV","img_art/11.jpg","1","","","","","","","","","","","","","","","","","","","","","","","","",""
"1618","","image-button-response","156","1554178","0.0-155.0","A39GKPIPC99NDV","img_art/11.jpg","1","","","","","","","","","","","","","","","","","","","","","","","","",""
"7485","","image-button-response","157","1561665","0.0-156.0-0.0","A39GKPIPC99NDV","img_art/11.jpg","3","","","","","","","","","","","","","","","","","","","","","","","","",""
"4008","","image-button-response","158","1565675","0.0-157.0-0.0","A39GKPIPC99NDV","img_art/11.jpg","5","","","","","","","","","","","","","","","","","","","","","","","","",""
"null","","html-keyboard-response","159","1567176","0.0-158.0","A39GKPIPC99NDV","<p style=""font-size: 48px;"">+</p>","","","","","null","allTrialResponses","1500","1","16","img_art/11.jpg","40","love the lines and colors of this painting","Jesse,Mitchell,Caleb,Antonio,Aaron,Christopher","I like the dark lines and it interests me,13,80,20","Busy city life. transportation, anxiety.,10,180,20","Not quite as abstract as I'd like- It's clearly a dingy city.,-18,40,20","Makes me think of far away places and traveling. Makes me feel like wandering,20,220,20","It makes me think of a coastal sea town.,50,20,20","i like the gray tones with black lines and bits of color,23,160,20","Mitchell","Busy city life. transportation, anxiety.,10,180,20","Antonio","Makes me think of far away places and traveling. Makes me feel like wandering,20,220,20","Christopher","i like the gray tones with black lines and bits of color,23,160,20","2"
"25832","","survey-text","160","1593018","0.0-159.0-0.0","A39GKPIPC99NDV","","","","{""Q0"":""great shape and contrast of colors""}","","","","","","","","","","","","","","","","","","","","","","",""
"3720.7000000476837","","image-slider-response","161","1596741","0.0-160.0","A39GKPIPC99NDV","","","","","10","","","","","","","","","","","","","","","","","","","","","",""
"null","","image-button-response","162","1601744","0.0-161.0","A39GKPIPC99NDV","img_art/5.jpg","null","","","","","","","","","","","","","","","","","","","","","","","","",""
"1338","","image-button-response","163","1603084","0.0-162.0","A39GKPIPC99NDV","img_art/5.jpg","0","","","","","","","","","","","","","","","","","","","","","","","","",""
"11279","","image-button-response","164","1614365","0.0-163.0-0.0","A39GKPIPC99NDV","img_art/5.jpg","1","","","","","","","","","","","","","","","","","","","","","","","","",""
"1848","","image-button-response","165","1616214","0.0-164.0-0.0","A39GKPIPC99NDV","img_art/5.jpg","2","","","","","","","","","","","","","","","","","","","","","","","","",""
"null","","html-keyboard-response","166","1617216","0.0-165.0","A39GKPIPC99NDV","<p style=""font-size: 48px;"">+</p>","","","","","null","allTrialResponses","1000","1","17","img_art/5.jpg","10","great shape and contrast of colors","Mark,Mitchell,Paul,Antonio,Jacob,Christopher","Perfume bottle, reminds of fancy nights out.,11,80,20","Building remnants in the sand.,1,180,20","I like how simple it is and the pink brushstrokes are nice,27,300,20","Too much angular things happening, makes me think of stabbing something which makes me uncomfortable,-50,220,20","Don't really know the point of this one.,-11,340,20","looks very childish,-35,160,20","Mark","Perfume bottle, reminds of fancy nights out.,11,80,20","Mitchell","Building remnants in the sand.,1,180,20","Paul","I like how simple it is and the pink brushstrokes are nice,27,300,20","2"
"53664","","survey-text","167","1670890","0.0-166.0-0.0","A39GKPIPC99NDV","","","","{""Q0"":""doesn't seem skillful, nice, but couldn't anyone do it?""}","","","","","","","","","","","","","","","","","","","","","","",""
"3625","","image-slider-response","168","1674516","0.0-167.0","A39GKPIPC99NDV","","","","","-8","","","","","","","","","","","","","","","","","","","","","",""
"null","","image-button-response","169","1679519","0.0-168.0","A39GKPIPC99NDV","img_art/21.jpg","null","","","","","","","","","","","","","","","","","","","","","","","","",""
"14716","","image-button-response","170","1694238","0.0-169.0","A39GKPIPC99NDV","img_art/21.jpg","4","","","","","","","","","","","","","","","","","","","","","","","","",""
"10817","","image-button-response","171","1705056","0.0-170.0-0.0","A39GKPIPC99NDV","img_art/21.jpg","1","","","","","","","","","","","","","","","","","","","","","","","","",""
"2328","","image-button-response","172","1707386","0.0-171.0-0.0","A39GKPIPC99NDV","img_art/21.jpg","2","","","","","","","","","","","","","","","","","","","","","","","","",""
"null","","html-keyboard-response","173","1708895","0.0-172.0","A39GKPIPC99NDV","<p style=""font-size: 48px;"">+</p>","","","","","null","allTrialResponses","1500","1","18","img_art/21.jpg","-8","doesn't seem skillful, nice, but couldn't anyone do it?","Mark,Mitchell,Paul,John,Victor,Joseph","It feels like a day at sea but the pink is slightly jarring and holding my eye.,26,80,20","Nature, water, ever changing. Cold then warm. Reaction is mostly positive and some negative,30,180,20","I like the dark blue in the lower right which reminds me of a storm but the orange is ugly,12,300,20","I like the colors that were used and the stark contrast between the two sides,25,120,20","I really like these colors together and their placement. The dabs of white are a nice contrast to the soft blending,10,340,20","I like that it reminds me of an abstract version of a Bob Ross painting.,36,220,20","Victor","I really like these colors together and their placement. The dabs of white are a nice contrast to the soft blending,10,340,20","Mitchell","Nature, water, ever changing. Cold then warm. Reaction is mostly positive and some negative,30,180,20","Paul","I like the dark blue in the lower right which reminds me of a storm but the orange is ugly,12,300,20","2"
"36391","","survey-text","174","1745296","0.0-173.0-0.0","A39GKPIPC99NDV","","","","{""Q0"":""really interested to look and figure out the story ""}","","","","","","","","","","","","","","","","","","","","","","",""
"4174.799999952316","","image-slider-response","175","1749472","0.0-174.0","A39GKPIPC99NDV","","","","","13","","","","","","","","","","","","","","","","","","","","","",""
"null","","image-button-response","176","1754474","0.0-175.0","A39GKPIPC99NDV","img_art/29.jpg","null","","","","","","","","","","","","","","","","","","","","","","","","",""
"6066","","image-button-response","177","1760541","0.0-176.0","A39GKPIPC99NDV","img_art/29.jpg","5","","","","","","","","","","","","","","","","","","","","","","","","",""
"6329","","image-button-response","178","1766872","0.0-177.0-0.0","A39GKPIPC99NDV","img_art/29.jpg","0","","","","","","","","","","","","","","","","","","","","","","","","",""
"4754","","image-button-response","179","1771627","0.0-178.0-0.0","A39GKPIPC99NDV","img_art/29.jpg","4","","","","","","","","","","","","","","","","","","","","","","","","",""
"null","","html-keyboard-response","180","1772130","0.0-179.0","A39GKPIPC99NDV","<p style=""font-size: 48px;"">+</p>","","","","","null","allTrialResponses","500","1","19","img_art/29.jpg","13","really interested to look and figure out the story ","Ryan,Mitchell,Paul,Adrian,Victor,Matthew","Once again, very modern, activists will love,27,380,20","death, darkness, negative picture,-31,180,20","There's too much black and it looks sloppy,-35,300,20","Again, ugly colors and I'm not a fan of abstract. This looks like the view into a garbage dump.,-50,60,20","I like the colors but it looks very amateur,1,340,20","It that an actual PAINTBUSH! Love it.,50,120,20","Matthew","It that an actual PAINTBUSH! Love it.,50,120,20","Ryan","Once again, very modern, activists will love,27,380,20","Victor","I like the colors but it looks very amateur,1,340,20","2"
"37964","","survey-text","181","1810103","0.0-180.0-0.0","A39GKPIPC99NDV","","","","{""Q0"":""really like the different objects depicted""}","","","","","","","","","","","","","","","","","","","","","","",""
"3746.699999809265","","image-slider-response","182","1813851","0.0-181.0","A39GKPIPC99NDV","","","","","12","","","","","","","","","","","","","","","","","","","","","",""
"null","","image-button-response","183","1818867","0.0-182.0","A39GKPIPC99NDV","img_art/16.jpg","null","","","","","","","","","","","","","","","","","","","","","","","","",""
"15632","","image-button-response","184","1834502","0.0-183.0","A39GKPIPC99NDV","img_art/16.jpg","0","","","","","","","","","","","","","","","","","","","","","","","","",""
"7055","","image-button-response","185","1841558","0.0-184.0-0.0","A39GKPIPC99NDV","img_art/16.jpg","5","","","","","","","","","","","","","","","","","","","","","","","","",""
"9375","","image-button-response","186","1850934","0.0-185.0-0.0","A39GKPIPC99NDV","img_art/16.jpg","4","","","","","","","","","","","","","","","","","","","","","","","","",""
"null","","html-keyboard-response","187","1852447","0.0-186.0","A39GKPIPC99NDV","<p style=""font-size: 48px;"">+</p>","","","","","null","allTrialResponses","1500","1","20","img_art/16.jpg","12","really like the different objects depicted","Ryan,Connor,Zachary,Garrett,Victor,Matthew","Very modern, reminds me of bansky,43,380,20","Not original. Bear is odd,-50,240,20","Not pleasing to the eyes. I do like that the gun is broken though.,-28,400,20","I think this picture is weird and the colors are very boring.,-50,180,20","I don't know why, I just don't like it,-28,340,20","A lot fo these could abstract or childrens work.,23,120,20","Ryan","Very modern, reminds me of bansky,43,380,20","Matthew","A lot fo these could abstract or childrens work.,23,120,20","Victor","I don't know why, I just don't like it,-28,340,20","2"
"7617","","survey-text","188","1860084","0.0-187.0-0.0","A39GKPIPC99NDV","","","","{""Q0"":""we""}","","","","","","","","","","","","","","","","","","","","","","",""
"34329","","survey-text","189","1894414","0.0-188.0-0.0","A39GKPIPC99NDV","","","","{""Q0"":""nice, but i don't like this wide brushstroke style""}","","","","","","","","","","","","","","","","","","","","","","",""
"3604.5","","image-slider-response","190","1898020","0.0-189.0","A39GKPIPC99NDV","","","","","-26","","","","","","","","","","","","","","","","","","","","","",""
"null","","image-button-response","191","1903032","0.0-190.0","A39GKPIPC99NDV","img_art/30.jpg","null","","","","","","","","","","","","","","","","","","","","","","","","",""
"2304","","image-button-response","192","1905338","0.0-191.0","A39GKPIPC99NDV","img_art/30.jpg","1","","","","","","","","","","","","","","","","","","","","","","","","",""
"2258","","image-button-response","193","1907598","0.0-192.0-0.0","A39GKPIPC99NDV","img_art/30.jpg","4","","","","","","","","","","","","","","","","","","","","","","","","",""
"1870","","image-button-response","194","1909470","0.0-193.0-0.0","A39GKPIPC99NDV","img_art/30.jpg","5","","","","","","","","","","","","","","","","","","","","","","","","",""
"null","","html-keyboard-response","195","1910472","0.0-194.0","A39GKPIPC99NDV","<p style=""font-size: 48px;"">+</p>","","","","","null","allTrialResponses","1000","1","21","img_art/30.jpg","-26","nice, but i don't like this wide brushstroke style","Ryan,Cody,Gabriel,Alexander,Victor,Matthew","Love how the red stands out,20,380,20","Like the design, not a big fan of the colors,20,180,20","dont like this much at all,-30,160,20","Sleek eel in the abstract ocean.,30,120,20","I just don't see the point of this piece,-11,340,20","Decent abstract art, ncie colors.,23,120,20","Cody","Like the design, not a big fan of the colors,20,180,20","Victor","I just don't see the point of this piece,-11,340,20","Matthew","Decent abstract art, ncie colors.,23,120,20","2"
"32184","","survey-text","196","1942667","0.0-195.0-0.0","A39GKPIPC99NDV","","","","{""Q0"":""drab colors, but i like the design""}","","","","","","","","","","","","","","","","","","","","","","",""
"3912.5999999046326","","image-slider-response","197","1946581","0.0-196.0","A39GKPIPC99NDV","","","","","-5","","","","","","","","","","","","","","","","","","","","","",""
"null","","image-button-response","198","1951594","0.0-197.0","A39GKPIPC99NDV","img_art/28.jpg","null","","","","","","","","","","","","","","","","","","","","","","","","",""
"4421","","image-button-response","199","1956017","0.0-198.0","A39GKPIPC99NDV","img_art/28.jpg","0","","","","","","","","","","","","","","","","","","","","","","","","",""
"6855","","image-button-response","200","1962873","0.0-199.0-0.0","A39GKPIPC99NDV","img_art/28.jpg","5","","","","","","","","","","","","","","","","","","","","","","","","",""
"8420","","image-button-response","201","1971295","0.0-200.0-0.0","A39GKPIPC99NDV","img_art/28.jpg","2","","","","","","","","","","","","","","","","","","","","","","","","",""
"null","","html-keyboard-response","202","1972311","0.0-201.0","A39GKPIPC99NDV","<p style=""font-size: 48px;"">+</p>","","","","","null","allTrialResponses","1000","1","22","img_art/28.jpg","-5","drab colors, but i like the design","Blake,Cody,Jeremy,Brett,Victor,Matthew","an old woman in a wheelchair. sad,-35,280,20","Don't love the colors,-10,180,20","I just don't like it. It makes no sense to me,1,60,20","Overpopulated city,35,360,20","Almost looks like child's artwork, sloppy and chaotic,6,340,20","Normally don't react well to abstract art, but it looks almost like something's there.,28,120,20","Blake","an old woman in a wheelchair. sad,-35,280,20","Matthew","Normally don't react well to abstract art, but it looks almost like something's there.,28,120,20","Jeremy","I just don't like it. It makes no sense to me,1,60,20","2"
"23019","","survey-text","203","1995339","0.0-202.0-0.0","A39GKPIPC99NDV","","","","{""Q0"":""love the building and colors""}","","","","","","","","","","","","","","","","","","","","","","",""
"6120.599999904633","","image-slider-response","204","2001461","0.0-203.0","A39GKPIPC99NDV","","","","","19","","","","","","","","","","","","","","","","","","","","","",""
"4655","","image-button-response","205","2006465","0.0-204.0","A39GKPIPC99NDV","img_art/17.jpg","2","","","","","","","","","","","","","","","","","","","","","","","","",""
"1042","","image-button-response","206","2007509","0.0-205.0","A39GKPIPC99NDV","img_art/17.jpg","2","","","","","","","","","","","","","","","","","","","","","","","","",""
"1281","","image-button-response","207","2008792","0.0-206.0-0.0","A39GKPIPC99NDV","img_art/17.jpg","0","","","","","","","","","","","","","","","","","","","","","","","","",""
"7232","","image-button-response","208","2016025","0.0-207.0-0.0","A39GKPIPC99NDV","img_art/17.jpg","4","","","","","","","","","","","","","","","","","","","","","","","","",""
"null","","html-keyboard-response","209","2017542","0.0-208.0","A39GKPIPC99NDV","<p style=""font-size: 48px;"">+</p>","","","","","null","allTrialResponses","1500","1","23","img_art/17.jpg","19","love the building and colors","Blake,Adam,Jeremy,Anthony,Bryan,Matthew","soft and warm light colors are relaxing,12,280,20","Very washed out.,-10,40,20","very pretty. Makes me happy,45,60,20","Very elegant, this design reminds me of trees,31,200,20","Reminds me of winters in Minnesota.,48,400,20","taste the rainbow, feel the flavor.,23,120,20","Jeremy","very pretty. Makes me happy,45,60,20","Blake","soft and warm light colors are relaxing,12,280,20","Bryan","Reminds me of winters in Minnesota.,48,400,20","2"
"38035","","survey-text","210","2055587","0.0-209.0-0.0","A39GKPIPC99NDV","","","","{""Q0"":""i enjoy the people in the middle, but don't enjoy the background""}","","","","","","","","","","","","","","","","","","","","","","",""
"3611.0999999046326","","image-slider-response","211","2059199","0.0-210.0","A39GKPIPC99NDV","","","","","-8","","","","","","","","","","","","","","","","","","","","","",""
"4791","","image-button-response","212","2064201","0.0-211.0","A39GKPIPC99NDV","img_art/23.jpg","1","","","","","","","","","","","","","","","","","","","","","","","","",""
"1188","","image-button-response","213","2065393","0.0-212.0","A39GKPIPC99NDV","img_art/23.jpg","1","","","","","","","","","","","","","","","","","","","","","","","","",""
"8773","","image-button-response","214","2074167","0.0-213.0-0.0","A39GKPIPC99NDV","img_art/23.jpg","5","","","","","","","","","","","","","","","","","","","","","","","","",""
"5006","","image-button-response","215","2079175","0.0-214.0-0.0","A39GKPIPC99NDV","img_art/23.jpg","2","","","","","","","","","","","","","","","","","","","","","","","","",""
"null","","html-keyboard-response","216","2079677","0.0-215.0","A39GKPIPC99NDV","<p style=""font-size: 48px;"">+</p>","","","","","null","allTrialResponses","500","1","24","img_art/23.jpg","-8","i enjoy the people in the middle, but don't enjoy the background","Blake,Brandon,Jeremy,Mason,Bryan,Jose","cold and dark feeling,-27,280,20","Pretty cool. I love the white, reminds me of people lined up.,28,320,20","Does not incite any emotional response,1,60,20","No reactions, childish.,-19,100,20","Looks like fireworks.,21,400,20","This one is awesome, kinda looks like a cake with sprinkles but in a different universe,50,200,20","Brandon","Pretty cool. I love the white, reminds me of people lined up.,28,320,20","Jose","This one is awesome, kinda looks like a cake with sprinkles but in a different universe,50,200,20","Jeremy","Does not incite any emotional response,1,60,20","2"
"55583","","survey-text","217","2135272","0.0-216.0-0.0","A39GKPIPC99NDV","","","","{""Q0"":""don't enjoy paintings with the box-like motif""}","","","","","","","","","","","","","","","","","","","","","","",""
"3347","","image-slider-response","218","2138621","0.0-217.0","A39GKPIPC99NDV","","","","","-7","","","","","","","","","","","","","","","","","","","","","",""
"null","","image-button-response","219","2143634","0.0-218.0","A39GKPIPC99NDV","img_art/12.jpg","null","","","","","","","","","","","","","","","","","","","","","","","","",""
"1356","","image-button-response","220","2144993","0.0-219.0","A39GKPIPC99NDV","img_art/12.jpg","2","","","","","","","","","","","","","","","","","","","","","","","","",""
"3601","","image-button-response","221","2148595","0.0-220.0-0.0","A39GKPIPC99NDV","img_art/12.jpg","4","","","","","","","","","","","","","","","","","","","","","","","","",""
"5016","","image-button-response","222","2153613","0.0-221.0-0.0","A39GKPIPC99NDV","img_art/12.jpg","0","","","","","","","","","","","","","","","","","","","","","","","","",""
"null","","html-keyboard-response","223","2155120","0.0-222.0","A39GKPIPC99NDV","<p style=""font-size: 48px;"">+</p>","","","","","null","allTrialResponses","1500","1","25","img_art/12.jpg","-7","don't enjoy paintings with the box-like motif","Lucas,Brandon,Jeremy,Noah,Nathaniel,Jose","Seems to be puzzles.,25,380,20","I like the cubic feel.,11,320,20","do not like it. Seems too busy,-10,60,20","evokes the 80s, and not in a necessarily good way,-10,260,20","Too many blocks. I can't see a purpose or a focal point,-44,220,20","Not sure why but this is my favorite. I'd put it on my wall,50,200,20","Jeremy","do not like it. Seems too busy,-10,60,20","Nathaniel","Too many blocks. I can't see a purpose or a focal point,-44,220,20","Lucas","Seems to be puzzles.,25,380,20","2"
"6480","","survey-text","224","2161622","0.0-223.0-0.0","A39GKPIPC99NDV","","","","{""Q0"":""table""}","","","","","","","","","","","","","","","","","","","","","","",""
"20203","","survey-text","225","2181827","0.0-224.0-0.0","A39GKPIPC99NDV","","","","{""Q0"":""really like it, looks like a bird""}","","","","","","","","","","","","","","","","","","","","","","",""
"5410.599999904633","","image-slider-response","226","2187239","0.0-225.0","A39GKPIPC99NDV","","","","","25","","","","","","","","","","","","","","","","","","","","","",""
"null","","image-button-response","227","2192241","0.0-226.0","A39GKPIPC99NDV","img_art/6.jpg","null","","","","","","","","","","","","","","","","","","","","","","","","",""
"2920","","image-button-response","228","2195163","0.0-227.0","A39GKPIPC99NDV","img_art/6.jpg","4","","","","","","","","","","","","","","","","","","","","","","","","",""
"7233","","image-button-response","229","2202397","0.0-228.0-0.0","A39GKPIPC99NDV","img_art/6.jpg","5","","","","","","","","","","","","","","","","","","","","","","","","",""
"3113","","image-button-response","230","2205513","0.0-229.0-0.0","A39GKPIPC99NDV","img_art/6.jpg","1","","","","","","","","","","","","","","","","","","","","","","","","",""
"null","","html-keyboard-response","231","2207016","0.0-230.0","A39GKPIPC99NDV","<p style=""font-size: 48px;"">+</p>","","","","","null","allTrialResponses","1500","1","26","img_art/6.jpg","25","really like it, looks like a bird","Lucas,Patrick,Jeremy,Dustin,Nathaniel,Corey","Nothing special.,-20,380,20","It looks sad and scary at the same time,11,280,20","Kind of boring. I don't care for many abstracts,1,60,20","I like the warmth of the orange. But, I feel like it's a partial view. I'm frustrated I can't see the entirety.,-20,20,20","Not my favorite, but I like the empty vibe and the imagination it invokes. A skinny girl with long legs, perhaps, looking over a cliff,9,220,20","reminds me of a happy edgar allen poe poem,8,260,20","Nathaniel","Not my favorite, but I like the empty vibe and the imagination it invokes. A skinny girl with long legs, perhaps, looking over a cliff,9,220,20","Corey","reminds me of a happy edgar allen poe poem,8,260,20","Patrick","It looks sad and scary at the same time,11,280,20","2"
"25417","","survey-text","232","2232443","0.0-231.0-0.0","A39GKPIPC99NDV","","","","{""Q0"":""really great landscape, skillfully done""}","","","","","","","","","","","","","","","","","","","","","","",""
"4294.399999856949","","image-slider-response","233","2236739","0.0-232.0","A39GKPIPC99NDV","","","","","34","","","","","","","","","","","","","","","","","","","","","",""
"3518","","image-button-response","234","2241741","0.0-233.0","A39GKPIPC99NDV","img_art/20.jpg","0","","","","","","","","","","","","","","","","","","","","","","","","",""
"371","","image-button-response","235","2242115","0.0-234.0","A39GKPIPC99NDV","img_art/20.jpg","0","","","","","","","","","","","","","","","","","","","","","","","","",""
"5507","","image-button-response","236","2247623","0.0-235.0-0.0","A39GKPIPC99NDV","img_art/20.jpg","4","","","","","","","","","","","","","","","","","","","","","","","","",""
"2012","","image-button-response","237","2249637","0.0-236.0-0.0","A39GKPIPC99NDV","img_art/20.jpg","5","","","","","","","","","","","","","","","","","","","","","","","","",""
"null","","html-keyboard-response","238","2250140","0.0-237.0","A39GKPIPC99NDV","<p style=""font-size: 48px;"">+</p>","","","","","null","allTrialResponses","500","1","27","img_art/20.jpg","34","really great landscape, skillfully done","Spencer,Patrick,Austin,Carlos,Nathaniel,Corey","A sad past town, pollution, guess I like happier scenes,-30,120,20","Looks calm but a bit dark,21,280,20","This painting would make a great display art,50,240,20","It feels like it ""almost"" several things.,-10,80,20","A bit hectic, but it does have a bit of coolness to it,6,220,20","It seems to be a neutral cool toned art piece. Gives me alamo/desert vibes,2,260,20","Spencer","A sad past town, pollution, guess I like happier scenes,-30,120,20","Nathaniel","A bit hectic, but it does have a bit of coolness to it,6,220,20","Corey","It seems to be a neutral cool toned art piece. Gives me alamo/desert vibes,2,260,20","2"
"27978","","survey-text","239","2278132","0.0-238.0-0.0","A39GKPIPC99NDV","","","","{""Q0"":""looks like outdoors scene, not fond of it""}","","","","","","","","","","","","","","","","","","","","","","",""
"3646.5999999046326","","image-slider-response","240","2281780","0.0-239.0","A39GKPIPC99NDV","","","","","-15","","","","","","","","","","","","","","","","","","","","","",""
"4891","","image-button-response","241","2286783","0.0-240.0","A39GKPIPC99NDV","img_art/27.jpg","1","","","","","","","","","","","","","","","","","","","","","","","","",""
"1051","","image-button-response","242","2287837","0.0-241.0","A39GKPIPC99NDV","img_art/27.jpg","1","","","","","","","","","","","","","","","","","","","","","","","","",""
"3776","","image-button-response","243","2291615","0.0-242.0-0.0","A39GKPIPC99NDV","img_art/27.jpg","4","","","","","","","","","","","","","","","","","","","","","","","","",""
"1236","","image-button-response","244","2292853","0.0-243.0-0.0","A39GKPIPC99NDV","img_art/27.jpg","5","","","","","","","","","","","","","","","","","","","","","","","","",""
"null","","html-keyboard-response","245","2293354","0.0-244.0","A39GKPIPC99NDV","<p style=""font-size: 48px;"">+</p>","","","","","null","allTrialResponses","500","1","28","img_art/27.jpg","-15","looks like outdoors scene, not fond of it","Spencer,Benjamin,Alex,Cole,Nathaniel,Corey","An attractive assortment of squiggles and colors,22,120,20","I like the colors.,6,260,20","very abstract, I don't understand it, but I like the bright, cheerful colors,14,100,20","Unfinished something?,-30,200,20","Looks like a splash of different colors and designs without purpose,-44,220,20","this is ugly and does nothing for me,-35,260,20","Benjamin","I like the colors.,6,260,20","Nathaniel","Looks like a splash of different colors and designs without purpose,-44,220,20","Corey","this is ugly and does nothing for me,-35,260,20","2"
"19147","","survey-text","246","2312513","0.0-245.0-0.0","A39GKPIPC99NDV","","","","{""Q0"":""nice colors, but i don't care for it""}","","","","","","","","","","","","","","","","","","","","","","",""
"4079","","image-slider-response","247","2316593","0.0-246.0","A39GKPIPC99NDV","","","","","-12","","","","","","","","","","","","","","","","","","","","","",""
"2845","","image-button-response","248","2321603","0.0-247.0","A39GKPIPC99NDV","img_art/1.jpg","0","","","","","","","","","","","","","","","","","","","","","","","","",""
"678","","image-button-response","249","2322283","0.0-248.0","A39GKPIPC99NDV","img_art/1.jpg","0","","","","","","","","","","","","","","","","","","","","","","","","",""
"10575","","image-button-response","250","2332859","0.0-249.0-0.0","A39GKPIPC99NDV","img_art/1.jpg","5","","","","","","","","","","","","","","","","","","","","","","","","",""
"2606","","image-button-response","251","2335467","0.0-250.0-0.0","A39GKPIPC99NDV","img_art/1.jpg","2","","","","","","","","","","","","","","","","","","","","","","","","",""
"null","","html-keyboard-response","252","2336476","0.0-251.0","A39GKPIPC99NDV","<p style=""font-size: 48px;"">+</p>","","","","","null","allTrialResponses","1000","1","29","img_art/1.jpg","-12","nice colors, but i don't care for it","Jake,Benjamin,Jorge,Grant,Nathaniel,Corey","This is ugly with bad colors.,-6,360,20","Really like all of the colors and how they mesh well.,27,260,20","fishing on the lake surrounded by trees,42,180,20","The use of reds, blues, and yellows together reminds me of fire. Very interesting to look at.,40,200,20","A bit of a smokey mess, but it does have an air of mystery I like,7,220,20","basic reminds me of something a school would have on the wall,-7,260,20","Jake","This is ugly with bad colors.,-6,360,20","Corey","basic reminds me of something a school would have on the wall,-7,260,20","Jorge","fishing on the lake surrounded by trees,42,180,20","2"
"36585","","survey-text","253","2373072","0.0-252.0-0.0","A39GKPIPC99NDV","","","","{""Q0"":""looks like city street, but not my favorite of this type""}","","","","","","","","","","","","","","","","","","","","","","",""
"10308.800000190735","","image-slider-response","254","2383382","0.0-253.0","A39GKPIPC99NDV","","","","","-15","","","","","","","","","","","","","","","","","","","","","",""
"null","","image-button-response","255","2388384","0.0-254.0","A39GKPIPC99NDV","img_art/19.jpg","null","","","","","","","","","","","","","","","","","","","","","","","","",""
"900","","image-button-response","256","2389288","0.0-255.0","A39GKPIPC99NDV","img_art/19.jpg","2","","","","","","","","","","","","","","","","","","","","","","","","",""
"4323","","image-button-response","257","2393612","0.0-256.0-0.0","A39GKPIPC99NDV","img_art/19.jpg","5","","","","","","","","","","","","","","","","","","","","","","","","",""
"2323","","image-button-response","258","2395937","0.0-257.0-0.0","A39GKPIPC99NDV","img_art/19.jpg","4","","","","","","","","","","","","","","","","","","","","","","","","",""
"null","","html-keyboard-response","259","2397449","0.0-258.0","A39GKPIPC99NDV","<p style=""font-size: 48px;"">+</p>","","","","","null","allTrialResponses","1500","1","30","img_art/19.jpg","-15","looks like city street, but not my favorite of this type","Jake,Jared,Jorge,Sean,William,Corey","This is like an ugly version of a Basquiat.,-24,360,20","green and orange are my favorite colors.  this cityscape feels warm,34,400,20","confused and emotional,-4,180,20","the picture gave me anxiety,-38,40,20","to much going on,-22,380,20","i think it is ugly and hate the colors,-35,260,20","Jorge","confused and emotional,-4,180,20","Corey","i think it is ugly and hate the colors,-35,260,20","William","to much going on,-22,380,20","2"
"6585","","image-button-response_instructions","260","2404046","0.0-259.0","A39GKPIPC99NDV","","0","instructions","","","","","","","","","","","","","","","","","","","","","","","",""
"2948","","image-button-response","261","2406998","0.0-260.0","A39GKPIPC99NDV","","0","","","","","","","","","","","","","","","","","","","","","","","","",""
