"rt","url","trial_type","trial_index","time_elapsed","internal_node_id","participant_id","stimulus","button_pressed","Name","responses","response","key_press","variableName","fixationTime","condition","trial","photo","subjectRating","subjectResponse","agentsNames","agent_1_Response","agent_2_Response","agent_3_Response","agent_4_Response","agent_5_Response","agent_6_Response","kept_1_name","kept_1_response","kept_2_name","kept_2_response","kept_3_name","kept_3_response","errorCounter"
"23098","external_page_harvard.html","external-html","0","23204","0.0-0.0","A39STYGRHAZ2WL","","","","","","","","","","","","","","","","","","","","","","","","","","",""
"1707","","image-button-response","1","24914","0.0-1.0","A39STYGRHAZ2WL","","1","","","","","","","","","","","","","","","","","","","","","","","","",""
"2314","","image-button-response","2","27234","0.0-2.0-0.0","A39STYGRHAZ2WL","","1","phone","","","","","","","","","","","","","","","","","","","","","","","",""
"8280","","survey-text","3","35515","0.0-3.0-0.0","A39STYGRHAZ2WL","","","","{""Q0"":""A39STYGRHAZ2WL""}","","","","","","","","","","","","","","","","","","","","","","",""
"6576","","image-button-response_instructions","4","42093","0.0-4.0","A39STYGRHAZ2WL","","0","instructions","","","","","","","","","","","","","","","","","","","","","","","",""
"12080","","image-button-response_instructions","5","54175","0.0-5.0","A39STYGRHAZ2WL","img_art/ins/popularity/ins1.png","0","instructions","","","","","","","","","","","","","","","","","","","","","","","",""
"6221","","image-button-response_instructions","6","60398","0.0-6.0","A39STYGRHAZ2WL","img_art/ins/popularity/ins2.png","0","instructions","","","","","","","","","","","","","","","","","","","","","","","",""
"4743","","image-button-response_instructions","7","65143","0.0-7.0","A39STYGRHAZ2WL","img_art/ins/popularity/ins2Extreme.png","0","instructions","","","","","","","","","","","","","","","","","","","","","","","",""
"11649","","image-button-response_instructions","8","76793","0.0-8.0","A39STYGRHAZ2WL","img_art/ins/popularity/ins3KEEPpop.PNG","0","instructions","","","","","","","","","","","","","","","","","","","","","","","",""
"2895","","image-button-response_instructions","9","79688","0.0-9.0","A39STYGRHAZ2WL","img_art/ins/popularity/ins3ANamepop.PNG","0","instructions","","","","","","","","","","","","","","","","","","","","","","","",""
"3647","","image-button-response_instructions","10","83337","0.0-10.0","A39STYGRHAZ2WL","img_art/ins/popularity/ins3ARatingpop.png","0","instructions","","","","","","","","","","","","","","","","","","","","","","","",""
"3032","","image-button-response_instructions","11","86369","0.0-11.0","A39STYGRHAZ2WL","img_art/ins/popularity/ins3ATextpop.png","0","instructions","","","","","","","","","","","","","","","","","","","","","","","",""
"6592","","image-button-response_instructions","12","92963","0.0-12.0","A39STYGRHAZ2WL","img_art/ins/popularity/ins3ALikespop.png","0","instructions","","","","","","","","","","","","","","","","","","","","","","","",""
"10728","","image-button-response_instructions","13","103691","0.0-13.0","A39STYGRHAZ2WL","img_art/ins/popularity/ins3KEEPpop.PNG","0","instructions","","","","","","","","","","","","","","","","","","","","","","","",""
"8304","","image-button-response_instructions","14","111996","0.0-14.0","A39STYGRHAZ2WL","img_art/ins/popularity/ins3_5RED.png","0","instructions","","","","","","","","","","","","","","","","","","","","","","","",""
"3960","","image-button-response_instructions","15","115957","0.0-15.0","A39STYGRHAZ2WL","img_art/ins/popularity/ins3KEEPpop.PNG","0","instructions","","","","","","","","","","","","","","","","","","","","","","","",""
"8271","","image-button-response_instructions","16","124230","0.0-16.0","A39STYGRHAZ2WL","img_art/ins/popularity/ins4KEEPpop.PNG","0","instructions","","","","","","","","","","","","","","","","","","","","","","","",""
"3639","","image-button-response_instructions","17","127871","0.0-17.0","A39STYGRHAZ2WL","img_art/ins/popularity/ins5KEEPpop.PNG","0","instructions","","","","","","","","","","","","","","","","","","","","","","","",""
"2238","","image-button-response_instructions","18","130110","0.0-18.0","A39STYGRHAZ2WL","","0","instructions","","","","","","","","","","","","","","","","","","","","","","","",""
"5480","","survey-text","19","135615","0.0-19.0-0.0","A39STYGRHAZ2WL","","","","{""Q0"":""but""}","","","","","","","","","","","","","","","","","","","","","","",""
"25026","","survey-text","20","160643","0.0-20.0-0.0","A39STYGRHAZ2WL","","","","{""Q0"":""Colorful""}","","","","","","","","","","","","","","","","","","","","","","",""
"4685.5","","image-slider-response","21","165330","0.0-21.0","A39STYGRHAZ2WL","","","","","19","","","","","","","","","","","","","","","","","","","","","",""
"null","","image-button-response","22","170336","0.0-22.0","A39STYGRHAZ2WL","img_art/ins/1.jpg","null","","","","","","","","","","","","","","","","","","","","","","","","",""
"354","","image-button-response","23","170692","0.0-23.0","A39STYGRHAZ2WL","img_art/ins/1.jpg","5","","","","","","","","","","","","","","","","","","","","","","","","",""
"9182","","image-button-response","24","179877","0.0-24.0-0.0","A39STYGRHAZ2WL","img_art/ins/1.jpg","0","","","","","","","","","","","","","","","","","","","","","","","","",""
"3918","","image-button-response","25","183798","0.0-25.0-0.0","A39STYGRHAZ2WL","img_art/ins/1.jpg","4","","","","","","","","","","","","","","","","","","","","","","","","",""
"null","","html-keyboard-response","26","184802","0.0-26.0","A39STYGRHAZ2WL","<p style=""font-size: 48px;"">+</p>","","","","","null","allTrialResponses","1000","1","-2","img_art/ins/1.jpg","19","Colorful","Allison,Ashley,Beth,Dora,Erika,Jen","looks like a lot of things going on in the mist,20,20,20","I just don't get why these type of art would be popular,-32,40,20","This color reminds me of poo,-46,60,20","looks like what my niece in 3rd grade did this afternoon,-50,80,20","I like the sophisticated brushwork,40,100,20","It reminds me of a candy land dream I had,36,120,20","Jen","It reminds me of a candy land dream I had,36,120,20","Allison","looks like a lot of things going on in the mist,20,20,20","Erika","I like the sophisticated brushwork,40,100,20","0"
"25140","","survey-text","27","209946","0.0-27.0-0.0","A39STYGRHAZ2WL","","","","{""Q0"":""Textural""}","","","","","","","","","","","","","","","","","","","","","","",""
"3775.5","","image-slider-response","28","213724","0.0-28.0","A39STYGRHAZ2WL","","","","","6","","","","","","","","","","","","","","","","","","","","","",""
"null","","image-button-response","29","218737","0.0-29.0","A39STYGRHAZ2WL","img_art/ins/2.jpg","null","","","","","","","","","","","","","","","","","","","","","","","","",""
"5864","","image-button-response","30","224605","0.0-30.0","A39STYGRHAZ2WL","img_art/ins/2.jpg","5","","","","","","","","","","","","","","","","","","","","","","","","",""
"3094","","image-button-response","31","227700","0.0-31.0-0.0","A39STYGRHAZ2WL","img_art/ins/2.jpg","1","","","","","","","","","","","","","","","","","","","","","","","","",""
"1103","","image-button-response","32","228805","0.0-32.0-0.0","A39STYGRHAZ2WL","img_art/ins/2.jpg","0","","","","","","","","","","","","","","","","","","","","","","","","",""
"null","","html-keyboard-response","33","229308","0.0-33.0","A39STYGRHAZ2WL","<p style=""font-size: 48px;"">+</p>","","","","","null","allTrialResponses","500","1","-1","img_art/ins/2.jpg","6","Textural","Allison,Kara,Katie,Jenna,Erika,Jen","I don't have strong feelings about this,10,20,20","I like the blocks of color arrangements,30,160,20","too much color!,-28,180,20","One of my pet peevs,-48,140,20","I would never be able to compose a sophisticated pallete like this,48,100,20","It reminds me of a fireplace,36,120,20","Jen","It reminds me of a fireplace,36,120,20","Kara","I like the blocks of color arrangements,30,160,20","Allison","I don't have strong feelings about this,10,20,20","0"
"32773","","survey-text","34","262097","0.0-34.0-0.0","A39STYGRHAZ2WL","","","","{""Q0"":""I like the texture.""}","","","","","","","","","","","","","","","","","","","","","","",""
"5894.299999952316","","image-slider-response","35","267994","0.0-35.0","A39STYGRHAZ2WL","","","","","31","","","","","","","","","","","","","","","","","","","","","",""
"4656","","image-button-response","36","273000","0.0-36.0","A39STYGRHAZ2WL","img_art/ins/3.jpg","0","","","","","","","","","","","","","","","","","","","","","","","","",""
"3409","","image-button-response","37","276411","0.0-37.0","A39STYGRHAZ2WL","img_art/ins/3.jpg","5","","","","","","","","","","","","","","","","","","","","","","","","",""
"463","","image-button-response","38","276875","0.0-38.0-0.0","A39STYGRHAZ2WL","img_art/ins/3.jpg","4","","","","","","","","","","","","","","","","","","","","","","","","",""
"31558","","image-button-response","39","308435","0.0-39.0-0.0","A39STYGRHAZ2WL","img_art/ins/3.jpg","0","","","","","","","","","","","","","","","","","","","","","","","","",""
"null","","html-keyboard-response","40","308949","0.0-40.0","A39STYGRHAZ2WL","<p style=""font-size: 48px;"">+</p>","","","","","null","allTrialResponses","500","1","0","img_art/ins/3.jpg","31","I like the texture.","Allison,Kara,Rose,Leslie,Mary,Jen","enjoy the different shades of blue,22,20,20","calming blue is very nice,36,160,20","My daily routine, it's depressing,-20,240,20","It's an alright work,15,200,20","I like the overlapping of brushes,41,220,20","I can feel a rainy day from this painting,18,120,20","Jen","I can feel a rainy day from this painting,18,120,20","Mary","I like the overlapping of brushes,41,220,20","Allison","enjoy the different shades of blue,22,20,20","0"
"5299","","image-button-response_instructions","41","314252","0.0-41.0","A39STYGRHAZ2WL","","0","instructions","","","","","","","","","","","","","","","","","","","","","","","",""
"12585","","survey-likert","42","326839","0.0-42.0-0.0","A39STYGRHAZ2WL","","","","{""Q0"":"""",""Q1"":0,""Q2"":1}","","","","","","","","","","","","","","","","","","","","","","",""
"4698","","survey-text","43","331543","0.0-43.0-0.0","A39STYGRHAZ2WL","","","","{""Q0"":""rock""}","","","","","","","","","","","","","","","","","","","","","","",""
"29920","","survey-text","44","361464","0.0-44.0-0.0","A39STYGRHAZ2WL","","","","{""Q0"":""It looks like a child scribbled on a painting.""}","","","","","","","","","","","","","","","","","","","","","","",""
"3415.2000000476837","","image-slider-response","45","364882","0.0-45.0","A39STYGRHAZ2WL","","","","","-32","","","","","","","","","","","","","","","","","","","","","",""
"null","","image-button-response","46","369920","0.0-46.0","A39STYGRHAZ2WL","img_art/27.jpg","null","","","","","","","","","","","","","","","","","","","","","","","","",""
"4113","","image-button-response","47","374035","0.0-47.0","A39STYGRHAZ2WL","img_art/27.jpg","5","","","","","","","","","","","","","","","","","","","","","","","","",""
"8970","","image-button-response","48","383008","0.0-48.0-0.0","A39STYGRHAZ2WL","img_art/27.jpg","4","","","","","","","","","","","","","","","","","","","","","","","","",""
"941","","image-button-response","49","383952","0.0-49.0-0.0","A39STYGRHAZ2WL","img_art/27.jpg","2","","","","","","","","","","","","","","","","","","","","","","","","",""
"null","","html-keyboard-response","50","384958","0.0-50.0","A39STYGRHAZ2WL","<p style=""font-size: 48px;"">+</p>","","","","","null","allTrialResponses","1000","1","1","img_art/27.jpg","-32","It looks like a child scribbled on a painting.","Natalie,Kelsey,Jordan,Christina,Jasmine,Chelsea","also gives me anxiety,-21,400,20","too messy dont like the color choices either,-17,240,20","two warring cities, separated by a small desert,50,20,20","I like the orange but it's a little blah,1,240,20","I have no strong reactions to this,-1,340,20","The green lines look like a child drew over a painting.,-36,180,20","Chelsea","The green lines look like a child drew over a painting.,-36,180,20","Jasmine","I have no strong reactions to this,-1,340,20","Jordan","two warring cities, separated by a small desert,50,20,20","0"
"30620","","survey-text","51","415583","0.0-51.0-0.0","A39STYGRHAZ2WL","","","","{""Q0"":""It looks like chaos with many interesting things to see in the piece.""}","","","","","","","","","","","","","","","","","","","","","","",""
"2703.2999999523163","","image-slider-response","52","418288","0.0-52.0","A39STYGRHAZ2WL","","","","","13","","","","","","","","","","","","","","","","","","","","","",""
"1734","","image-button-response","53","423294","0.0-53.0","A39STYGRHAZ2WL","img_art/18.jpg","1","","","","","","","","","","","","","","","","","","","","","","","","",""
"1785","","image-button-response","54","425081","0.0-54.0","A39STYGRHAZ2WL","img_art/18.jpg","3","","","","","","","","","","","","","","","","","","","","","","","","",""
"3941","","image-button-response","55","429025","0.0-55.0-0.0","A39STYGRHAZ2WL","img_art/18.jpg","5","","","","","","","","","","","","","","","","","","","","","","","","",""
"3118","","image-button-response","56","432146","0.0-56.0-0.0","A39STYGRHAZ2WL","img_art/18.jpg","1","","","","","","","","","","","","","","","","","","","","","","","","",""
"null","","html-keyboard-response","57","432656","0.0-57.0","A39STYGRHAZ2WL","<p style=""font-size: 48px;"">+</p>","","","","","null","allTrialResponses","500","1","2","img_art/18.jpg","13","It looks like chaos with many interesting things to see in the piece.","Emily,Abigail,Jordan,Brittany,Jasmine,Chelsea","Not my style but I can see some serious skill went int it.,21,40,20","Interesting and capitvating to look at,19,20,20","Oh heck yes! I see two warriors riding down from valhalla, awesome painting,50,20,20","This is really interesting to look at. I like the colors and the spectral look.,27,40,20","I feel indifferent about this one,0,340,20","I like the detail but I wouldn't hang this up on my wall.,14,180,20","Brittany","This is really interesting to look at. I like the colors and the spectral look.,27,40,20","Chelsea","I like the detail but I wouldn't hang this up on my wall.,14,180,20","Abigail","Interesting and capitvating to look at,19,20,20","0"
"27014","","survey-text","58","459675","0.0-58.0-0.0","A39STYGRHAZ2WL","","","","{""Q0"":""Splatter paint is boring.""}","","","","","","","","","","","","","","","","","","","","","","",""
"32699.200000047684","","image-slider-response","59","492375","0.0-59.0","A39STYGRHAZ2WL","","","","","-28","","","","","","","","","","","","","","","","","","","","","",""
"null","","image-button-response","60","497386","0.0-60.0","A39STYGRHAZ2WL","img_art/13.jpg","null","","","","","","","","","","","","","","","","","","","","","","","","",""
"177","","image-button-response","61","497568","0.0-61.0","A39STYGRHAZ2WL","img_art/13.jpg","3","","","","","","","","","","","","","","","","","","","","","","","","",""
"1991","","image-button-response","62","499561","0.0-62.0-0.0","A39STYGRHAZ2WL","img_art/13.jpg","4","","","","","","","","","","","","","","","","","","","","","","","","",""
"2030","","image-button-response","63","501593","0.0-63.0-0.0","A39STYGRHAZ2WL","img_art/13.jpg","5","","","","","","","","","","","","","","","","","","","","","","","","",""
"null","","html-keyboard-response","64","502100","0.0-64.0","A39STYGRHAZ2WL","<p style=""font-size: 48px;"">+</p>","","","","","null","allTrialResponses","500","1","3","img_art/13.jpg","-28","Splatter paint is boring.","Erika,Abigail,Breanna,Brittany,Isabella,Chelsea","Gorgeous contrast and color choice, very pleasing,50,100,20","This is easy to look at,46,20,20","Makes me feel nice and calm,18,380,20","Not really a fan of ""splash"" art.,-20,40,20","Rain drops on a window,35,280,20","The colors are okay but I don't like the shapes here.,-18,180,20","Brittany","Not really a fan of ""splash"" art.,-20,40,20","Isabella","Rain drops on a window,35,280,20","Chelsea","The colors are okay but I don't like the shapes here.,-18,180,20","0"
"31949","","survey-text","65","534055","0.0-65.0-0.0","A39STYGRHAZ2WL","","","","{""Q0"":""Muted colors and it looks like a mouse at a bar.""}","","","","","","","","","","","","","","","","","","","","","","",""
"5758.700000047684","","image-slider-response","66","539816","0.0-66.0","A39STYGRHAZ2WL","","","","","-24","","","","","","","","","","","","","","","","","","","","","",""
"4670","","image-button-response","67","544823","0.0-67.0","A39STYGRHAZ2WL","img_art/28.jpg","1","","","","","","","","","","","","","","","","","","","","","","","","",""
"760","","image-button-response","68","545584","0.0-68.0","A39STYGRHAZ2WL","img_art/28.jpg","1","","","","","","","","","","","","","","","","","","","","","","","","",""
"5942","","image-button-response","69","551530","0.0-69.0-0.0","A39STYGRHAZ2WL","img_art/28.jpg","3","","","","","","","","","","","","","","","","","","","","","","","","",""
"965","","image-button-response","70","552498","0.0-70.0-0.0","A39STYGRHAZ2WL","img_art/28.jpg","5","","","","","","","","","","","","","","","","","","","","","","","","",""
"null","","html-keyboard-response","71","554005","0.0-71.0","A39STYGRHAZ2WL","<p style=""font-size: 48px;"">+</p>","","","","","null","allTrialResponses","1500","1","4","img_art/28.jpg","-24","Muted colors and it looks like a mouse at a bar.","Vanessa,Jacqueline,Kayla,Brittany,Isabella,Chelsea","It's such a blah piece and way too abstract.,-50,380,20","I don't like the washed out colors.,-15,300,20","Don't love it, don't hate it. It's just there.,1,180,20","I don't like the colors or the design.,-20,40,20","This is also something I would see in a serious but safe environment,14,280,20","It is too messy.,-38,180,20","Jacqueline","I don't like the washed out colors.,-15,300,20","Brittany","I don't like the colors or the design.,-20,40,20","Chelsea","It is too messy.,-38,180,20","0"
"28224","","survey-text","72","582245","0.0-72.0-0.0","A39STYGRHAZ2WL","","","","{""Q0"":""Interesting use of geometric shapes.""}","","","","","","","","","","","","","","","","","","","","","","",""
"4967.5","","image-slider-response","73","587216","0.0-73.0","A39STYGRHAZ2WL","","","","","22","","","","","","","","","","","","","","","","","","","","","",""
"null","","image-button-response","74","592219","0.0-74.0","A39STYGRHAZ2WL","img_art/12.jpg","null","","","","","","","","","","","","","","","","","","","","","","","","",""
"4465","","image-button-response","75","596689","0.0-75.0","A39STYGRHAZ2WL","img_art/12.jpg","5","","","","","","","","","","","","","","","","","","","","","","","","",""
"10457","","image-button-response","76","607147","0.0-76.0-0.0","A39STYGRHAZ2WL","img_art/12.jpg","4","","","","","","","","","","","","","","","","","","","","","","","","",""
"1893","","image-button-response","77","609043","0.0-77.0-0.0","A39STYGRHAZ2WL","img_art/12.jpg","1","","","","","","","","","","","","","","","","","","","","","","","","",""
"null","","html-keyboard-response","78","610060","0.0-78.0","A39STYGRHAZ2WL","<p style=""font-size: 48px;"">+</p>","","","","","null","allTrialResponses","1000","1","5","img_art/12.jpg","22","Interesting use of geometric shapes.","Alexandria,Jacqueline,Diana,Brittany,Jamie,Chelsea","don't feel a lot but it seems very simple,-6,80,20","It's not particularly interesting or ugly.,-7,300,20","This is beautiful. It looks like 1,000 different sunrises and sunsets.,44,380,20","Too blocky and not interesting enough.,-15,40,20","Black and white contrast with color looks nice,15,320,20","I like the gradient of little color on the top to colorful on the bottom.,24,180,20","Chelsea","I like the gradient of little color on the top to colorful on the bottom.,24,180,20","Jamie","Black and white contrast with color looks nice,15,320,20","Jacqueline","It's not particularly interesting or ugly.,-7,300,20","0"
"4941","","survey-text","79","615044","0.0-79.0-0.0","A39STYGRHAZ2WL","","","","{""Q0"":""sky""}","","","","","","","","","","","","","","","","","","","","","","",""
"30941","","survey-text","80","645986","0.0-80.0-0.0","A39STYGRHAZ2WL","","","","{""Q0"":""I'm not sure what I am looking at, but I like the perspective.""}","","","","","","","","","","","","","","","","","","","","","","",""
"8606.5","","image-slider-response","81","654594","0.0-81.0","A39STYGRHAZ2WL","","","","","-2","","","","","","","","","","","","","","","","","","","","","",""
"null","","image-button-response","82","659608","0.0-82.0","A39STYGRHAZ2WL","img_art/20.jpg","null","","","","","","","","","","","","","","","","","","","","","","","","",""
"4912","","image-button-response","83","664525","0.0-83.0","A39STYGRHAZ2WL","img_art/20.jpg","2","","","","","","","","","","","","","","","","","","","","","","","","",""
"5607","","image-button-response","84","670134","0.0-84.0-0.0","A39STYGRHAZ2WL","img_art/20.jpg","5","","","","","","","","","","","","","","","","","","","","","","","","",""
"1182","","image-button-response","85","671318","0.0-85.0-0.0","A39STYGRHAZ2WL","img_art/20.jpg","4","","","","","","","","","","","","","","","","","","","","","","","","",""
"null","","html-keyboard-response","86","671831","0.0-86.0","A39STYGRHAZ2WL","<p style=""font-size: 48px;"">+</p>","","","","","null","allTrialResponses","500","1","6","img_art/20.jpg","-2","I'm not sure what I am looking at, but I like the perspective.","Alyssa,Jacqueline,Miranda,Gabrielle,Jamie,Chelsea","Its interesting.It almost seems like a painting of a landscape,14,160,20","Looks like a refinery dumping shit into the water.,-40,300,20","A painting within a painting, the inner painting looks like a car crash with a semi truck.,21,320,20","The white blob on the left seems out of place,-34,160,20","Looks like some type of future dystopian civilization,35,320,20","It is abstract but it looks neat.,15,180,20","Miranda","A painting within a painting, the inner painting looks like a car crash with a semi truck.,21,320,20","Chelsea","It is abstract but it looks neat.,15,180,20","Jamie","Looks like some type of future dystopian civilization,35,320,20","0"
"18572","","survey-text","87","690406","0.0-87.0-0.0","A39STYGRHAZ2WL","","","","{""Q0"":""It reminds me of driving in the city.""}","","","","","","","","","","","","","","","","","","","","","","",""
"3398.2000000476837","","image-slider-response","88","693806","0.0-88.0","A39STYGRHAZ2WL","","","","","12","","","","","","","","","","","","","","","","","","","","","",""
"null","","image-button-response","89","698808","0.0-89.0","A39STYGRHAZ2WL","img_art/11.jpg","null","","","","","","","","","","","","","","","","","","","","","","","","",""
"2494","","image-button-response","90","701304","0.0-90.0","A39STYGRHAZ2WL","img_art/11.jpg","3","","","","","","","","","","","","","","","","","","","","","","","","",""
"2827","","image-button-response","91","704133","0.0-91.0-0.0","A39STYGRHAZ2WL","img_art/11.jpg","4","","","","","","","","","","","","","","","","","","","","","","","","",""
"1507","","image-button-response","92","705642","0.0-92.0-0.0","A39STYGRHAZ2WL","img_art/11.jpg","5","","","","","","","","","","","","","","","","","","","","","","","","",""
"null","","html-keyboard-response","93","706144","0.0-93.0","A39STYGRHAZ2WL","<p style=""font-size: 48px;"">+</p>","","","","","null","allTrialResponses","500","1","7","img_art/11.jpg","12","It reminds me of driving in the city.","Angela,Laura,Miranda,Kimberly,Jamie,Chelsea","I like this one very much, especially the shades of gray.,30,260,20","i think of beatnik music and dark piano lounges,25,320,20","This one is a little erie, gives me post-apocalyptic feeling,27,320,20","It's cables in a city,21,260,20","Looks like a cityscape,25,320,20","I like the harsh black lines against a soft background.,27,180,20","Kimberly","It's cables in a city,21,260,20","Jamie","Looks like a cityscape,25,320,20","Chelsea","I like the harsh black lines against a soft background.,27,180,20","0"
"8942","","survey-text","94","715091","0.0-94.0-0.0","A39STYGRHAZ2WL","","","","{""Q0"":""I like the movement.""}","","","","","","","","","","","","","","","","","","","","","","",""
"8959.200000047684","","image-slider-response","95","724052","0.0-95.0","A39STYGRHAZ2WL","","","","","24","","","","","","","","","","","","","","","","","","","","","",""
"null","","image-button-response","96","729061","0.0-96.0","A39STYGRHAZ2WL","img_art/17.jpg","null","","","","","","","","","","","","","","","","","","","","","","","","",""
"637","","image-button-response","97","729700","0.0-97.0","A39STYGRHAZ2WL","img_art/17.jpg","0","","","","","","","","","","","","","","","","","","","","","","","","",""
"6614","","image-button-response","98","736317","0.0-98.0-0.0","A39STYGRHAZ2WL","img_art/17.jpg","5","","","","","","","","","","","","","","","","","","","","","","","","",""
"975","","image-button-response","99","737294","0.0-99.0-0.0","A39STYGRHAZ2WL","img_art/17.jpg","4","","","","","","","","","","","","","","","","","","","","","","","","",""
"null","","html-keyboard-response","100","737796","0.0-100.0","A39STYGRHAZ2WL","<p style=""font-size: 48px;"">+</p>","","","","","null","allTrialResponses","500","1","8","img_art/17.jpg","24","I like the movement.","Leah,Hannah,Paige,Kimberly,Jamie,Chelsea","Love the colors, the flow, like a strange storm or tree off the balcony,50,360,20","Looks like an abandoned building that is being overtaken by nature.,-10,240,20","very pretty. Makes me happy,45,60,20","I like the trees, but the doors less so,19,260,20","Looks like some fantasy tree. Nice,30,320,20","The colors are soft.,32,180,20","Leah","Love the colors, the flow, like a strange storm or tree off the balcony,50,360,20","Chelsea","The colors are soft.,32,180,20","Jamie","Looks like some fantasy tree. Nice,30,320,20","0"
"18002","","survey-text","101","755802","0.0-101.0-0.0","A39STYGRHAZ2WL","","","","{""Q0"":""Interesting technique.""}","","","","","","","","","","","","","","","","","","","","","","",""
"4902.900000095367","","image-slider-response","102","760708","0.0-102.0","A39STYGRHAZ2WL","","","","","-4","","","","","","","","","","","","","","","","","","","","","",""
"null","","image-button-response","103","765723","0.0-103.0","A39STYGRHAZ2WL","img_art/25.jpg","null","","","","","","","","","","","","","","","","","","","","","","","","",""
"2664","","image-button-response","104","768389","0.0-104.0","A39STYGRHAZ2WL","img_art/25.jpg","4","","","","","","","","","","","","","","","","","","","","","","","","",""
"3766","","image-button-response","105","772157","0.0-105.0-0.0","A39STYGRHAZ2WL","img_art/25.jpg","1","","","","","","","","","","","","","","","","","","","","","","","","",""
"2558","","image-button-response","106","774718","0.0-106.0-0.0","A39STYGRHAZ2WL","img_art/25.jpg","0","","","","","","","","","","","","","","","","","","","","","","","","",""
"null","","html-keyboard-response","107","775220","0.0-107.0","A39STYGRHAZ2WL","<p style=""font-size: 48px;"">+</p>","","","","","null","allTrialResponses","500","1","9","img_art/25.jpg","-4","Interesting technique.","Leah,Jennifer,Emma,Alexa,Jamie,Chelsea","I really like it, very simple, very tribal,38,360,20","Spooky, but in a good way. I like the green and black color palette.,42,380,20","Like the colors and the figure,30,60,20","It's really neat and cool looking,20,40,20","Cool color scheme and appears to be a statue of some type of revered god,40,320,20","The color and image are unsettling.,-29,180,20","Jamie","Cool color scheme and appears to be a statue of some type of revered god,40,320,20","Jennifer","Spooky, but in a good way. I like the green and black color palette.,42,380,20","Leah","I really like it, very simple, very tribal,38,360,20","0"
"10082","","survey-text","108","785310","0.0-108.0-0.0","A39STYGRHAZ2WL","","","","{""Q0"":""Messy""}","","","","","","","","","","","","","","","","","","","","","","",""
"31327","","survey-text","109","820152","0.0-108.1-0.1","A39STYGRHAZ2WL","","","","{""Q0"":""Messy but I like the way the artist framed it with colors.""}","","","","","","","","","","","","","","","","","","","","","","",""
"3830.5","","image-slider-response","110","823984","0.0-109.0","A39STYGRHAZ2WL","","","","","-1","","","","","","","","","","","","","","","","","","","","","",""
"null","","image-button-response","111","829001","0.0-110.0","A39STYGRHAZ2WL","img_art/9.jpg","null","","","","","","","","","","","","","","","","","","","","","","","","",""
"1030","","image-button-response","112","830033","0.0-111.0","A39STYGRHAZ2WL","img_art/9.jpg","4","","","","","","","","","","","","","","","","","","","","","","","","",""
"2992","","image-button-response","113","833026","0.0-112.0-0.0","A39STYGRHAZ2WL","img_art/9.jpg","5","","","","","","","","","","","","","","","","","","","","","","","","",""
"13166","","image-button-response","114","846195","0.0-113.0-0.0","A39STYGRHAZ2WL","img_art/9.jpg","3","","","","","","","","","","","","","","","","","","","","","","","","",""
"null","","html-keyboard-response","115","847198","0.0-114.0","A39STYGRHAZ2WL","<p style=""font-size: 48px;"">+</p>","","","","","null","allTrialResponses","1000","1","10","img_art/9.jpg","-1","Messy but I like the way the artist framed it with colors.","Leah,Jennifer,Anna,Sabrina,Jamie,Alexis","Depressing to me, like a dark dream,-11,360,20","This piece is very boring to look at.,-27,380,20","It looks like a child's crayon drawing.,-10,300,20","Calming and relaxing,42,120,20","Mash up of colors and designs don't really go together,-5,320,20","I like the sense of forboding, the green creates a claustrophobic feeling,10,100,20","Jamie","Mash up of colors and designs don't really go together,-5,320,20","Alexis","I like the sense of forboding, the green creates a claustrophobic feeling,10,100,20","Sabrina","Calming and relaxing,42,120,20","0"
"4316","","survey-text","116","851524","0.0-115.0-0.0","A39STYGRHAZ2WL","","","","{""Q0"":""our""}","","","","","","","","","","","","","","","","","","","","","","",""
"18223","","survey-text","117","869749","0.0-116.0-0.0","A39STYGRHAZ2WL","","","","{""Q0"":""God is watching.""}","","","","","","","","","","","","","","","","","","","","","","",""
"2398.0999999046326","","image-slider-response","118","872149","0.0-117.0","A39STYGRHAZ2WL","","","","","-10","","","","","","","","","","","","","","","","","","","","","",""
"null","","image-button-response","119","877152","0.0-118.0","A39STYGRHAZ2WL","img_art/8.jpg","null","","","","","","","","","","","","","","","","","","","","","","","","",""
"12381","","image-button-response","120","889535","0.0-119.0","A39STYGRHAZ2WL","img_art/8.jpg","0","","","","","","","","","","","","","","","","","","","","","","","","",""
"5038","","image-button-response","121","894576","0.0-120.0-0.0","A39STYGRHAZ2WL","img_art/8.jpg","2","","","","","","","","","","","","","","","","","","","","","","","","",""
"2381","","image-button-response","122","896960","0.0-121.0-0.0","A39STYGRHAZ2WL","img_art/8.jpg","1","","","","","","","","","","","","","","","","","","","","","","","","",""
"null","","html-keyboard-response","123","897461","0.0-122.0","A39STYGRHAZ2WL","<p style=""font-size: 48px;"">+</p>","","","","","null","allTrialResponses","500","1","11","img_art/8.jpg","-10","God is watching.","Mikayla,Allison,Sara,Sabrina,Jamie,Alexis","Its kinda like an optical illusion.,22,300,20","Eclectic city with good mix of colors.,10,140,20","Very interesting use of blocks,21,160,20","I love the expressiveness of this,50,120,20","Cool designs and color schemes,44,320,20","Reminds me of old 80s fantasy book covers. Nostalgic,23,100,20","Mikayla","Its kinda like an optical illusion.,22,300,20","Sara","Very interesting use of blocks,21,160,20","Allison","Eclectic city with good mix of colors.,10,140,20","0"
"19364","","survey-text","124","916830","0.0-123.0-0.0","A39STYGRHAZ2WL","","","","{""Q0"":""Too much orange in the middle.""}","","","","","","","","","","","","","","","","","","","","","","",""
"3509.699999809265","","image-slider-response","125","920341","0.0-124.0","A39STYGRHAZ2WL","","","","","-16","","","","","","","","","","","","","","","","","","","","","",""
"1742","","image-button-response","126","925356","0.0-125.0","A39STYGRHAZ2WL","img_art/1.jpg","0","","","","","","","","","","","","","","","","","","","","","","","","",""
"1774","","image-button-response","127","927134","0.0-126.0","A39STYGRHAZ2WL","img_art/1.jpg","0","","","","","","","","","","","","","","","","","","","","","","","","",""
"831","","image-button-response","128","927967","0.0-127.0-0.0","A39STYGRHAZ2WL","img_art/1.jpg","1","","","","","","","","","","","","","","","","","","","","","","","","",""
"925","","image-button-response","129","928894","0.0-128.0-0.0","A39STYGRHAZ2WL","img_art/1.jpg","0","","","","","","","","","","","","","","","","","","","","","","","","",""
"2895","","image-button-response","130","936080","0.0-128.1-0.1","A39STYGRHAZ2WL","img_art/1.jpg","4","","","","","","","","","","","","","","","","","","","","","","","","",""
"null","","html-keyboard-response","131","936597","0.0-129.0","A39STYGRHAZ2WL","<p style=""font-size: 48px;"">+</p>","","","","","null","allTrialResponses","500","1","12","img_art/1.jpg","-16","Too much orange in the middle.","Mikayla,Allison,Sara,Stephanie,Brooke,Sierra","Again kind a boring.,-38,300,20","Messy mix of primary colors.,-10,140,20","I feel uneasy looking at this,-41,160,20","Pretty colors. Fall day in the East Coast of USA.,42,300,20","It's okay, colors remind me of autumn.,10,60,20","there isnt anything clear to look at,-2,260,20","Mikayla","Again kind a boring.,-38,300,20","Allison","Messy mix of primary colors.,-10,140,20","Brooke","It's okay, colors remind me of autumn.,10,60,20","2"
"8695","","survey-text","132","945313","0.0-130.0-0.0","A39STYGRHAZ2WL","","","","{""Q0"":""Looks like blood""}","","","","","","","","","","","","","","","","","","","","","","",""
"4775.399999856949","","image-slider-response","133","950090","0.0-131.0","A39STYGRHAZ2WL","","","","","-34","","","","","","","","","","","","","","","","","","","","","",""
"1789","","image-button-response","134","955109","0.0-132.0","A39STYGRHAZ2WL","img_art/3.jpg","0","","","","","","","","","","","","","","","","","","","","","","","","",""
"3471","","image-button-response","135","958587","0.0-133.0","A39STYGRHAZ2WL","img_art/3.jpg","2","","","","","","","","","","","","","","","","","","","","","","","","",""
"1164","","image-button-response","136","959754","0.0-134.0-0.0","A39STYGRHAZ2WL","img_art/3.jpg","1","","","","","","","","","","","","","","","","","","","","","","","","",""
"3358","","image-button-response","137","963115","0.0-135.0-0.0","A39STYGRHAZ2WL","img_art/3.jpg","0","","","","","","","","","","","","","","","","","","","","","","","","",""
"null","","html-keyboard-response","138","964130","0.0-136.0","A39STYGRHAZ2WL","<p style=""font-size: 48px;"">+</p>","","","","","null","allTrialResponses","1000","1","13","img_art/3.jpg","-34","Looks like blood","Mikayla,Allison,Rachel,Hailey,Brooke,Kylie","Scary. Looks like blood.,-45,300,20","Reminds me of a hot mess,-10,140,20","Too red and chaotic. Not calming.,-41,80,20","painted by a 2 year old. cold and boring,-30,200,20","kid scribbled on the wall again,-35,60,20","Confusion and mayhem,-10,300,20","Rachel","Too red and chaotic. Not calming.,-41,80,20","Allison","Reminds me of a hot mess,-10,140,20","Mikayla","Scary. Looks like blood.,-45,300,20","2"
"26828","","survey-text","139","990984","0.0-137.0-0.0","A39STYGRHAZ2WL","","","","{""Q0"":""Not a fan of mixed media in this piece.""}","","","","","","","","","","","","","","","","","","","","","","",""
"2662.4000000953674","","image-slider-response","140","993648","0.0-138.0","A39STYGRHAZ2WL","","","","","-35","","","","","","","","","","","","","","","","","","","","","",""
"null","","image-button-response","141","998664","0.0-139.0","A39STYGRHAZ2WL","img_art/29.jpg","null","","","","","","","","","","","","","","","","","","","","","","","","",""
"388","","image-button-response","142","999056","0.0-140.0","A39STYGRHAZ2WL","img_art/29.jpg","2","","","","","","","","","","","","","","","","","","","","","","","","",""
"6671","","image-button-response","143","1005729","0.0-141.0-0.0","A39STYGRHAZ2WL","img_art/29.jpg","3","","","","","","","","","","","","","","","","","","","","","","","","",""
"8735","","image-button-response","144","1014466","0.0-142.0-0.0","A39STYGRHAZ2WL","img_art/29.jpg","4","","","","","","","","","","","","","","","","","","","","","","","","",""
"null","","html-keyboard-response","145","1015483","0.0-143.0","A39STYGRHAZ2WL","<p style=""font-size: 48px;"">+</p>","","","","","null","allTrialResponses","1000","1","14","img_art/29.jpg","-35","Not a fan of mixed media in this piece.","Mikayla,Allison,Rachel,Erin,Cassandra,Amanda","Its kinda scary,-35,300,20","Flash is too strong. Dislike the colors,-5,140,20","It looks like someone did not like their art and drew an x over it.,-32,80,20","Red X is scary, like the bricks,7,120,20","Neural...just a blackboard jungle.,3,120,20","Once again, very modern, activists will love,27,180,20","Rachel","It looks like someone did not like their art and drew an x over it.,-32,80,20","Erin","Red X is scary, like the bricks,7,120,20","Cassandra","Neural...just a blackboard jungle.,3,120,20","2"
"25781","","survey-text","146","1041285","0.0-144.0-0.0","A39STYGRHAZ2WL","","","","{""Q0"":""I like the waterfall on the top half.""}","","","","","","","","","","","","","","","","","","","","","","",""
"4087.2000000476837","","image-slider-response","147","1045374","0.0-145.0","A39STYGRHAZ2WL","","","","","7","","","","","","","","","","","","","","","","","","","","","",""
"null","","image-button-response","148","1050381","0.0-146.0","A39STYGRHAZ2WL","img_art/24.jpg","null","","","","","","","","","","","","","","","","","","","","","","","","",""
"2001","","image-button-response","149","1052382","0.0-147.0","A39STYGRHAZ2WL","img_art/24.jpg","2","","","","","","","","","","","","","","","","","","","","","","","","",""
"1352","","image-button-response","150","1053736","0.0-148.0-0.0","A39STYGRHAZ2WL","img_art/24.jpg","5","","","","","","","","","","","","","","","","","","","","","","","","",""
"2295","","image-button-response","151","1056033","0.0-149.0-0.0","A39STYGRHAZ2WL","img_art/24.jpg","4","","","","","","","","","","","","","","","","","","","","","","","","",""
"null","","html-keyboard-response","152","1057050","0.0-150.0","A39STYGRHAZ2WL","<p style=""font-size: 48px;"">+</p>","","","","","null","allTrialResponses","1000","1","15","img_art/24.jpg","7","I like the waterfall on the top half.","Sophia,Victoria,Rachel,Erin,Cassandra,Jenna","Hmm. Don't know what to make of this one.,1,280,20","very peaceful and serene,47,400,20","Looks like a beautiful stream rolling through terrain of rocks and flowers.,43,80,20","Too literal, not abstract,-29,120,20","I like it...looks like a waterfall.,11,120,20","colors are a bit cramped together. really unique take on a waterfall though.,32,360,20","Rachel","Looks like a beautiful stream rolling through terrain of rocks and flowers.,43,80,20","Jenna","colors are a bit cramped together. really unique take on a waterfall though.,32,360,20","Cassandra","I like it...looks like a waterfall.,11,120,20","2"
"4828","","survey-text","153","1061904","0.0-151.0-0.0","A39STYGRHAZ2WL","","","","{""Q0"":""course""}","","","","","","","","","","","","","","","","","","","","","","",""
"14379","","survey-text","154","1076284","0.0-152.0-0.0","A39STYGRHAZ2WL","","","","{""Q0"":""It looks like the beach.""}","","","","","","","","","","","","","","","","","","","","","","",""
"2925.7999999523163","","image-slider-response","155","1079212","0.0-153.0","A39STYGRHAZ2WL","","","","","-29","","","","","","","","","","","","","","","","","","","","","",""
"3815","","image-button-response","156","1084223","0.0-154.0","A39STYGRHAZ2WL","img_art/7.jpg","0","","","","","","","","","","","","","","","","","","","","","","","","",""
"3090","","image-button-response","157","1087318","0.0-155.0","A39STYGRHAZ2WL","img_art/7.jpg","2","","","","","","","","","","","","","","","","","","","","","","","","",""
"798","","image-button-response","158","1088117","0.0-156.0-0.0","A39STYGRHAZ2WL","img_art/7.jpg","0","","","","","","","","","","","","","","","","","","","","","","","","",""
"3679","","image-button-response","159","1091799","0.0-157.0-0.0","A39STYGRHAZ2WL","img_art/7.jpg","4","","","","","","","","","","","","","","","","","","","","","","","","",""
"null","","html-keyboard-response","160","1092301","0.0-158.0","A39STYGRHAZ2WL","<p style=""font-size: 48px;"">+</p>","","","","","null","allTrialResponses","500","1","16","img_art/7.jpg","-29","It looks like the beach.","Catherine,Amy,Rachel,Jessica,Cassandra,Jenna","Looking through a microscope at the ground at a beach.,20,160,20","Limited emotional reaction for me. No focus and highly abstract,-20,220,20","Looks like a desert or another planet. While the color choices are narrow, it's still interesting because it is very natural.,12,80,20","Looks like a natural texture, reminds me of rocks.,0,400,20","Just neutral...looks like sand at the beach.,3,120,20","reminds me of a desert from far above,23,360,20","Rachel","Looks like a desert or another planet. While the color choices are narrow, it's still interesting because it is very natural.,12,80,20","Catherine","Looking through a microscope at the ground at a beach.,20,160,20","Cassandra","Just neutral...looks like sand at the beach.,3,120,20","2"
"19182","","survey-text","161","1111489","0.0-159.0-0.0","A39STYGRHAZ2WL","","","","{""Q0"":""I am drawn to the dots on the right side.""}","","","","","","","","","","","","","","","","","","","","","","",""
"2358.2999999523163","","image-slider-response","162","1113849","0.0-160.0","A39STYGRHAZ2WL","","","","","15","","","","","","","","","","","","","","","","","","","","","",""
"null","","image-button-response","163","1118863","0.0-161.0","A39STYGRHAZ2WL","img_art/21.jpg","null","","","","","","","","","","","","","","","","","","","","","","","","",""
"5545","","image-button-response","164","1124410","0.0-162.0","A39STYGRHAZ2WL","img_art/21.jpg","4","","","","","","","","","","","","","","","","","","","","","","","","",""
"1093","","image-button-response","165","1125506","0.0-163.0-0.0","A39STYGRHAZ2WL","img_art/21.jpg","5","","","","","","","","","","","","","","","","","","","","","","","","",""
"4398","","image-button-response","166","1129907","0.0-164.0-0.0","A39STYGRHAZ2WL","img_art/21.jpg","2","","","","","","","","","","","","","","","","","","","","","","","","",""
"null","","html-keyboard-response","167","1130921","0.0-165.0","A39STYGRHAZ2WL","<p style=""font-size: 48px;"">+</p>","","","","","null","allTrialResponses","1000","1","17","img_art/21.jpg","15","I am drawn to the dots on the right side.","Catherine,Julia,Rachel,Cheyenne,Cassandra,Alexandra","Nature, water, ever changing. Cold then warm. Reaction is mostly positive and some negative,30,160,20","there's not enough fine detail in this one,-27,40,20","Looks like a body of water during a sunset. I like this piece.,21,80,20","Don't see anything special about it,-21,200,20","I liked it...it looked like a storm raging.,12,120,20","This one is nice, it reminds me of the sky,42,60,20","Cassandra","I liked it...it looked like a storm raging.,12,120,20","Alexandra","This one is nice, it reminds me of the sky,42,60,20","Rachel","Looks like a body of water during a sunset. I like this piece.,21,80,20","2"
"30501","","survey-text","168","1161443","0.0-166.0-0.0","A39STYGRHAZ2WL","","","","{""Q0"":""I see musicians and dancers among a colorful background.""}","","","","","","","","","","","","","","","","","","","","","","",""
"2950.2000000476837","","image-slider-response","169","1164395","0.0-167.0","A39STYGRHAZ2WL","","","","","33","","","","","","","","","","","","","","","","","","","","","",""
"null","","image-button-response","170","1169407","0.0-168.0","A39STYGRHAZ2WL","img_art/23.jpg","null","","","","","","","","","","","","","","","","","","","","","","","","",""
"818","","image-button-response","171","1170228","0.0-169.0","A39STYGRHAZ2WL","img_art/23.jpg","2","","","","","","","","","","","","","","","","","","","","","","","","",""
"3783","","image-button-response","172","1174013","0.0-170.0-0.0","A39STYGRHAZ2WL","img_art/23.jpg","3","","","","","","","","","","","","","","","","","","","","","","","","",""
"1773","","image-button-response","173","1175788","0.0-171.0-0.0","A39STYGRHAZ2WL","img_art/23.jpg","5","","","","","","","","","","","","","","","","","","","","","","","","",""
"null","","html-keyboard-response","174","1176794","0.0-172.0","A39STYGRHAZ2WL","<p style=""font-size: 48px;"">+</p>","","","","","null","allTrialResponses","1000","1","18","img_art/23.jpg","33","I see musicians and dancers among a colorful background.","Bailey,Megan,Rachel,Tiffany,Cassandra,Alexandra","Not a fan of these dot pieces. They hurt my eyes.,-25,360,20","Too busy with color with warrior lineup,0,200,20","Vivid colors and the white in the middle looks like people dancing.,31,80,20","I feel happy and a little excited. Like watching fireworks with family.,26,360,20","I had a very neutral feeling to this,no feelings at all.,1,120,20","This is my favorite of them all. I love the colors.,41,60,20","Rachel","Vivid colors and the white in the middle looks like people dancing.,31,80,20","Tiffany","I feel happy and a little excited. Like watching fireworks with family.,26,360,20","Alexandra","This is my favorite of them all. I love the colors.,41,60,20","2"
"14568","","survey-text","175","1191368","0.0-173.0-0.0","A39STYGRHAZ2WL","","","","{""Q0"":""This is not unique.""}","","","","","","","","","","","","","","","","","","","","","","",""
"3902","","image-slider-response","176","1195272","0.0-174.0","A39STYGRHAZ2WL","","","","","-27","","","","","","","","","","","","","","","","","","","","","",""
"2550","","image-button-response","177","1200276","0.0-175.0","A39STYGRHAZ2WL","img_art/22.jpg","1","","","","","","","","","","","","","","","","","","","","","","","","",""
"3419","","image-button-response","178","1203698","0.0-176.0","A39STYGRHAZ2WL","img_art/22.jpg","1","","","","","","","","","","","","","","","","","","","","","","","","",""
"6246","","image-button-response","179","1209946","0.0-177.0-0.0","A39STYGRHAZ2WL","img_art/22.jpg","0","","","","","","","","","","","","","","","","","","","","","","","","",""
"1174","","image-button-response","180","1211122","0.0-178.0-0.0","A39STYGRHAZ2WL","img_art/22.jpg","5","","","","","","","","","","","","","","","","","","","","","","","","",""
"null","","html-keyboard-response","181","1212140","0.0-179.0","A39STYGRHAZ2WL","<p style=""font-size: 48px;"">+</p>","","","","","null","allTrialResponses","1000","1","19","img_art/22.jpg","-27","This is not unique.","Amber,Autumn,Rachel,Tiffany,Haley,Alexandra","Colors are bright and cheerful.,5,200,20","Same az the last one?,-49,340,20","I like the vivid colors.,11,80,20","The painting makes me feel a little sad.,12,360,20","Beautiful. I love the color contrast and gradients.,50,220,20","The colors in this picture are nice.,32,60,20","Autumn","Same az the last one?,-49,340,20","Amber","Colors are bright and cheerful.,5,200,20","Alexandra","The colors in this picture are nice.,32,60,20","2"
"36272","","survey-text","182","1248428","0.0-180.0-0.0","A39STYGRHAZ2WL","","","","{""Q0"":""Interesting to try and figure out the artists message.""}","","","","","","","","","","","","","","","","","","","","","","",""
"4843.299999952316","","image-slider-response","183","1253274","0.0-181.0","A39STYGRHAZ2WL","","","","","1","","","","","","","","","","","","","","","","","","","","","",""
"null","","image-button-response","184","1258288","0.0-182.0","A39STYGRHAZ2WL","img_art/16.jpg","null","","","","","","","","","","","","","","","","","","","","","","","","",""
"374","","image-button-response","185","1258667","0.0-183.0","A39STYGRHAZ2WL","img_art/16.jpg","4","","","","","","","","","","","","","","","","","","","","","","","","",""
"1182","","image-button-response","186","1259851","0.0-184.0-0.0","A39STYGRHAZ2WL","img_art/16.jpg","5","","","","","","","","","","","","","","","","","","","","","","","","",""
"5398","","image-button-response","187","1265251","0.0-185.0-0.0","A39STYGRHAZ2WL","img_art/16.jpg","3","","","","","","","","","","","","","","","","","","","","","","","","",""
"null","","html-keyboard-response","188","1266765","0.0-186.0","A39STYGRHAZ2WL","<p style=""font-size: 48px;"">+</p>","","","","","null","allTrialResponses","1500","1","20","img_art/16.jpg","1","Interesting to try and figure out the artists message.","Amber,Autumn,Taylor,Katelyn,Elizabeth,Alexandra","Don't like the teddy bear. It takes away from the painting.,-39,200,20","Very cool abstraction.,19,340,20","It just makes me feel uncomfortable,-25,340,20","I dont feel any real response,5,100,20","Picture seems unique,12,20,20","This is weird and creepy.,-40,60,20","Elizabeth","Picture seems unique,12,20,20","Alexandra","This is weird and creepy.,-40,60,20","Katelyn","I dont feel any real response,5,100,20","2"
"2715","","survey-text","189","1269523","0.0-187.0-0.0","A39STYGRHAZ2WL","","","","{""Q0"":""we""}","","","","","","","","","","","","","","","","","","","","","","",""
"19318","","survey-text","190","1288843","0.0-188.0-0.0","A39STYGRHAZ2WL","","","","{""Q0"":""I like the contrast.""}","","","","","","","","","","","","","","","","","","","","","","",""
"2799","","image-slider-response","191","1291644","0.0-189.0","A39STYGRHAZ2WL","","","","","3","","","","","","","","","","","","","","","","","","","","","",""
"null","","image-button-response","192","1296655","0.0-190.0","A39STYGRHAZ2WL","img_art/10.jpg","null","","","","","","","","","","","","","","","","","","","","","","","","",""
"2471","","image-button-response","193","1299127","0.0-191.0","A39STYGRHAZ2WL","img_art/10.jpg","1","","","","","","","","","","","","","","","","","","","","","","","","",""
"3132","","image-button-response","194","1302261","0.0-192.0-0.0","A39STYGRHAZ2WL","img_art/10.jpg","4","","","","","","","","","","","","","","","","","","","","","","","","",""
"1142","","image-button-response","195","1303405","0.0-193.0-0.0","A39STYGRHAZ2WL","img_art/10.jpg","5","","","","","","","","","","","","","","","","","","","","","","","","",""
"null","","html-keyboard-response","196","1304917","0.0-194.0","A39STYGRHAZ2WL","<p style=""font-size: 48px;"">+</p>","","","","","null","allTrialResponses","1500","1","21","img_art/10.jpg","3","I like the contrast.","Gabriela,Olivia,Lauren,Katelyn,Elizabeth,Alexandra","It looks like a sea monster overtaking a ship,21,140,20","feeling the turmoil and ride,12,40,20","I can't really tell what this is suppose to represent, but overall I don't like the design.,-20,340,20","It makes me think of music and i love the reflective aspect,29,100,20","Has an air of mystery around it,39,20,20","The longer I looked at this, the more I liked it,33,60,20","Olivia","feeling the turmoil and ride,12,40,20","Elizabeth","Has an air of mystery around it,39,20,20","Alexandra","The longer I looked at this, the more I liked it,33,60,20","2"
"26498","","survey-text","197","1331434","0.0-195.0-0.0","A39STYGRHAZ2WL","","","","{""Q0"":""I like the use of light.""}","","","","","","","","","","","","","","","","","","","","","","",""
"5029.5","","image-slider-response","198","1336465","0.0-196.0","A39STYGRHAZ2WL","","","","","4","","","","","","","","","","","","","","","","","","","","","",""
"null","","image-button-response","199","1341469","0.0-197.0","A39STYGRHAZ2WL","img_art/14.jpg","null","","","","","","","","","","","","","","","","","","","","","","","","",""
"1088","","image-button-response","200","1342563","0.0-198.0","A39STYGRHAZ2WL","img_art/14.jpg","4","","","","","","","","","","","","","","","","","","","","","","","","",""
"854","","image-button-response","201","1343419","0.0-199.0-0.0","A39STYGRHAZ2WL","img_art/14.jpg","5","","","","","","","","","","","","","","","","","","","","","","","","",""
"4327","","image-button-response","202","1347748","0.0-200.0-0.0","A39STYGRHAZ2WL","img_art/14.jpg","1","","","","","","","","","","","","","","","","","","","","","","","","",""
"null","","html-keyboard-response","203","1348249","0.0-201.0","A39STYGRHAZ2WL","<p style=""font-size: 48px;"">+</p>","","","","","null","allTrialResponses","500","1","22","img_art/14.jpg","4","I like the use of light.","Nicole,Olivia,Katherine,Alicia,Elizabeth,Alexandra","This reminds me of the Lion King somehow! Feels inspiring,30,20,20","tree of life brings hope,7,40,20","I don't like the color red,30,120,20","ok, gloomy though.,12,120,20","Love the abstractness of this painting,39,20,20","Pretty, dainty, unique,22,60,20","Elizabeth","Love the abstractness of this painting,39,20,20","Alexandra","Pretty, dainty, unique,22,60,20","Olivia","tree of life brings hope,7,40,20","2"
"17982","","survey-text","204","1366237","0.0-202.0-0.0","A39STYGRHAZ2WL","","","","{""Q0"":""Simple but interesting""}","","","","","","","","","","","","","","","","","","","","","","",""
"4645.800000190735","","image-slider-response","205","1370885","0.0-203.0","A39STYGRHAZ2WL","","","","","11","","","","","","","","","","","","","","","","","","","","","",""
"null","","image-button-response","206","1375890","0.0-204.0","A39STYGRHAZ2WL","img_art/6.jpg","null","","","","","","","","","","","","","","","","","","","","","","","","",""
"1834","","image-button-response","207","1377727","0.0-205.0","A39STYGRHAZ2WL","img_art/6.jpg","5","","","","","","","","","","","","","","","","","","","","","","","","",""
"990","","image-button-response","208","1378718","0.0-206.0-0.0","A39STYGRHAZ2WL","img_art/6.jpg","4","","","","","","","","","","","","","","","","","","","","","","","","",""
"3215","","image-button-response","209","1381935","0.0-207.0-0.0","A39STYGRHAZ2WL","img_art/6.jpg","1","","","","","","","","","","","","","","","","","","","","","","","","",""
"null","","html-keyboard-response","210","1382437","0.0-208.0","A39STYGRHAZ2WL","<p style=""font-size: 48px;"">+</p>","","","","","null","allTrialResponses","500","1","23","img_art/6.jpg","11","Simple but interesting","Angelica,Olivia,Marissa,Andrea,Elizabeth,Alexandra","It feels sad but it's nice to look at.,4,280,20","surviving the dryness of life,30,40,20","I am intrigued but unsure whether I enjoy this or not,6,160,20","So forlorn, and beauty amid desolation.,25,240,20","Love the simplicity of it,41,20,20","this is interesting and unique,11,60,20","Alexandra","this is interesting and unique,11,60,20","Elizabeth","Love the simplicity of it,41,20,20","Olivia","surviving the dryness of life,30,40,20","2"
"17537","","survey-text","211","1399981","0.0-209.0-0.0","A39STYGRHAZ2WL","","","","{""Q0"":""Not a fan ""}","","","","","","","","","","","","","","","","","","","","","","",""
"5317.699999809265","","image-slider-response","212","1405301","0.0-210.0","A39STYGRHAZ2WL","","","","","-36","","","","","","","","","","","","","","","","","","","","","",""
"2110","","image-button-response","213","1410304","0.0-211.0","A39STYGRHAZ2WL","img_art/5.jpg","0","","","","","","","","","","","","","","","","","","","","","","","","",""
"844","","image-button-response","214","1411150","0.0-212.0","A39STYGRHAZ2WL","img_art/5.jpg","2","","","","","","","","","","","","","","","","","","","","","","","","",""
"830","","image-button-response","215","1411982","0.0-213.0-0.0","A39STYGRHAZ2WL","img_art/5.jpg","0","","","","","","","","","","","","","","","","","","","","","","","","",""
"5351","","image-button-response","216","1417335","0.0-214.0-0.0","A39STYGRHAZ2WL","img_art/5.jpg","3","","","","","","","","","","","","","","","","","","","","","","","","",""
"null","","html-keyboard-response","217","1418350","0.0-215.0","A39STYGRHAZ2WL","<p style=""font-size: 48px;"">+</p>","","","","","null","allTrialResponses","1000","1","24","img_art/5.jpg","-36","Not a fan ","Sarah,Olivia,Michelle,Grace,Elizabeth,Alexandra","looks very childish,-35,180,20","a brush in time,-14,40,20","What is this? It looks like no effort was put into this work,-2,280,20","Looks like a yellow plastic trash bag.,-42,180,20","Perfect for art exhibition,39,20,20","This looks like a twelve year old did it,-40,60,20","Michelle","What is this? It looks like no effort was put into this work,-2,280,20","Sarah","looks very childish,-35,180,20","Grace","Looks like a yellow plastic trash bag.,-42,180,20","2"
"19903","","survey-text","218","1438264","0.0-216.0-0.0","A39STYGRHAZ2WL","","","","{""Q0"":""It looks like one of those people with really long nails.""}","","","","","","","","","","","","","","","","","","","","","","",""
"6471.399999856949","","image-slider-response","219","1444738","0.0-217.0","A39STYGRHAZ2WL","","","","","-35","","","","","","","","","","","","","","","","","","","","","",""
"4366","","image-button-response","220","1449756","0.0-218.0","A39STYGRHAZ2WL","img_art/4.jpg","1","","","","","","","","","","","","","","","","","","","","","","","","",""
"4161","","image-button-response","221","1453923","0.0-219.0","A39STYGRHAZ2WL","img_art/4.jpg","1","","","","","","","","","","","","","","","","","","","","","","","","",""
"5399","","image-button-response","222","1459324","0.0-220.0-0.0","A39STYGRHAZ2WL","img_art/4.jpg","3","","","","","","","","","","","","","","","","","","","","","","","","",""
"1454","","image-button-response","223","1460780","0.0-221.0-0.0","A39STYGRHAZ2WL","img_art/4.jpg","4","","","","","","","","","","","","","","","","","","","","","","","","",""
"null","","html-keyboard-response","224","1461781","0.0-222.0","A39STYGRHAZ2WL","<p style=""font-size: 48px;"">+</p>","","","","","null","allTrialResponses","1000","1","25","img_art/4.jpg","-35","It looks like one of those people with really long nails.","Sarah,Ashley,Michelle,Grace,Kaylee,Makayla","too many red/yellow shades, its impact without a reason,-27,180,20","It looks like a hand.,25,320,20","Looks like more paint smearing but at least there is structure,-5,280,20","McDonald's golden arches on steroids.,-20,180,20","just a scuffed hand,-15,200,20","Looks like poop on walks,-27,80,20","Ashley","It looks like a hand.,25,320,20","Grace","McDonald's golden arches on steroids.,-20,180,20","Kaylee","just a scuffed hand,-15,200,20","2"
"4677","","survey-text","225","1466468","0.0-223.0-0.0","A39STYGRHAZ2WL","","","","{""Q0"":""table""}","","","","","","","","","","","","","","","","","","","","","","",""
"23732","","survey-text","226","1490202","0.0-224.0-0.0","A39STYGRHAZ2WL","","","","{""Q0"":""It looks like an abstract cityscape.""}","","","","","","","","","","","","","","","","","","","","","","",""
"3606.7000000476837","","image-slider-response","227","1493811","0.0-225.0","A39STYGRHAZ2WL","","","","","2","","","","","","","","","","","","","","","","","","","","","",""
"null","","image-button-response","228","1498822","0.0-226.0","A39STYGRHAZ2WL","img_art/19.jpg","null","","","","","","","","","","","","","","","","","","","","","","","","",""
"7035","","image-button-response","229","1505859","0.0-227.0","A39STYGRHAZ2WL","img_art/19.jpg","4","","","","","","","","","","","","","","","","","","","","","","","","",""
"2126","","image-button-response","230","1507987","0.0-228.0-0.0","A39STYGRHAZ2WL","img_art/19.jpg","3","","","","","","","","","","","","","","","","","","","","","","","","",""
"2468","","image-button-response","231","1510457","0.0-229.0-0.0","A39STYGRHAZ2WL","img_art/19.jpg","0","","","","","","","","","","","","","","","","","","","","","","","","",""
"null","","html-keyboard-response","232","1511468","0.0-230.0","A39STYGRHAZ2WL","<p style=""font-size: 48px;"">+</p>","","","","","null","allTrialResponses","1000","1","26","img_art/19.jpg","2","It looks like an abstract cityscape.","Crystal,Ashley,Briana,Grace,Kaylee,Madison","It is an interesting piece but there are too many muted tones,22,300,20","someone at the beach maybe?,27,320,20","Its simple and the colors i like. It reminds me of chagall,34,400,20","Looks like a child's rendering of a city street but not too sure.,0,180,20","beautiful old town,37,200,20","Seems unfinished and sloppy,-11,60,20","Kaylee","beautiful old town,37,200,20","Grace","Looks like a child's rendering of a city street but not too sure.,0,180,20","Crystal","It is an interesting piece but there are too many muted tones,22,300,20","2"
"11176","","survey-text","233","1522654","0.0-231.0-0.0","A39STYGRHAZ2WL","","","","{""Q0"":""I like the surprise of blue.""}","","","","","","","","","","","","","","","","","","","","","","",""
"4551.099999904633","","image-slider-response","234","1527207","0.0-232.0","A39STYGRHAZ2WL","","","","","31","","","","","","","","","","","","","","","","","","","","","",""
"null","","image-button-response","235","1532218","0.0-233.0","A39STYGRHAZ2WL","img_art/15.jpg","null","","","","","","","","","","","","","","","","","","","","","","","","",""
"958","","image-button-response","236","1533177","0.0-234.0","A39STYGRHAZ2WL","img_art/15.jpg","0","","","","","","","","","","","","","","","","","","","","","","","","",""
"2957","","image-button-response","237","1536136","0.0-235.0-0.0","A39STYGRHAZ2WL","img_art/15.jpg","5","","","","","","","","","","","","","","","","","","","","","","","","",""
"1510","","image-button-response","238","1537648","0.0-236.0-0.0","A39STYGRHAZ2WL","img_art/15.jpg","0","","","","","","","","","","","","","","","","","","","","","","","","",""
"2127","","image-button-response","239","1542336","0.0-236.1-0.1","A39STYGRHAZ2WL","img_art/15.jpg","4","","","","","","","","","","","","","","","","","","","","","","","","",""
"null","","html-keyboard-response","240","1543846","0.0-237.0","A39STYGRHAZ2WL","<p style=""font-size: 48px;"">+</p>","","","","","null","allTrialResponses","1500","1","27","img_art/15.jpg","31","I like the surprise of blue.","Crystal,Kaitlin,Madeline,Grace,Kaylee,Savannah","The blotted black spots create a nice contrast between the brush strokes within the center and sides. I like it.,41,300,20","This one seems a bit frightening,-19,60,20","Simple but needs some more detail somehow,-3,40,20","Interesting. Reminds me of a biopsy slide.,21,180,20","some trees in the forest,15,200,20","Love the accent colors in this piece!,20,200,20","Crystal","The blotted black spots create a nice contrast between the brush strokes within the center and sides. I like it.,41,300,20","Savannah","Love the accent colors in this piece!,20,200,20","Kaylee","some trees in the forest,15,200,20","4"
"12004","","survey-text","241","1555875","0.0-238.0-0.0","A39STYGRHAZ2WL","","","","{""Q0"":""I like this color combination.""}","","","","","","","","","","","","","","","","","","","","","","",""
"4478.5","","image-slider-response","242","1560355","0.0-239.0","A39STYGRHAZ2WL","","","","","21","","","","","","","","","","","","","","","","","","","","","",""
"null","","image-button-response","243","1565359","0.0-240.0","A39STYGRHAZ2WL","img_art/2.jpg","null","","","","","","","","","","","","","","","","","","","","","","","","",""
"1382","","image-button-response","244","1566742","0.0-241.0","A39STYGRHAZ2WL","img_art/2.jpg","1","","","","","","","","","","","","","","","","","","","","","","","","",""
"1765","","image-button-response","245","1568509","0.0-242.0-0.0","A39STYGRHAZ2WL","img_art/2.jpg","2","","","","","","","","","","","","","","","","","","","","","","","","",""
"5310","","image-button-response","246","1573821","0.0-243.0-0.0","A39STYGRHAZ2WL","img_art/2.jpg","0","","","","","","","","","","","","","","","","","","","","","","","","",""
"null","","html-keyboard-response","247","1575337","0.0-244.0","A39STYGRHAZ2WL","<p style=""font-size: 48px;"">+</p>","","","","","null","allTrialResponses","1500","1","28","img_art/2.jpg","21","I like this color combination.","Crystal,Mariah,Sydney,Meghan,Kaylee,Savannah","Looks contrived and like someone tried to hard to make it abstract,-31,300,20","The colors are soothing, but the composition feels thoughtless.,-11,140,20","I like the color, but I feel like I see a creepy face which I dislike.,-5,320,20","looks like a child's artwork,-40,220,20","its ugly af to be honest,-50,200,20","Very gross colors. What were they thinking?,-47,200,20","Mariah","The colors are soothing, but the composition feels thoughtless.,-11,140,20","Sydney","I like the color, but I feel like I see a creepy face which I dislike.,-5,320,20","Crystal","Looks contrived and like someone tried to hard to make it abstract,-31,300,20","4"
"25853","","survey-text","248","1601213","0.0-245.0-0.0","A39STYGRHAZ2WL","","","","{""Q0"":""I don't like the use of brushstrokes.""}","","","","","","","","","","","","","","","","","","","","","","",""
"5022.599999904633","","image-slider-response","249","1606237","0.0-246.0","A39STYGRHAZ2WL","","","","","-15","","","","","","","","","","","","","","","","","","","","","",""
"null","","image-button-response","250","1611241","0.0-247.0","A39STYGRHAZ2WL","img_art/30.jpg","null","","","","","","","","","","","","","","","","","","","","","","","","",""
"7736","","image-button-response","251","1618982","0.0-248.0","A39STYGRHAZ2WL","img_art/30.jpg","1","","","","","","","","","","","","","","","","","","","","","","","","",""
"1150","","image-button-response","252","1620135","0.0-249.0-0.0","A39STYGRHAZ2WL","img_art/30.jpg","0","","","","","","","","","","","","","","","","","","","","","","","","",""
"1637","","image-button-response","253","1621774","0.0-250.0-0.0","A39STYGRHAZ2WL","img_art/30.jpg","0","","","","","","","","","","","","","","","","","","","","","","","","",""
"4167","","image-button-response","254","1628519","0.0-250.1-0.1","A39STYGRHAZ2WL","img_art/30.jpg","4","","","","","","","","","","","","","","","","","","","","","","","","",""
"null","","html-keyboard-response","255","1629022","0.0-251.0","A39STYGRHAZ2WL","<p style=""font-size: 48px;"">+</p>","","","","","null","allTrialResponses","500","1","29","img_art/30.jpg","-15","I don't like the use of brushstrokes.","Crystal,Mariah,Sydney,Mackenzie,Brianna,Caroline","An interesting design but don't like the colors. I value the time and effort put into it, but not a huge fan.,10,300,20","It just feels hasty and not well composed. Has an angsty teen feel,-31,140,20","I love the colors, the style, and the uniqueness in this piece. I love everything.,50,320,20","I like the forefront design.,10,20,20","I like the fact that it's a painting.,21,20,20","Fear. It looks like snakes in the picture,13,100,20","Mariah","It just feels hasty and not well composed. Has an angsty teen feel,-31,140,20","Crystal","An interesting design but don't like the colors. I value the time and effort put into it, but not a huge fan.,10,300,20","Brianna","I like the fact that it's a painting.,21,20,20","6"
"12972","","survey-text","256","1642001","0.0-252.0-0.0","A39STYGRHAZ2WL","","","","{""Q0"":""Simple watercolor""}","","","","","","","","","","","","","","","","","","","","","","",""
"3367","","image-slider-response","257","1645370","0.0-253.0","A39STYGRHAZ2WL","","","","","-2","","","","","","","","","","","","","","","","","","","","","",""
"null","","image-button-response","258","1650388","0.0-254.0","A39STYGRHAZ2WL","img_art/26.jpg","null","","","","","","","","","","","","","","","","","","","","","","","","",""
"1011","","image-button-response","259","1651403","0.0-255.0","A39STYGRHAZ2WL","img_art/26.jpg","1","","","","","","","","","","","","","","","","","","","","","","","","",""
"1175","","image-button-response","260","1652579","0.0-256.0-0.0","A39STYGRHAZ2WL","img_art/26.jpg","4","","","","","","","","","","","","","","","","","","","","","","","","",""
"7085","","image-button-response","261","1659667","0.0-257.0-0.0","A39STYGRHAZ2WL","img_art/26.jpg","2","","","","","","","","","","","","","","","","","","","","","","","","",""
"null","","html-keyboard-response","262","1661169","0.0-258.0","A39STYGRHAZ2WL","<p style=""font-size: 48px;"">+</p>","","","","","null","allTrialResponses","1500","1","30","img_art/26.jpg","-2","Simple watercolor","Crystal,Mariah,Dominique,Destiny,Brianna,Chloe","Do not like water colors at all,-50,300,20","Pleasant but bland.,10,140,20","Small town and home feel on A nice day.,28,400,20","I really love pastels and they're just being dimmed down too much here,-3,360,20","This picture is ok; just a normal city,11,20,20","Not great use of space and brush strokes seem indistinct/accidental,-30,220,20","Mariah","Pleasant but bland.,10,140,20","Brianna","This picture is ok; just a normal city,11,20,20","Dominique","Small town and home feel on A nice day.,28,400,20","6"
"3413","","image-button-response_instructions","263","1664620","0.0-259.0","A39STYGRHAZ2WL","","0","instructions","","","","","","","","","","","","","","","","","","","","","","","",""
"1755","","image-button-response","264","1666382","0.0-260.0","A39STYGRHAZ2WL","","0","","","","","","","","","","","","","","","","","","","","","","","","",""
