"rt","url","trial_type","trial_index","time_elapsed","internal_node_id","participant_id","stimulus","button_pressed","Name","responses","response","key_press","variableName","fixationTime","condition","trial","photo","subjectRating","subjectResponse","agentsNames","agent_1_Response","agent_2_Response","agent_3_Response","agent_4_Response","agent_5_Response","agent_6_Response","kept_1_name","kept_1_response","kept_2_name","kept_2_response","kept_3_name","kept_3_response","errorCounter"
"613725","external_page_harvard.html","external-html","0","613833","0.0-0.0","A39UNTUXW8XO8T","","","","","","","","","","","","","","","","","","","","","","","","","","",""
"1277","","image-button-response","1","615112","0.0-1.0","A39UNTUXW8XO8T","","0","","","","","","","","","","","","","","","","","","","","","","","","",""
"1552","","image-button-response","2","616668","0.0-2.0-0.0","A39UNTUXW8XO8T","","1","phone","","","","","","","","","","","","","","","","","","","","","","","",""
"5897","","survey-text","3","622566","0.0-3.0-0.0","A39UNTUXW8XO8T","","","","{""Q0"":""A39UNTUXW8XO8T""}","","","","","","","","","","","","","","","","","","","","","","",""
"15926","","image-button-response_instructions","4","638494","0.0-4.0","A39UNTUXW8XO8T","","0","instructions","","","","","","","","","","","","","","","","","","","","","","","",""
"9593","","image-button-response_instructions","5","648088","0.0-5.0","A39UNTUXW8XO8T","img_art/ins/popularity/ins1.png","0","instructions","","","","","","","","","","","","","","","","","","","","","","","",""
"6444","","image-button-response_instructions","6","654533","0.0-6.0","A39UNTUXW8XO8T","img_art/ins/popularity/ins2.png","0","instructions","","","","","","","","","","","","","","","","","","","","","","","",""
"3053","","image-button-response_instructions","7","657587","0.0-7.0","A39UNTUXW8XO8T","img_art/ins/popularity/ins2Extreme.png","0","instructions","","","","","","","","","","","","","","","","","","","","","","","",""
"4467","","image-button-response_instructions","8","662054","0.0-8.0","A39UNTUXW8XO8T","img_art/ins/popularity/ins3KEEPpop.PNG","0","instructions","","","","","","","","","","","","","","","","","","","","","","","",""
"3649","","image-button-response_instructions","9","665704","0.0-9.0","A39UNTUXW8XO8T","img_art/ins/popularity/ins3ANamepop.PNG","0","instructions","","","","","","","","","","","","","","","","","","","","","","","",""
"2429","","image-button-response_instructions","10","668134","0.0-10.0","A39UNTUXW8XO8T","img_art/ins/popularity/ins3ARatingpop.png","0","instructions","","","","","","","","","","","","","","","","","","","","","","","",""
"2779","","image-button-response_instructions","11","670915","0.0-11.0","A39UNTUXW8XO8T","img_art/ins/popularity/ins3ATextpop.png","0","instructions","","","","","","","","","","","","","","","","","","","","","","","",""
"3148","","image-button-response_instructions","12","674063","0.0-12.0","A39UNTUXW8XO8T","img_art/ins/popularity/ins3ALikespop.png","0","instructions","","","","","","","","","","","","","","","","","","","","","","","",""
"4928","","image-button-response_instructions","13","678993","0.0-13.0","A39UNTUXW8XO8T","img_art/ins/popularity/ins3KEEPpop.PNG","0","instructions","","","","","","","","","","","","","","","","","","","","","","","",""
"4007","","image-button-response_instructions","14","683000","0.0-14.0","A39UNTUXW8XO8T","img_art/ins/popularity/ins3_5RED.png","0","instructions","","","","","","","","","","","","","","","","","","","","","","","",""
"2185","","image-button-response_instructions","15","685187","0.0-15.0","A39UNTUXW8XO8T","img_art/ins/popularity/ins3KEEPpop.PNG","0","instructions","","","","","","","","","","","","","","","","","","","","","","","",""
"5795","","image-button-response_instructions","16","690982","0.0-16.0","A39UNTUXW8XO8T","img_art/ins/popularity/ins4KEEPpop.PNG","0","instructions","","","","","","","","","","","","","","","","","","","","","","","",""
"2859","","image-button-response_instructions","17","693842","0.0-17.0","A39UNTUXW8XO8T","img_art/ins/popularity/ins5KEEPpop.PNG","0","instructions","","","","","","","","","","","","","","","","","","","","","","","",""
"1305","","image-button-response_instructions","18","695149","0.0-18.0","A39UNTUXW8XO8T","","0","instructions","","","","","","","","","","","","","","","","","","","","","","","",""
"5167","","survey-text","19","700334","0.0-19.0-0.0","A39UNTUXW8XO8T","","","","{""Q0"":""but""}","","","","","","","","","","","","","","","","","","","","","","",""
"11721","","survey-text","20","712056","0.0-20.0-0.0","A39UNTUXW8XO8T","","","","{""Q0"":""nice colors, sunset like""}","","","","","","","","","","","","","","","","","","","","","","",""
"2169.2999999970198","","image-slider-response","21","714227","0.0-21.0","A39UNTUXW8XO8T","","","","","13","","","","","","","","","","","","","","","","","","","","","",""
"null","","image-button-response","22","719230","0.0-22.0","A39UNTUXW8XO8T","img_art/ins/1.jpg","null","","","","","","","","","","","","","","","","","","","","","","","","",""
"2089","","image-button-response","23","721321","0.0-23.0","A39UNTUXW8XO8T","img_art/ins/1.jpg","3","","","","","","","","","","","","","","","","","","","","","","","","",""
"4851","","image-button-response","24","726173","0.0-24.0-0.0","A39UNTUXW8XO8T","img_art/ins/1.jpg","1","","","","","","","","","","","","","","","","","","","","","","","","",""
"585","","image-button-response","25","726759","0.0-25.0-0.0","A39UNTUXW8XO8T","img_art/ins/1.jpg","5","","","","","","","","","","","","","","","","","","","","","","","","",""
"null","","html-keyboard-response","26","727762","0.0-26.0","A39UNTUXW8XO8T","<p style=""font-size: 48px;"">+</p>","","","","","null","allTrialResponses","1000","1","-2","img_art/ins/1.jpg","13","nice colors, sunset like","Adam,Alex,Ben,Carl,Daniel,Jack","Seems like doodles,-20,20,20","very creative work.,36,40,20","This color reminds me of poo,-46,60,20","very calming artwork,42,80,20","It looks like a murder scene.,-48,100,20","I like the sophisticated brushwork,40,120,20","Carl","very calming artwork,42,80,20","Alex","very creative work.,36,40,20","Jack","I like the sophisticated brushwork,40,120,20","0"
"10227","","survey-text","27","737993","0.0-27.0-0.0","A39UNTUXW8XO8T","","","","{""Q0"":""heavy brush strokes and bold colors!""}","","","","","","","","","","","","","","","","","","","","","","",""
"2622.6000000089407","","image-slider-response","28","740616","0.0-28.0","A39UNTUXW8XO8T","","","","","30","","","","","","","","","","","","","","","","","","","","","",""
"3319","","image-button-response","29","745618","0.0-29.0","A39UNTUXW8XO8T","img_art/ins/2.jpg","3","","","","","","","","","","","","","","","","","","","","","","","","",""
"2179","","image-button-response","30","747797","0.0-30.0","A39UNTUXW8XO8T","img_art/ins/2.jpg","4","","","","","","","","","","","","","","","","","","","","","","","","",""
"598","","image-button-response","31","748396","0.0-31.0-0.0","A39UNTUXW8XO8T","img_art/ins/2.jpg","3","","","","","","","","","","","","","","","","","","","","","","","","",""
"4717","","image-button-response","32","753115","0.0-32.0-0.0","A39UNTUXW8XO8T","img_art/ins/2.jpg","5","","","","","","","","","","","","","","","","","","","","","","","","",""
"null","","html-keyboard-response","33","753616","0.0-33.0","A39UNTUXW8XO8T","<p style=""font-size: 48px;"">+</p>","","","","","null","allTrialResponses","500","1","-1","img_art/ins/2.jpg","30","heavy brush strokes and bold colors!","James,Alex,Kyle,Carl,John,Jack","looks too angry,-50,140,20","I like the blocks of color arrangements,30,40,20","Idk, it is just annoying,-32,180,20","I can feel the artist's passion in it,45,80,20","love the texture of paint,48,160,20","I would never be able to compose a sophisticated pallete like this,48,120,20","John","love the texture of paint,48,160,20","Carl","I can feel the artist's passion in it,45,80,20","Jack","I would never be able to compose a sophisticated pallete like this,48,120,20","0"
"67548","","survey-text","34","821166","0.0-34.0-0.0","A39UNTUXW8XO8T","","","","{""Q0"":""i love the icy colors""}","","","","","","","","","","","","","","","","","","","","","","",""
"5786.79999999702","","image-slider-response","35","826954","0.0-35.0","A39UNTUXW8XO8T","","","","","7","","","","","","","","","","","","","","","","","","","","","",""
"3657","","image-button-response","36","831956","0.0-36.0","A39UNTUXW8XO8T","img_art/ins/3.jpg","0","","","","","","","","","","","","","","","","","","","","","","","","",""
"1764","","image-button-response","37","833721","0.0-37.0","A39UNTUXW8XO8T","img_art/ins/3.jpg","4","","","","","","","","","","","","","","","","","","","","","","","","",""
"1764","","image-button-response","38","835486","0.0-38.0-0.0","A39UNTUXW8XO8T","img_art/ins/3.jpg","1","","","","","","","","","","","","","","","","","","","","","","","","",""
"3179","","image-button-response","39","838667","0.0-39.0-0.0","A39UNTUXW8XO8T","img_art/ins/3.jpg","5","","","","","","","","","","","","","","","","","","","","","","","","",""
"null","","html-keyboard-response","40","839168","0.0-40.0","A39UNTUXW8XO8T","<p style=""font-size: 48px;"">+</p>","","","","","null","allTrialResponses","500","1","0","img_art/ins/3.jpg","7","i love the icy colors","Mike,Sam,Ron,Carl,John,Jack","enjoy the different shades of blue,22,200,20","I can feel a rainy day from this painting,18,240,20","It looks depressing,-26,220,20","It's an alright work,15,80,20","I like the overlapping of brushes,41,160,20","I feel connected to the artist,40,120,20","John","I like the overlapping of brushes,41,160,20","Sam","I can feel a rainy day from this painting,18,240,20","Jack","I feel connected to the artist,40,120,20","0"
"2542","","image-button-response_instructions","41","841713","0.0-41.0","A39UNTUXW8XO8T","","0","instructions","","","","","","","","","","","","","","","","","","","","","","","",""
"10130","","survey-likert","42","851845","0.0-42.0-0.0","A39UNTUXW8XO8T","","","","{""Q0"":"""",""Q1"":0,""Q2"":1}","","","","","","","","","","","","","","","","","","","","","","",""
"239943","","survey-text","43","1091791","0.0-43.0-0.0","A39UNTUXW8XO8T","","","","{""Q0"":""rock""}","","","","","","","","","","","","","","","","","","","","","","",""
"20928","","survey-text","44","1112721","0.0-44.0-0.0","A39UNTUXW8XO8T","","","","{""Q0"":""love the abstract and coloring""}","","","","","","","","","","","","","","","","","","","","","","",""
"10895.09999999404","","image-slider-response","45","1123617","0.0-45.0","A39UNTUXW8XO8T","","","","","30","","","","","","","","","","","","","","","","","","","","","",""
"null","","image-button-response","46","1128634","0.0-46.0","A39UNTUXW8XO8T","img_art/28.jpg","null","","","","","","","","","","","","","","","","","","","","","","","","",""
"5138","","image-button-response","47","1133773","0.0-47.0","A39UNTUXW8XO8T","img_art/28.jpg","2","","","","","","","","","","","","","","","","","","","","","","","","",""
"1764","","image-button-response","48","1135539","0.0-48.0-0.0","A39UNTUXW8XO8T","img_art/28.jpg","2","","","","","","","","","","","","","","","","","","","","","","","","",""
"780","","image-button-response","49","1145757","0.0-48.1-0.1","A39UNTUXW8XO8T","img_art/28.jpg","4","","","","","","","","","","","","","","","","","","","","","","","","",""
"2507","","image-button-response","50","1148265","0.0-49.0-0.0","A39UNTUXW8XO8T","img_art/28.jpg","0","","","","","","","","","","","","","","","","","","","","","","","","",""
"null","","html-keyboard-response","51","1149267","0.0-50.0","A39UNTUXW8XO8T","<p style=""font-size: 48px;"">+</p>","","","","","null","allTrialResponses","1000","1","1","img_art/28.jpg","30","love the abstract and coloring","David,Cameron,Adrian,Timothy,Devon,Ethan","I feel that the image is invoking a sense of negativity.,-15,340,20","dislike the colors. it looks like a bike, but misshapen wheels like it was wrecked.,-10,60,20","Not a fan of the drab colors but it looks a little bit interesting.,-7,60,20","This one gives me an uneasy feeling,-10,240,20","i'm not too impressed with this one.,-10,400,20","The colors are really ugly. They do not compliment each other well.,-45,120,20","Adrian","Not a fan of the drab colors but it looks a little bit interesting.,-7,60,20","Devon","i'm not too impressed with this one.,-10,400,20","David","I feel that the image is invoking a sense of negativity.,-15,340,20","2"
"52003","","survey-text","52","1201273","0.0-51.0-0.0","A39UNTUXW8XO8T","","","","{""Q0"":""interesting overlapping brush strokes, also i like the little pops of blue""}","","","","","","","","","","","","","","","","","","","","","","",""
"2828.9000000059605","","image-slider-response","53","1204102","0.0-52.0","A39UNTUXW8XO8T","","","","","18","","","","","","","","","","","","","","","","","","","","","",""
"4131","","image-button-response","54","1209104","0.0-53.0","A39UNTUXW8XO8T","img_art/12.jpg","1","","","","","","","","","","","","","","","","","","","","","","","","",""
"582","","image-button-response","55","1209687","0.0-54.0","A39UNTUXW8XO8T","img_art/12.jpg","1","","","","","","","","","","","","","","","","","","","","","","","","",""
"5709","","image-button-response","56","1215397","0.0-55.0-0.0","A39UNTUXW8XO8T","img_art/12.jpg","5","","","","","","","","","","","","","","","","","","","","","","","","",""
"4601","","image-button-response","57","1219999","0.0-56.0-0.0","A39UNTUXW8XO8T","img_art/12.jpg","3","","","","","","","","","","","","","","","","","","","","","","","","",""
"null","","html-keyboard-response","58","1220500","0.0-57.0","A39UNTUXW8XO8T","<p style=""font-size: 48px;"">+</p>","","","","","null","allTrialResponses","500","1","2","img_art/12.jpg","18","interesting overlapping brush strokes, also i like the little pops of blue","David,John,Adrian,Dustin,Devon,Colton","This doesn't invoke anything. Just a mosaic of random images.,0,340,20","Its cool,reminiscent of Andy Warhol type of style,10,120,20","Ugly colors and I'm just not too much a fan of cubist abstract art.,-50,60,20","Squares are rigid. I'm ambivalent.,1,20,20","too much - just overcrowded,-20,400,20","i like the repetition,30,220,20","John","Its cool,reminiscent of Andy Warhol type of style,10,120,20","Colton","i like the repetition,30,220,20","Dustin","Squares are rigid. I'm ambivalent.,1,20,20","2"
"128842","","survey-text","59","1349344","0.0-58.0-0.0","A39UNTUXW8XO8T","","","","{""Q0"":""interesting lines and colors""}","","","","","","","","","","","","","","","","","","","","","","",""
"2531.2999999970198","","image-slider-response","60","1351876","0.0-59.0","A39UNTUXW8XO8T","","","","","10","","","","","","","","","","","","","","","","","","","","","",""
"2677","","image-button-response","61","1356878","0.0-60.0","A39UNTUXW8XO8T","img_art/11.jpg","2","","","","","","","","","","","","","","","","","","","","","","","","",""
"416","","image-button-response","62","1357296","0.0-61.0","A39UNTUXW8XO8T","img_art/11.jpg","2","","","","","","","","","","","","","","","","","","","","","","","","",""
"1657","","image-button-response","63","1358954","0.0-62.0-0.0","A39UNTUXW8XO8T","img_art/11.jpg","0","","","","","","","","","","","","","","","","","","","","","","","","",""
"1475","","image-button-response","64","1360430","0.0-63.0-0.0","A39UNTUXW8XO8T","img_art/11.jpg","0","","","","","","","","","","","","","","","","","","","","","","","","",""
"2233","","image-button-response","65","1366063","0.0-63.1-0.1","A39UNTUXW8XO8T","img_art/11.jpg","4","","","","","","","","","","","","","","","","","","","","","","","","",""
"null","","html-keyboard-response","66","1367566","0.0-64.0","A39UNTUXW8XO8T","<p style=""font-size: 48px;"">+</p>","","","","","null","allTrialResponses","1500","1","3","img_art/11.jpg","10","interesting lines and colors","Nathan,John,Brett,Dustin,Alexander,Colton","Reminds me of some of post-apocalyptic view of street lights or maybe a city,30,200,20","Its interesting.,20,120,20","This looks like a busy highway system along a suburban background,40,360,20","Dark and dreary. Makes me think of rain/water. I see grey clouds and high waves. Looks unsettling.,-20,20,20","Waves of signs.,15,120,20","the wavy lines are nice and pleasing,13,220,20","Brett","This looks like a busy highway system along a suburban background,40,360,20","Nathan","Reminds me of some of post-apocalyptic view of street lights or maybe a city,30,200,20","Alexander","Waves of signs.,15,120,20","4"
"103097","","survey-text","67","1470665","0.0-65.0-0.0","A39UNTUXW8XO8T","","","","{""Q0"":""not a fan""}","","","","","","","","","","","","","","","","","","","","","","",""
"3177.3999999910593","","image-slider-response","68","1473845","0.0-66.0","A39UNTUXW8XO8T","","","","","-38","","","","","","","","","","","","","","","","","","","","","",""
"null","","image-button-response","69","1478847","0.0-67.0","A39UNTUXW8XO8T","img_art/16.jpg","null","","","","","","","","","","","","","","","","","","","","","","","","",""
"4184","","image-button-response","70","1483033","0.0-68.0","A39UNTUXW8XO8T","img_art/16.jpg","4","","","","","","","","","","","","","","","","","","","","","","","","",""
"849","","image-button-response","71","1483883","0.0-69.0-0.0","A39UNTUXW8XO8T","img_art/16.jpg","5","","","","","","","","","","","","","","","","","","","","","","","","",""
"2248","","image-button-response","72","1486133","0.0-70.0-0.0","A39UNTUXW8XO8T","img_art/16.jpg","1","","","","","","","","","","","","","","","","","","","","","","","","",""
"null","","html-keyboard-response","73","1487634","0.0-71.0","A39UNTUXW8XO8T","<p style=""font-size: 48px;"">+</p>","","","","","null","allTrialResponses","1500","1","4","img_art/16.jpg","-38","not a fan","Nathan,Shane,Brett,Jared,Alexander,Patrick","I enjoy how slightly strange this is, while seeming to still have some message,20,200,20","This looks chaotic,-25,80,20","Mixed feelings. Warm and comfy yet somewhat violent. A stark contrast,0,360,20","it looks psychotic,-31,400,20","Strange and bleak.,-20,120,20","This painting is too random,-30,280,20","Alexander","Strange and bleak.,-20,120,20","Patrick","This painting is too random,-30,280,20","Shane","This looks chaotic,-25,80,20","4"
"25855","","survey-text","74","1513492","0.0-72.0-0.0","A39UNTUXW8XO8T","","","","{""Q0"":""i enjoy the busyness of the upper left a lot, it draws the eye""}","","","","","","","","","","","","","","","","","","","","","","",""
"2209.0999999940395","","image-slider-response","75","1515702","0.0-73.0","A39UNTUXW8XO8T","","","","","5","","","","","","","","","","","","","","","","","","","","","",""
"null","","image-button-response","76","1520703","0.0-74.0","A39UNTUXW8XO8T","img_art/3.jpg","null","","","","","","","","","","","","","","","","","","","","","","","","",""
"3436","","image-button-response","77","1524141","0.0-75.0","A39UNTUXW8XO8T","img_art/3.jpg","3","","","","","","","","","","","","","","","","","","","","","","","","",""
"4303","","image-button-response","78","1528444","0.0-76.0-0.0","A39UNTUXW8XO8T","img_art/3.jpg","2","","","","","","","","","","","","","","","","","","","","","","","","",""
"2288","","image-button-response","79","1530735","0.0-77.0-0.0","A39UNTUXW8XO8T","img_art/3.jpg","0","","","","","","","","","","","","","","","","","","","","","","","","",""
"null","","html-keyboard-response","80","1531236","0.0-78.0","A39UNTUXW8XO8T","<p style=""font-size: 48px;"">+</p>","","","","","null","allTrialResponses","500","1","5","img_art/3.jpg","5","i enjoy the busyness of the upper left a lot, it draws the eye","Seth,Shane,Christopher,Vincent,Alexander,Patrick","I didn't feel the color choice when I first looked. I did however like the placement of the gray.,-28,60,20","Too much red or blood,-28,80,20","the red is impactful but the work overall doesn't say anything to me,-8,160,20","Iike this one it's a piece that I need to spend more time with to understand how i feel about it,20,360,20","Somewhere between a child's art and a poorly drawn battle map.,8,120,20","Random use of red and looks scary,-50,280,20","Vincent","Iike this one it's a piece that I need to spend more time with to understand how i feel about it,20,360,20","Christopher","the red is impactful but the work overall doesn't say anything to me,-8,160,20","Seth","I didn't feel the color choice when I first looked. I did however like the placement of the gray.,-28,60,20","4"
"5144","","survey-text","81","1536384","0.0-79.0-0.0","A39UNTUXW8XO8T","","","","{""Q0"":""sky""}","","","","","","","","","","","","","","","","","","","","","","",""
"24832","","survey-text","82","1561216","0.0-80.0-0.0","A39UNTUXW8XO8T","","","","{""Q0"":""looks like Joan Miro. Not a fan of Joan Miro but you do you""}","","","","","","","","","","","","","","","","","","","","","","",""
"2209","","image-slider-response","83","1563426","0.0-81.0","A39UNTUXW8XO8T","","","","","-28","","","","","","","","","","","","","","","","","","","","","",""
"null","","image-button-response","84","1568428","0.0-82.0","A39UNTUXW8XO8T","img_art/29.jpg","null","","","","","","","","","","","","","","","","","","","","","","","","",""
"3044","","image-button-response","85","1571472","0.0-83.0","A39UNTUXW8XO8T","img_art/29.jpg","5","","","","","","","","","","","","","","","","","","","","","","","","",""
"1647","","image-button-response","86","1573120","0.0-84.0-0.0","A39UNTUXW8XO8T","img_art/29.jpg","3","","","","","","","","","","","","","","","","","","","","","","","","",""
"1774","","image-button-response","87","1574895","0.0-85.0-0.0","A39UNTUXW8XO8T","img_art/29.jpg","4","","","","","","","","","","","","","","","","","","","","","","","","",""
"null","","html-keyboard-response","88","1575397","0.0-86.0","A39UNTUXW8XO8T","<p style=""font-size: 48px;"">+</p>","","","","","null","allTrialResponses","500","1","6","img_art/29.jpg","-28","looks like Joan Miro. Not a fan of Joan Miro but you do you","Seth,Bryce,Christopher,Vincent,Steven,Alejandro","I rated it lower because it looked like a crime scene. It didn't make me feel good.,-44,60,20","Its kinda scary,-35,20,20","it's interesting but not my style,9,160,20","Another great work of art and very conversational piece,33,360,20","Yeah, I don't know. It's clearly a situation where art is the reject of something more,-27,160,20","Reminiscent of Jackson Pollock with a hint of abstract structure with the bordering.,32,80,20","Alejandro","Reminiscent of Jackson Pollock with a hint of abstract structure with the bordering.,32,80,20","Vincent","Another great work of art and very conversational piece,33,360,20","Steven","Yeah, I don't know. It's clearly a situation where art is the reject of something more,-27,160,20","4"
"49327","","survey-text","89","1624726","0.0-87.0-0.0","A39UNTUXW8XO8T","","","","{""Q0"":""looks like a tied trash bag""}","","","","","","","","","","","","","","","","","","","","","","",""
"2998.6000000089407","","image-slider-response","90","1627726","0.0-88.0","A39UNTUXW8XO8T","","","","","-7","","","","","","","","","","","","","","","","","","","","","",""
"4266","","image-button-response","91","1632728","0.0-89.0","A39UNTUXW8XO8T","img_art/5.jpg","3","","","","","","","","","","","","","","","","","","","","","","","","",""
"693","","image-button-response","92","1633423","0.0-90.0","A39UNTUXW8XO8T","img_art/5.jpg","3","","","","","","","","","","","","","","","","","","","","","","","","",""
"4968","","image-button-response","93","1638391","0.0-91.0-0.0","A39UNTUXW8XO8T","img_art/5.jpg","1","","","","","","","","","","","","","","","","","","","","","","","","",""
"1023","","image-button-response","94","1639415","0.0-92.0-0.0","A39UNTUXW8XO8T","img_art/5.jpg","0","","","","","","","","","","","","","","","","","","","","","","","","",""
"null","","html-keyboard-response","95","1640416","0.0-93.0","A39UNTUXW8XO8T","<p style=""font-size: 48px;"">+</p>","","","","","null","allTrialResponses","1000","1","7","img_art/5.jpg","-7","looks like a tied trash bag","Corey,Luke,Jake,Vincent,Steven,Alejandro","simple. love the color scheme,27,260,20","no clear emotion,-16,20,20","This is interesting and nice.,16,360,20","It speaks volumes to some. It's also a conversational piece. And very different ideas,34,360,20","I dont really get anything from this,-25,160,20","Confused as to what the artist is attempting to do.,-50,80,20","Vincent","It speaks volumes to some. It's also a conversational piece. And very different ideas,34,360,20","Luke","no clear emotion,-16,20,20","Corey","simple. love the color scheme,27,260,20","4"
"24495","","survey-text","96","1664913","0.0-94.0-0.0","A39UNTUXW8XO8T","","","","{""Q0"":""i don't love this, but i could see how others could""}","","","","","","","","","","","","","","","","","","","","","","",""
"4224.29999999702","","image-slider-response","97","1669139","0.0-95.0","A39UNTUXW8XO8T","","","","","-3","","","","","","","","","","","","","","","","","","","","","",""
"null","","image-button-response","98","1674142","0.0-96.0","A39UNTUXW8XO8T","img_art/4.jpg","null","","","","","","","","","","","","","","","","","","","","","","","","",""
"605","","image-button-response","99","1674749","0.0-97.0","A39UNTUXW8XO8T","img_art/4.jpg","5","","","","","","","","","","","","","","","","","","","","","","","","",""
"2443","","image-button-response","100","1677193","0.0-98.0-0.0","A39UNTUXW8XO8T","img_art/4.jpg","2","","","","","","","","","","","","","","","","","","","","","","","","",""
"842","","image-button-response","101","1678037","0.0-99.0-0.0","A39UNTUXW8XO8T","img_art/4.jpg","1","","","","","","","","","","","","","","","","","","","","","","","","",""
"null","","html-keyboard-response","102","1678538","0.0-100.0","A39UNTUXW8XO8T","<p style=""font-size: 48px;"">+</p>","","","","","null","allTrialResponses","500","1","8","img_art/4.jpg","-3","i don't love this, but i could see how others could","Corey,Luke,Travis,Vincent,Nicholas,Malik","doesn't do anything for me,-4,260,20","it looks like a simple finger painting, yet i liked the color choices,-12,20,20","I don't like this...a mustardy scibble.,-47,260,20","I like it not sure much of how I feel about it,7,360,20","I domt like the yellow black blended smear,-50,240,20","Reminds me of late night frustrated paintings of my own made of coffee,12,40,20","Malik","Reminds me of late night frustrated paintings of my own made of coffee,12,40,20","Travis","I don't like this...a mustardy scibble.,-47,260,20","Luke","it looks like a simple finger painting, yet i liked the color choices,-12,20,20","4"
"30323","","survey-text","103","1708863","0.0-101.0-0.0","A39UNTUXW8XO8T","","","","{""Q0"":""looks incomplete and immature. maybe they were going for that""}","","","","","","","","","","","","","","","","","","","","","","",""
"2094.2000000029802","","image-slider-response","104","1710958","0.0-102.0","A39UNTUXW8XO8T","","","","","-8","","","","","","","","","","","","","","","","","","","","","",""
"null","","image-button-response","105","1715959","0.0-103.0","A39UNTUXW8XO8T","img_art/14.jpg","null","","","","","","","","","","","","","","","","","","","","","","","","",""
"1464","","image-button-response","106","1717424","0.0-104.0","A39UNTUXW8XO8T","img_art/14.jpg","5","","","","","","","","","","","","","","","","","","","","","","","","",""
"2967","","image-button-response","107","1720392","0.0-105.0-0.0","A39UNTUXW8XO8T","img_art/14.jpg","1","","","","","","","","","","","","","","","","","","","","","","","","",""
"797","","image-button-response","108","1721190","0.0-106.0-0.0","A39UNTUXW8XO8T","img_art/14.jpg","0","","","","","","","","","","","","","","","","","","","","","","","","",""
"null","","html-keyboard-response","109","1721692","0.0-107.0","A39UNTUXW8XO8T","<p style=""font-size: 48px;"">+</p>","","","","","null","allTrialResponses","500","1","9","img_art/14.jpg","-8","looks incomplete and immature. maybe they were going for that","Garrett,Luke,Travis,Mason,Sean,Malik","I like this picture because it looks like a tree and the colors used look cool.,20,180,20","looks like it's symbolizing rebirth which is hopeful,22,20,20","I kind of like it...I like the white back ground,11,260,20","ok, gloomy though.,12,100,20","my reaction is that the picture is wierd,-14,40,20","It's alright, something I'd see in a guest bedroom,10,40,20","Malik","It's alright, something I'd see in a guest bedroom,10,40,20","Luke","looks like it's symbolizing rebirth which is hopeful,22,20,20","Garrett","I like this picture because it looks like a tree and the colors used look cool.,20,180,20","4"
"20654","","survey-text","110","1742348","0.0-108.0-0.0","A39UNTUXW8XO8T","","","","{""Q0"":""love the use of white space and graphic design of the background, big fan""}","","","","","","","","","","","","","","","","","","","","","","",""
"1716.5999999940395","","image-slider-response","111","1744066","0.0-109.0","A39UNTUXW8XO8T","","","","","44","","","","","","","","","","","","","","","","","","","","","",""
"1351","","image-button-response","112","1749068","0.0-110.0","A39UNTUXW8XO8T","img_art/23.jpg","1","","","","","","","","","","","","","","","","","","","","","","","","",""
"567","","image-button-response","113","1749637","0.0-111.0","A39UNTUXW8XO8T","img_art/23.jpg","3","","","","","","","","","","","","","","","","","","","","","","","","",""
"1195","","image-button-response","114","1750833","0.0-112.0-0.0","A39UNTUXW8XO8T","img_art/23.jpg","1","","","","","","","","","","","","","","","","","","","","","","","","",""
"327","","image-button-response","115","1751161","0.0-113.0-0.0","A39UNTUXW8XO8T","img_art/23.jpg","0","","","","","","","","","","","","","","","","","","","","","","","","",""
"null","","html-keyboard-response","116","1752662","0.0-114.0","A39UNTUXW8XO8T","<p style=""font-size: 48px;"">+</p>","","","","","null","allTrialResponses","1500","1","10","img_art/23.jpg","44","love the use of white space and graphic design of the background, big fan","Garrett,Luke,Dakota,Jesse,Grant,Malik","I really like the way all the colors look, I think this is a pretty picture.,40,180,20","makes me happy and want to dance,43,20,20","teeth! dancing people, celebrations,-39,280,20","Makes me want to stare at it for hours. Like there is something deeper to find.,37,80,20","It reminds me of being in a crowded place.,-10,200,20","Very intense and unique,3,40,20","Jesse","Makes me want to stare at it for hours. Like there is something deeper to find.,37,80,20","Luke","makes me happy and want to dance,43,20,20","Garrett","I really like the way all the colors look, I think this is a pretty picture.,40,180,20","4"
"7163","","survey-text","117","1759830","0.0-115.0-0.0","A39UNTUXW8XO8T","","","","{""Q0"":""our""}","","","","","","","","","","","","","","","","","","","","","","",""
"18376","","survey-text","118","1778207","0.0-116.0-0.0","A39UNTUXW8XO8T","","","","{""Q0"":""nice colors i guess ""}","","","","","","","","","","","","","","","","","","","","","","",""
"2474.0999999940395","","image-slider-response","119","1780683","0.0-117.0","A39UNTUXW8XO8T","","","","","-2","","","","","","","","","","","","","","","","","","","","","",""
"4146","","image-button-response","120","1785686","0.0-118.0","A39UNTUXW8XO8T","img_art/1.jpg","0","","","","","","","","","","","","","","","","","","","","","","","","",""
"1722","","image-button-response","121","1787409","0.0-119.0","A39UNTUXW8XO8T","img_art/1.jpg","4","","","","","","","","","","","","","","","","","","","","","","","","",""
"795","","image-button-response","122","1788205","0.0-120.0-0.0","A39UNTUXW8XO8T","img_art/1.jpg","0","","","","","","","","","","","","","","","","","","","","","","","","",""
"1302","","image-button-response","123","1789509","0.0-121.0-0.0","A39UNTUXW8XO8T","img_art/1.jpg","2","","","","","","","","","","","","","","","","","","","","","","","","",""
"null","","html-keyboard-response","124","1790510","0.0-122.0","A39UNTUXW8XO8T","<p style=""font-size: 48px;"">+</p>","","","","","null","allTrialResponses","1000","1","11","img_art/1.jpg","-2","nice colors i guess ","Garrett,Luke,Paul,Jesse,Nathaniel,Peter","I think that this picture has nice colors and its pleasing to the eyes.,20,180,20","it is very colorful and makes me happy,44,20,20","I like the yellow and purple but the large red spot reminds me of blood and isn't great,6,300,20","Im not a fan of the bluriness,-18,80,20","A bit of a smokey mess, but it does have an air of mystery I like,7,220,20","Nothing whatsoever,2,320,20","Nathaniel","A bit of a smokey mess, but it does have an air of mystery I like,7,220,20","Garrett","I think that this picture has nice colors and its pleasing to the eyes.,20,180,20","Paul","I like the yellow and purple but the large red spot reminds me of blood and isn't great,6,300,20","4"
"73067","","survey-text","125","1863581","0.0-123.0-0.0","A39UNTUXW8XO8T","","","","{""Q0"":""interesting painting, pretty sure i like it""}","","","","","","","","","","","","","","","","","","","","","","",""
"1866.5","","image-slider-response","126","1865448","0.0-124.0","A39UNTUXW8XO8T","","","","","13","","","","","","","","","","","","","","","","","","","","","",""
"4585","","image-button-response","127","1870451","0.0-125.0","A39UNTUXW8XO8T","img_art/18.jpg","0","","","","","","","","","","","","","","","","","","","","","","","","",""
"3137","","image-button-response","128","1873588","0.0-126.0","A39UNTUXW8XO8T","img_art/18.jpg","0","","","","","","","","","","","","","","","","","","","","","","","","",""
"3313","","image-button-response","129","1876902","0.0-127.0-0.0","A39UNTUXW8XO8T","img_art/18.jpg","3","","","","","","","","","","","","","","","","","","","","","","","","",""
"1785","","image-button-response","130","1878688","0.0-128.0-0.0","A39UNTUXW8XO8T","img_art/18.jpg","1","","","","","","","","","","","","","","","","","","","","","","","","",""
"null","","html-keyboard-response","131","1879190","0.0-129.0","A39UNTUXW8XO8T","<p style=""font-size: 48px;"">+</p>","","","","","null","allTrialResponses","500","1","12","img_art/18.jpg","13","interesting painting, pretty sure i like it","Garrett,Scott,Paul,Miguel,Nathaniel,Stephen","I think its supposed to be a boat and the boat looks kind of interesting to me.,10,180,20","reminds me of sailors on a boat,17,20,20","It doesn't look like much, the colors are dark and it doesn't really make me feel anything.,-2,300,20","This looks amazing.,40,160,20","Looks like a jumbled mess. I prefer a clearer picture,-18,220,20","Too abstract to me,-30,140,20","Garrett","I think its supposed to be a boat and the boat looks kind of interesting to me.,10,180,20","Miguel","This looks amazing.,40,160,20","Scott","reminds me of sailors on a boat,17,20,20","4"
"10402","","survey-text","132","1889594","0.0-130.0-0.0","A39UNTUXW8XO8T","","","","{""Q0"":""simple but pleasing""}","","","","","","","","","","","","","","","","","","","","","","",""
"2724.4000000059605","","image-slider-response","133","1892320","0.0-131.0","A39UNTUXW8XO8T","","","","","27","","","","","","","","","","","","","","","","","","","","","",""
"null","","image-button-response","134","1897322","0.0-132.0","A39UNTUXW8XO8T","img_art/6.jpg","null","","","","","","","","","","","","","","","","","","","","","","","","",""
"850","","image-button-response","135","1898172","0.0-133.0","A39UNTUXW8XO8T","img_art/6.jpg","3","","","","","","","","","","","","","","","","","","","","","","","","",""
"1897","","image-button-response","136","1900070","0.0-134.0-0.0","A39UNTUXW8XO8T","img_art/6.jpg","4","","","","","","","","","","","","","","","","","","","","","","","","",""
"5023","","image-button-response","137","1905094","0.0-135.0-0.0","A39UNTUXW8XO8T","img_art/6.jpg","1","","","","","","","","","","","","","","","","","","","","","","","","",""
"null","","html-keyboard-response","138","1905597","0.0-136.0","A39UNTUXW8XO8T","<p style=""font-size: 48px;"">+</p>","","","","","null","allTrialResponses","500","1","13","img_art/6.jpg","27","simple but pleasing","Garrett,Scott,Cody,Miguel,Gabriel,Logan","I can't tell what this image is, but it's boring because of lack of color variety and nothing in it,-41,180,20","reminds me of a bird,31,20,20","Birds are cool but I don't love it,10,180,20","Bird? It's a bird.,23,160,20","its like a jalapeno,-28,160,20","boring. don't really like birds,1,360,20","Miguel","Bird? It's a bird.,23,160,20","Gabriel","its like a jalapeno,-28,160,20","Scott","reminds me of a bird,31,20,20","4"
"20530","","survey-text","139","1926130","0.0-137.0-0.0","A39UNTUXW8XO8T","","","","{""Q0"":""like the surrealism and patterns""}","","","","","","","","","","","","","","","","","","","","","","",""
"1982.7999999970198","","image-slider-response","140","1928114","0.0-138.0","A39UNTUXW8XO8T","","","","","8","","","","","","","","","","","","","","","","","","","","","",""
"4968","","image-button-response","141","1933116","0.0-139.0","A39UNTUXW8XO8T","img_art/8.jpg","2","","","","","","","","","","","","","","","","","","","","","","","","",""
"781","","image-button-response","142","1933897","0.0-140.0","A39UNTUXW8XO8T","img_art/8.jpg","4","","","","","","","","","","","","","","","","","","","","","","","","",""
"1207","","image-button-response","143","1935106","0.0-141.0-0.0","A39UNTUXW8XO8T","img_art/8.jpg","2","","","","","","","","","","","","","","","","","","","","","","","","",""
"4826","","image-button-response","144","1939934","0.0-142.0-0.0","A39UNTUXW8XO8T","img_art/8.jpg","3","","","","","","","","","","","","","","","","","","","","","","","","",""
"null","","html-keyboard-response","145","1940435","0.0-143.0","A39UNTUXW8XO8T","<p style=""font-size: 48px;"">+</p>","","","","","null","allTrialResponses","500","1","14","img_art/8.jpg","8","like the surrealism and patterns","Spencer,Scott,Luis,Miguel,Gabriel,Bradley","Nice formats, I just don't like it much,-16,120,20","the face is creepy,-49,20,20","I love the expressiveness of this,50,400,20","Well painted. Not my style.,27,160,20","i like all the different faces,19,160,20","Interesting but it has a bit of a dark feel to it.,6,300,20","Gabriel","i like all the different faces,19,160,20","Luis","I love the expressiveness of this,50,400,20","Miguel","Well painted. Not my style.,27,160,20","4"
"10386","","survey-text","146","1950824","0.0-144.0-0.0","A39UNTUXW8XO8T","","","","{""Q0"":""it's fine. i mean it's fine. ""}","","","","","","","","","","","","","","","","","","","","","","",""
"1631.0999999940395","","image-slider-response","147","1952456","0.0-145.0","A39UNTUXW8XO8T","","","","","-4","","","","","","","","","","","","","","","","","","","","","",""
"3133","","image-button-response","148","1957457","0.0-146.0","A39UNTUXW8XO8T","img_art/30.jpg","2","","","","","","","","","","","","","","","","","","","","","","","","",""
"411","","image-button-response","149","1957870","0.0-147.0","A39UNTUXW8XO8T","img_art/30.jpg","0","","","","","","","","","","","","","","","","","","","","","","","","",""
"1703","","image-button-response","150","1959574","0.0-148.0-0.0","A39UNTUXW8XO8T","img_art/30.jpg","2","","","","","","","","","","","","","","","","","","","","","","","","",""
"420","","image-button-response","151","1959996","0.0-149.0-0.0","A39UNTUXW8XO8T","img_art/30.jpg","0","","","","","","","","","","","","","","","","","","","","","","","","",""
"4350","","image-button-response","152","1966666","0.0-149.1-0.1","A39UNTUXW8XO8T","img_art/30.jpg","5","","","","","","","","","","","","","","","","","","","","","","","","",""
"null","","html-keyboard-response","153","1967667","0.0-150.0","A39UNTUXW8XO8T","<p style=""font-size: 48px;"">+</p>","","","","","null","allTrialResponses","1000","1","15","img_art/30.jpg","-4","it's fine. i mean it's fine. ","Isaac,Victor,Luis,Miguel,Gabriel,Dalton","It looks like it was painted in 5 minutes.,-32,280,20","I just don't see the point of this piece,-11,340,20","Flowing freely of the rest of the world,42,400,20","Absolutely messy,-31,160,20","dont like this much at all,-30,160,20","beautiful paint brush strokes,1,300,20","Isaac","It looks like it was painted in 5 minutes.,-32,280,20","Luis","Flowing freely of the rest of the world,42,400,20","Dalton","beautiful paint brush strokes,1,300,20","6"
"3736","","survey-text","154","1971408","0.0-151.0-0.0","A39UNTUXW8XO8T","","","","{""Q0"":""course""}","","","","","","","","","","","","","","","","","","","","","","",""
"10350","","survey-text","155","1981760","0.0-152.0-0.0","A39UNTUXW8XO8T","","","","{""Q0"":""heavy brush strokes has some texture""}","","","","","","","","","","","","","","","","","","","","","","",""
"1692.5","","image-slider-response","156","1983453","0.0-153.0","A39UNTUXW8XO8T","","","","","18","","","","","","","","","","","","","","","","","","","","","",""
"3163","","image-button-response","157","1988455","0.0-154.0","A39UNTUXW8XO8T","img_art/24.jpg","1","","","","","","","","","","","","","","","","","","","","","","","","",""
"568","","image-button-response","158","1989023","0.0-155.0","A39UNTUXW8XO8T","img_art/24.jpg","1","","","","","","","","","","","","","","","","","","","","","","","","",""
"1150","","image-button-response","159","1990174","0.0-156.0-0.0","A39UNTUXW8XO8T","img_art/24.jpg","3","","","","","","","","","","","","","","","","","","","","","","","","",""
"536","","image-button-response","160","1990712","0.0-157.0-0.0","A39UNTUXW8XO8T","img_art/24.jpg","4","","","","","","","","","","","","","","","","","","","","","","","","",""
"null","","html-keyboard-response","161","1991714","0.0-158.0","A39UNTUXW8XO8T","<p style=""font-size: 48px;"">+</p>","","","","","null","allTrialResponses","1000","1","16","img_art/24.jpg","18","heavy brush strokes has some texture","Isaac,Jonathan,Luis,Thomas,Jeffrey,Dalton","The colors are relaxing and cheerful.,32,280,20","The colors and brush strokes make it feel adventurous,20,140,20","Love the natural vibe,50,400,20","Beautiful colors and texture,20,220,20","Very refreshing and vigorous,19,40,20","i feel peace and wanting. i love waterfalls,50,300,20","Jonathan","The colors and brush strokes make it feel adventurous,20,140,20","Thomas","Beautiful colors and texture,20,220,20","Jeffrey","Very refreshing and vigorous,19,40,20","6"
"27451","","survey-text","162","2019168","0.0-159.0-0.0","A39UNTUXW8XO8T","","","","{""Q0"":""i love white space used like that""}","","","","","","","","","","","","","","","","","","","","","","",""
"1880.5","","image-slider-response","163","2021050","0.0-160.0","A39UNTUXW8XO8T","","","","","8","","","","","","","","","","","","","","","","","","","","","",""
"null","","image-button-response","164","2026052","0.0-161.0","A39UNTUXW8XO8T","img_art/15.jpg","null","","","","","","","","","","","","","","","","","","","","","","","","",""
"3255","","image-button-response","165","2029308","0.0-162.0","A39UNTUXW8XO8T","img_art/15.jpg","5","","","","","","","","","","","","","","","","","","","","","","","","",""
"5037","","image-button-response","166","2034347","0.0-163.0-0.0","A39UNTUXW8XO8T","img_art/15.jpg","1","","","","","","","","","","","","","","","","","","","","","","","","",""
"3194","","image-button-response","167","2037543","0.0-164.0-0.0","A39UNTUXW8XO8T","img_art/15.jpg","3","","","","","","","","","","","","","","","","","","","","","","","","",""
"null","","html-keyboard-response","168","2038545","0.0-165.0","A39UNTUXW8XO8T","<p style=""font-size: 48px;"">+</p>","","","","","null","allTrialResponses","1000","1","17","img_art/15.jpg","8","i love white space used like that","Carlos,Jonathan,Jeremy,Thomas,Jeffrey,Isaiah","It is visually appealing, stark and simple but natural.,41,80,20","Very cool, i want it in my living room,50,140,20","I feel nothing when looking at this,1,60,20","Interesting, and I don't dislike it.,9,220,20","dark and I can not see a meaning behind it,-31,40,20","The painting is very relaxing, I'm reminded of sitting in a garden in the evening.,8,300,20","Isaiah","The painting is very relaxing, I'm reminded of sitting in a garden in the evening.,8,300,20","Jonathan","Very cool, i want it in my living room,50,140,20","Thomas","Interesting, and I don't dislike it.,9,220,20","6"
"22052","","survey-text","169","2060601","0.0-166.0-0.0","A39UNTUXW8XO8T","","","","{""Q0"":""some drab colors, but do like the dots on the bottom right""}","","","","","","","","","","","","","","","","","","","","","","",""
"2061.2999999970198","","image-slider-response","170","2062664","0.0-167.0","A39UNTUXW8XO8T","","","","","-6","","","","","","","","","","","","","","","","","","","","","",""
"4623","","image-button-response","171","2067666","0.0-168.0","A39UNTUXW8XO8T","img_art/21.jpg","2","","","","","","","","","","","","","","","","","","","","","","","","",""
"792","","image-button-response","172","2068459","0.0-169.0","A39UNTUXW8XO8T","img_art/21.jpg","2","","","","","","","","","","","","","","","","","","","","","","","","",""
"321","","image-button-response","173","2068781","0.0-170.0-0.0","A39UNTUXW8XO8T","img_art/21.jpg","1","","","","","","","","","","","","","","","","","","","","","","","","",""
"2037","","image-button-response","174","2070820","0.0-171.0-0.0","A39UNTUXW8XO8T","img_art/21.jpg","5","","","","","","","","","","","","","","","","","","","","","","","","",""
"null","","html-keyboard-response","175","2071321","0.0-172.0","A39UNTUXW8XO8T","<p style=""font-size: 48px;"">+</p>","","","","","null","allTrialResponses","500","1","18","img_art/21.jpg","-6","some drab colors, but do like the dots on the bottom right","Adam,Jonathan,Kenneth,Thomas,Anthony,Isaiah","I like color mix here,15,40,20","Makes me think of a natural disaster but I love how it looks. Makes you think,30,140,20","It actually reminded me of a place I've been to. So I had a positive reaction to it.,22,300,20","Again, I love the use of color,50,220,20","Bland, this painting is my least favorite,-20,200,20","I feel the same serene excitement that I feel watching a sunrise on a beach.,38,300,20","Kenneth","It actually reminded me of a place I've been to. So I had a positive reaction to it.,22,300,20","Jonathan","Makes me think of a natural disaster but I love how it looks. Makes you think,30,140,20","Isaiah","I feel the same serene excitement that I feel watching a sunrise on a beach.,38,300,20","6"
"19000","","survey-text","176","2090323","0.0-173.0-0.0","A39UNTUXW8XO8T","","","","{""Q0"":""love this abstract scene and washed out colors""}","","","","","","","","","","","","","","","","","","","","","","",""
"3748.7999999970198","","image-slider-response","177","2094074","0.0-174.0","A39UNTUXW8XO8T","","","","","5","","","","","","","","","","","","","","","","","","","","","",""
"null","","image-button-response","178","2099075","0.0-175.0","A39UNTUXW8XO8T","img_art/26.jpg","null","","","","","","","","","","","","","","","","","","","","","","","","",""
"17073","","image-button-response","179","2116150","0.0-176.0","A39UNTUXW8XO8T","img_art/26.jpg","5","","","","","","","","","","","","","","","","","","","","","","","","",""
"2327","","image-button-response","180","2118478","0.0-177.0-0.0","A39UNTUXW8XO8T","img_art/26.jpg","1","","","","","","","","","","","","","","","","","","","","","","","","",""
"2405","","image-button-response","181","2120884","0.0-178.0-0.0","A39UNTUXW8XO8T","img_art/26.jpg","3","","","","","","","","","","","","","","","","","","","","","","","","",""
"null","","html-keyboard-response","182","2121387","0.0-179.0","A39UNTUXW8XO8T","<p style=""font-size: 48px;"">+</p>","","","","","null","allTrialResponses","500","1","19","img_art/26.jpg","5","love this abstract scene and washed out colors","Eric,Jonathan,Kenneth,Bryan,Samuel,Isaiah","I wish there was more detail, but I really like this simple piece.,35,100,20","It's relaxing to look at but I wish it was just a little more defined,20,140,20","Very subdued, but wouldn't give it a 2nd notice.,4,300,20","Like the muted colors & the scene which seems to be serene.,14,400,20","reminds me of a hometown,7,400,20","It is very relaxing to look at, almost a relief.,21,300,20","Isaiah","It is very relaxing to look at, almost a relief.,21,300,20","Jonathan","It's relaxing to look at but I wish it was just a little more defined,20,140,20","Bryan","Like the muted colors & the scene which seems to be serene.,14,400,20","6"
"39809","","survey-text","183","2161200","0.0-180.0-0.0","A39UNTUXW8XO8T","","","","{""Q0"":""odd but in a good way ""}","","","","","","","","","","","","","","","","","","","","","","",""
"1975.3999999910593","","image-slider-response","184","2163177","0.0-181.0","A39UNTUXW8XO8T","","","","","9","","","","","","","","","","","","","","","","","","","","","",""
"4957","","image-button-response","185","2168179","0.0-182.0","A39UNTUXW8XO8T","img_art/10.jpg","2","","","","","","","","","","","","","","","","","","","","","","","","",""
"557","","image-button-response","186","2168738","0.0-183.0","A39UNTUXW8XO8T","img_art/10.jpg","2","","","","","","","","","","","","","","","","","","","","","","","","",""
"2585","","image-button-response","187","2171324","0.0-184.0-0.0","A39UNTUXW8XO8T","img_art/10.jpg","0","","","","","","","","","","","","","","","","","","","","","","","","",""
"1256","","image-button-response","188","2172582","0.0-185.0-0.0","A39UNTUXW8XO8T","img_art/10.jpg","3","","","","","","","","","","","","","","","","","","","","","","","","",""
"null","","html-keyboard-response","189","2173084","0.0-186.0","A39UNTUXW8XO8T","<p style=""font-size: 48px;"">+</p>","","","","","null","allTrialResponses","500","1","20","img_art/10.jpg","9","odd but in a good way ","Antonio,Jonathan,Daniel,Bryan,Benjamin,Isaiah","This painting made me think of a guitar which made me think of music which envoked happy feelings.,28,220,20","Too much negative space makes it feel unfinished,-25,140,20","Music visualized with subtle color,17,320,20","First impression was musical instrument then, because of the gray colors, death.,5,400,20","This picture just seems depressing.,-26,260,20","I feel little to no emotion looking at this painting.,0,300,20","Daniel","Music visualized with subtle color,17,320,20","Antonio","This painting made me think of a guitar which made me think of music which envoked happy feelings.,28,220,20","Bryan","First impression was musical instrument then, because of the gray colors, death.,5,400,20","6"
"2342","","survey-text","190","2175431","0.0-187.0-0.0","A39UNTUXW8XO8T","","","","{""Q0"":""we""}","","","","","","","","","","","","","","","","","","","","","","",""
"13111","","survey-text","191","2188543","0.0-188.0-0.0","A39UNTUXW8XO8T","","","","{""Q0"":""like the colors and abstraction""}","","","","","","","","","","","","","","","","","","","","","","",""
"1958.8999999910593","","image-slider-response","192","2190503","0.0-189.0","A39UNTUXW8XO8T","","","","","10","","","","","","","","","","","","","","","","","","","","","",""
"1306","","image-button-response","193","2195504","0.0-190.0","A39UNTUXW8XO8T","img_art/19.jpg","2","","","","","","","","","","","","","","","","","","","","","","","","",""
"2835","","image-button-response","194","2198341","0.0-191.0","A39UNTUXW8XO8T","img_art/19.jpg","2","","","","","","","","","","","","","","","","","","","","","","","","",""
"3529","","image-button-response","195","2201872","0.0-192.0-0.0","A39UNTUXW8XO8T","img_art/19.jpg","4","","","","","","","","","","","","","","","","","","","","","","","","",""
"528","","image-button-response","196","2202401","0.0-193.0-0.0","A39UNTUXW8XO8T","img_art/19.jpg","5","","","","","","","","","","","","","","","","","","","","","","","","",""
"null","","html-keyboard-response","197","2202902","0.0-194.0","A39UNTUXW8XO8T","<p style=""font-size: 48px;"">+</p>","","","","","null","allTrialResponses","500","1","21","img_art/19.jpg","10","like the colors and abstraction","Antonio,Alex,Daniel,Bryan,Jack,Mark","Chaotic. Too much going on in the picture,14,220,20","I like the water but again, the small lines with no detail are irritating,3,100,20","Simple, scratchy lack of negative space.,-10,320,20","Looks like a child's rendering of a city street but not too sure.,0,400,20","love the muted colors and added sketchy lines. calming without being boring.,50,320,20","Feels like a cafe in Paris.,35,80,20","Daniel","Simple, scratchy lack of negative space.,-10,320,20","Jack","love the muted colors and added sketchy lines. calming without being boring.,50,320,20","Mark","Feels like a cafe in Paris.,35,80,20","6"
"25846","","survey-text","198","2228751","0.0-195.0-0.0","A39UNTUXW8XO8T","","","","{""Q0"":""like the colors and scene placed in background, different format""}","","","","","","","","","","","","","","","","","","","","","","",""
"2512.8999999910593","","image-slider-response","199","2231265","0.0-196.0","A39UNTUXW8XO8T","","","","","3","","","","","","","","","","","","","","","","","","","","","",""
"3467","","image-button-response","200","2236267","0.0-197.0","A39UNTUXW8XO8T","img_art/9.jpg","1","","","","","","","","","","","","","","","","","","","","","","","","",""
"124","","image-button-response","201","2236392","0.0-198.0","A39UNTUXW8XO8T","img_art/9.jpg","1","","","","","","","","","","","","","","","","","","","","","","","","",""
"2570","","image-button-response","202","2238962","0.0-199.0-0.0","A39UNTUXW8XO8T","img_art/9.jpg","0","","","","","","","","","","","","","","","","","","","","","","","","",""
"1301","","image-button-response","203","2240265","0.0-200.0-0.0","A39UNTUXW8XO8T","img_art/9.jpg","5","","","","","","","","","","","","","","","","","","","","","","","","",""
"null","","html-keyboard-response","204","2240767","0.0-201.0","A39UNTUXW8XO8T","<p style=""font-size: 48px;"">+</p>","","","","","null","allTrialResponses","500","1","22","img_art/9.jpg","3","like the colors and scene placed in background, different format","Joseph,Robert,Daniel,Tyler,Jack,Mark","It's nice. Peaceful. Calming.,11,220,20","Someone sleeping in a cave. Dont like the scribble look.,-30,360,20","A troubled painter was influenced by anger and mad at the woman in the middle, color not bad,-32,320,20","No cohesive form whatsoever. Hard pass.,-31,320,20","gorgeous colors, love the little details,42,320,20","Sleeping woman in a cave. Makes me feel safe.,20,80,20","Robert","Someone sleeping in a cave. Dont like the scribble look.,-30,360,20","Joseph","It's nice. Peaceful. Calming.,11,220,20","Mark","Sleeping woman in a cave. Makes me feel safe.,20,80,20","6"
"8651","","survey-text","205","2249421","0.0-202.0-0.0","A39UNTUXW8XO8T","","","","{""Q0"":""the green makes it childish""}","","","","","","","","","","","","","","","","","","","","","","",""
"2561.5","","image-slider-response","206","2251984","0.0-203.0","A39UNTUXW8XO8T","","","","","-20","","","","","","","","","","","","","","","","","","","","","",""
"null","","image-button-response","207","2256985","0.0-204.0","A39UNTUXW8XO8T","img_art/2.jpg","null","","","","","","","","","","","","","","","","","","","","","","","","",""
"645","","image-button-response","208","2257632","0.0-205.0","A39UNTUXW8XO8T","img_art/2.jpg","4","","","","","","","","","","","","","","","","","","","","","","","","",""
"459","","image-button-response","209","2258092","0.0-206.0-0.0","A39UNTUXW8XO8T","img_art/2.jpg","3","","","","","","","","","","","","","","","","","","","","","","","","",""
"734","","image-button-response","210","2258827","0.0-207.0-0.0","A39UNTUXW8XO8T","img_art/2.jpg","1","","","","","","","","","","","","","","","","","","","","","","","","",""
"null","","html-keyboard-response","211","2259829","0.0-208.0","A39UNTUXW8XO8T","<p style=""font-size: 48px;"">+</p>","","","","","null","allTrialResponses","1000","1","23","img_art/2.jpg","-20","the green makes it childish","Joseph,Robert,William,Angel,Ian,Mark","Different cultures. I like that it brings differences together.,4,220,20","The colors are what I like. It looks like a smiling face too.,32,360,20","I like the colors,22,380,20","I think I'm put off by the clashing colors here. It feels discombobulated and sick.,-10,180,20","I don't really like this but at the same time it's cute. It looks like a little monster kid.,-9,260,20","It feels like a party and Moulin Rouge.,20,80,20","Ian","I don't really like this but at the same time it's cute. It looks like a little monster kid.,-9,260,20","Angel","I think I'm put off by the clashing colors here. It feels discombobulated and sick.,-10,180,20","Robert","The colors are what I like. It looks like a smiling face too.,32,360,20","6"
"27830","","survey-text","212","2287662","0.0-209.0-0.0","A39UNTUXW8XO8T","","","","{""Q0"":""too much planned chaos and stick figures don't belong in modern art museums""}","","","","","","","","","","","","","","","","","","","","","","",""
"2848.2999999970198","","image-slider-response","213","2290512","0.0-210.0","A39UNTUXW8XO8T","","","","","-27","","","","","","","","","","","","","","","","","","","","","",""
"3946","","image-button-response","214","2295513","0.0-211.0","A39UNTUXW8XO8T","img_art/27.jpg","3","","","","","","","","","","","","","","","","","","","","","","","","",""
"842","","image-button-response","215","2296356","0.0-212.0","A39UNTUXW8XO8T","img_art/27.jpg","3","","","","","","","","","","","","","","","","","","","","","","","","",""
"3958","","image-button-response","216","2300316","0.0-213.0-0.0","A39UNTUXW8XO8T","img_art/27.jpg","0","","","","","","","","","","","","","","","","","","","","","","","","",""
"224","","image-button-response","217","2300542","0.0-214.0-0.0","A39UNTUXW8XO8T","img_art/27.jpg","1","","","","","","","","","","","","","","","","","","","","","","","","",""
"null","","html-keyboard-response","218","2301044","0.0-215.0","A39UNTUXW8XO8T","<p style=""font-size: 48px;"">+</p>","","","","","null","allTrialResponses","500","1","24","img_art/27.jpg","-27","too much planned chaos and stick figures don't belong in modern art museums","Tanner,Robert,Jose,Angel,Ian,Shawn","makes me think of fume clouds, low visibility,-28,180,20","The black sketchy over the colors doesn't fit.,-4,360,20","it's like a weird version of heaven,16,200,20","Makes me think of Japanese food. I perceive it as comfortable and healthy.,20,180,20","I'm not a fan. It looks like something my nephews (1 and 2) would make,-8,260,20","Like the movement of the lines and dripping paint.,30,100,20","Angel","Makes me think of Japanese food. I perceive it as comfortable and healthy.,20,180,20","Tanner","makes me think of fume clouds, low visibility,-28,180,20","Robert","The black sketchy over the colors doesn't fit.,-4,360,20","6"
"18238","","survey-text","219","2319286","0.0-216.0-0.0","A39UNTUXW8XO8T","","","","{""Q0"":""like the perspective change""}","","","","","","","","","","","","","","","","","","","","","","",""
"70313","","image-slider-response","220","2389602","0.0-217.0","A39UNTUXW8XO8T","","","","","-13","","","","","","","","","","","","","","","","","","","","","",""
"null","","image-button-response","221","2394604","0.0-218.0","A39UNTUXW8XO8T","img_art/17.jpg","null","","","","","","","","","","","","","","","","","","","","","","","","",""
"443","","image-button-response","222","2395048","0.0-219.0","A39UNTUXW8XO8T","img_art/17.jpg","3","","","","","","","","","","","","","","","","","","","","","","","","",""
"1888","","image-button-response","223","2396938","0.0-220.0-0.0","A39UNTUXW8XO8T","img_art/17.jpg","4","","","","","","","","","","","","","","","","","","","","","","","","",""
"1256","","image-button-response","224","2398195","0.0-221.0-0.0","A39UNTUXW8XO8T","img_art/17.jpg","1","","","","","","","","","","","","","","","","","","","","","","","","",""
"null","","html-keyboard-response","225","2399697","0.0-222.0","A39UNTUXW8XO8T","<p style=""font-size: 48px;"">+</p>","","","","","null","allTrialResponses","1500","1","25","img_art/17.jpg","-13","like the perspective change","Tanner,Robert,Caleb,Angel,Trevor,Brendan","calm, tranquil, happy,50,180,20","The wispy trees caught my eye.,42,360,20","Not even abstract to me, very clear meaning.,44,40,20","Reminds me of the modern art museum in Rome. I didn't ""get"" many pieces, but had a positive cultural experience overall.,20,180,20","I like how it looks like a tree. The colors are too muted though,12,280,20","colorful tree really cool,27,340,20","Angel","Reminds me of the modern art museum in Rome. I didn't ""get"" many pieces, but had a positive cultural experience overall.,20,180,20","Trevor","I like how it looks like a tree. The colors are too muted though,12,280,20","Robert","The wispy trees caught my eye.,42,360,20","6"
"3609","","survey-text","226","2403312","0.0-223.0-0.0","A39UNTUXW8XO8T","","","","{""Q0"":""table""}","","","","","","","","","","","","","","","","","","","","","","",""
"20711","","survey-text","227","2424024","0.0-224.0-0.0","A39UNTUXW8XO8T","","","","{""Q0"":""cool effect, like the calming colors""}","","","","","","","","","","","","","","","","","","","","","","",""
"3012.1000000089407","","image-slider-response","228","2427037","0.0-225.0","A39UNTUXW8XO8T","","","","","-16","","","","","","","","","","","","","","","","","","","","","",""
"3913","","image-button-response","229","2432040","0.0-226.0","A39UNTUXW8XO8T","img_art/13.jpg","3","","","","","","","","","","","","","","","","","","","","","","","","",""
"529","","image-button-response","230","2432570","0.0-227.0","A39UNTUXW8XO8T","img_art/13.jpg","0","","","","","","","","","","","","","","","","","","","","","","","","",""
"630","","image-button-response","231","2433201","0.0-228.0-0.0","A39UNTUXW8XO8T","img_art/13.jpg","3","","","","","","","","","","","","","","","","","","","","","","","","",""
"1311","","image-button-response","232","2434513","0.0-229.0-0.0","A39UNTUXW8XO8T","img_art/13.jpg","2","","","","","","","","","","","","","","","","","","","","","","","","",""
"null","","html-keyboard-response","233","2436015","0.0-230.0","A39UNTUXW8XO8T","<p style=""font-size: 48px;"">+</p>","","","","","null","allTrialResponses","1500","1","26","img_art/13.jpg","-16","cool effect, like the calming colors","Brian,Robert,Jacob,Angel,Trevor,Kevin","I don't really care for splatter paintings; the spectral colors underneath are nice.,-18,380,20","Raindrops splashing on the window.,50,360,20","The paint splatter idea is kind of overused but I like how it brings the piece together,16,340,20","Reminds me of depression anxiety, but negativity is dampened by motion. It's trying to release itself through expression.,-10,180,20","i like the colors but it looks like something that would hang in a hotel,18,280,20","Debree on top of a calm pond.,18,320,20","Brian","I don't really care for splatter paintings; the spectral colors underneath are nice.,-18,380,20","Angel","Reminds me of depression anxiety, but negativity is dampened by motion. It's trying to release itself through expression.,-10,180,20","Jacob","The paint splatter idea is kind of overused but I like how it brings the piece together,16,340,20","6"
"17317","","survey-text","234","2453336","0.0-231.0-0.0","A39UNTUXW8XO8T","","","","{""Q0"":""like the black lines and lack of definition at the same time ""}","","","","","","","","","","","","","","","","","","","","","","",""
"77550.70000000298","","image-slider-response","235","2530890","0.0-232.0","A39UNTUXW8XO8T","","","","","11","","","","","","","","","","","","","","","","","","","","","",""
"3147","","image-button-response","236","2535892","0.0-233.0","A39UNTUXW8XO8T","img_art/20.jpg","0","","","","","","","","","","","","","","","","","","","","","","","","",""
"559","","image-button-response","237","2536453","0.0-234.0","A39UNTUXW8XO8T","img_art/20.jpg","0","","","","","","","","","","","","","","","","","","","","","","","","",""
"1569","","image-button-response","238","2538023","0.0-235.0-0.0","A39UNTUXW8XO8T","img_art/20.jpg","3","","","","","","","","","","","","","","","","","","","","","","","","",""
"999","","image-button-response","239","2539022","0.0-236.0-0.0","A39UNTUXW8XO8T","img_art/20.jpg","5","","","","","","","","","","","","","","","","","","","","","","","","",""
"null","","html-keyboard-response","240","2539523","0.0-237.0","A39UNTUXW8XO8T","<p style=""font-size: 48px;"">+</p>","","","","","null","allTrialResponses","500","1","27","img_art/20.jpg","11","like the black lines and lack of definition at the same time ","Brian,Devin,Jacob,Angel,Gregory,Tristan","The colors are nice, and the shapes conjure the decay of the city in the face of natural entropy,19,380,20","Looks somewhat dark and emotional,-10,380,20","It looks painted really nicely.,5,340,20","This looks like a ruin of what was once a thriving city.,-9,180,20","Looks like some type of future dystopian civilization,35,220,20","Elements that are more defined are incongruous to the soft and melting nature of this painting,5,300,20","Brian","The colors are nice, and the shapes conjure the decay of the city in the face of natural entropy,19,380,20","Angel","This looks like a ruin of what was once a thriving city.,-9,180,20","Tristan","Elements that are more defined are incongruous to the soft and melting nature of this painting,5,300,20","6"
"24072","","survey-text","241","2563598","0.0-238.0-0.0","A39UNTUXW8XO8T","","","","{""Q0"":""i like it. it makes me want to have a bonfire""}","","","","","","","","","","","","","","","","","","","","","","",""
"2671.5","","image-slider-response","242","2566270","0.0-239.0","A39UNTUXW8XO8T","","","","","4","","","","","","","","","","","","","","","","","","","","","",""
"null","","image-button-response","243","2571272","0.0-240.0","A39UNTUXW8XO8T","img_art/25.jpg","null","","","","","","","","","","","","","","","","","","","","","","","","",""
"1398","","image-button-response","244","2572670","0.0-241.0","A39UNTUXW8XO8T","img_art/25.jpg","3","","","","","","","","","","","","","","","","","","","","","","","","",""
"623","","image-button-response","245","2573294","0.0-242.0-0.0","A39UNTUXW8XO8T","img_art/25.jpg","5","","","","","","","","","","","","","","","","","","","","","","","","",""
"569","","image-button-response","246","2573864","0.0-243.0-0.0","A39UNTUXW8XO8T","img_art/25.jpg","2","","","","","","","","","","","","","","","","","","","","","","","","",""
"null","","html-keyboard-response","247","2574365","0.0-244.0","A39UNTUXW8XO8T","<p style=""font-size: 48px;"">+</p>","","","","","null","allTrialResponses","500","1","28","img_art/25.jpg","4","i like it. it makes me want to have a bonfire","Brian,Juan,James,Angel,Derek,Tristan","the color is pleasing and draws out the contrast of the lines,10,380,20","I don't like the color. I don't like the abstract-ness of it.,-22,260,20","This would definitely be hanging in my bedroom in my house,50,380,20","I feel uneasy. Like watching someone powerful ready to perform a ritual, but I don't know their intentions.,-10,180,20","It's really neat and cool looking,20,360,20","The limited palette make this figure mysterious and interpret-able.,20,300,20","Angel","I feel uneasy. Like watching someone powerful ready to perform a ritual, but I don't know their intentions.,-10,180,20","Tristan","The limited palette make this figure mysterious and interpret-able.,20,300,20","James","This would definitely be hanging in my bedroom in my house,50,380,20","6"
"10758","","survey-text","248","2585128","0.0-245.0-0.0","A39UNTUXW8XO8T","","","","{""Q0"":""sandy and drab""}","","","","","","","","","","","","","","","","","","","","","","",""
"1281","","image-slider-response","249","2586410","0.0-246.0","A39UNTUXW8XO8T","","","","","-18","","","","","","","","","","","","","","","","","","","","","",""
"null","","image-button-response","250","2591415","0.0-247.0","A39UNTUXW8XO8T","img_art/7.jpg","null","","","","","","","","","","","","","","","","","","","","","","","","",""
"2362","","image-button-response","251","2593778","0.0-248.0","A39UNTUXW8XO8T","img_art/7.jpg","3","","","","","","","","","","","","","","","","","","","","","","","","",""
"585","","image-button-response","252","2594365","0.0-249.0-0.0","A39UNTUXW8XO8T","img_art/7.jpg","5","","","","","","","","","","","","","","","","","","","","","","","","",""
"1405","","image-button-response","253","2595771","0.0-250.0-0.0","A39UNTUXW8XO8T","img_art/7.jpg","0","","","","","","","","","","","","","","","","","","","","","","","","",""
"null","","html-keyboard-response","254","2596273","0.0-251.0","A39UNTUXW8XO8T","<p style=""font-size: 48px;"">+</p>","","","","","null","allTrialResponses","500","1","29","img_art/7.jpg","-18","sandy and drab","Blake,Jorge,James,Angel,Connor,Tristan","hot desert with big rocks.,-19,280,20","time and change,1,180,20","Looks plain and dull, sorry.,-31,380,20","It's off-putting because it reminds me of walking over rough sand/rocks or having scabs on my skin.,-10,180,20","Color is bland and looks damaged,-37,240,20","Limited emotional reaction for me. No focus and highly abstract,-20,300,20","Angel","It's off-putting because it reminds me of walking over rough sand/rocks or having scabs on my skin.,-10,180,20","Tristan","Limited emotional reaction for me. No focus and highly abstract,-20,300,20","Blake","hot desert with big rocks.,-19,280,20","6"
"17950","","survey-text","255","2614226","0.0-252.0-0.0","A39UNTUXW8XO8T","","","","{""Q0"":""didn't think much of it then saw those keys and thought what else did i miss?""}","","","","","","","","","","","","","","","","","","","","","","",""
"1671","","image-slider-response","256","2615898","0.0-253.0","A39UNTUXW8XO8T","","","","","3","","","","","","","","","","","","","","","","","","","","","",""
"null","","image-button-response","257","2620900","0.0-254.0","A39UNTUXW8XO8T","img_art/22.jpg","null","","","","","","","","","","","","","","","","","","","","","","","","",""
"214516","","image-button-response","258","2835416","0.0-255.0","A39UNTUXW8XO8T","img_art/22.jpg","5","","","","","","","","","","","","","","","","","","","","","","","","",""
"1818","","image-button-response","259","2837236","0.0-256.0-0.0","A39UNTUXW8XO8T","img_art/22.jpg","3","","","","","","","","","","","","","","","","","","","","","","","","",""
"593","","image-button-response","260","2837830","0.0-257.0-0.0","A39UNTUXW8XO8T","img_art/22.jpg","2","","","","","","","","","","","","","","","","","","","","","","","","",""
"null","","html-keyboard-response","261","2838332","0.0-258.0","A39UNTUXW8XO8T","<p style=""font-size: 48px;"">+</p>","","","","","null","allTrialResponses","500","1","30","img_art/22.jpg","3","didn't think much of it then saw those keys and thought what else did i miss?","Blake,Zachary,Matthew,Angel,Aaron,Tristan","a lost balloon in outer space,12,280,20","I like the vivid colors.,11,400,20","Another servicable piece of abstract art?,20,120,20","This piece gives off a cool vibe. Reminds me of being out in the city at night.,20,180,20","Boring, typical abstract art,-30,20,20","I appreciate the shapes but the abundance of primary colors make it seem garrish.,-10,300,20","Tristan","I appreciate the shapes but the abundance of primary colors make it seem garrish.,-10,300,20","Angel","This piece gives off a cool vibe. Reminds me of being out in the city at night.,20,180,20","Matthew","Another servicable piece of abstract art?,20,120,20","6"
"2354","","image-button-response_instructions","262","2840690","0.0-259.0","A39UNTUXW8XO8T","","0","instructions","","","","","","","","","","","","","","","","","","","","","","","",""
"878","","image-button-response","263","2841572","0.0-260.0","A39UNTUXW8XO8T","","0","","","","","","","","","","","","","","","","","","","","","","","","",""
