"rt","url","trial_type","trial_index","time_elapsed","internal_node_id","participant_id","stimulus","button_pressed","Name","responses","response","key_press","variableName","fixationTime","condition","trial","photo","subjectRating","subjectResponse","agentsNames","agent_1_Response","agent_2_Response","agent_3_Response","agent_4_Response","agent_5_Response","agent_6_Response","kept_1_name","kept_1_response","kept_2_name","kept_2_response","kept_3_name","kept_3_response","errorCounter"
"7335","external_page_harvard.html","external-html","0","7403","0.0-0.0","A3A6IRYD075F4P","","","","","","","","","","","","","","","","","","","","","","","","","","",""
"3346","","image-button-response","1","10751","0.0-1.0","A3A6IRYD075F4P","","1","","","","","","","","","","","","","","","","","","","","","","","","",""
"1497","","image-button-response","2","12252","0.0-2.0-0.0","A3A6IRYD075F4P","","1","phone","","","","","","","","","","","","","","","","","","","","","","","",""
"21188","","survey-text","3","33444","0.0-3.0-0.0","A3A6IRYD075F4P","","","","{""Q0"":""A3A6IRYD075F4P""}","","","","","","","","","","","","","","","","","","","","","","",""
"7322","","image-button-response_instructions","4","40769","0.0-4.0","A3A6IRYD075F4P","","0","instructions","","","","","","","","","","","","","","","","","","","","","","","",""
"13922","","image-button-response_instructions","5","54693","0.0-5.0","A3A6IRYD075F4P","img_art/ins/popularity/ins1.png","0","instructions","","","","","","","","","","","","","","","","","","","","","","","",""
"5425","","image-button-response_instructions","6","60119","0.0-6.0","A3A6IRYD075F4P","img_art/ins/popularity/ins2.png","0","instructions","","","","","","","","","","","","","","","","","","","","","","","",""
"2830","","image-button-response_instructions","7","62951","0.0-7.0","A3A6IRYD075F4P","img_art/ins/popularity/ins2Extreme.png","0","instructions","","","","","","","","","","","","","","","","","","","","","","","",""
"5386","","image-button-response_instructions","8","68339","0.0-8.0","A3A6IRYD075F4P","img_art/ins/popularity/ins3KEEPpop.PNG","0","instructions","","","","","","","","","","","","","","","","","","","","","","","",""
"9290","","image-button-response_instructions","9","77629","0.0-9.0","A3A6IRYD075F4P","img_art/ins/popularity/ins3ANamepop.PNG","0","instructions","","","","","","","","","","","","","","","","","","","","","","","",""
"2759","","image-button-response_instructions","10","80392","0.0-10.0","A3A6IRYD075F4P","img_art/ins/popularity/ins3ARatingpop.png","0","instructions","","","","","","","","","","","","","","","","","","","","","","","",""
"1897","","image-button-response_instructions","11","82292","0.0-11.0","A3A6IRYD075F4P","img_art/ins/popularity/ins3ATextpop.png","0","instructions","","","","","","","","","","","","","","","","","","","","","","","",""
"2296","","image-button-response_instructions","12","84590","0.0-12.0","A3A6IRYD075F4P","img_art/ins/popularity/ins3ALikespop.png","0","instructions","","","","","","","","","","","","","","","","","","","","","","","",""
"7700","","image-button-response_instructions","13","92292","0.0-13.0","A3A6IRYD075F4P","img_art/ins/popularity/ins3KEEPpop.PNG","0","instructions","","","","","","","","","","","","","","","","","","","","","","","",""
"5049","","image-button-response_instructions","14","97343","0.0-14.0","A3A6IRYD075F4P","img_art/ins/popularity/ins3_5RED.png","0","instructions","","","","","","","","","","","","","","","","","","","","","","","",""
"3320","","image-button-response_instructions","15","100665","0.0-15.0","A3A6IRYD075F4P","img_art/ins/popularity/ins3KEEPpop.PNG","0","instructions","","","","","","","","","","","","","","","","","","","","","","","",""
"7251","","image-button-response_instructions","16","107917","0.0-16.0","A3A6IRYD075F4P","img_art/ins/popularity/ins4KEEPpop.PNG","0","instructions","","","","","","","","","","","","","","","","","","","","","","","",""
"2500","","image-button-response_instructions","17","110419","0.0-17.0","A3A6IRYD075F4P","img_art/ins/popularity/ins5KEEPpop.PNG","0","instructions","","","","","","","","","","","","","","","","","","","","","","","",""
"1859","","image-button-response_instructions","18","112279","0.0-18.0","A3A6IRYD075F4P","","0","instructions","","","","","","","","","","","","","","","","","","","","","","","",""
"3746","","survey-text","19","116057","0.0-19.0-0.0","A3A6IRYD075F4P","","","","{""Q0"":""but""}","","","","","","","","","","","","","","","","","","","","","","",""
"3739","","survey-text","20","119798","0.0-20.0-0.0","A3A6IRYD075F4P","","","","{""Q0"":""calm""}","","","","","","","","","","","","","","","","","","","","","","",""
"3262","","survey-text","21","124990","0.0-20.1-0.1","A3A6IRYD075F4P","","","","{""Q0"":""calming ""}","","","","","","","","","","","","","","","","","","","","","","",""
"5115","","image-slider-response","22","130108","0.0-21.0","A3A6IRYD075F4P","","","","","41","","","","","","","","","","","","","","","","","","","","","",""
"null","","image-button-response","23","135114","0.0-22.0","A3A6IRYD075F4P","img_art/ins/1.jpg","null","","","","","","","","","","","","","","","","","","","","","","","","",""
"9320","","image-button-response","24","144435","0.0-23.0","A3A6IRYD075F4P","img_art/ins/1.jpg","5","","","","","","","","","","","","","","","","","","","","","","","","",""
"907","","image-button-response","25","145345","0.0-24.0-0.0","A3A6IRYD075F4P","img_art/ins/1.jpg","4","","","","","","","","","","","","","","","","","","","","","","","","",""
"4782","","image-button-response","26","150131","0.0-25.0-0.0","A3A6IRYD075F4P","img_art/ins/1.jpg","0","","","","","","","","","","","","","","","","","","","","","","","","",""
"null","","html-keyboard-response","27","150635","0.0-26.0","A3A6IRYD075F4P","<p style=""font-size: 48px;"">+</p>","","","","","null","allTrialResponses","500","1","-2","img_art/ins/1.jpg","41","calming ","Allison,Ashley,Beth,Dora,Erika,Jen","looks like a lot of things going on in the mist,20,20,20","I just don't get why these type of art would be popular,-32,40,20","This color reminds me of poo,-46,60,20","looks like what my niece in 3rd grade did this afternoon,-50,80,20","I like the sophisticated brushwork,40,100,20","It reminds me of a candy land dream I had,36,120,20","Jen","It reminds me of a candy land dream I had,36,120,20","Erika","I like the sophisticated brushwork,40,100,20","Allison","looks like a lot of things going on in the mist,20,20,20","0"
"6738","","survey-text","28","157380","0.0-27.0-0.0","A3A6IRYD075F4P","","","","{""Q0"":""sophisticated ""}","","","","","","","","","","","","","","","","","","","","","","",""
"3377","","image-slider-response","29","160759","0.0-28.0","A3A6IRYD075F4P","","","","","39","","","","","","","","","","","","","","","","","","","","","",""
"null","","image-button-response","30","165762","0.0-29.0","A3A6IRYD075F4P","img_art/ins/2.jpg","null","","","","","","","","","","","","","","","","","","","","","","","","",""
"1255","","image-button-response","31","167019","0.0-30.0","A3A6IRYD075F4P","img_art/ins/2.jpg","4","","","","","","","","","","","","","","","","","","","","","","","","",""
"3112","","image-button-response","32","170132","0.0-31.0-0.0","A3A6IRYD075F4P","img_art/ins/2.jpg","1","","","","","","","","","","","","","","","","","","","","","","","","",""
"1893","","image-button-response","33","172027","0.0-32.0-0.0","A3A6IRYD075F4P","img_art/ins/2.jpg","5","","","","","","","","","","","","","","","","","","","","","","","","",""
"null","","html-keyboard-response","34","173530","0.0-33.0","A3A6IRYD075F4P","<p style=""font-size: 48px;"">+</p>","","","","","null","allTrialResponses","1500","1","-1","img_art/ins/2.jpg","39","sophisticated ","Allison,Kara,Katie,Jenna,Erika,Jen","I don't have strong feelings about this,10,20,20","I like the blocks of color arrangements,30,160,20","too much color!,-28,180,20","One of my pet peevs,-48,140,20","I would never be able to compose a sophisticated pallete like this,48,100,20","It reminds me of a fireplace,36,120,20","Erika","I would never be able to compose a sophisticated pallete like this,48,100,20","Kara","I like the blocks of color arrangements,30,160,20","Jen","It reminds me of a fireplace,36,120,20","0"
"7061","","survey-text","35","180597","0.0-34.0-0.0","A3A6IRYD075F4P","","","","{""Q0"":""the colors are soothing""}","","","","","","","","","","","","","","","","","","","","","","",""
"3715","","image-slider-response","36","184313","0.0-35.0","A3A6IRYD075F4P","","","","","46","","","","","","","","","","","","","","","","","","","","","",""
"3734","","image-button-response","37","189317","0.0-36.0","A3A6IRYD075F4P","img_art/ins/3.jpg","1","","","","","","","","","","","","","","","","","","","","","","","","",""
"1135","","image-button-response","38","190453","0.0-37.0","A3A6IRYD075F4P","img_art/ins/3.jpg","4","","","","","","","","","","","","","","","","","","","","","","","","",""
"4201","","image-button-response","39","194656","0.0-38.0-0.0","A3A6IRYD075F4P","img_art/ins/3.jpg","1","","","","","","","","","","","","","","","","","","","","","","","","",""
"776","","image-button-response","40","195434","0.0-39.0-0.0","A3A6IRYD075F4P","img_art/ins/3.jpg","0","","","","","","","","","","","","","","","","","","","","","","","","",""
"null","","html-keyboard-response","41","196938","0.0-40.0","A3A6IRYD075F4P","<p style=""font-size: 48px;"">+</p>","","","","","null","allTrialResponses","1500","1","0","img_art/ins/3.jpg","46","the colors are soothing","Mary,Kara,Rose,Leslie,Erika,Jen","I like the overlapping of brushes,41,220,20","calming blue is very nice,36,160,20","My daily routine, it's depressing,-20,240,20","It's an alright work,15,200,20","I feel connected to the artist,40,100,20","I can feel a rainy day from this painting,18,120,20","Erika","I feel connected to the artist,40,100,20","Kara","calming blue is very nice,36,160,20","Mary","I like the overlapping of brushes,41,220,20","0"
"41982","","image-button-response_instructions","42","238926","0.0-41.0","A3A6IRYD075F4P","","0","instructions","","","","","","","","","","","","","","","","","","","","","","","",""
"7343","","survey-likert","43","246272","0.0-42.0-0.0","A3A6IRYD075F4P","","","","{""Q0"":"""",""Q1"":0,""Q2"":1}","","","","","","","","","","","","","","","","","","","","","","",""
"3167","","survey-text","44","249445","0.0-43.0-0.0","A3A6IRYD075F4P","","","","{""Q0"":""rock""}","","","","","","","","","","","","","","","","","","","","","","",""
"10180","","survey-text","45","259626","0.0-44.0-0.0","A3A6IRYD075F4P","","","","{""Q0"":""complex piece""}","","","","","","","","","","","","","","","","","","","","","","",""
"2514.000000000029","","image-slider-response","46","262143","0.0-45.0","A3A6IRYD075F4P","","","","","29","","","","","","","","","","","","","","","","","","","","","",""
"4545","","image-button-response","47","267176","0.0-46.0","A3A6IRYD075F4P","img_art/18.jpg","0","","","","","","","","","","","","","","","","","","","","","","","","",""
"954","","image-button-response","48","268132","0.0-47.0","A3A6IRYD075F4P","img_art/18.jpg","2","","","","","","","","","","","","","","","","","","","","","","","","",""
"1062","","image-button-response","49","269196","0.0-48.0-0.0","A3A6IRYD075F4P","img_art/18.jpg","0","","","","","","","","","","","","","","","","","","","","","","","","",""
"1050","","image-button-response","50","270248","0.0-49.0-0.0","A3A6IRYD075F4P","img_art/18.jpg","0","","","","","","","","","","","","","","","","","","","","","","","","",""
"3483","","image-button-response","51","276954","0.0-49.1-0.1","A3A6IRYD075F4P","img_art/18.jpg","3","","","","","","","","","","","","","","","","","","","","","","","","",""
"null","","html-keyboard-response","52","277955","0.0-50.0","A3A6IRYD075F4P","<p style=""font-size: 48px;"">+</p>","","","","","null","allTrialResponses","1000","1","1","img_art/18.jpg","29","complex piece","Alexandria,Mikayla,Kaitlin,Dominique,Michelle,Gabriela","the harsh lines with the smooth lines makes me think of wild animals,20,80,20","Kinda boring. Not my favorite,-34,300,20","I really like this one - there seems to be a story behind it,32,60,20","Very conversational and can see many different looks and feels from this .,34,400,20","The small lines elicit a very nauseating response for some reason, too Dali like for me,-19,280,20","It's possibly of a mermaid luring in a ship,15,140,20","Kaitlin","I really like this one - there seems to be a story behind it,32,60,20","Alexandria","the harsh lines with the smooth lines makes me think of wild animals,20,80,20","Dominique","Very conversational and can see many different looks and feels from this .,34,400,20","2"
"4615","","survey-text","53","282576","0.0-51.0-0.0","A3A6IRYD075F4P","","","","{""Q0"":""very beautiful ""}","","","","","","","","","","","","","","","","","","","","","","",""
"3375","","image-slider-response","54","285953","0.0-52.0","A3A6IRYD075F4P","","","","","48","","","","","","","","","","","","","","","","","","","","","",""
"3942","","image-button-response","55","290957","0.0-53.0","A3A6IRYD075F4P","img_art/17.jpg","1","","","","","","","","","","","","","","","","","","","","","","","","",""
"3825","","image-button-response","56","294784","0.0-54.0","A3A6IRYD075F4P","img_art/17.jpg","4","","","","","","","","","","","","","","","","","","","","","","","","",""
"1319","","image-button-response","57","296105","0.0-55.0-0.0","A3A6IRYD075F4P","img_art/17.jpg","3","","","","","","","","","","","","","","","","","","","","","","","","",""
"2737","","image-button-response","58","298845","0.0-56.0-0.0","A3A6IRYD075F4P","img_art/17.jpg","0","","","","","","","","","","","","","","","","","","","","","","","","",""
"null","","html-keyboard-response","59","300347","0.0-57.0","A3A6IRYD075F4P","<p style=""font-size: 48px;"">+</p>","","","","","null","allTrialResponses","1500","1","2","img_art/17.jpg","48","very beautiful ","Alexandria,Heather,Kaitlin,Dominique,Alyssa,Breanna","it looks very intricate and colorful,50,80,20","Beautiful simply beautiful. i would love this,,50,260,20","i feel some sadness in this picture,25,60,20","Another favorite a relaxing day with nature a day to take it all In,34,400,20","It gorgeous and i love how the tree is almost 3 dimensional.So many elements to it.,50,160,20","Very cool, makes me feel calm,43,380,20","Alyssa","It gorgeous and i love how the tree is almost 3 dimensional.So many elements to it.,50,160,20","Dominique","Another favorite a relaxing day with nature a day to take it all In,34,400,20","Alexandria","it looks very intricate and colorful,50,80,20","2"
"10550","","survey-text","60","310904","0.0-58.0-0.0","A3A6IRYD075F4P","","","","{""Q0"":""seems very sophisticated""}","","","","","","","","","","","","","","","","","","","","","","",""
"3186","","image-slider-response","61","314092","0.0-59.0","A3A6IRYD075F4P","","","","","30","","","","","","","","","","","","","","","","","","","","","",""
"null","","image-button-response","62","319095","0.0-60.0","A3A6IRYD075F4P","img_art/12.jpg","null","","","","","","","","","","","","","","","","","","","","","","","","",""
"3622","","image-button-response","63","322719","0.0-61.0","A3A6IRYD075F4P","img_art/12.jpg","3","","","","","","","","","","","","","","","","","","","","","","","","",""
"1731","","image-button-response","64","324451","0.0-62.0-0.0","A3A6IRYD075F4P","img_art/12.jpg","4","","","","","","","","","","","","","","","","","","","","","","","","",""
"1851","","image-button-response","65","326303","0.0-63.0-0.0","A3A6IRYD075F4P","img_art/12.jpg","5","","","","","","","","","","","","","","","","","","","","","","","","",""
"null","","html-keyboard-response","66","327806","0.0-64.0","A3A6IRYD075F4P","<p style=""font-size: 48px;"">+</p>","","","","","null","allTrialResponses","1500","1","3","img_art/12.jpg","30","seems very sophisticated","Alexandria,Kelsey,Katie,Dominique,Alyssa,Catherine","don't feel a lot but it seems very simple,-6,80,20","dont like the squares,-16,240,20","Squares are rigid. I'm ambivalent.,1,160,20","I have seen some like this before very popular and full of life,42,400,20","Its cool,reminiscent of Andy Warhol type of style,10,160,20","confused. stages of a persons life from beginning positive to ending negative.,-10,160,20","Dominique","I have seen some like this before very popular and full of life,42,400,20","Alyssa","Its cool,reminiscent of Andy Warhol type of style,10,160,20","Catherine","confused. stages of a persons life from beginning positive to ending negative.,-10,160,20","2"
"6972","","survey-text","67","334785","0.0-65.0-0.0","A3A6IRYD075F4P","","","","{""Q0"":""I can't make sense of this""}","","","","","","","","","","","","","","","","","","","","","","",""
"2824.000000000058","","image-slider-response","68","337615","0.0-66.0","A3A6IRYD075F4P","","","","","-10","","","","","","","","","","","","","","","","","","","","","",""
"null","","image-button-response","69","342618","0.0-67.0","A3A6IRYD075F4P","img_art/29.jpg","null","","","","","","","","","","","","","","","","","","","","","","","","",""
"2788","","image-button-response","70","345411","0.0-68.0","A3A6IRYD075F4P","img_art/29.jpg","1","","","","","","","","","","","","","","","","","","","","","","","","",""
"3543","","image-button-response","71","348957","0.0-69.0-0.0","A3A6IRYD075F4P","img_art/29.jpg","4","","","","","","","","","","","","","","","","","","","","","","","","",""
"3742","","image-button-response","72","352700","0.0-70.0-0.0","A3A6IRYD075F4P","img_art/29.jpg","2","","","","","","","","","","","","","","","","","","","","","","","","",""
"null","","html-keyboard-response","73","353702","0.0-71.0","A3A6IRYD075F4P","<p style=""font-size: 48px;"">+</p>","","","","","null","allTrialResponses","1000","1","4","img_art/29.jpg","-10","I can't make sense of this","Nicole,Bailey,Rachel,Dominique,Alyssa,Catherine","This one feels scary in a good way,30,20,20","Giant messy blob. Looks like it tries to be edgy, but fails.,-40,360,20","It looks like someone did not like their art and drew an x over it.,-32,80,20","Another great work of art and very conversational piece,33,400,20","Its interesting although doesnt illicit any strong emotions from me,10,160,20","death, darkness, negative picture,-31,160,20","Bailey","Giant messy blob. Looks like it tries to be edgy, but fails.,-40,360,20","Alyssa","Its interesting although doesnt illicit any strong emotions from me,10,160,20","Rachel","It looks like someone did not like their art and drew an x over it.,-32,80,20","2"
"9512","","survey-text","74","363221","0.0-72.0-0.0","A3A6IRYD075F4P","","","","{""Q0"":""interesting design""}","","","","","","","","","","","","","","","","","","","","","","",""
"2806","","image-slider-response","75","366030","0.0-73.0","A3A6IRYD075F4P","","","","","2","","","","","","","","","","","","","","","","","","","","","",""
"null","","image-button-response","76","371034","0.0-74.0","A3A6IRYD075F4P","img_art/27.jpg","null","","","","","","","","","","","","","","","","","","","","","","","","",""
"2116","","image-button-response","77","373152","0.0-75.0","A3A6IRYD075F4P","img_art/27.jpg","2","","","","","","","","","","","","","","","","","","","","","","","","",""
"7526","","image-button-response","78","380680","0.0-76.0-0.0","A3A6IRYD075F4P","img_art/27.jpg","5","","","","","","","","","","","","","","","","","","","","","","","","",""
"886","","image-button-response","79","381568","0.0-77.0-0.0","A3A6IRYD075F4P","img_art/27.jpg","0","","","","","","","","","","","","","","","","","","","","","","","","",""
"null","","html-keyboard-response","80","382572","0.0-78.0","A3A6IRYD075F4P","<p style=""font-size: 48px;"">+</p>","","","","","null","allTrialResponses","1000","1","5","img_art/27.jpg","2","interesting design","Caroline,Bailey,Rachel,Samantha,Alyssa,Courtney","Didnt actually make me feel anything, sort of bland,3,100,20","Looks like a splash of different colors and designs without purpose,-44,360,20","Color story is boring in nature, and I feel nothing but boredom from this piece.,-20,80,20","I like all it has going but i wouldnt put it in my house unless my child did it,25,140,20","Looks as if a toddler painted it,-20,160,20","A fall mess going on here,2,280,20","Rachel","Color story is boring in nature, and I feel nothing but boredom from this piece.,-20,80,20","Courtney","A fall mess going on here,2,280,20","Caroline","Didnt actually make me feel anything, sort of bland,3,100,20","2"
"2406","","survey-text","81","384990","0.0-79.0-0.0","A3A6IRYD075F4P","","","","{""Q0"":""sky""}","","","","","","","","","","","","","","","","","","","","","","",""
"13554","","survey-text","82","398545","0.0-80.0-0.0","A3A6IRYD075F4P","","","","{""Q0"":""subtle colors""}","","","","","","","","","","","","","","","","","","","","","","",""
"2167","","image-slider-response","83","400714","0.0-81.0","A3A6IRYD075F4P","","","","","7","","","","","","","","","","","","","","","","","","","","","",""
"2253","","image-button-response","84","405717","0.0-82.0","A3A6IRYD075F4P","img_art/26.jpg","0","","","","","","","","","","","","","","","","","","","","","","","","",""
"287","","image-button-response","85","406007","0.0-83.0","A3A6IRYD075F4P","img_art/26.jpg","0","","","","","","","","","","","","","","","","","","","","","","","","",""
"4356","","image-button-response","86","410365","0.0-84.0-0.0","A3A6IRYD075F4P","img_art/26.jpg","2","","","","","","","","","","","","","","","","","","","","","","","","",""
"3031","","image-button-response","87","413397","0.0-85.0-0.0","A3A6IRYD075F4P","img_art/26.jpg","3","","","","","","","","","","","","","","","","","","","","","","","","",""
"null","","html-keyboard-response","88","413900","0.0-86.0","A3A6IRYD075F4P","<p style=""font-size: 48px;"">+</p>","","","","","null","allTrialResponses","500","1","6","img_art/26.jpg","7","subtle colors","Caroline,Kathryn,Rachel,Erica,Amanda,Courtney","Calming and relaxing,28,100,20","This piece feels pretty chill like it's just a normal day in the city.,10,140,20","Pretty trees and bushes around fancy brown stones. I like the soft nature.,20,80,20","very relaxing and easy going,22,80,20","Pleasant to look at,28,180,20","Some trees in front of a house.,2,280,20","Caroline","Calming and relaxing,28,100,20","Rachel","Pretty trees and bushes around fancy brown stones. I like the soft nature.,20,80,20","Erica","very relaxing and easy going,22,80,20","2"
"5800","","survey-text","89","419707","0.0-87.0-0.0","A3A6IRYD075F4P","","","","{""Q0"":""kind of creepy""}","","","","","","","","","","","","","","","","","","","","","","",""
"3510","","image-slider-response","90","423218","0.0-88.0","A3A6IRYD075F4P","","","","","12","","","","","","","","","","","","","","","","","","","","","",""
"4961","","image-button-response","91","428222","0.0-89.0","A3A6IRYD075F4P","img_art/25.jpg","3","","","","","","","","","","","","","","","","","","","","","","","","",""
"3688","","image-button-response","92","431912","0.0-90.0","A3A6IRYD075F4P","img_art/25.jpg","0","","","","","","","","","","","","","","","","","","","","","","","","",""
"2825","","image-button-response","93","434739","0.0-91.0-0.0","A3A6IRYD075F4P","img_art/25.jpg","5","","","","","","","","","","","","","","","","","","","","","","","","",""
"2054","","image-button-response","94","436794","0.0-92.0-0.0","A3A6IRYD075F4P","img_art/25.jpg","3","","","","","","","","","","","","","","","","","","","","","","","","",""
"null","","html-keyboard-response","95","437797","0.0-93.0","A3A6IRYD075F4P","<p style=""font-size: 48px;"">+</p>","","","","","null","allTrialResponses","1000","1","7","img_art/25.jpg","12","kind of creepy","Caroline,Jessica,Rachel,Erica,Tiffany,Victoria","Makes me think of Baphomet, As above so below and is scary,-50,100,20","I really like how the lines form this piece.,8,400,20","I like the green color, but the combination of green and a person with a long neck reminds me of aliens,-27,80,20","reminds me of a demon,-25,80,20","I feel little to no emotion looking at this painting.,0,360,20","makes me think of a scary movie,-20,400,20","Caroline","Makes me think of Baphomet, As above so below and is scary,-50,100,20","Victoria","makes me think of a scary movie,-20,400,20","Erica","reminds me of a demon,-25,80,20","2"
"5820","","survey-text","96","443623","0.0-94.0-0.0","A3A6IRYD075F4P","","","","{""Q0"":""very busy""}","","","","","","","","","","","","","","","","","","","","","","",""
"3253","","image-slider-response","97","446878","0.0-95.0","A3A6IRYD075F4P","","","","","6","","","","","","","","","","","","","","","","","","","","","",""
"4115","","image-button-response","98","451881","0.0-96.0","A3A6IRYD075F4P","img_art/23.jpg","1","","","","","","","","","","","","","","","","","","","","","","","","",""
"7204","","image-button-response","99","459087","0.0-97.0","A3A6IRYD075F4P","img_art/23.jpg","3","","","","","","","","","","","","","","","","","","","","","","","","",""
"2163","","image-button-response","100","461252","0.0-98.0-0.0","A3A6IRYD075F4P","img_art/23.jpg","0","","","","","","","","","","","","","","","","","","","","","","","","",""
"2509","","image-button-response","101","463762","0.0-99.0-0.0","A3A6IRYD075F4P","img_art/23.jpg","1","","","","","","","","","","","","","","","","","","","","","","","","",""
"null","","html-keyboard-response","102","465265","0.0-100.0","A3A6IRYD075F4P","<p style=""font-size: 48px;"">+</p>","","","","","null","allTrialResponses","1500","1","8","img_art/23.jpg","6","very busy","Caroline,Shannon,Sierra,Erica,Brittany,Victoria","Like the colors and made me feel happy,23,100,20","I really like the way all the colors look, I think this is a pretty picture.,40,220,20","it makes me aggitated,-21,260,20","Very energetic, seems like it is pulling me in,24,80,20","The white paint through the middle really draws the eye.,30,40,20","enjoy the colors,23,400,20","Erica","Very energetic, seems like it is pulling me in,24,80,20","Caroline","Like the colors and made me feel happy,23,100,20","Shannon","I really like the way all the colors look, I think this is a pretty picture.,40,220,20","2"
"16109","","survey-text","103","481380","0.0-101.0-0.0","A3A6IRYD075F4P","","","","{""Q0"":""very pretty""}","","","","","","","","","","","","","","","","","","","","","","",""
"3153","","image-slider-response","104","484534","0.0-102.0","A3A6IRYD075F4P","","","","","32","","","","","","","","","","","","","","","","","","","","","",""
"null","","image-button-response","105","489538","0.0-103.0","A3A6IRYD075F4P","img_art/24.jpg","null","","","","","","","","","","","","","","","","","","","","","","","","",""
"3160","","image-button-response","106","492700","0.0-104.0","A3A6IRYD075F4P","img_art/24.jpg","5","","","","","","","","","","","","","","","","","","","","","","","","",""
"1018","","image-button-response","107","493719","0.0-105.0-0.0","A3A6IRYD075F4P","img_art/24.jpg","0","","","","","","","","","","","","","","","","","","","","","","","","",""
"3748","","image-button-response","108","497470","0.0-106.0-0.0","A3A6IRYD075F4P","img_art/24.jpg","2","","","","","","","","","","","","","","","","","","","","","","","","",""
"null","","html-keyboard-response","109","498474","0.0-107.0","A3A6IRYD075F4P","<p style=""font-size: 48px;"">+</p>","","","","","null","allTrialResponses","1000","1","9","img_art/24.jpg","32","very pretty","Caroline,Shannon,Haley,Erica,Madeline,Makayla","Waterfalls and spring and gives me a sense of renewal,34,100,20","I like the way the colors are put together, and I can imagine this picture in real life.,40,220,20","Beautiful colors and texture,20,220,20","Very refreshing and vigorous,19,80,20","colors are good but the style is iffy,12,40,20","Looks like a serene waterfall and woods,29,80,20","Makayla","Looks like a serene waterfall and woods,29,80,20","Caroline","Waterfalls and spring and gives me a sense of renewal,34,100,20","Haley","Beautiful colors and texture,20,220,20","2"
"34985","","survey-text","110","533465","0.0-108.0-0.0","A3A6IRYD075F4P","","","","{""Q0"":""very weird""}","","","","","","","","","","","","","","","","","","","","","","",""
"5451","","image-slider-response","111","538918","0.0-109.0","A3A6IRYD075F4P","","","","","-11","","","","","","","","","","","","","","","","","","","","","",""
"4777","","image-button-response","112","543925","0.0-110.0","A3A6IRYD075F4P","img_art/16.jpg","0","","","","","","","","","","","","","","","","","","","","","","","","",""
"5364","","image-button-response","113","549291","0.0-111.0","A3A6IRYD075F4P","img_art/16.jpg","5","","","","","","","","","","","","","","","","","","","","","","","","",""
"2716","","image-button-response","114","552008","0.0-112.0-0.0","A3A6IRYD075F4P","img_art/16.jpg","1","","","","","","","","","","","","","","","","","","","","","","","","",""
"15761","","image-button-response","115","567773","0.0-113.0-0.0","A3A6IRYD075F4P","img_art/16.jpg","0","","","","","","","","","","","","","","","","","","","","","","","","",""
"null","","html-keyboard-response","116","568776","0.0-114.0","A3A6IRYD075F4P","<p style=""font-size: 48px;"">+</p>","","","","","null","allTrialResponses","1000","1","10","img_art/16.jpg","-11","very weird","Caroline,Savannah,Haley,Leslie,Cassandra,Makayla","Did not like at all. I think something sinister going on in the background and the bear a diversion,-50,100,20","A strange collage made by a child. Do not like the colored face of the bear.,-29,200,20","Makes me want to know more,5,220,20","This is making me feel nervous in an enjoyable way.,20,380,20","I like the teddy bear,but a neutral feeling,5,120,20","It's a little unsettling,2,80,20","Makayla","It's a little unsettling,2,80,20","Savannah","A strange collage made by a child. Do not like the colored face of the bear.,-29,200,20","Caroline","Did not like at all. I think something sinister going on in the background and the bear a diversion,-50,100,20","2"
"5635","","survey-text","117","574422","0.0-115.0-0.0","A3A6IRYD075F4P","","","","{""Q0"":""our""}","","","","","","","","","","","","","","","","","","","","","","",""
"166644","","survey-text","118","741067","0.0-116.0-0.0","A3A6IRYD075F4P","","","","{""Q0"":""cool color scheme ""}","","","","","","","","","","","","","","","","","","","","","","",""
"3806.9999999998836","","image-slider-response","119","744876","0.0-117.0","A3A6IRYD075F4P","","","","","36","","","","","","","","","","","","","","","","","","","","","",""
"4885","","image-button-response","120","749879","0.0-118.0","A3A6IRYD075F4P","img_art/5.jpg","4","","","","","","","","","","","","","","","","","","","","","","","","",""
"2240","","image-button-response","121","752121","0.0-119.0","A3A6IRYD075F4P","img_art/5.jpg","5","","","","","","","","","","","","","","","","","","","","","","","","",""
"5334","","image-button-response","122","757456","0.0-120.0-0.0","A3A6IRYD075F4P","img_art/5.jpg","2","","","","","","","","","","","","","","","","","","","","","","","","",""
"1802","","image-button-response","123","759261","0.0-121.0-0.0","A3A6IRYD075F4P","img_art/5.jpg","4","","","","","","","","","","","","","","","","","","","","","","","","",""
"null","","html-keyboard-response","124","760264","0.0-122.0","A3A6IRYD075F4P","<p style=""font-size: 48px;"">+</p>","","","","","null","allTrialResponses","1000","1","11","img_art/5.jpg","36","cool color scheme ","Caroline,Savannah,Julia,Alexis,Claire,Makayla","Too much angular things happening, makes me think of stabbing something which makes me uncomfortable,-50,100,20","Boring and appears low effort,-41,200,20","I like this one but wish it had more context around it,18,40,20","Kindergarten art. I really don't like this style.,-50,100,20","I like the strokes and colors used,20,260,20","Bright and sunny,19,80,20","Makayla","Bright and sunny,19,80,20","Julia","I like this one but wish it had more context around it,18,40,20","Claire","I like the strokes and colors used,20,260,20","2"
"7846","","survey-text","125","768117","0.0-123.0-0.0","A3A6IRYD075F4P","","","","{""Q0"":""very colorful""}","","","","","","","","","","","","","","","","","","","","","","",""
"3618","","image-slider-response","126","771737","0.0-124.0","A3A6IRYD075F4P","","","","","28","","","","","","","","","","","","","","","","","","","","","",""
"null","","image-button-response","127","776739","0.0-125.0","A3A6IRYD075F4P","img_art/1.jpg","null","","","","","","","","","","","","","","","","","","","","","","","","",""
"312","","image-button-response","128","777053","0.0-126.0","A3A6IRYD075F4P","img_art/1.jpg","4","","","","","","","","","","","","","","","","","","","","","","","","",""
"4056","","image-button-response","129","781111","0.0-127.0-0.0","A3A6IRYD075F4P","img_art/1.jpg","0","","","","","","","","","","","","","","","","","","","","","","","","",""
"3103","","image-button-response","130","784223","0.0-128.0-0.0","A3A6IRYD075F4P","img_art/1.jpg","3","","","","","","","","","","","","","","","","","","","","","","","","",""
"null","","html-keyboard-response","131","785226","0.0-129.0","A3A6IRYD075F4P","<p style=""font-size: 48px;"">+</p>","","","","","null","allTrialResponses","1000","1","12","img_art/1.jpg","28","very colorful","Kylie,Sara,Julia,Lindsey,Claire,Makayla","I don't know how I feel about this,1,300,20","I feel uneasy looking at this,-41,160,20","I don't feel like much is happening in this painting,-25,40,20","Not a fan of the colors. Makes me think of the Australian bush fires.,-5,400,20","the colors are nice,8,260,20","Nothing whatsoever,2,80,20","Claire","the colors are nice,8,260,20","Kylie","I don't know how I feel about this,1,300,20","Lindsey","Not a fan of the colors. Makes me think of the Australian bush fires.,-5,400,20","2"
"14392","","survey-text","132","799627","0.0-130.0-0.0","A3A6IRYD075F4P","","","","{""Q0"":""nice water effect""}","","","","","","","","","","","","","","","","","","","","","","",""
"3575","","image-slider-response","133","803204","0.0-131.0","A3A6IRYD075F4P","","","","","25","","","","","","","","","","","","","","","","","","","","","",""
"4081","","image-button-response","134","808208","0.0-132.0","A3A6IRYD075F4P","img_art/13.jpg","4","","","","","","","","","","","","","","","","","","","","","","","","",""
"1609","","image-button-response","135","809819","0.0-133.0","A3A6IRYD075F4P","img_art/13.jpg","5","","","","","","","","","","","","","","","","","","","","","","","","",""
"3671","","image-button-response","136","813493","0.0-134.0-0.0","A3A6IRYD075F4P","img_art/13.jpg","0","","","","","","","","","","","","","","","","","","","","","","","","",""
"1936","","image-button-response","137","815432","0.0-135.0-0.0","A3A6IRYD075F4P","img_art/13.jpg","4","","","","","","","","","","","","","","","","","","","","","","","","",""
"null","","html-keyboard-response","138","816436","0.0-136.0","A3A6IRYD075F4P","<p style=""font-size: 48px;"">+</p>","","","","","null","allTrialResponses","1000","1","13","img_art/13.jpg","25","nice water effect","Kylie,Alicia,Erin,Lindsey,Claire,Vanessa","Very abstract and soothing,40,300,20","meh, 80's. retro,-9,120,20","Color palette is complementary,40,120,20","I find this oddly pleasant, but I object to this style. It's just a background with splatters. How is that art?,-5,400,20","love the colors and splatters,44,260,20","I love the colors and the contrast between the different blues.,21,380,20","Vanessa","I love the colors and the contrast between the different blues.,21,380,20","Kylie","Very abstract and soothing,40,300,20","Claire","love the colors and splatters,44,260,20","2"
"13903","","survey-text","139","830348","0.0-137.0-0.0","A3A6IRYD075F4P","","","","{""Q0"":""unsettling""}","","","","","","","","","","","","","","","","","","","","","","",""
"3747.0000000001164","","image-slider-response","140","834097","0.0-138.0","A3A6IRYD075F4P","","","","","-28","","","","","","","","","","","","","","","","","","","","","",""
"null","","image-button-response","141","839101","0.0-139.0","A3A6IRYD075F4P","img_art/9.jpg","null","","","","","","","","","","","","","","","","","","","","","","","","",""
"3089","","image-button-response","142","842192","0.0-140.0","A3A6IRYD075F4P","img_art/9.jpg","1","","","","","","","","","","","","","","","","","","","","","","","","",""
"2763","","image-button-response","143","844957","0.0-141.0-0.0","A3A6IRYD075F4P","img_art/9.jpg","2","","","","","","","","","","","","","","","","","","","","","","","","",""
"5942","","image-button-response","144","850903","0.0-142.0-0.0","A3A6IRYD075F4P","img_art/9.jpg","5","","","","","","","","","","","","","","","","","","","","","","","","",""
"null","","html-keyboard-response","145","851906","0.0-143.0","A3A6IRYD075F4P","<p style=""font-size: 48px;"">+</p>","","","","","null","allTrialResponses","1000","1","14","img_art/9.jpg","-28","unsettling","Kylie,Alexa,Rebecca,Gabrielle,Claire,Vanessa","Peaceful dreaming,40,300,20","It's wild and chaotic but also beautiful and has some kind of calming factor about it,20,40,20","love the color palette, but I'm gonna be honest, I don't really understand it,14,100,20","looks like an imitation of a real piece of art, reclining lady,-1,160,20","the colors are nice,6,260,20","It's too abstract for my taste. I wish there were more definition.,-9,380,20","Alexa","It's wild and chaotic but also beautiful and has some kind of calming factor about it,20,40,20","Rebecca","love the color palette, but I'm gonna be honest, I don't really understand it,14,100,20","Vanessa","It's too abstract for my taste. I wish there were more definition.,-9,380,20","2"
"65276","","survey-text","146","917192","0.0-144.0-0.0","A3A6IRYD075F4P","","","","{""Q0"":""cool design""}","","","","","","","","","","","","","","","","","","","","","","",""
"3464","","image-slider-response","147","920659","0.0-145.0","A3A6IRYD075F4P","","","","","34","","","","","","","","","","","","","","","","","","","","","",""
"null","","image-button-response","148","925668","0.0-146.0","A3A6IRYD075F4P","img_art/10.jpg","null","","","","","","","","","","","","","","","","","","","","","","","","",""
"3000","","image-button-response","149","928670","0.0-147.0","A3A6IRYD075F4P","img_art/10.jpg","3","","","","","","","","","","","","","","","","","","","","","","","","",""
"2725","","image-button-response","150","931397","0.0-148.0-0.0","A3A6IRYD075F4P","img_art/10.jpg","4","","","","","","","","","","","","","","","","","","","","","","","","",""
"1352","","image-button-response","151","932751","0.0-149.0-0.0","A3A6IRYD075F4P","img_art/10.jpg","1","","","","","","","","","","","","","","","","","","","","","","","","",""
"null","","html-keyboard-response","152","934255","0.0-150.0","A3A6IRYD075F4P","<p style=""font-size: 48px;"">+</p>","","","","","null","allTrialResponses","1500","1","15","img_art/10.jpg","34","cool design","Angela,Alexa,Rebecca,Sophia,Elizabeth,Vanessa","This makes me think of a city, specifically London.,20,260,20","Cute and has a vintage feel to it,45,40,20","gives a sense of a roller coaster unit splashed in water. it's not but i love it nevertheless,44,100,20","This piece is very intriguing to me.,3,280,20","Has an air of mystery around it,39,20,20","It's interesting and my eyes keep being drawn to different parts of the picture.,11,380,20","Sophia","This piece is very intriguing to me.,3,280,20","Elizabeth","Has an air of mystery around it,39,20,20","Alexa","Cute and has a vintage feel to it,45,40,20","2"
"4799","","survey-text","153","939068","0.0-151.0-0.0","A3A6IRYD075F4P","","","","{""Q0"":""course""}","","","","","","","","","","","","","","","","","","","","","","",""
"9353","","survey-text","154","948423","0.0-152.0-0.0","A3A6IRYD075F4P","","","","{""Q0"":""polluted city""}","","","","","","","","","","","","","","","","","","","","","","",""
"3426","","image-slider-response","155","951851","0.0-153.0","A3A6IRYD075F4P","","","","","-42","","","","","","","","","","","","","","","","","","","","","",""
"null","","image-button-response","156","956854","0.0-154.0","A3A6IRYD075F4P","img_art/11.jpg","null","","","","","","","","","","","","","","","","","","","","","","","","",""
"4981","","image-button-response","157","961837","0.0-155.0","A3A6IRYD075F4P","img_art/11.jpg","0","","","","","","","","","","","","","","","","","","","","","","","","",""
"2756","","image-button-response","158","964595","0.0-156.0-0.0","A3A6IRYD075F4P","img_art/11.jpg","2","","","","","","","","","","","","","","","","","","","","","","","","",""
"2959","","image-button-response","159","967557","0.0-157.0-0.0","A3A6IRYD075F4P","img_art/11.jpg","4","","","","","","","","","","","","","","","","","","","","","","","","",""
"null","","html-keyboard-response","160","969060","0.0-158.0","A3A6IRYD075F4P","<p style=""font-size: 48px;"">+</p>","","","","","null","allTrialResponses","1500","1","16","img_art/11.jpg","-42","polluted city","Amy,Alexa,Stephanie,Sophia,Elizabeth,Emily","Simple and complex. Hopeful yet dark. I love this,35,220,20","There's a lot going on in this painting but it is pleasing and neat looking,31,40,20","Rainy dreary day in a town.,7,300,20","WOW!  I love how the ships and the seas become one in this piece.,50,280,20","Very unique piece of art,50,20,20","It's kind of cool and I see it looks clean.,22,40,20","Amy","Simple and complex. Hopeful yet dark. I love this,35,220,20","Stephanie","Rainy dreary day in a town.,7,300,20","Elizabeth","Very unique piece of art,50,20,20","2"
"7550","","survey-text","161","976618","0.0-159.0-0.0","A3A6IRYD075F4P","","","","{""Q0"":""interesting""}","","","","","","","","","","","","","","","","","","","","","","",""
"3702","","image-slider-response","162","980322","0.0-160.0","A3A6IRYD075F4P","","","","","18","","","","","","","","","","","","","","","","","","","","","",""
"null","","image-button-response","163","985326","0.0-161.0","A3A6IRYD075F4P","img_art/8.jpg","null","","","","","","","","","","","","","","","","","","","","","","","","",""
"7319","","image-button-response","164","992647","0.0-162.0","A3A6IRYD075F4P","img_art/8.jpg","5","","","","","","","","","","","","","","","","","","","","","","","","",""
"6733","","image-button-response","165","999383","0.0-163.0-0.0","A3A6IRYD075F4P","img_art/8.jpg","0","","","","","","","","","","","","","","","","","","","","","","","","",""
"3778","","image-button-response","166","1003166","0.0-164.0-0.0","A3A6IRYD075F4P","img_art/8.jpg","3","","","","","","","","","","","","","","","","","","","","","","","","",""
"null","","html-keyboard-response","167","1003669","0.0-165.0","A3A6IRYD075F4P","<p style=""font-size: 48px;"">+</p>","","","","","null","allTrialResponses","500","1","17","img_art/8.jpg","18","interesting","Amy,Marissa,Stephanie,Mary,Elizabeth,Sabrina","The definition and the colors give make this painting accessible and thought provoking.,30,220,20","I can't tell if this is supposed to portray just city life or a town crumbling,-5,160,20","I like the colors and geometrical shapes but the face in the sky makes it look scary,-10,300,20","Very inspiring piece. I love how it's at angle. It gives it character.,23,180,20","Very unique and different,31,20,20","I love the expressiveness of this,50,120,20","Sabrina","I love the expressiveness of this,50,120,20","Amy","The definition and the colors give make this painting accessible and thought provoking.,30,220,20","Mary","Very inspiring piece. I love how it's at angle. It gives it character.,23,180,20","2"
"12145","","survey-text","168","1015824","0.0-166.0-0.0","A3A6IRYD075F4P","","","","{""Q0"":""hard to tell what it is""}","","","","","","","","","","","","","","","","","","","","","","",""
"3365","","image-slider-response","169","1019191","0.0-167.0","A3A6IRYD075F4P","","","","","-32","","","","","","","","","","","","","","","","","","","","","",""
"4968","","image-button-response","170","1024195","0.0-168.0","A3A6IRYD075F4P","img_art/15.jpg","5","","","","","","","","","","","","","","","","","","","","","","","","",""
"2792","","image-button-response","171","1026989","0.0-169.0","A3A6IRYD075F4P","img_art/15.jpg","3","","","","","","","","","","","","","","","","","","","","","","","","",""
"5065","","image-button-response","172","1032056","0.0-170.0-0.0","A3A6IRYD075F4P","img_art/15.jpg","2","","","","","","","","","","","","","","","","","","","","","","","","",""
"1458","","image-button-response","173","1033517","0.0-171.0-0.0","A3A6IRYD075F4P","img_art/15.jpg","5","","","","","","","","","","","","","","","","","","","","","","","","",""
"null","","html-keyboard-response","174","1034521","0.0-172.0","A3A6IRYD075F4P","<p style=""font-size: 48px;"">+</p>","","","","","null","allTrialResponses","1000","1","18","img_art/15.jpg","-32","hard to tell what it is","Amy,Leah,Kimberly,Mary,Jasmine,Sabrina","basic colors and pleasing shapes providing a calming effect,15,220,20","Pretty, like in a field of poppies,19,360,20","it looks like lavender,10,260,20","This piece gave me no emotion. It's ugly to me.,-38,180,20","I like it as the colors complement each other well,21,340,20","Extreme darkness and sadness,-30,120,20","Mary","This piece gave me no emotion. It's ugly to me.,-38,180,20","Kimberly","it looks like lavender,10,260,20","Sabrina","Extreme darkness and sadness,-30,120,20","2"
"11040","","survey-text","175","1045568","0.0-173.0-0.0","A3A6IRYD075F4P","","","","{""Q0"":""bleak looking""}","","","","","","","","","","","","","","","","","","","","","","",""
"4097.000000000349","","image-slider-response","176","1049667","0.0-174.0","A3A6IRYD075F4P","","","","","-37","","","","","","","","","","","","","","","","","","","","","",""
"null","","image-button-response","177","1054671","0.0-175.0","A3A6IRYD075F4P","img_art/20.jpg","null","","","","","","","","","","","","","","","","","","","","","","","","",""
"4788","","image-button-response","178","1059460","0.0-176.0","A3A6IRYD075F4P","img_art/20.jpg","3","","","","","","","","","","","","","","","","","","","","","","","","",""
"1745","","image-button-response","179","1061207","0.0-177.0-0.0","A3A6IRYD075F4P","img_art/20.jpg","2","","","","","","","","","","","","","","","","","","","","","","","","",""
"2202","","image-button-response","180","1063412","0.0-178.0-0.0","A3A6IRYD075F4P","img_art/20.jpg","1","","","","","","","","","","","","","","","","","","","","","","","","",""
"null","","html-keyboard-response","181","1063917","0.0-179.0","A3A6IRYD075F4P","<p style=""font-size: 48px;"">+</p>","","","","","null","allTrialResponses","500","1","19","img_art/20.jpg","-37","bleak looking","Amber,Megan,Kimberly,Mary,Chelsea,Sabrina","Bold strokes and colors.,6,200,20","Fails to capture what similar styles do,-12,200,20","Something bad has happened TO reality,-23,260,20","I can tell this artist has experience. I just don't care for the color combo.,7,180,20","It is abstract but it looks neat.,15,180,20","I love the way it expresses dark nature and uncontrolled situations.,44,120,20","Mary","I can tell this artist has experience. I just don't care for the color combo.,7,180,20","Kimberly","Something bad has happened TO reality,-23,260,20","Megan","Fails to capture what similar styles do,-12,200,20","2"
"53224","","survey-text","182","1117149","0.0-180.0-0.0","A3A6IRYD075F4P","","","","{""Q0"":""nice colors""}","","","","","","","","","","","","","","","","","","","","","","",""
"2898","","image-slider-response","183","1120049","0.0-181.0","A3A6IRYD075F4P","","","","","15","","","","","","","","","","","","","","","","","","","","","",""
"null","","image-button-response","184","1125053","0.0-182.0","A3A6IRYD075F4P","img_art/7.jpg","null","","","","","","","","","","","","","","","","","","","","","","","","",""
"3869","","image-button-response","185","1128925","0.0-183.0","A3A6IRYD075F4P","img_art/7.jpg","1","","","","","","","","","","","","","","","","","","","","","","","","",""
"3183","","image-button-response","186","1132111","0.0-184.0-0.0","A3A6IRYD075F4P","img_art/7.jpg","3","","","","","","","","","","","","","","","","","","","","","","","","",""
"1663","","image-button-response","187","1133777","0.0-185.0-0.0","A3A6IRYD075F4P","img_art/7.jpg","5","","","","","","","","","","","","","","","","","","","","","","","","",""
"null","","html-keyboard-response","188","1134279","0.0-186.0","A3A6IRYD075F4P","<p style=""font-size: 48px;"">+</p>","","","","","null","allTrialResponses","500","1","20","img_art/7.jpg","15","nice colors","Brooke,Megan,Kimberly,Mary,Jordan,Caitlin","tracks in dirt?,-15,60,20","Great portrayal of solid surface,19,200,20","Looks like a bad picture of a beach,-21,260,20","This reminds me of a close up photo of a stone wall.,-19,180,20","looks like the surface of the moon.,1,20,20","Looks like a photo taken from the moon.,-6,80,20","Megan","Great portrayal of solid surface,19,200,20","Mary","This reminds me of a close up photo of a stone wall.,-19,180,20","Caitlin","Looks like a photo taken from the moon.,-6,80,20","2"
"2676","","survey-text","189","1136969","0.0-187.0-0.0","A3A6IRYD075F4P","","","","{""Q0"":""we""}","","","","","","","","","","","","","","","","","","","","","","",""
"9188","","survey-text","190","1146160","0.0-188.0-0.0","A3A6IRYD075F4P","","","","{""Q0"":""pretty basic design""}","","","","","","","","","","","","","","","","","","","","","","",""
"2419.000000000233","","image-slider-response","191","1148580","0.0-189.0","A3A6IRYD075F4P","","","","","-6","","","","","","","","","","","","","","","","","","","","","",""
"4831","","image-button-response","192","1153582","0.0-190.0","A3A6IRYD075F4P","img_art/14.jpg","5","","","","","","","","","","","","","","","","","","","","","","","","",""
"5608","","image-button-response","193","1159192","0.0-191.0","A3A6IRYD075F4P","img_art/14.jpg","4","","","","","","","","","","","","","","","","","","","","","","","","",""
"3215","","image-button-response","194","1162410","0.0-192.0-0.0","A3A6IRYD075F4P","img_art/14.jpg","0","","","","","","","","","","","","","","","","","","","","","","","","",""
"993","","image-button-response","195","1163412","0.0-193.0-0.0","A3A6IRYD075F4P","img_art/14.jpg","5","","","","","","","","","","","","","","","","","","","","","","","","",""
"null","","html-keyboard-response","196","1164915","0.0-194.0","A3A6IRYD075F4P","<p style=""font-size: 48px;"">+</p>","","","","","null","allTrialResponses","1500","1","21","img_art/14.jpg","-6","pretty basic design","Taylor,Megan,Molly,Mary,Andrea,Caitlin","Makes me think of my plants growing,11,340,20","Baby's room palette with tree confusion in a more confused substrate.,-15,200,20","In my opinion it's spectacular.,35,340,20","I like the layers of color in this piece. The circles and lines are interesting.,29,180,20","Cute little plant.,15,240,20","Are they blowing up a tree?,-5,80,20","Andrea","Cute little plant.,15,240,20","Taylor","Makes me think of my plants growing,11,340,20","Caitlin","Are they blowing up a tree?,-5,80,20","2"
"9784","","survey-text","197","1174709","0.0-195.0-0.0","A3A6IRYD075F4P","","","","{""Q0"":""interesting colors and design""}","","","","","","","","","","","","","","","","","","","","","","",""
"4127.999999999767","","image-slider-response","198","1178846","0.0-196.0","A3A6IRYD075F4P","","","","","35","","","","","","","","","","","","","","","","","","","","","",""
"3371","","image-button-response","199","1183849","0.0-197.0","A3A6IRYD075F4P","img_art/30.jpg","0","","","","","","","","","","","","","","","","","","","","","","","","",""
"9001","","image-button-response","200","1192853","0.0-198.0","A3A6IRYD075F4P","img_art/30.jpg","2","","","","","","","","","","","","","","","","","","","","","","","","",""
"1320","","image-button-response","201","1194174","0.0-199.0-0.0","A3A6IRYD075F4P","img_art/30.jpg","4","","","","","","","","","","","","","","","","","","","","","","","","",""
"1445","","image-button-response","202","1195624","0.0-200.0-0.0","A3A6IRYD075F4P","img_art/30.jpg","0","","","","","","","","","","","","","","","","","","","","","","","","",""
"null","","html-keyboard-response","203","1196627","0.0-201.0","A3A6IRYD075F4P","<p style=""font-size: 48px;"">+</p>","","","","","null","allTrialResponses","1000","1","22","img_art/30.jpg","35","interesting colors and design","Taylor,Margaret,Isabella,Hailey,Andrea,Caitlin","It's a really interesting piece,20,340,20","I dont like the colors whatsoever,-15,100,20","I like the back but the red lines in the front distress me,-7,280,20","snakes in the grass, I don't like it,-17,200,20","It feels like graffiti and the dark colors do nothing for the mood.,-5,240,20","My kid drew this same picture at daycare!!!,5,80,20","Isabella","I like the back but the red lines in the front distress me,-7,280,20","Andrea","It feels like graffiti and the dark colors do nothing for the mood.,-5,240,20","Taylor","It's a really interesting piece,20,340,20","2"
"10268","","survey-text","204","1206904","0.0-202.0-0.0","A3A6IRYD075F4P","","","","{""Q0"":""messy""}","","","","","","","","","","","","","","","","","","","","","","",""
"3169","","survey-text","205","1211566","0.0-202.1-0.1","A3A6IRYD075F4P","","","","{""Q0"":""looks messy""}","","","","","","","","","","","","","","","","","","","","","","",""
"6145","","image-slider-response","206","1217717","0.0-203.0","A3A6IRYD075F4P","","","","","-28","","","","","","","","","","","","","","","","","","","","","",""
"null","","image-button-response","207","1222722","0.0-204.0","A3A6IRYD075F4P","img_art/28.jpg","null","","","","","","","","","","","","","","","","","","","","","","","","",""
"2268","","image-button-response","208","1224992","0.0-205.0","A3A6IRYD075F4P","img_art/28.jpg","1","","","","","","","","","","","","","","","","","","","","","","","","",""
"5088","","image-button-response","209","1230082","0.0-206.0-0.0","A3A6IRYD075F4P","img_art/28.jpg","5","","","","","","","","","","","","","","","","","","","","","","","","",""
"2530","","image-button-response","210","1232618","0.0-207.0-0.0","A3A6IRYD075F4P","img_art/28.jpg","0","","","","","","","","","","","","","","","","","","","","","","","","",""
"null","","html-keyboard-response","211","1233622","0.0-208.0","A3A6IRYD075F4P","<p style=""font-size: 48px;"">+</p>","","","","","null","allTrialResponses","1000","1","23","img_art/28.jpg","-28","looks messy","Taylor,Mackenzie,Isabella,Miranda,Andrea,Kayla","Doesn't give me an emotional response,0,340,20","The muted tones aren't my favorite.,-10,20,20","This is also something I would see in a serious but safe environment,14,280,20","This one looks very dark and seems like it has a lot of depth to it.,31,320,20","It reminds me of the cantina in Star Wars.,37,240,20","Don't love it, don't hate it. It's just there.,1,180,20","Mackenzie","The muted tones aren't my favorite.,-10,20,20","Kayla","Don't love it, don't hate it. It's just there.,1,180,20","Taylor","Doesn't give me an emotional response,0,340,20","2"
"102900","","survey-text","212","1336532","0.0-209.0-0.0","A3A6IRYD075F4P","","","","{""Q0"":""kind of dull""}","","","","","","","","","","","","","","","","","","","","","","",""
"2677","","image-slider-response","213","1339212","0.0-210.0","A3A6IRYD075F4P","","","","","-38","","","","","","","","","","","","","","","","","","","","","",""
"4162","","image-button-response","214","1344226","0.0-211.0","A3A6IRYD075F4P","img_art/6.jpg","4","","","","","","","","","","","","","","","","","","","","","","","","",""
"952","","image-button-response","215","1345180","0.0-212.0","A3A6IRYD075F4P","img_art/6.jpg","5","","","","","","","","","","","","","","","","","","","","","","","","",""
"1096","","image-button-response","216","1346278","0.0-213.0-0.0","A3A6IRYD075F4P","img_art/6.jpg","4","","","","","","","","","","","","","","","","","","","","","","","","",""
"1037","","image-button-response","217","1347317","0.0-214.0-0.0","A3A6IRYD075F4P","img_art/6.jpg","2","","","","","","","","","","","","","","","","","","","","","","","","",""
"null","","html-keyboard-response","218","1348322","0.0-215.0","A3A6IRYD075F4P","<p style=""font-size: 48px;"">+</p>","","","","","null","allTrialResponses","1000","1","24","img_art/6.jpg","-38","kind of dull","Taylor,Mackenzie,Olivia,Laura,Crystal,Kayla","Reminds me of my friend's bird,21,340,20","I enjoy the color contrast.,20,20,20","surviving the dryness of life,30,40,20","graceful and light,35,320,20","Gives me a feeling of solitude and nothingness,11,300,20","Little birdie in a desert. Seeking better frontiers.,13,180,20","Kayla","Little birdie in a desert. Seeking better frontiers.,13,180,20","Crystal","Gives me a feeling of solitude and nothingness,11,300,20","Olivia","surviving the dryness of life,30,40,20","2"
"7441","","survey-text","219","1355772","0.0-216.0-0.0","A3A6IRYD075F4P","","","","{""Q0"":""messy colors""}","","","","","","","","","","","","","","","","","","","","","","",""
"2710","","image-slider-response","220","1358488","0.0-217.0","A3A6IRYD075F4P","","","","","-30","","","","","","","","","","","","","","","","","","","","","",""
"null","","image-button-response","221","1363499","0.0-218.0","A3A6IRYD075F4P","img_art/2.jpg","null","","","","","","","","","","","","","","","","","","","","","","","","",""
"137","","image-button-response","222","1363639","0.0-219.0","A3A6IRYD075F4P","img_art/2.jpg","1","","","","","","","","","","","","","","","","","","","","","","","","",""
"4144","","image-button-response","223","1367787","0.0-220.0-0.0","A3A6IRYD075F4P","img_art/2.jpg","0","","","","","","","","","","","","","","","","","","","","","","","","",""
"1445","","image-button-response","224","1369236","0.0-221.0-0.0","A3A6IRYD075F4P","img_art/2.jpg","3","","","","","","","","","","","","","","","","","","","","","","","","",""
"null","","html-keyboard-response","225","1370238","0.0-222.0","A3A6IRYD075F4P","<p style=""font-size: 48px;"">+</p>","","","","","null","allTrialResponses","1000","1","25","img_art/2.jpg","-30","messy colors","Cynthia,Katelyn,Olivia,Briana,Crystal,Kayla","Confused and disoriented,-33,320,20","Looks childish and i dont like the texture,-25,100,20","i liked the bright colors,13,40,20","Childish smiley face,-19,400,20","Looks contrived and like someone tried to hard to make it abstract,-31,300,20","Different cultures. I like that it brings differences together.,4,180,20","Katelyn","Looks childish and i dont like the texture,-25,100,20","Cynthia","Confused and disoriented,-33,320,20","Briana","Childish smiley face,-19,400,20","2"
"2597","","survey-text","226","1372851","0.0-223.0-0.0","A3A6IRYD075F4P","","","","{""Q0"":""table""}","","","","","","","","","","","","","","","","","","","","","","",""
"3742","","survey-text","227","1376594","0.0-224.0-0.0","A3A6IRYD075F4P","","","","{""Q0"":""cool colors""}","","","","","","","","","","","","","","","","","","","","","","",""
"2417.000000000233","","image-slider-response","228","1379014","0.0-225.0","A3A6IRYD075F4P","","","","","22","","","","","","","","","","","","","","","","","","","","","",""
"null","","image-button-response","229","1384023","0.0-226.0","A3A6IRYD075F4P","img_art/22.jpg","null","","","","","","","","","","","","","","","","","","","","","","","","",""
"1170","","image-button-response","230","1385195","0.0-227.0","A3A6IRYD075F4P","img_art/22.jpg","3","","","","","","","","","","","","","","","","","","","","","","","","",""
"778","","image-button-response","231","1385976","0.0-228.0-0.0","A3A6IRYD075F4P","img_art/22.jpg","4","","","","","","","","","","","","","","","","","","","","","","","","",""
"1491","","image-button-response","232","1387469","0.0-229.0-0.0","A3A6IRYD075F4P","img_art/22.jpg","2","","","","","","","","","","","","","","","","","","","","","","","","",""
"null","","html-keyboard-response","233","1387972","0.0-230.0","A3A6IRYD075F4P","<p style=""font-size: 48px;"">+</p>","","","","","null","allTrialResponses","500","1","26","img_art/22.jpg","22","cool colors","Cynthia,Katelyn,Jamie,Briana,Katherine,Angelica","A key to the unknown,15,320,20","I usually dont like blurry pieces but the colors are amazing in this,14,100,20","Like the mix of warm and cool colors,15,320,20","Bright colors feel warm,22,400,20","Cool squares but what's the circle?,38,120,20","It's bland and ugly.,-21,280,20","Briana","Bright colors feel warm,22,400,20","Katherine","Cool squares but what's the circle?,38,120,20","Jamie","Like the mix of warm and cool colors,15,320,20","2"
"6474","","survey-text","234","1394455","0.0-231.0-0.0","A3A6IRYD075F4P","","","","{""Q0"":""seems ominous""}","","","","","","","","","","","","","","","","","","","","","","",""
"2227","","image-slider-response","235","1396684","0.0-232.0","A3A6IRYD075F4P","","","","","11","","","","","","","","","","","","","","","","","","","","","",""
"null","","image-button-response","236","1401688","0.0-233.0","A3A6IRYD075F4P","img_art/21.jpg","null","","","","","","","","","","","","","","","","","","","","","","","","",""
"5383","","image-button-response","237","1407079","0.0-234.0","A3A6IRYD075F4P","img_art/21.jpg","5","","","","","","","","","","","","","","","","","","","","","","","","",""
"1496","","image-button-response","238","1408578","0.0-235.0-0.0","A3A6IRYD075F4P","img_art/21.jpg","1","","","","","","","","","","","","","","","","","","","","","","","","",""
"781","","image-button-response","239","1409362","0.0-236.0-0.0","A3A6IRYD075F4P","img_art/21.jpg","2","","","","","","","","","","","","","","","","","","","","","","","","",""
"null","","html-keyboard-response","240","1410865","0.0-237.0","A3A6IRYD075F4P","<p style=""font-size: 48px;"">+</p>","","","","","null","allTrialResponses","1500","1","27","img_art/21.jpg","11","seems ominous","Natalie,Autumn,Jamie,Briana,Katherine,Morgan","my response to the picture is what is going on?,-13,400,20","Amazing colors.,34,340,20","Contrast of fire and water looks cool,20,320,20","Unfinished. Confusing to look at,-12,400,20","I can't explain why this struck me as absolutely gorgeous. Like the clashing between 2 different worlds,43,120,20","Survivable storm on the open sea.,27,380,20","Morgan","Survivable storm on the open sea.,27,380,20","Autumn","Amazing colors.,34,340,20","Jamie","Contrast of fire and water looks cool,20,320,20","2"
"7011","","survey-text","241","1417886","0.0-238.0-0.0","A3A6IRYD075F4P","","","","{""Q0"":""weird design""}","","","","","","","","","","","","","","","","","","","","","","",""
"2523.000000000233","","image-slider-response","242","1420412","0.0-239.0","A3A6IRYD075F4P","","","","","-30","","","","","","","","","","","","","","","","","","","","","",""
"null","","image-button-response","243","1425416","0.0-240.0","A3A6IRYD075F4P","img_art/4.jpg","null","","","","","","","","","","","","","","","","","","","","","","","","",""
"1191","","image-button-response","244","1426609","0.0-241.0","A3A6IRYD075F4P","img_art/4.jpg","2","","","","","","","","","","","","","","","","","","","","","","","","",""
"921","","image-button-response","245","1427533","0.0-242.0-0.0","A3A6IRYD075F4P","img_art/4.jpg","1","","","","","","","","","","","","","","","","","","","","","","","","",""
"4054","","image-button-response","246","1431590","0.0-243.0-0.0","A3A6IRYD075F4P","img_art/4.jpg","5","","","","","","","","","","","","","","","","","","","","","","","","",""
"null","","html-keyboard-response","247","1432093","0.0-244.0","A3A6IRYD075F4P","<p style=""font-size: 48px;"">+</p>","","","","","null","allTrialResponses","500","1","28","img_art/4.jpg","-30","weird design","Mariah,Autumn,Jamie,Diana,Jacqueline,Morgan","Movement. Snakes. Hair. The uncertainty makes my eye return.,21,140,20","I don't like murky colors.,-40,340,20","Mustard yellow doesn't do it for me,-25,320,20","Odd but intriguing. I feel emotion from this. Like a woman bent over carrying these emotions on her back.,33,380,20","It looks like smeared poop.,-27,300,20","Pretzel noodles.,7,380,20","Jamie","Mustard yellow doesn't do it for me,-25,320,20","Autumn","I don't like murky colors.,-40,340,20","Morgan","Pretzel noodles.,7,380,20","2"
"6672","","survey-text","248","1438774","0.0-245.0-0.0","A3A6IRYD075F4P","","","","{""Q0"":""looks like scribbles""}","","","","","","","","","","","","","","","","","","","","","","",""
"2500","","image-slider-response","249","1441276","0.0-246.0","A3A6IRYD075F4P","","","","","-45","","","","","","","","","","","","","","","","","","","","","",""
"4856","","image-button-response","250","1446280","0.0-247.0","A3A6IRYD075F4P","img_art/3.jpg","4","","","","","","","","","","","","","","","","","","","","","","","","",""
"1256","","image-button-response","251","1447537","0.0-248.0","A3A6IRYD075F4P","img_art/3.jpg","1","","","","","","","","","","","","","","","","","","","","","","","","",""
"1016","","image-button-response","252","1448555","0.0-249.0-0.0","A3A6IRYD075F4P","img_art/3.jpg","4","","","","","","","","","","","","","","","","","","","","","","","","",""
"1098","","image-button-response","253","1449655","0.0-250.0-0.0","A3A6IRYD075F4P","img_art/3.jpg","3","","","","","","","","","","","","","","","","","","","","","","","","",""
"null","","html-keyboard-response","254","1450157","0.0-251.0","A3A6IRYD075F4P","<p style=""font-size: 48px;"">+</p>","","","","","null","allTrialResponses","500","1","29","img_art/3.jpg","-45","looks like scribbles","Lauren,Autumn,Jamie,Allison,Alexandra,Morgan","No clue what I'm looking. This just looks a series of scribbles in a box.,-20,340,20","Unfocused and rushed.,-28,340,20","Looks like somebody squirted ketchup everywhere,-40,320,20","Reminds me of a hot mess,-10,140,20","I could scribble on paper and mimic this,-48,60,20","Somewhere between a child's art and a poorly drawn battle map.,8,380,20","Autumn","Unfocused and rushed.,-28,340,20","Alexandra","I could scribble on paper and mimic this,-48,60,20","Allison","Reminds me of a hot mess,-10,140,20","2"
"7773","","survey-text","255","1457940","0.0-252.0-0.0","A3A6IRYD075F4P","","","","{""Q0"":""seems dreary ""}","","","","","","","","","","","","","","","","","","","","","","",""
"3281","","image-slider-response","256","1461223","0.0-253.0","A3A6IRYD075F4P","","","","","-35","","","","","","","","","","","","","","","","","","","","","",""
"null","","image-button-response","257","1466229","0.0-254.0","A3A6IRYD075F4P","img_art/19.jpg","null","","","","","","","","","","","","","","","","","","","","","","","","",""
"3693","","image-button-response","258","1469924","0.0-255.0","A3A6IRYD075F4P","img_art/19.jpg","4","","","","","","","","","","","","","","","","","","","","","","","","",""
"2243","","image-button-response","259","1472169","0.0-256.0-0.0","A3A6IRYD075F4P","img_art/19.jpg","5","","","","","","","","","","","","","","","","","","","","","","","","",""
"1183","","image-button-response","260","1473355","0.0-257.0-0.0","A3A6IRYD075F4P","img_art/19.jpg","2","","","","","","","","","","","","","","","","","","","","","","","","",""
"null","","html-keyboard-response","261","1473859","0.0-258.0","A3A6IRYD075F4P","<p style=""font-size: 48px;"">+</p>","","","","","null","allTrialResponses","500","1","30","img_art/19.jpg","-35","seems dreary ","Meghan,Autumn,Monica,Allison,Alexandra,Kaitlyn","looks like a shopping center,20,220,20","Messy and kid like.,-36,340,20","The shapes make me recall a city scene but it looks dirty,-22,360,20","Messy mix of colors.,-5,140,20","This photo has too much going on.,-19,60,20","The picture contains a lot of brown and weird drips,-4,80,20","Alexandra","This photo has too much going on.,-19,60,20","Kaitlyn","The picture contains a lot of brown and weird drips,-4,80,20","Monica","The shapes make me recall a city scene but it looks dirty,-22,360,20","2"
"5004","","image-button-response_instructions","262","1478874","0.0-259.0","A3A6IRYD075F4P","","0","instructions","","","","","","","","","","","","","","","","","","","","","","","",""
"1459","","image-button-response","263","1480340","0.0-260.0","A3A6IRYD075F4P","","0","","","","","","","","","","","","","","","","","","","","","","","","",""
