"rt","url","trial_type","trial_index","time_elapsed","internal_node_id","participant_id","stimulus","button_pressed","Name","responses","response","key_press","variableName","fixationTime","condition","trial","photo","subjectRating","subjectResponse","agentsNames","agent_1_Response","agent_2_Response","agent_3_Response","agent_4_Response","agent_5_Response","agent_6_Response","kept_1_name","kept_1_response","kept_2_name","kept_2_response","kept_3_name","kept_3_response","errorCounter"
"31819","external_page_harvard.html","external-html","0","32489","0.0-0.0","A3APMO8WXVH1V0","","","","","","","","","","","","","","","","","","","","","","","","","","",""
"1501","","image-button-response","1","33991","0.0-1.0","A3APMO8WXVH1V0","","1","","","","","","","","","","","","","","","","","","","","","","","","",""
"1404","","image-button-response","2","35401","0.0-2.0-0.0","A3APMO8WXVH1V0","","1","phone","","","","","","","","","","","","","","","","","","","","","","","",""
"4941","","survey-text","3","40343","0.0-3.0-0.0","A3APMO8WXVH1V0","","","","{""Q0"":""A3APMO8WXVH1V0""}","","","","","","","","","","","","","","","","","","","","","","",""
"70496","","image-button-response_instructions","4","110840","0.0-4.0","A3APMO8WXVH1V0","","0","instructions","","","","","","","","","","","","","","","","","","","","","","","",""
"7599","","image-button-response_instructions","5","118442","0.0-5.0","A3APMO8WXVH1V0","img_art/ins/popularity/ins1.png","0","instructions","","","","","","","","","","","","","","","","","","","","","","","",""
"4316","","image-button-response_instructions","6","122759","0.0-6.0","A3APMO8WXVH1V0","img_art/ins/popularity/ins2.png","0","instructions","","","","","","","","","","","","","","","","","","","","","","","",""
"2250","","image-button-response_instructions","7","125010","0.0-7.0","A3APMO8WXVH1V0","img_art/ins/popularity/ins2Extreme.png","0","instructions","","","","","","","","","","","","","","","","","","","","","","","",""
"9213","","image-button-response_instructions","8","134224","0.0-8.0","A3APMO8WXVH1V0","img_art/ins/popularity/ins3KEEPpop.PNG","0","instructions","","","","","","","","","","","","","","","","","","","","","","","",""
"2675","","image-button-response_instructions","9","136900","0.0-9.0","A3APMO8WXVH1V0","img_art/ins/popularity/ins3ANamepop.PNG","0","instructions","","","","","","","","","","","","","","","","","","","","","","","",""
"1843","","image-button-response_instructions","10","138745","0.0-10.0","A3APMO8WXVH1V0","img_art/ins/popularity/ins3ARatingpop.png","0","instructions","","","","","","","","","","","","","","","","","","","","","","","",""
"1325","","image-button-response_instructions","11","140071","0.0-11.0","A3APMO8WXVH1V0","img_art/ins/popularity/ins3ATextpop.png","0","instructions","","","","","","","","","","","","","","","","","","","","","","","",""
"3344","","image-button-response_instructions","12","143417","0.0-12.0","A3APMO8WXVH1V0","img_art/ins/popularity/ins3ALikespop.png","0","instructions","","","","","","","","","","","","","","","","","","","","","","","",""
"6039","","image-button-response_instructions","13","149457","0.0-13.0","A3APMO8WXVH1V0","img_art/ins/popularity/ins3KEEPpop.PNG","0","instructions","","","","","","","","","","","","","","","","","","","","","","","",""
"4472","","image-button-response_instructions","14","153930","0.0-14.0","A3APMO8WXVH1V0","img_art/ins/popularity/ins3_5RED.png","0","instructions","","","","","","","","","","","","","","","","","","","","","","","",""
"2559","","image-button-response_instructions","15","156490","0.0-15.0","A3APMO8WXVH1V0","img_art/ins/popularity/ins3KEEPpop.PNG","0","instructions","","","","","","","","","","","","","","","","","","","","","","","",""
"6409","","image-button-response_instructions","16","162900","0.0-16.0","A3APMO8WXVH1V0","img_art/ins/popularity/ins4KEEPpop.PNG","0","instructions","","","","","","","","","","","","","","","","","","","","","","","",""
"2335","","image-button-response_instructions","17","165236","0.0-17.0","A3APMO8WXVH1V0","img_art/ins/popularity/ins5KEEPpop.PNG","0","instructions","","","","","","","","","","","","","","","","","","","","","","","",""
"1241","","image-button-response_instructions","18","166478","0.0-18.0","A3APMO8WXVH1V0","","0","instructions","","","","","","","","","","","","","","","","","","","","","","","",""
"4643","","survey-text","19","171153","0.0-19.0-0.0","A3APMO8WXVH1V0","","","","{""Q0"":""but""}","","","","","","","","","","","","","","","","","","","","","","",""
"21960","","survey-text","20","193115","0.0-20.0-0.0","A3APMO8WXVH1V0","","","","{""Q0"":""its whimsical and colorful, which evokes light emotions""}","","","","","","","","","","","","","","","","","","","","","","",""
"6519.5","","image-slider-response","21","199637","0.0-21.0","A3APMO8WXVH1V0","","","","","4","","","","","","","","","","","","","","","","","","","","","",""
"null","","image-button-response","22","204647","0.0-22.0","A3APMO8WXVH1V0","img_art/ins/1.jpg","null","","","","","","","","","","","","","","","","","","","","","","","","",""
"1744","","image-button-response","23","206393","0.0-23.0","A3APMO8WXVH1V0","img_art/ins/1.jpg","4","","","","","","","","","","","","","","","","","","","","","","","","",""
"1046","","image-button-response","24","207441","0.0-24.0-0.0","A3APMO8WXVH1V0","img_art/ins/1.jpg","5","","","","","","","","","","","","","","","","","","","","","","","","",""
"2858","","image-button-response","25","210303","0.0-25.0-0.0","A3APMO8WXVH1V0","img_art/ins/1.jpg","0","","","","","","","","","","","","","","","","","","","","","","","","",""
"null","","html-keyboard-response","26","211804","0.0-26.0","A3APMO8WXVH1V0","<p style=""font-size: 48px;"">+</p>","","","","","null","allTrialResponses","1500","1","-2","img_art/ins/1.jpg","4","its whimsical and colorful, which evokes light emotions","Allison,Ashley,Beth,Dora,Erika,Jen","looks like a lot of things going on in the mist,20,20,20","I just don't get why these type of art would be popular,-32,40,20","This color reminds me of poo,-46,60,20","looks like what my niece in 3rd grade did this afternoon,-50,80,20","I like the sophisticated brushwork,40,100,20","It reminds me of a candy land dream I had,36,120,20","Erika","I like the sophisticated brushwork,40,100,20","Jen","It reminds me of a candy land dream I had,36,120,20","Allison","looks like a lot of things going on in the mist,20,20,20","0"
"92099","","survey-text","27","303908","0.0-27.0-0.0","A3APMO8WXVH1V0","","","","{""Q0"":""its chunky, the colors don't compliment each other well, it looks angry""}","","","","","","","","","","","","","","","","","","","","","","",""
"2300.7999997138977","","image-slider-response","28","306212","0.0-28.0","A3APMO8WXVH1V0","","","","","-26","","","","","","","","","","","","","","","","","","","","","",""
"null","","image-button-response","29","311224","0.0-29.0","A3APMO8WXVH1V0","img_art/ins/2.jpg","null","","","","","","","","","","","","","","","","","","","","","","","","",""
"3685","","image-button-response","30","314912","0.0-30.0","A3APMO8WXVH1V0","img_art/ins/2.jpg","2","","","","","","","","","","","","","","","","","","","","","","","","",""
"945","","image-button-response","31","315860","0.0-31.0-0.0","A3APMO8WXVH1V0","img_art/ins/2.jpg","5","","","","","","","","","","","","","","","","","","","","","","","","",""
"1194","","image-button-response","32","317056","0.0-32.0-0.0","A3APMO8WXVH1V0","img_art/ins/2.jpg","0","","","","","","","","","","","","","","","","","","","","","","","","",""
"null","","html-keyboard-response","33","318560","0.0-33.0","A3APMO8WXVH1V0","<p style=""font-size: 48px;"">+</p>","","","","","null","allTrialResponses","1500","1","-1","img_art/ins/2.jpg","-26","its chunky, the colors don't compliment each other well, it looks angry","Allison,Kara,Katie,Jenna,Erika,Jen","I don't have strong feelings about this,10,20,20","I like the blocks of color arrangements,30,160,20","too much color!,-28,180,20","One of my pet peevs,-48,140,20","I would never be able to compose a sophisticated pallete like this,48,100,20","It reminds me of a fireplace,36,120,20","Katie","too much color!,-28,180,20","Jen","It reminds me of a fireplace,36,120,20","Allison","I don't have strong feelings about this,10,20,20","0"
"11068","","survey-text","34","329656","0.0-34.0-0.0","A3APMO8WXVH1V0","","","","{""Q0"":""icy, cold, vibrant""}","","","","","","","","","","","","","","","","","","","","","","",""
"2280.7000002861023","","image-slider-response","35","331938","0.0-35.0","A3APMO8WXVH1V0","","","","","9","","","","","","","","","","","","","","","","","","","","","",""
"4749","","image-button-response","36","336942","0.0-36.0","A3APMO8WXVH1V0","img_art/ins/3.jpg","4","","","","","","","","","","","","","","","","","","","","","","","","",""
"1239","","image-button-response","37","338184","0.0-37.0","A3APMO8WXVH1V0","img_art/ins/3.jpg","3","","","","","","","","","","","","","","","","","","","","","","","","",""
"792","","image-button-response","38","338978","0.0-38.0-0.0","A3APMO8WXVH1V0","img_art/ins/3.jpg","4","","","","","","","","","","","","","","","","","","","","","","","","",""
"3231","","image-button-response","39","342210","0.0-39.0-0.0","A3APMO8WXVH1V0","img_art/ins/3.jpg","0","","","","","","","","","","","","","","","","","","","","","","","","",""
"null","","html-keyboard-response","40","343217","0.0-40.0","A3APMO8WXVH1V0","<p style=""font-size: 48px;"">+</p>","","","","","null","allTrialResponses","1000","1","0","img_art/ins/3.jpg","9","icy, cold, vibrant","Allison,Rose,Katie,Leslie,Mary,Jen","enjoy the different shades of blue,22,20,20","My daily routine, it's depressing,-20,240,20","It looks depressing,-26,180,20","It's an alright work,15,200,20","I like the overlapping of brushes,41,220,20","I can feel a rainy day from this painting,18,120,20","Leslie","It's an alright work,15,200,20","Mary","I like the overlapping of brushes,41,220,20","Allison","enjoy the different shades of blue,22,20,20","0"
"4064","","image-button-response_instructions","41","347290","0.0-41.0","A3APMO8WXVH1V0","","0","instructions","","","","","","","","","","","","","","","","","","","","","","","",""
"7163","","survey-likert","42","354454","0.0-42.0-0.0","A3APMO8WXVH1V0","","","","{""Q0"":"""",""Q1"":0,""Q2"":1}","","","","","","","","","","","","","","","","","","","","","","",""
"3111","","survey-text","43","357570","0.0-43.0-0.0","A3APMO8WXVH1V0","","","","{""Q0"":""rock""}","","","","","","","","","","","","","","","","","","","","","","",""
"131314","","survey-text","44","488885","0.0-44.0-0.0","A3APMO8WXVH1V0","","","","{""Q0"":""growth, blossoming, soft colors""}","","","","","","","","","","","","","","","","","","","","","","",""
"2540.800000190735","","image-slider-response","45","491430","0.0-45.0","A3APMO8WXVH1V0","","","","","13","","","","","","","","","","","","","","","","","","","","","",""
"null","","image-button-response","46","496458","0.0-46.0","A3APMO8WXVH1V0","img_art/14.jpg","null","","","","","","","","","","","","","","","","","","","","","","","","",""
"4848","","image-button-response","47","501308","0.0-47.0","A3APMO8WXVH1V0","img_art/14.jpg","4","","","","","","","","","","","","","","","","","","","","","","","","",""
"5927","","image-button-response","48","507238","0.0-48.0-0.0","A3APMO8WXVH1V0","img_art/14.jpg","0","","","","","","","","","","","","","","","","","","","","","","","","",""
"813","","image-button-response","49","508054","0.0-49.0-0.0","A3APMO8WXVH1V0","img_art/14.jpg","0","","","","","","","","","","","","","","","","","","","","","","","","",""
"777","","image-button-response","50","512086","0.0-49.1-0.1","A3APMO8WXVH1V0","img_art/14.jpg","1","","","","","","","","","","","","","","","","","","","","","","","","",""
"null","","html-keyboard-response","51","512588","0.0-50.0","A3APMO8WXVH1V0","<p style=""font-size: 48px;"">+</p>","","","","","null","allTrialResponses","500","1","1","img_art/14.jpg","13","growth, blossoming, soft colors","Crystal,Angelica,Savannah,Erin,Sara,Mikayla","It looks like a tree but the bleeding water colors lack borders and makes it hard to appreciate the message.,-41,300,20","This is poorly done and not aesthetically appealing.,-2,280,20","Again. This is pretty neutral, leaning dislike.,-18,200,20","Looks childish and basic,-42,120,20","It uplifts my mood due to the color scheme,32,160,20","The red looks like blood and im not a huge fan,15,300,20","Sara","It uplifts my mood due to the color scheme,32,160,20","Crystal","It looks like a tree but the bleeding water colors lack borders and makes it hard to appreciate the message.,-41,300,20","Angelica","This is poorly done and not aesthetically appealing.,-2,280,20","2"
"14327","","survey-text","52","526929","0.0-51.0-0.0","A3APMO8WXVH1V0","","","","{""Q0"":""reminds me of a close up of a tree at nighttime""}","","","","","","","","","","","","","","","","","","","","","","",""
"2804.5","","image-slider-response","53","529736","0.0-52.0","A3APMO8WXVH1V0","","","","","-3","","","","","","","","","","","","","","","","","","","","","",""
"3552","","image-button-response","54","534745","0.0-53.0","A3APMO8WXVH1V0","img_art/13.jpg","2","","","","","","","","","","","","","","","","","","","","","","","","",""
"353","","image-button-response","55","535102","0.0-54.0","A3APMO8WXVH1V0","img_art/13.jpg","4","","","","","","","","","","","","","","","","","","","","","","","","",""
"1797","","image-button-response","56","536901","0.0-55.0-0.0","A3APMO8WXVH1V0","img_art/13.jpg","5","","","","","","","","","","","","","","","","","","","","","","","","",""
"1232","","image-button-response","57","538135","0.0-56.0-0.0","A3APMO8WXVH1V0","img_art/13.jpg","2","","","","","","","","","","","","","","","","","","","","","","","","",""
"null","","html-keyboard-response","58","539637","0.0-57.0","A3APMO8WXVH1V0","<p style=""font-size: 48px;"">+</p>","","","","","null","allTrialResponses","1500","1","2","img_art/13.jpg","-3","reminds me of a close up of a tree at nighttime","Crystal,Angelica,Heather,Diana,Sara,Katie","Reminiscent of Jackson Pollock and gives me a feeling of chaotic satisfaction,50,300,20","It's too violent looking and there's too much contrast between the white/black.,-21,280,20","rain in blue black and white,1,260,20","I really loved the color contrast. Having the white stripe in the center makes the it appear 3D.,11,380,20","I love the different blue shades,31,160,20","Cool and calming colors. I like splatter art.,10,160,20","Sara","I love the different blue shades,31,160,20","Katie","Cool and calming colors. I like splatter art.,10,160,20","Heather","rain in blue black and white,1,260,20","2"
"10730","","survey-text","59","550372","0.0-58.0-0.0","A3APMO8WXVH1V0","","","","{""Q0"":""too busy; too many colors; the white is disorienting""}","","","","","","","","","","","","","","","","","","","","","","",""
"1910.1999998092651","","image-slider-response","60","552284","0.0-59.0","A3APMO8WXVH1V0","","","","","-35","","","","","","","","","","","","","","","","","","","","","",""
"null","","image-button-response","61","557287","0.0-60.0","A3APMO8WXVH1V0","img_art/23.jpg","null","","","","","","","","","","","","","","","","","","","","","","","","",""
"696","","image-button-response","62","557985","0.0-61.0","A3APMO8WXVH1V0","img_art/23.jpg","5","","","","","","","","","","","","","","","","","","","","","","","","",""
"2936","","image-button-response","63","560922","0.0-62.0-0.0","A3APMO8WXVH1V0","img_art/23.jpg","2","","","","","","","","","","","","","","","","","","","","","","","","",""
"4024","","image-button-response","64","564949","0.0-63.0-0.0","A3APMO8WXVH1V0","img_art/23.jpg","1","","","","","","","","","","","","","","","","","","","","","","","","",""
"null","","html-keyboard-response","65","565958","0.0-64.0","A3APMO8WXVH1V0","<p style=""font-size: 48px;"">+</p>","","","","","null","allTrialResponses","1000","1","3","img_art/23.jpg","-35","too busy; too many colors; the white is disorienting","Madison,Madeline,Heather,Catherine,Sara,Katie","Looks celebratory and joyful! However, the photograph does not do the original work's colors justice.,27,60,20","background is great but the white is a bit weird,3,40,20","illegible wording with a graffiti background,1,260,20","Partying, dancing, delusion, kaus.,10,160,20","Beautiful color scheme,21,160,20","I don't get it! the white in the middle of the speckled rainbow is confusing.,-10,160,20","Katie","I don't get it! the white in the middle of the speckled rainbow is confusing.,-10,160,20","Heather","illegible wording with a graffiti background,1,260,20","Madeline","background is great but the white is a bit weird,3,40,20","2"
"11104","","survey-text","66","577074","0.0-65.0-0.0","A3APMO8WXVH1V0","","","","{""Q0"":""looks like a child's painting; poor colors""}","","","","","","","","","","","","","","","","","","","","","","",""
"2830.699999809265","","image-slider-response","67","579906","0.0-66.0","A3APMO8WXVH1V0","","","","","-42","","","","","","","","","","","","","","","","","","","","","",""
"2773","","image-button-response","68","584909","0.0-67.0","A3APMO8WXVH1V0","img_art/2.jpg","0","","","","","","","","","","","","","","","","","","","","","","","","",""
"222","","image-button-response","69","585142","0.0-68.0","A3APMO8WXVH1V0","img_art/2.jpg","3","","","","","","","","","","","","","","","","","","","","","","","","",""
"4409","","image-button-response","70","589552","0.0-69.0-0.0","A3APMO8WXVH1V0","img_art/2.jpg","1","","","","","","","","","","","","","","","","","","","","","","","","",""
"1054","","image-button-response","71","590608","0.0-70.0-0.0","A3APMO8WXVH1V0","img_art/2.jpg","0","","","","","","","","","","","","","","","","","","","","","","","","",""
"null","","html-keyboard-response","72","591610","0.0-71.0","A3APMO8WXVH1V0","<p style=""font-size: 48px;"">+</p>","","","","","null","allTrialResponses","1000","1","4","img_art/2.jpg","-42","looks like a child's painting; poor colors","Cassandra,Madeline,Heather,Kaylee,Ashley,Katie","I didn't like this it looked like a kindergardner painted it and the green was out of place.,-46,120,20","I don't really like this style,-5,40,20","i like the colors and again can make out my own picture,38,260,20","its ugly af to be honest,-50,200,20","I think I can make out a face in there.,25,320,20","Doesn't look like anything. Just a blob of colors.,1,160,20","Kaylee","its ugly af to be honest,-50,200,20","Madeline","I don't really like this style,-5,40,20","Cassandra","I didn't like this it looked like a kindergardner painted it and the green was out of place.,-46,120,20","2"
"13117","","survey-text","73","604736","0.0-72.0-0.0","A3APMO8WXVH1V0","","","","{""Q0"":""sloppy and untalented; bad color scheme""}","","","","","","","","","","","","","","","","","","","","","","",""
"3929.9000000953674","","image-slider-response","74","608667","0.0-73.0","A3APMO8WXVH1V0","","","","","-43","","","","","","","","","","","","","","","","","","","","","",""
"4864","","image-button-response","75","613677","0.0-74.0","A3APMO8WXVH1V0","img_art/30.jpg","0","","","","","","","","","","","","","","","","","","","","","","","","",""
"5169","","image-button-response","76","618848","0.0-75.0","A3APMO8WXVH1V0","img_art/30.jpg","2","","","","","","","","","","","","","","","","","","","","","","","","",""
"592","","image-button-response","77","619442","0.0-76.0-0.0","A3APMO8WXVH1V0","img_art/30.jpg","1","","","","","","","","","","","","","","","","","","","","","","","","",""
"397","","image-button-response","78","619842","0.0-77.0-0.0","A3APMO8WXVH1V0","img_art/30.jpg","0","","","","","","","","","","","","","","","","","","","","","","","","",""
"null","","html-keyboard-response","79","620851","0.0-78.0","A3APMO8WXVH1V0","<p style=""font-size: 48px;"">+</p>","","","","","null","allTrialResponses","1000","1","5","img_art/30.jpg","-43","sloppy and untalented; bad color scheme","Cassandra,Madeline,Chelsea,Kaylee,Courtney,Megan","I didn't like this...it looks like someone just finger painted it.,-10,120,20","A bit haphazard looking and lacking in vision,2,40,20","It looks like it was painted in 5 minutes.,-32,180,20","i cant really get it,-35,200,20","Some people dancing.,-7,280,20","10 year old 10 minute project ""Fun with Painting"",-42,200,20","Chelsea","It looks like it was painted in 5 minutes.,-32,180,20","Madeline","A bit haphazard looking and lacking in vision,2,40,20","Cassandra","I didn't like this...it looks like someone just finger painted it.,-10,120,20","2"
"4396","","survey-text","80","625271","0.0-79.0-0.0","A3APMO8WXVH1V0","","","","{""Q0"":""sky""}","","","","","","","","","","","","","","","","","","","","","","",""
"12780","","survey-text","81","638052","0.0-80.0-0.0","A3APMO8WXVH1V0","","","","{""Q0"":""poorly implemented design and materials""}","","","","","","","","","","","","","","","","","","","","","","",""
"2715.300000190735","","image-slider-response","82","640769","0.0-81.0","A3APMO8WXVH1V0","","","","","-46","","","","","","","","","","","","","","","","","","","","","",""
"3485","","image-button-response","83","645786","0.0-82.0","A3APMO8WXVH1V0","img_art/25.jpg","0","","","","","","","","","","","","","","","","","","","","","","","","",""
"411","","image-button-response","84","646200","0.0-83.0","A3APMO8WXVH1V0","img_art/25.jpg","1","","","","","","","","","","","","","","","","","","","","","","","","",""
"505","","image-button-response","85","646708","0.0-84.0-0.0","A3APMO8WXVH1V0","img_art/25.jpg","0","","","","","","","","","","","","","","","","","","","","","","","","",""
"832","","image-button-response","86","647542","0.0-85.0-0.0","A3APMO8WXVH1V0","img_art/25.jpg","2","","","","","","","","","","","","","","","","","","","","","","","","",""
"null","","html-keyboard-response","87","649045","0.0-86.0","A3APMO8WXVH1V0","<p style=""font-size: 48px;"">+</p>","","","","","null","allTrialResponses","1500","1","6","img_art/25.jpg","-46","poorly implemented design and materials","Cassandra,Madeline,Chelsea,Makayla,Amber,Jamie","I hate the colors and the scene,-46,120,20","It looks a bit strange to me, neck too long,-19,40,20","The color and image are unsettling.,-29,180,20","It's very mystical.,5,80,20","Regal. Reminds me of Egyptian art.,11,200,20","Cool color scheme and appears to be a statue of some type of revered god,40,320,20","Madeline","It looks a bit strange to me, neck too long,-19,40,20","Cassandra","I hate the colors and the scene,-46,120,20","Chelsea","The color and image are unsettling.,-29,180,20","2"
"14454","","survey-text","88","663505","0.0-87.0-0.0","A3APMO8WXVH1V0","","","","{""Q0"":""the soft colors are nonthreatening and evoke relaxation""}","","","","","","","","","","","","","","","","","","","","","","",""
"1896.0999999046326","","image-slider-response","89","665404","0.0-88.0","A3APMO8WXVH1V0","","","","","10","","","","","","","","","","","","","","","","","","","","","",""
"4216","","image-button-response","90","670408","0.0-89.0","A3APMO8WXVH1V0","img_art/26.jpg","1","","","","","","","","","","","","","","","","","","","","","","","","",""
"1324","","image-button-response","91","671734","0.0-90.0","A3APMO8WXVH1V0","img_art/26.jpg","2","","","","","","","","","","","","","","","","","","","","","","","","",""
"1912","","image-button-response","92","673648","0.0-91.0-0.0","A3APMO8WXVH1V0","img_art/26.jpg","1","","","","","","","","","","","","","","","","","","","","","","","","",""
"2203","","image-button-response","93","675854","0.0-92.0-0.0","A3APMO8WXVH1V0","img_art/26.jpg","4","","","","","","","","","","","","","","","","","","","","","","","","",""
"null","","html-keyboard-response","94","676356","0.0-93.0","A3APMO8WXVH1V0","<p style=""font-size: 48px;"">+</p>","","","","","null","allTrialResponses","500","1","7","img_art/26.jpg","10","the soft colors are nonthreatening and evoke relaxation","Cassandra,Madeline,Chelsea,Alexis,Marissa,Erika","Neutral...nothing to say.,3,120,20","I like the shapes but needs more detail i think,3,40,20","I wish it were more pastel but I think it is relaxing to look at.,30,180,20","Much too simple and without color for my taste,-33,100,20","It feels simple and pretty,12,160,20","Feels like still life,-13,100,20","Chelsea","I wish it were more pastel but I think it is relaxing to look at.,30,180,20","Madeline","I like the shapes but needs more detail i think,3,40,20","Marissa","It feels simple and pretty,12,160,20","2"
"21389","","survey-text","95","697756","0.0-94.0-0.0","A3APMO8WXVH1V0","","","","{""Q0"":""bad perspective; sloppy implementation""}","","","","","","","","","","","","","","","","","","","","","","",""
"2048.699999809265","","image-slider-response","96","699808","0.0-95.0","A3APMO8WXVH1V0","","","","","-32","","","","","","","","","","","","","","","","","","","","","",""
"3449","","image-button-response","97","704815","0.0-96.0","A3APMO8WXVH1V0","img_art/19.jpg","2","","","","","","","","","","","","","","","","","","","","","","","","",""
"2807","","image-button-response","98","707626","0.0-97.0","A3APMO8WXVH1V0","img_art/19.jpg","0","","","","","","","","","","","","","","","","","","","","","","","","",""
"1518","","image-button-response","99","709146","0.0-98.0-0.0","A3APMO8WXVH1V0","img_art/19.jpg","1","","","","","","","","","","","","","","","","","","","","","","","","",""
"351","","image-button-response","100","709500","0.0-99.0-0.0","A3APMO8WXVH1V0","img_art/19.jpg","2","","","","","","","","","","","","","","","","","","","","","","","","",""
"null","","html-keyboard-response","101","711003","0.0-100.0","A3APMO8WXVH1V0","<p style=""font-size: 48px;"">+</p>","","","","","null","allTrialResponses","1500","1","8","img_art/19.jpg","-32","bad perspective; sloppy implementation","Shelby,Madeline,Chelsea,Miranda,Marissa,Michelle","Something weird is going on in this painting,-20,240,20","Looks a bit too loose,-2,40,20","It is too busy.,-34,180,20","It looks cool but at the time looks like it was done by a talented 5 year old.,13,320,20","It makes me feel like it is of a street of bakeries,15,160,20","I like the water but again, the small lines with no detail are irritating,3,280,20","Shelby","Something weird is going on in this painting,-20,240,20","Madeline","Looks a bit too loose,-2,40,20","Chelsea","It is too busy.,-34,180,20","2"
"19113","","survey-text","102","730126","0.0-101.0-0.0","A3APMO8WXVH1V0","","","","{""Q0"":""the lines and colors are visually appealing""}","","","","","","","","","","","","","","","","","","","","","","",""
"1756","","image-slider-response","103","731884","0.0-102.0","A3APMO8WXVH1V0","","","","","27","","","","","","","","","","","","","","","","","","","","","",""
"4618","","image-button-response","104","736887","0.0-103.0","A3APMO8WXVH1V0","img_art/11.jpg","2","","","","","","","","","","","","","","","","","","","","","","","","",""
"1341","","image-button-response","105","738230","0.0-104.0","A3APMO8WXVH1V0","img_art/11.jpg","4","","","","","","","","","","","","","","","","","","","","","","","","",""
"1534","","image-button-response","106","739766","0.0-105.0-0.0","A3APMO8WXVH1V0","img_art/11.jpg","2","","","","","","","","","","","","","","","","","","","","","","","","",""
"622","","image-button-response","107","740390","0.0-106.0-0.0","A3APMO8WXVH1V0","img_art/11.jpg","0","","","","","","","","","","","","","","","","","","","","","","","","",""
"null","","html-keyboard-response","108","741405","0.0-107.0","A3APMO8WXVH1V0","<p style=""font-size: 48px;"">+</p>","","","","","null","allTrialResponses","1000","1","9","img_art/11.jpg","27","the lines and colors are visually appealing","Shelby,Madeline,Chelsea,Dominique,Cynthia,Kathryn","The movement in this one is extremely pleasent,40,240,20","I like the vibe of the painting,-3,40,20","I like the harsh black lines against a soft background.,27,180,20","Looks like a familiar area,31,400,20","Sad but hopeful,43,320,20","This is disorienting, like motion sickness.,-20,140,20","Cynthia","Sad but hopeful,43,320,20","Chelsea","I like the harsh black lines against a soft background.,27,180,20","Shelby","The movement in this one is extremely pleasent,40,240,20","2"
"13356","","survey-text","109","754777","0.0-108.0-0.0","A3APMO8WXVH1V0","","","","{""Q0"":""the technique is ephemeral and inspiring; beautiful soft colors""}","","","","","","","","","","","","","","","","","","","","","","",""
"2652.5","","image-slider-response","110","757432","0.0-109.0","A3APMO8WXVH1V0","","","","","37","","","","","","","","","","","","","","","","","","","","","",""
"2035","","image-button-response","111","762435","0.0-110.0","A3APMO8WXVH1V0","img_art/17.jpg","1","","","","","","","","","","","","","","","","","","","","","","","","",""
"878","","image-button-response","112","763316","0.0-111.0","A3APMO8WXVH1V0","img_art/17.jpg","0","","","","","","","","","","","","","","","","","","","","","","","","",""
"7933","","image-button-response","113","771250","0.0-112.0-0.0","A3APMO8WXVH1V0","img_art/17.jpg","5","","","","","","","","","","","","","","","","","","","","","","","","",""
"2136","","image-button-response","114","773388","0.0-113.0-0.0","A3APMO8WXVH1V0","img_art/17.jpg","3","","","","","","","","","","","","","","","","","","","","","","","","",""
"null","","html-keyboard-response","115","774892","0.0-114.0","A3APMO8WXVH1V0","<p style=""font-size: 48px;"">+</p>","","","","","null","allTrialResponses","1500","1","10","img_art/17.jpg","37","the technique is ephemeral and inspiring; beautiful soft colors","Shelby,Mary,Chelsea,Lauren,Cynthia,Rebecca","This feels like creativity and limitlessness,30,240,20","The colors are nice and soft but not very complimentary.,7,180,20","The colors are soft.,32,180,20","I like how the image gives an impression of gaseous tree.,15,340,20","battle between nature and man,31,320,20","tree sprouting out of a box (house) the invasion of nature?,39,100,20","Shelby","This feels like creativity and limitlessness,30,240,20","Rebecca","tree sprouting out of a box (house) the invasion of nature?,39,100,20","Lauren","I like how the image gives an impression of gaseous tree.,15,340,20","2"
"3508","","survey-text","116","778416","0.0-115.0-0.0","A3APMO8WXVH1V0","","","","{""Q0"":""our""}","","","","","","","","","","","","","","","","","","","","","","",""
"48508","","survey-text","117","826924","0.0-116.0-0.0","A3APMO8WXVH1V0","","","","{""Q0"":""the warm and cool colors compliment each other nicely here.""}","","","","","","","","","","","","","","","","","","","","","","",""
"3433.800000190735","","image-slider-response","118","830360","0.0-117.0","A3APMO8WXVH1V0","","","","","13","","","","","","","","","","","","","","","","","","","","","",""
"4400","","image-button-response","119","835364","0.0-118.0","A3APMO8WXVH1V0","img_art/1.jpg","4","","","","","","","","","","","","","","","","","","","","","","","","",""
"1886","","image-button-response","120","837252","0.0-119.0","A3APMO8WXVH1V0","img_art/1.jpg","0","","","","","","","","","","","","","","","","","","","","","","","","",""
"1056","","image-button-response","121","838310","0.0-120.0-0.0","A3APMO8WXVH1V0","img_art/1.jpg","1","","","","","","","","","","","","","","","","","","","","","","","","",""
"1078","","image-button-response","122","839390","0.0-121.0-0.0","A3APMO8WXVH1V0","img_art/1.jpg","4","","","","","","","","","","","","","","","","","","","","","","","","",""
"null","","html-keyboard-response","123","840905","0.0-122.0","A3APMO8WXVH1V0","<p style=""font-size: 48px;"">+</p>","","","","","null","allTrialResponses","1500","1","11","img_art/1.jpg","13","the warm and cool colors compliment each other nicely here.","Shelby,Alexa,Alicia,Lauren,Kimberly,Rebecca","This one has a pleasent energy,15,240,20","The blend of colors are gorgeous and reminds me of fall,32,40,20","just colors mixed together. not interesting.,5,120,20","This image doesn't invoke much in me.,0,340,20","It's like being out on a psychedelic lake,32,260,20","bamboo boat in sunset,12,100,20","Shelby","This one has a pleasent energy,15,240,20","Alexa","The blend of colors are gorgeous and reminds me of fall,32,40,20","Kimberly","It's like being out on a psychedelic lake,32,260,20","2"
"14446","","survey-text","124","855365","0.0-123.0-0.0","A3APMO8WXVH1V0","","","","{""Q0"":""looks like this was painted in 5 minutes; not inspiring""}","","","","","","","","","","","","","","","","","","","","","","",""
"2662.800000190735","","image-slider-response","125","858030","0.0-124.0","A3APMO8WXVH1V0","","","","","-37","","","","","","","","","","","","","","","","","","","","","",""
"2728","","image-button-response","126","863039","0.0-125.0","A3APMO8WXVH1V0","img_art/5.jpg","2","","","","","","","","","","","","","","","","","","","","","","","","",""
"1435","","image-button-response","127","864478","0.0-126.0","A3APMO8WXVH1V0","img_art/5.jpg","5","","","","","","","","","","","","","","","","","","","","","","","","",""
"1092","","image-button-response","128","865572","0.0-127.0-0.0","A3APMO8WXVH1V0","img_art/5.jpg","2","","","","","","","","","","","","","","","","","","","","","","","","",""
"3130","","image-button-response","129","868704","0.0-128.0-0.0","A3APMO8WXVH1V0","img_art/5.jpg","3","","","","","","","","","","","","","","","","","","","","","","","","",""
"null","","html-keyboard-response","130","869722","0.0-129.0","A3APMO8WXVH1V0","<p style=""font-size: 48px;"">+</p>","","","","","null","allTrialResponses","1000","1","12","img_art/5.jpg","-37","looks like this was painted in 5 minutes; not inspiring","Shelby,Alexa,Sabrina,Julia,Kimberly,Taylor","This feels joyful,39,240,20","It's okay. Don't hate it but don't love it either,0,40,20","Very messy and not a lot of thought,-29,120,20","I like this one but wish it had more context around it,18,40,20","It feels positive and kind of uplifting,24,260,20","Doesn't make me think anything,-1,340,20","Taylor","Doesn't make me think anything,-1,340,20","Sabrina","Very messy and not a lot of thought,-29,120,20","Julia","I like this one but wish it had more context around it,18,40,20","2"
"19708","","survey-text","131","889438","0.0-130.0-0.0","A3APMO8WXVH1V0","","","","{""Q0"":""looks juvenile and as if no thought was put into it.""}","","","","","","","","","","","","","","","","","","","","","","",""
"1477.7999997138977","","image-slider-response","132","890920","0.0-131.0","A3APMO8WXVH1V0","","","","","-47","","","","","","","","","","","","","","","","","","","","","",""
"null","","image-button-response","133","895940","0.0-132.0","A3APMO8WXVH1V0","img_art/16.jpg","null","","","","","","","","","","","","","","","","","","","","","","","","",""
"597","","image-button-response","134","896540","0.0-133.0","A3APMO8WXVH1V0","img_art/16.jpg","5","","","","","","","","","","","","","","","","","","","","","","","","",""
"2059","","image-button-response","135","898600","0.0-134.0-0.0","A3APMO8WXVH1V0","img_art/16.jpg","0","","","","","","","","","","","","","","","","","","","","","","","","",""
"667","","image-button-response","136","899270","0.0-135.0-0.0","A3APMO8WXVH1V0","img_art/16.jpg","2","","","","","","","","","","","","","","","","","","","","","","","","",""
"null","","html-keyboard-response","137","900783","0.0-136.0","A3APMO8WXVH1V0","<p style=""font-size: 48px;"">+</p>","","","","","null","allTrialResponses","1500","1","13","img_art/16.jpg","-47","looks juvenile and as if no thought was put into it.","Allison,Elizabeth,Sabrina,Julia,Jessica,Taylor","Hard contrast, but no emotions towards any of the objects.,-6,140,20","Picture seems unique,12,20,20","Kind of an edgy teenager vibe,32,120,20","I love the teddy bear,50,40,20","Cool but the bear creeps me out?,8,400,20","It just makes me feel uncomfortable,-25,340,20","Taylor","It just makes me feel uncomfortable,-25,340,20","Allison","Hard contrast, but no emotions towards any of the objects.,-6,140,20","Sabrina","Kind of an edgy teenager vibe,32,120,20","2"
"16189","","survey-text","138","916976","0.0-137.0-0.0","A3APMO8WXVH1V0","","","","{""Q0"":""the lines, shapes, and colors work together to make something unique and thought provoking.""}","","","","","","","","","","","","","","","","","","","","","","",""
"2905.5999999046326","","image-slider-response","139","919884","0.0-138.0","A3APMO8WXVH1V0","","","","","34","","","","","","","","","","","","","","","","","","","","","",""
"null","","image-button-response","140","924887","0.0-139.0","A3APMO8WXVH1V0","img_art/18.jpg","null","","","","","","","","","","","","","","","","","","","","","","","","",""
"1678","","image-button-response","141","926568","0.0-140.0","A3APMO8WXVH1V0","img_art/18.jpg","2","","","","","","","","","","","","","","","","","","","","","","","","",""
"4804","","image-button-response","142","931374","0.0-141.0-0.0","A3APMO8WXVH1V0","img_art/18.jpg","1","","","","","","","","","","","","","","","","","","","","","","","","",""
"507","","image-button-response","143","931884","0.0-142.0-0.0","A3APMO8WXVH1V0","img_art/18.jpg","0","","","","","","","","","","","","","","","","","","","","","","","","",""
"null","","html-keyboard-response","144","933402","0.0-143.0","A3APMO8WXVH1V0","<p style=""font-size: 48px;"">+</p>","","","","","null","allTrialResponses","1500","1","14","img_art/18.jpg","34","the lines, shapes, and colors work together to make something unique and thought provoking.","Allison,Shannon,Sabrina,Jasmine,Sierra,Taylor","Colors are okay. Reminds me of cavalry.,10,140,20","I think its supposed to be a boat and the boat looks kind of interesting to me.,10,220,20","I love the battle vibe in this,50,120,20","I feel indifferent about this one,0,340,20","it looks like people,9,260,20","Another ominous painting,-10,340,20","Sabrina","I love the battle vibe in this,50,120,20","Shannon","I think its supposed to be a boat and the boat looks kind of interesting to me.,10,220,20","Allison","Colors are okay. Reminds me of cavalry.,10,140,20","2"
"18745","","survey-text","145","952154","0.0-144.0-0.0","A3APMO8WXVH1V0","","","","{""Q0"":""the soft edges are complimented by the contrast of both color schemes""}","","","","","","","","","","","","","","","","","","","","","","",""
"1810.2000002861023","","image-slider-response","146","953966","0.0-145.0","A3APMO8WXVH1V0","","","","","12","","","","","","","","","","","","","","","","","","","","","",""
"3228","","image-button-response","147","958977","0.0-146.0","A3APMO8WXVH1V0","img_art/21.jpg","1","","","","","","","","","","","","","","","","","","","","","","","","",""
"1418","","image-button-response","148","960398","0.0-147.0","A3APMO8WXVH1V0","img_art/21.jpg","5","","","","","","","","","","","","","","","","","","","","","","","","",""
"885","","image-button-response","149","961285","0.0-148.0-0.0","A3APMO8WXVH1V0","img_art/21.jpg","2","","","","","","","","","","","","","","","","","","","","","","","","",""
"591","","image-button-response","150","961878","0.0-149.0-0.0","A3APMO8WXVH1V0","img_art/21.jpg","1","","","","","","","","","","","","","","","","","","","","","","","","",""
"null","","html-keyboard-response","151","963380","0.0-150.0","A3APMO8WXVH1V0","<p style=""font-size: 48px;"">+</p>","","","","","null","allTrialResponses","1500","1","15","img_art/21.jpg","12","the soft edges are complimented by the contrast of both color schemes","Allison,Shannon,Sabrina,Sydney,Isabella,Anna","I like color mix here,15,140,20","I like the sky a little bit the way the colors look for the sky, the cliff side looks a little weird though.,10,220,20","I like the representation of love and hate in this,43,120,20","I love everything about this piece.,50,320,20","It reminds me of war, red blood and dark blue reminds me of an army,-20,280,20","I love the colors and the differences between the left and right sides.,22,300,20","Anna","I love the colors and the differences between the left and right sides.,22,300,20","Sabrina","I like the representation of love and hate in this,43,120,20","Shannon","I like the sky a little bit the way the colors look for the sky, the cliff side looks a little weird though.,10,220,20","2"
"2626","","survey-text","152","966026","0.0-151.0-0.0","A3APMO8WXVH1V0","","","","{""Q0"":""course""}","","","","","","","","","","","","","","","","","","","","","","",""
"13200","","survey-text","153","979227","0.0-152.0-0.0","A3APMO8WXVH1V0","","","","{""Q0"":""evokes sadness and isolation.""}","","","","","","","","","","","","","","","","","","","","","","",""
"3802.9000000953674","","image-slider-response","154","983031","0.0-153.0","A3APMO8WXVH1V0","","","","","2","","","","","","","","","","","","","","","","","","","","","",""
"4534","","image-button-response","155","988034","0.0-154.0","A3APMO8WXVH1V0","img_art/6.jpg","4","","","","","","","","","","","","","","","","","","","","","","","","",""
"2823","","image-button-response","156","990860","0.0-155.0","A3APMO8WXVH1V0","img_art/6.jpg","2","","","","","","","","","","","","","","","","","","","","","","","","",""
"2682","","image-button-response","157","993544","0.0-156.0-0.0","A3APMO8WXVH1V0","img_art/6.jpg","4","","","","","","","","","","","","","","","","","","","","","","","","",""
"6817","","image-button-response","158","1000362","0.0-157.0-0.0","A3APMO8WXVH1V0","img_art/6.jpg","0","","","","","","","","","","","","","","","","","","","","","","","","",""
"null","","html-keyboard-response","159","1001365","0.0-158.0","A3APMO8WXVH1V0","<p style=""font-size: 48px;"">+</p>","","","","","null","allTrialResponses","1000","1","16","img_art/6.jpg","2","evokes sadness and isolation.","Lindsey,Shannon,Sabrina,Morgan,Leslie,Anna","Simple, warm, hopeful.,12,400,20","I can't tell what this image is, but it's boring because of lack of color variety and nothing in it,-41,220,20","I love the representation of death and life.,50,120,20","Desert that's too simple.,-15,380,20","The limited colors make me feel lonely.,36,380,20","It reminds me of a simplistic bird. I like the colors used.,40,300,20","Sabrina","I love the representation of death and life.,50,120,20","Leslie","The limited colors make me feel lonely.,36,380,20","Lindsey","Simple, warm, hopeful.,12,400,20","2"
"27524","","survey-text","160","1028905","0.0-159.0-0.0","A3APMO8WXVH1V0","","","","{""Q0"":""like a flowing geyser in the forest; evokes awe and serenity""}","","","","","","","","","","","","","","","","","","","","","","",""
"2282.800000190735","","image-slider-response","161","1031190","0.0-160.0","A3APMO8WXVH1V0","","","","","11","","","","","","","","","","","","","","","","","","","","","",""
"null","","image-button-response","162","1036207","0.0-161.0","A3APMO8WXVH1V0","img_art/24.jpg","null","","","","","","","","","","","","","","","","","","","","","","","","",""
"2884","","image-button-response","163","1039094","0.0-162.0","A3APMO8WXVH1V0","img_art/24.jpg","0","","","","","","","","","","","","","","","","","","","","","","","","",""
"1218","","image-button-response","164","1040314","0.0-163.0-0.0","A3APMO8WXVH1V0","img_art/24.jpg","2","","","","","","","","","","","","","","","","","","","","","","","","",""
"1532","","image-button-response","165","1041848","0.0-164.0-0.0","A3APMO8WXVH1V0","img_art/24.jpg","3","","","","","","","","","","","","","","","","","","","","","","","","",""
"null","","html-keyboard-response","166","1042856","0.0-165.0","A3APMO8WXVH1V0","<p style=""font-size: 48px;"">+</p>","","","","","null","allTrialResponses","1000","1","17","img_art/24.jpg","11","like a flowing geyser in the forest; evokes awe and serenity","Lindsey,Samantha,Sabrina,Briana,Leslie,Paige","I like the colors and see a stream in a wooded setting. Makes me feel calm and cheerful.,27,400,20","Happy and relaxing bubbling brook,37,140,20","Love the natural vibe,50,120,20","Abstract waterfall landscape. Confusing,-13,400,20","The colors look nice, but the painting bores me.,-20,380,20","somewhat happy. I like the colors,38,60,20","Lindsey","I like the colors and see a stream in a wooded setting. Makes me feel calm and cheerful.,27,400,20","Sabrina","Love the natural vibe,50,120,20","Briana","Abstract waterfall landscape. Confusing,-13,400,20","2"
"18535","","survey-text","167","1061404","0.0-166.0-0.0","A3APMO8WXVH1V0","","","","{""Q0"":""piece looks scribbled together hastily and without thought""}","","","","","","","","","","","","","","","","","","","","","","",""
"1505.1000003814697","","image-slider-response","168","1062912","0.0-167.0","A3APMO8WXVH1V0","","","","","-11","","","","","","","","","","","","","","","","","","","","","",""
"2868","","image-button-response","169","1067914","0.0-168.0","A3APMO8WXVH1V0","img_art/28.jpg","0","","","","","","","","","","","","","","","","","","","","","","","","",""
"4850","","image-button-response","170","1072768","0.0-169.0","A3APMO8WXVH1V0","img_art/28.jpg","2","","","","","","","","","","","","","","","","","","","","","","","","",""
"1116","","image-button-response","171","1073886","0.0-170.0-0.0","A3APMO8WXVH1V0","img_art/28.jpg","0","","","","","","","","","","","","","","","","","","","","","","","","",""
"2542","","image-button-response","172","1076430","0.0-171.0-0.0","A3APMO8WXVH1V0","img_art/28.jpg","3","","","","","","","","","","","","","","","","","","","","","","","","",""
"null","","html-keyboard-response","173","1077933","0.0-172.0","A3APMO8WXVH1V0","<p style=""font-size: 48px;"">+</p>","","","","","null","allTrialResponses","1500","1","18","img_art/28.jpg","-11","piece looks scribbled together hastily and without thought","Lindsey,Sophia,Sabrina,Briana,Tiffany,Olivia","Not a fan of the drab colors but it looks a little bit interesting.,-7,400,20","I think this may have to do with humpty dumpty?,-7,280,20","Self-hate and abuse at home, unsafe and torturing,-30,120,20","Is this anything?,-20,400,20","It makes me feel happy, and a little anxious.,50,360,20","conversating means hope,15,40,20","Sabrina","Self-hate and abuse at home, unsafe and torturing,-30,120,20","Lindsey","Not a fan of the drab colors but it looks a little bit interesting.,-7,400,20","Briana","Is this anything?,-20,400,20","2"
"12905","","survey-text","174","1090846","0.0-173.0-0.0","A3APMO8WXVH1V0","","","","{""Q0"":""the lines draw the eye around the page, which keeps me interested.""}","","","","","","","","","","","","","","","","","","","","","","",""
"2862.7999997138977","","image-slider-response","175","1093712","0.0-174.0","A3APMO8WXVH1V0","","","","","10","","","","","","","","","","","","","","","","","","","","","",""
"3414","","image-button-response","176","1098714","0.0-175.0","A3APMO8WXVH1V0","img_art/10.jpg","4","","","","","","","","","","","","","","","","","","","","","","","","",""
"525","","image-button-response","177","1099242","0.0-176.0","A3APMO8WXVH1V0","img_art/10.jpg","2","","","","","","","","","","","","","","","","","","","","","","","","",""
"2219","","image-button-response","178","1101462","0.0-177.0-0.0","A3APMO8WXVH1V0","img_art/10.jpg","0","","","","","","","","","","","","","","","","","","","","","","","","",""
"954","","image-button-response","179","1102418","0.0-178.0-0.0","A3APMO8WXVH1V0","img_art/10.jpg","4","","","","","","","","","","","","","","","","","","","","","","","","",""
"null","","html-keyboard-response","180","1102925","0.0-179.0","A3APMO8WXVH1V0","<p style=""font-size: 48px;"">+</p>","","","","","null","allTrialResponses","500","1","19","img_art/10.jpg","10","the lines draw the eye around the page, which keeps me interested.","Lindsey,Autumn,Sabrina,Briana,Kristen,Michaela","Looks like a violin. Not a fan of the smudges and smears, but my initial reaction was positive.,11,400,20","It just looks like a dirty stain.,-38,340,20","I love the dark and edgy nature of this,50,120,20","It confuses me. I dont know whats going on,14,400,20","music, serenity, love,33,280,20","It looks like it's sinking but it could also be a view from above,40,260,20","Sabrina","I love the dark and edgy nature of this,50,120,20","Lindsey","Looks like a violin. Not a fan of the smudges and smears, but my initial reaction was positive.,11,400,20","Kristen","music, serenity, love,33,280,20","2"
"12853","","survey-text","181","1115792","0.0-180.0-0.0","A3APMO8WXVH1V0","","","","{""Q0"":""chaotic and unsettling vibe""}","","","","","","","","","","","","","","","","","","","","","","",""
"2545.5","","image-slider-response","182","1118339","0.0-181.0","A3APMO8WXVH1V0","","","","","-35","","","","","","","","","","","","","","","","","","","","","",""
"3315","","image-button-response","183","1123344","0.0-182.0","A3APMO8WXVH1V0","img_art/29.jpg","0","","","","","","","","","","","","","","","","","","","","","","","","",""
"621","","image-button-response","184","1123970","0.0-183.0","A3APMO8WXVH1V0","img_art/29.jpg","3","","","","","","","","","","","","","","","","","","","","","","","","",""
"2004","","image-button-response","185","1125976","0.0-184.0-0.0","A3APMO8WXVH1V0","img_art/29.jpg","1","","","","","","","","","","","","","","","","","","","","","","","","",""
"351","","image-button-response","186","1126330","0.0-185.0-0.0","A3APMO8WXVH1V0","img_art/29.jpg","0","","","","","","","","","","","","","","","","","","","","","","","","",""
"null","","html-keyboard-response","187","1127336","0.0-186.0","A3APMO8WXVH1V0","<p style=""font-size: 48px;"">+</p>","","","","","null","allTrialResponses","1000","1","20","img_art/29.jpg","-35","chaotic and unsettling vibe","Lindsey,Victoria,Sabrina,Monica,Kristen,Amy","Again, ugly colors and I'm not a fan of abstract. This looks like the view into a garbage dump.,-50,400,20","makes me think of destruction,-20,400,20","I love the representation of a mess,50,120,20","There's too much black and it looks sloppy,-35,360,20","danger, crime scene,,10,280,20","The textures bring this painting alive. A window to another existence with infinite possibility.,25,220,20","Monica","There's too much black and it looks sloppy,-35,360,20","Victoria","makes me think of destruction,-20,400,20","Lindsey","Again, ugly colors and I'm not a fan of abstract. This looks like the view into a garbage dump.,-50,400,20","2"
"4216","","survey-text","188","1131563","0.0-187.0-0.0","A3APMO8WXVH1V0","","","","{""Q0"":""we""}","","","","","","","","","","","","","","","","","","","","","","",""
"46467","","survey-text","189","1178037","0.0-188.0-0.0","A3APMO8WXVH1V0","","","","{""Q0"":""overuse of the black is redundant and uninspiring.""}","","","","","","","","","","","","","","","","","","","","","","",""
"2420.300000190735","","image-slider-response","190","1180462","0.0-189.0","A3APMO8WXVH1V0","","","","","-16","","","","","","","","","","","","","","","","","","","","","",""
"null","","image-button-response","191","1185466","0.0-190.0","A3APMO8WXVH1V0","img_art/15.jpg","null","","","","","","","","","","","","","","","","","","","","","","","","",""
"1121","","image-button-response","192","1186592","0.0-191.0","A3APMO8WXVH1V0","img_art/15.jpg","0","","","","","","","","","","","","","","","","","","","","","","","","",""
"3516","","image-button-response","193","1190110","0.0-192.0-0.0","A3APMO8WXVH1V0","img_art/15.jpg","3","","","","","","","","","","","","","","","","","","","","","","","","",""
"746","","image-button-response","194","1190858","0.0-193.0-0.0","A3APMO8WXVH1V0","img_art/15.jpg","5","","","","","","","","","","","","","","","","","","","","","","","","",""
"null","","html-keyboard-response","195","1192369","0.0-194.0","A3APMO8WXVH1V0","<p style=""font-size: 48px;"">+</p>","","","","","null","allTrialResponses","1500","1","21","img_art/15.jpg","-16","overuse of the black is redundant and uninspiring.","Lindsey,Victoria,Brooke,Monica,Rachel,Emily","Not a fan. This piece would only go with very specific decor in a modern home.,-35,400,20","makes me feel calm,40,400,20","This one reminds me of a postage stamp, but branches and leaves. Kind of fun.,15,60,20","I don't feel much of anything when looking at this, it's just a random pattern,1,360,20","Reminds me of blue birds in a tree at night. I love nature.,40,80,20","Looks incomplete.,-19,40,20","Lindsey","Not a fan. This piece would only go with very specific decor in a modern home.,-35,400,20","Monica","I don't feel much of anything when looking at this, it's just a random pattern,1,360,20","Emily","Looks incomplete.,-19,40,20","2"
"20494","","survey-text","196","1212889","0.0-195.0-0.0","A3APMO8WXVH1V0","","","","{""Q0"":""the colors are relaxing, but it looks like a child scribbled on it in crayon.""}","","","","","","","","","","","","","","","","","","","","","","",""
"2348.9000000953674","","image-slider-response","197","1215225","0.0-196.0","A3APMO8WXVH1V0","","","","","-16","","","","","","","","","","","","","","","","","","","","","",""
"1426","","image-button-response","198","1220229","0.0-197.0","A3APMO8WXVH1V0","img_art/27.jpg","2","","","","","","","","","","","","","","","","","","","","","","","","",""
"91","","image-button-response","199","1220323","0.0-198.0","A3APMO8WXVH1V0","img_art/27.jpg","3","","","","","","","","","","","","","","","","","","","","","","","","",""
"2337","","image-button-response","200","1222662","0.0-199.0-0.0","A3APMO8WXVH1V0","img_art/27.jpg","5","","","","","","","","","","","","","","","","","","","","","","","","",""
"961","","image-button-response","201","1223625","0.0-200.0-0.0","A3APMO8WXVH1V0","img_art/27.jpg","2","","","","","","","","","","","","","","","","","","","","","","","","",""
"null","","html-keyboard-response","202","1224127","0.0-201.0","A3APMO8WXVH1V0","<p style=""font-size: 48px;"">+</p>","","","","","null","allTrialResponses","500","1","22","img_art/27.jpg","-16","the colors are relaxing, but it looks like a child scribbled on it in crayon.","Lindsey,Bailey,Alexandria,Monica,Maria,Emily","Looks like my niece's doodles.,-50,400,20","Looks like a splash of different colors and designs without purpose,-44,360,20","it looks very simple and childlike,-31,80,20","It tries to remind me of the autumn season but it's grey and looks dirty,-5,360,20","I generally enjoy the style, but I'm finding the green lines grating,-9,120,20","Anyone could do that.,-31,40,20","Monica","It tries to remind me of the autumn season but it's grey and looks dirty,-5,360,20","Emily","Anyone could do that.,-31,40,20","Alexandria","it looks very simple and childlike,-31,80,20","2"
"10570","","survey-text","203","1234717","0.0-202.0-0.0","A3APMO8WXVH1V0","","","","{""Q0"":""looks like diarrhea wiped on the page.""}","","","","","","","","","","","","","","","","","","","","","","",""
"2856.5999999046326","","image-slider-response","204","1237577","0.0-203.0","A3APMO8WXVH1V0","","","","","-49","","","","","","","","","","","","","","","","","","","","","",""
"null","","image-button-response","205","1242595","0.0-204.0","A3APMO8WXVH1V0","img_art/4.jpg","null","","","","","","","","","","","","","","","","","","","","","","","","",""
"850","","image-button-response","206","1243448","0.0-205.0","A3APMO8WXVH1V0","img_art/4.jpg","4","","","","","","","","","","","","","","","","","","","","","","","","",""
"522","","image-button-response","207","1243972","0.0-206.0-0.0","A3APMO8WXVH1V0","img_art/4.jpg","5","","","","","","","","","","","","","","","","","","","","","","","","",""
"861","","image-button-response","208","1244835","0.0-207.0-0.0","A3APMO8WXVH1V0","img_art/4.jpg","0","","","","","","","","","","","","","","","","","","","","","","","","",""
"null","","html-keyboard-response","209","1246346","0.0-208.0","A3APMO8WXVH1V0","<p style=""font-size: 48px;"">+</p>","","","","","null","allTrialResponses","1500","1","23","img_art/4.jpg","-49","looks like diarrhea wiped on the page.","Natalie,Laura,Alexandria,Monica,Brittany,Emily","dont know what im looking at,1,400,20","spontaneous, without hesitation,22,320,20","it looks like a simple finger painting, yet i liked the color choices,-12,80,20","The dark yellow color makes me think of mustard, which I dislike,-27,360,20","Rather boring design and colors.,-21,40,20","Looks like a child did it.,-42,40,20","Brittany","Rather boring design and colors.,-21,40,20","Emily","Looks like a child did it.,-42,40,20","Natalie","dont know what im looking at,1,400,20","2"
"22153","","survey-text","210","1268514","0.0-209.0-0.0","A3APMO8WXVH1V0","","","","{""Q0"":""the blocky texture is simple and organized, which complimentary colors""}","","","","","","","","","","","","","","","","","","","","","","",""
"2091","","image-slider-response","211","1270607","0.0-210.0","A3APMO8WXVH1V0","","","","","4","","","","","","","","","","","","","","","","","","","","","",""
"4822","","image-button-response","212","1275625","0.0-211.0","A3APMO8WXVH1V0","img_art/12.jpg","4","","","","","","","","","","","","","","","","","","","","","","","","",""
"1171","","image-button-response","213","1276798","0.0-212.0","A3APMO8WXVH1V0","img_art/12.jpg","1","","","","","","","","","","","","","","","","","","","","","","","","",""
"1526","","image-button-response","214","1278326","0.0-213.0-0.0","A3APMO8WXVH1V0","img_art/12.jpg","4","","","","","","","","","","","","","","","","","","","","","","","","",""
"746","","image-button-response","215","1279074","0.0-214.0-0.0","A3APMO8WXVH1V0","img_art/12.jpg","3","","","","","","","","","","","","","","","","","","","","","","","","",""
"null","","html-keyboard-response","216","1279575","0.0-215.0","A3APMO8WXVH1V0","<p style=""font-size: 48px;"">+</p>","","","","","null","allTrialResponses","500","1","24","img_art/12.jpg","4","the blocky texture is simple and organized, which complimentary colors","Natalie,Chloe,Sarah,Cheyenne,Brittany,Emily","my reaction is that the picture is wierd,-11,400,20","Nice hallway art for a hotel.,21,220,20","i think it's a good piece but it doesn't appeal to me,-18,180,20","Comes off as a bit boring.,-11,200,20","Too blocky and not interesting enough.,-15,40,20","Not quite my style but there more of a pattern and it is interesting to look at.,15,40,20","Chloe","Nice hallway art for a hotel.,21,220,20","Brittany","Too blocky and not interesting enough.,-15,40,20","Cheyenne","Comes off as a bit boring.,-11,200,20","2"
"135374","","survey-text","217","1414955","0.0-216.0-0.0","A3APMO8WXVH1V0","","","","{""Q0"":""good technique and brushstrokes; powerful color and content""}","","","","","","","","","","","","","","","","","","","","","","",""
"2166","","image-slider-response","218","1417124","0.0-217.0","A3APMO8WXVH1V0","","","","","28","","","","","","","","","","","","","","","","","","","","","",""
"null","","image-button-response","219","1422129","0.0-218.0","A3APMO8WXVH1V0","img_art/20.jpg","null","","","","","","","","","","","","","","","","","","","","","","","","",""
"701","","image-button-response","220","1422832","0.0-219.0","A3APMO8WXVH1V0","img_art/20.jpg","4","","","","","","","","","","","","","","","","","","","","","","","","",""
"1371","","image-button-response","221","1424206","0.0-220.0-0.0","A3APMO8WXVH1V0","img_art/20.jpg","1","","","","","","","","","","","","","","","","","","","","","","","","",""
"1499","","image-button-response","222","1425708","0.0-221.0-0.0","A3APMO8WXVH1V0","img_art/20.jpg","0","","","","","","","","","","","","","","","","","","","","","","","","",""
"null","","html-keyboard-response","223","1426210","0.0-222.0","A3APMO8WXVH1V0","<p style=""font-size: 48px;"">+</p>","","","","","null","allTrialResponses","500","1","25","img_art/20.jpg","28","good technique and brushstrokes; powerful color and content","Gabriela,Chloe,Jacqueline,Cheyenne,Brittany,Kelly","it is a bit disturbing, like a monster or ghost floating away from a bleak building,-8,140,20","Mood setting if a little dreary,20,220,20","Looks like a refinery dumping shit into the water.,-40,300,20","Liked the background,15,200,20","The colors and the scene depicted is interesting.,13,40,20","I want to like this more, but i wish it was more detailed. It's hard for me to see what it is.,5,220,20","Brittany","The colors and the scene depicted is interesting.,13,40,20","Chloe","Mood setting if a little dreary,20,220,20","Gabriela","it is a bit disturbing, like a monster or ghost floating away from a bleak building,-8,140,20","2"
"3400","","survey-text","224","1429633","0.0-223.0-0.0","A3APMO8WXVH1V0","","","","{""Q0"":""table""}","","","","","","","","","","","","","","","","","","","","","","",""
"23281","","survey-text","225","1452917","0.0-224.0-0.0","A3APMO8WXVH1V0","","","","{""Q0"":""quirky, surreal, and interesting with the colors and perspective""}","","","","","","","","","","","","","","","","","","","","","","",""
"1472.3000001907349","","image-slider-response","226","1454392","0.0-225.0","A3APMO8WXVH1V0","","","","","38","","","","","","","","","","","","","","","","","","","","","",""
"3104","","image-button-response","227","1459397","0.0-226.0","A3APMO8WXVH1V0","img_art/8.jpg","4","","","","","","","","","","","","","","","","","","","","","","","","",""
"981","","image-button-response","228","1460382","0.0-227.0","A3APMO8WXVH1V0","img_art/8.jpg","2","","","","","","","","","","","","","","","","","","","","","","","","",""
"1721","","image-button-response","229","1462105","0.0-228.0-0.0","A3APMO8WXVH1V0","img_art/8.jpg","4","","","","","","","","","","","","","","","","","","","","","","","","",""
"1881","","image-button-response","230","1463989","0.0-229.0-0.0","A3APMO8WXVH1V0","img_art/8.jpg","1","","","","","","","","","","","","","","","","","","","","","","","","",""
"null","","html-keyboard-response","231","1465000","0.0-230.0","A3APMO8WXVH1V0","<p style=""font-size: 48px;"">+</p>","","","","","null","allTrialResponses","1000","1","26","img_art/8.jpg","38","quirky, surreal, and interesting with the colors and perspective","Gabriela,Chloe,Jenna,Christina,Brittany,Caitlin","I like that it sort of looks like a cityscape,9,140,20","Cheesy. A little too knock you over the dead with its message without making it emotional,-31,220,20","beautiful colors & details. love the surrealism & strange angle. the faces are interesting.,50,360,20","it looks very 80's and kind of scary,-11,240,20","Interesting to look at, there are many things happening in the painting.,32,40,20","And I'll huff and I'll puff and I'll blow your town down!!,20,80,20","Jenna","beautiful colors & details. love the surrealism & strange angle. the faces are interesting.,50,360,20","Brittany","Interesting to look at, there are many things happening in the painting.,32,40,20","Chloe","Cheesy. A little too knock you over the dead with its message without making it emotional,-31,220,20","2"
"8722","","survey-text","232","1473736","0.0-231.0-0.0","A3APMO8WXVH1V0","","","","{""Q0"":""looks like a closeup of a piece of cement""}","","","","","","","","","","","","","","","","","","","","","","",""
"1463","","image-slider-response","233","1475202","0.0-232.0","A3APMO8WXVH1V0","","","","","-45","","","","","","","","","","","","","","","","","","","","","",""
"2188","","image-button-response","234","1480205","0.0-233.0","A3APMO8WXVH1V0","img_art/7.jpg","0","","","","","","","","","","","","","","","","","","","","","","","","",""
"17","","image-button-response","235","1480224","0.0-234.0","A3APMO8WXVH1V0","img_art/7.jpg","4","","","","","","","","","","","","","","","","","","","","","","","","",""
"5172","","image-button-response","236","1485399","0.0-235.0-0.0","A3APMO8WXVH1V0","img_art/7.jpg","3","","","","","","","","","","","","","","","","","","","","","","","","",""
"837","","image-button-response","237","1486243","0.0-236.0-0.0","A3APMO8WXVH1V0","img_art/7.jpg","0","","","","","","","","","","","","","","","","","","","","","","","","",""
"null","","html-keyboard-response","238","1487248","0.0-237.0","A3APMO8WXVH1V0","<p style=""font-size: 48px;"">+</p>","","","","","null","allTrialResponses","1000","1","27","img_art/7.jpg","-45","looks like a closeup of a piece of cement","Erica,Chloe,Jenna,Jordan,Brittany,Destiny","No not cause many emotions,1,80,20","Like the tactile quality,30,220,20","reminds me of a desert from far above,23,360,20","looks like the surface of the moon.,1,20,20","It looks like a wall, not really something I'd enjoy looking at.,-12,40,20","mars also crunchy leaves maybe a beehive,32,360,20","Brittany","It looks like a wall, not really something I'd enjoy looking at.,-12,40,20","Jordan","looks like the surface of the moon.,1,20,20","Erica","No not cause many emotions,1,80,20","2"
"12291","","survey-text","239","1499553","0.0-238.0-0.0","A3APMO8WXVH1V0","","","","{""Q0"":""somber and uninspiring""}","","","","","","","","","","","","","","","","","","","","","","",""
"1432","","image-slider-response","240","1500987","0.0-239.0","A3APMO8WXVH1V0","","","","","-8","","","","","","","","","","","","","","","","","","","","","",""
"null","","image-button-response","241","1506002","0.0-240.0","A3APMO8WXVH1V0","img_art/22.jpg","null","","","","","","","","","","","","","","","","","","","","","","","","",""
"1519","","image-button-response","242","1507524","0.0-241.0","A3APMO8WXVH1V0","img_art/22.jpg","1","","","","","","","","","","","","","","","","","","","","","","","","",""
"1554","","image-button-response","243","1509081","0.0-242.0-0.0","A3APMO8WXVH1V0","img_art/22.jpg","3","","","","","","","","","","","","","","","","","","","","","","","","",""
"508","","image-button-response","244","1509592","0.0-243.0-0.0","A3APMO8WXVH1V0","img_art/22.jpg","5","","","","","","","","","","","","","","","","","","","","","","","","",""
"null","","html-keyboard-response","245","1510607","0.0-244.0","A3APMO8WXVH1V0","<p style=""font-size: 48px;"">+</p>","","","","","null","allTrialResponses","1000","1","28","img_art/22.jpg","-8","somber and uninspiring","Erica,Danielle,Cassidy,Jordan,Brittany,Stephanie","Picture is very relaxing,32,80,20","A bit colorful, but slightly enjoyable, almost gives off castle/sunset vibes,10,340,20","I don't really know why, I just like looking at it,10,140,20","not a fan of this, it's boring,1,20,20","It reminds me of sunsets and dusks.,22,40,20","I don't get much of a reaction.,11,300,20","Danielle","A bit colorful, but slightly enjoyable, almost gives off castle/sunset vibes,10,340,20","Jordan","not a fan of this, it's boring,1,20,20","Stephanie","I don't get much of a reaction.,11,300,20","2"
"19552","","survey-text","246","1530172","0.0-245.0-0.0","A3APMO8WXVH1V0","","","","{""Q0"":""ugly and simplistic, with no real theme or purpose""}","","","","","","","","","","","","","","","","","","","","","","",""
"1191.9000000953674","","image-slider-response","247","1531367","0.0-246.0","A3APMO8WXVH1V0","","","","","-17","","","","","","","","","","","","","","","","","","","","","",""
"4059","","image-button-response","248","1536376","0.0-247.0","A3APMO8WXVH1V0","img_art/3.jpg","1","","","","","","","","","","","","","","","","","","","","","","","","",""
"695","","image-button-response","249","1537075","0.0-248.0","A3APMO8WXVH1V0","img_art/3.jpg","3","","","","","","","","","","","","","","","","","","","","","","","","",""
"2064","","image-button-response","250","1539141","0.0-249.0-0.0","A3APMO8WXVH1V0","img_art/3.jpg","2","","","","","","","","","","","","","","","","","","","","","","","","",""
"548","","image-button-response","251","1539691","0.0-250.0-0.0","A3APMO8WXVH1V0","img_art/3.jpg","1","","","","","","","","","","","","","","","","","","","","","","","","",""
"null","","html-keyboard-response","252","1540699","0.0-251.0","A3APMO8WXVH1V0","<p style=""font-size: 48px;"">+</p>","","","","","null","allTrialResponses","1000","1","29","img_art/3.jpg","-17","ugly and simplistic, with no real theme or purpose","Alyssa,Danielle,Andrea,Jordan,Hailey,Stephanie","Looks like someone spilled ketchup and forgot to clean it up,-30,160,20","Looks like it was painted with blood, which I'm aware is an art style, but it just looks messy.,-20,340,20","I don't feel anything, it seems childish.,-25,240,20","i don't like this, just looks like scribbles,-50,20,20","painted by a 2 year old. cold and boring,-30,200,20","I think of an angry child,-50,300,20","Jordan","i don't like this, just looks like scribbles,-50,20,20","Andrea","I don't feel anything, it seems childish.,-25,240,20","Danielle","Looks like it was painted with blood, which I'm aware is an art style, but it just looks messy.,-20,340,20","2"
"29136","","survey-text","253","1569841","0.0-252.0-0.0","A3APMO8WXVH1V0","","","","{""Q0"":""interesting color combination..kind of looks like isolation in nature""}","","","","","","","","","","","","","","","","","","","","","","",""
"2293.5999999046326","","image-slider-response","254","1572138","0.0-253.0","A3APMO8WXVH1V0","","","","","-3","","","","","","","","","","","","","","","","","","","","","",""
"null","","image-button-response","255","1577152","0.0-254.0","A3APMO8WXVH1V0","img_art/9.jpg","null","","","","","","","","","","","","","","","","","","","","","","","","",""
"480","","image-button-response","256","1577638","0.0-255.0","A3APMO8WXVH1V0","img_art/9.jpg","5","","","","","","","","","","","","","","","","","","","","","","","","",""
"1742","","image-button-response","257","1579382","0.0-256.0-0.0","A3APMO8WXVH1V0","img_art/9.jpg","0","","","","","","","","","","","","","","","","","","","","","","","","",""
"1505","","image-button-response","258","1580889","0.0-257.0-0.0","A3APMO8WXVH1V0","img_art/9.jpg","0","","","","","","","","","","","","","","","","","","","","","","","","",""
"749","","image-button-response","259","1586473","0.0-257.1-0.1","A3APMO8WXVH1V0","img_art/9.jpg","1","","","","","","","","","","","","","","","","","","","","","","","","",""
"null","","html-keyboard-response","260","1586978","0.0-258.0","A3APMO8WXVH1V0","<p style=""font-size: 48px;"">+</p>","","","","","null","allTrialResponses","500","1","30","img_art/9.jpg","-3","interesting color combination..kind of looks like isolation in nature","Kaitlin,Danielle,Andrea,Jordan,Nicole,Jennifer","this looks to be a child nightmare,-10,60,20","Looks like a child's drawing,-40,340,20","Sleeping woman in a cave. Makes me feel safe.,20,240,20","I just dont like it, no reaction from me at all,-50,20,20","It's peaceful and relaxing,24,20,20","This piece is very boring to look at.,-27,380,20","Jennifer","This piece is very boring to look at.,-27,380,20","Kaitlin","this looks to be a child nightmare,-10,60,20","Danielle","Looks like a child's drawing,-40,340,20","4"
"3575","","image-button-response_instructions","261","1590569","0.0-259.0","A3APMO8WXVH1V0","","0","instructions","","","","","","","","","","","","","","","","","","","","","","","",""
"1681","","image-button-response","262","1592257","0.0-260.0","A3APMO8WXVH1V0","","0","","","","","","","","","","","","","","","","","","","","","","","","",""
