"rt","url","trial_type","trial_index","time_elapsed","internal_node_id","participant_id","stimulus","button_pressed","Name","responses","response","key_press","variableName","fixationTime","condition","trial","photo","subjectRating","subjectResponse","agentsNames","agent_1_Response","agent_2_Response","agent_3_Response","agent_4_Response","agent_5_Response","agent_6_Response","kept_1_name","kept_1_response","kept_2_name","kept_2_response","kept_3_name","kept_3_response","errorCounter"
"12025","external_page_harvard.html","external-html","0","13553","0.0-0.0","A3AX7TD0RPYKF8","","","","","","","","","","","","","","","","","","","","","","","","","","",""
"2230","","image-button-response","1","15786","0.0-1.0","A3AX7TD0RPYKF8","","0","","","","","","","","","","","","","","","","","","","","","","","","",""
"2788","","image-button-response","2","18584","0.0-2.0-0.0","A3AX7TD0RPYKF8","","1","phone","","","","","","","","","","","","","","","","","","","","","","","",""
"13195","","survey-text","3","31782","0.0-3.0-0.0","A3AX7TD0RPYKF8","","","","{""Q0"":""A3AX7TD0RPYKF8""}","","","","","","","","","","","","","","","","","","","","","","",""
"9688","","image-button-response_instructions","4","41474","0.0-4.0","A3AX7TD0RPYKF8","","0","instructions","","","","","","","","","","","","","","","","","","","","","","","",""
"18854","","image-button-response_instructions","5","60331","0.0-5.0","A3AX7TD0RPYKF8","img_art/ins/popularity/ins1.png","0","instructions","","","","","","","","","","","","","","","","","","","","","","","",""
"17509","","image-button-response_instructions","6","77842","0.0-6.0","A3AX7TD0RPYKF8","img_art/ins/popularity/ins2.png","0","instructions","","","","","","","","","","","","","","","","","","","","","","","",""
"8457","","image-button-response_instructions","7","86301","0.0-7.0","A3AX7TD0RPYKF8","img_art/ins/popularity/ins2Extreme.png","0","instructions","","","","","","","","","","","","","","","","","","","","","","","",""
"18497","","image-button-response_instructions","8","104800","0.0-8.0","A3AX7TD0RPYKF8","img_art/ins/popularity/ins3KEEPpop.PNG","0","instructions","","","","","","","","","","","","","","","","","","","","","","","",""
"7181","","image-button-response_instructions","9","111982","0.0-9.0","A3AX7TD0RPYKF8","img_art/ins/popularity/ins3ANamepop.PNG","0","instructions","","","","","","","","","","","","","","","","","","","","","","","",""
"8907","","image-button-response_instructions","10","120891","0.0-10.0","A3AX7TD0RPYKF8","img_art/ins/popularity/ins3ARatingpop.png","0","instructions","","","","","","","","","","","","","","","","","","","","","","","",""
"4171","","image-button-response_instructions","11","125064","0.0-11.0","A3AX7TD0RPYKF8","img_art/ins/popularity/ins3ATextpop.png","0","instructions","","","","","","","","","","","","","","","","","","","","","","","",""
"11765","","image-button-response_instructions","12","136831","0.0-12.0","A3AX7TD0RPYKF8","img_art/ins/popularity/ins3ALikespop.png","0","instructions","","","","","","","","","","","","","","","","","","","","","","","",""
"2534","","image-button-response_instructions","13","139368","0.0-13.0","A3AX7TD0RPYKF8","img_art/ins/popularity/ins3KEEPpop.PNG","0","instructions","","","","","","","","","","","","","","","","","","","","","","","",""
"15180","","image-button-response_instructions","14","154550","0.0-14.0","A3AX7TD0RPYKF8","img_art/ins/popularity/ins3_5RED.png","0","instructions","","","","","","","","","","","","","","","","","","","","","","","",""
"4352","","image-button-response_instructions","15","158904","0.0-15.0","A3AX7TD0RPYKF8","img_art/ins/popularity/ins3KEEPpop.PNG","0","instructions","","","","","","","","","","","","","","","","","","","","","","","",""
"20446","","image-button-response_instructions","16","179351","0.0-16.0","A3AX7TD0RPYKF8","img_art/ins/popularity/ins4KEEPpop.PNG","0","instructions","","","","","","","","","","","","","","","","","","","","","","","",""
"4950","","image-button-response_instructions","17","184302","0.0-17.0","A3AX7TD0RPYKF8","img_art/ins/popularity/ins5KEEPpop.PNG","0","instructions","","","","","","","","","","","","","","","","","","","","","","","",""
"4104","","image-button-response_instructions","18","188408","0.0-18.0","A3AX7TD0RPYKF8","","0","instructions","","","","","","","","","","","","","","","","","","","","","","","",""
"21339","","survey-text","19","209768","0.0-19.0-0.0","A3AX7TD0RPYKF8","","","","{""Q0"":""but""}","","","","","","","","","","","","","","","","","","","","","","",""
"25761","","survey-text","20","235531","0.0-20.0-0.0","A3AX7TD0RPYKF8","","","","{""Q0"":""Light colors, cheerful""}","","","","","","","","","","","","","","","","","","","","","","",""
"80327.39999997616","","image-slider-response","21","315864","0.0-21.0","A3AX7TD0RPYKF8","","","","","10","","","","","","","","","","","","","","","","","","","","","",""
"null","","image-button-response","22","320884","0.0-22.0","A3AX7TD0RPYKF8","img_art/ins/1.jpg","null","","","","","","","","","","","","","","","","","","","","","","","","",""
"17301","","image-button-response","23","338187","0.0-23.0","A3AX7TD0RPYKF8","img_art/ins/1.jpg","3","","","","","","","","","","","","","","","","","","","","","","","","",""
"5283","","image-button-response","24","343473","0.0-24.0-0.0","A3AX7TD0RPYKF8","img_art/ins/1.jpg","1","","","","","","","","","","","","","","","","","","","","","","","","",""
"8854","","image-button-response","25","352331","0.0-25.0-0.0","A3AX7TD0RPYKF8","img_art/ins/1.jpg","0","","","","","","","","","","","","","","","","","","","","","","","","",""
"null","","html-keyboard-response","26","352845","0.0-26.0","A3AX7TD0RPYKF8","<p style=""font-size: 48px;"">+</p>","","","","","null","allTrialResponses","500","1","-2","img_art/ins/1.jpg","10","Light colors, cheerful","Adam,Alex,Ben,Carl,Daniel,Jack","Seems like doodles,-20,20,20","very creative work.,36,40,20","This color reminds me of poo,-46,60,20","very calming artwork,42,80,20","It looks like a murder scene.,-48,100,20","I like the sophisticated brushwork,40,120,20","Carl","very calming artwork,42,80,20","Alex","very creative work.,36,40,20","Adam","Seems like doodles,-20,20,20","0"
"28337","","survey-text","27","381188","0.0-27.0-0.0","A3AX7TD0RPYKF8","","","","{""Q0"":""Colors are balanced but somewhat dark""}","","","","","","","","","","","","","","","","","","","","","","",""
"8242.100000023842","","image-slider-response","28","389433","0.0-28.0","A3AX7TD0RPYKF8","","","","","5","","","","","","","","","","","","","","","","","","","","","",""
"null","","image-button-response","29","394446","0.0-29.0","A3AX7TD0RPYKF8","img_art/ins/2.jpg","null","","","","","","","","","","","","","","","","","","","","","","","","",""
"284","","image-button-response","30","394733","0.0-30.0","A3AX7TD0RPYKF8","img_art/ins/2.jpg","1","","","","","","","","","","","","","","","","","","","","","","","","",""
"18393","","image-button-response","31","413128","0.0-31.0-0.0","A3AX7TD0RPYKF8","img_art/ins/2.jpg","2","","","","","","","","","","","","","","","","","","","","","","","","",""
"1846","","image-button-response","32","414979","0.0-32.0-0.0","A3AX7TD0RPYKF8","img_art/ins/2.jpg","4","","","","","","","","","","","","","","","","","","","","","","","","",""
"null","","html-keyboard-response","33","415981","0.0-33.0","A3AX7TD0RPYKF8","<p style=""font-size: 48px;"">+</p>","","","","","null","allTrialResponses","1000","1","-1","img_art/ins/2.jpg","5","Colors are balanced but somewhat dark","Adam,Alex,James,Carl,John,Kyle","too much color,-18,20,20","I like the blocks of color arrangements,30,40,20","looks too angry,-50,140,20","I can feel the artist's passion in it,45,80,20","love the texture of paint,48,160,20","Idk, it is just annoying,-32,180,20","Alex","I like the blocks of color arrangements,30,40,20","James","looks too angry,-50,140,20","John","love the texture of paint,48,160,20","0"
"14487","","survey-text","34","430472","0.0-34.0-0.0","A3AX7TD0RPYKF8","","","","{""Q0"":""Very cold""}","","","","","","","","","","","","","","","","","","","","","","",""
"15539.699999988079","","image-slider-response","35","446014","0.0-35.0","A3AX7TD0RPYKF8","","","","","10","","","","","","","","","","","","","","","","","","","","","",""
"null","","image-button-response","36","451020","0.0-36.0","A3AX7TD0RPYKF8","img_art/ins/3.jpg","null","","","","","","","","","","","","","","","","","","","","","","","","",""
"10168","","image-button-response","37","461191","0.0-37.0","A3AX7TD0RPYKF8","img_art/ins/3.jpg","1","","","","","","","","","","","","","","","","","","","","","","","","",""
"4147","","image-button-response","38","465343","0.0-38.0-0.0","A3AX7TD0RPYKF8","img_art/ins/3.jpg","3","","","","","","","","","","","","","","","","","","","","","","","","",""
"5100","","image-button-response","39","470446","0.0-39.0-0.0","A3AX7TD0RPYKF8","img_art/ins/3.jpg","4","","","","","","","","","","","","","","","","","","","","","","","","",""
"null","","html-keyboard-response","40","470958","0.0-40.0","A3AX7TD0RPYKF8","<p style=""font-size: 48px;"">+</p>","","","","","null","allTrialResponses","500","1","0","img_art/ins/3.jpg","10","Very cold","Ron,Alex,James,Mike,John,Sam","It looks depressing,-26,220,20","calming blue is very nice,36,40,20","My worst nightmare,-42,140,20","enjoy the different shades of blue,22,200,20","I like the overlapping of brushes,41,160,20","I can feel a rainy day from this painting,18,240,20","Alex","calming blue is very nice,36,40,20","Mike","enjoy the different shades of blue,22,200,20","John","I like the overlapping of brushes,41,160,20","0"
"4004","","image-button-response_instructions","41","474967","0.0-41.0","A3AX7TD0RPYKF8","","0","instructions","","","","","","","","","","","","","","","","","","","","","","","",""
"19213","","survey-likert","42","494182","0.0-42.0-0.0","A3AX7TD0RPYKF8","","","","{""Q0"":"""",""Q1"":0,""Q2"":1}","","","","","","","","","","","","","","","","","","","","","","",""
"9135","","survey-text","43","503327","0.0-43.0-0.0","A3AX7TD0RPYKF8","","","","{""Q0"":""rock""}","","","","","","","","","","","","","","","","","","","","","","",""
"65832","","survey-text","44","569161","0.0-44.0-0.0","A3AX7TD0RPYKF8","","","","{""Q0"":""I like the colors and there is a lot to look at""}","","","","","","","","","","","","","","","","","","","","","","",""
"25264.19999998808","","image-slider-response","45","594428","0.0-45.0","A3AX7TD0RPYKF8","","","","","20","","","","","","","","","","","","","","","","","","","","","",""
"null","","image-button-response","46","599468","0.0-46.0","A3AX7TD0RPYKF8","img_art/8.jpg","null","","","","","","","","","","","","","","","","","","","","","","","","",""
"19507","","image-button-response","47","618979","0.0-47.0","A3AX7TD0RPYKF8","img_art/8.jpg","4","","","","","","","","","","","","","","","","","","","","","","","","",""
"3005","","image-button-response","48","621988","0.0-48.0-0.0","A3AX7TD0RPYKF8","img_art/8.jpg","5","","","","","","","","","","","","","","","","","","","","","","","","",""
"25826","","image-button-response","49","647817","0.0-49.0-0.0","A3AX7TD0RPYKF8","img_art/8.jpg","2","","","","","","","","","","","","","","","","","","","","","","","","",""
"null","","html-keyboard-response","50","649331","0.0-50.0","A3AX7TD0RPYKF8","<p style=""font-size: 48px;"">+</p>","","","","","null","allTrialResponses","1500","1","1","img_art/8.jpg","20","I like the colors and there is a lot to look at","Nathaniel,Cameron,Patrick,Mark,Luis,Derek","Not a fan of abstract looking pieces with too many focal points. The tunnel and face, for example,-31,220,20","what's going on here. looks like scary town.,-25,60,20","Very interesting use of blocks,21,280,20","The face makes me think its a statement of the almighty of big brother watching us. onfuCsion limits my enjoyment.,6,80,20","I love the expressiveness of this,50,400,20","It's simply gorgeous. This artist is very talented,50,360,20","Luis","I love the expressiveness of this,50,400,20","Derek","It's simply gorgeous. This artist is very talented,50,360,20","Patrick","Very interesting use of blocks,21,280,20","0"
"27992","","survey-text","51","677329","0.0-51.0-0.0","A3AX7TD0RPYKF8","","","","{""Q0"":""Dark. I'm just not feeling it.""}","","","","","","","","","","","","","","","","","","","","","","",""
"4235.199999988079","","image-slider-response","52","681567","0.0-52.0","A3AX7TD0RPYKF8","","","","","-50","","","","","","","","","","","","","","","","","","","","","",""
"null","","image-button-response","53","686583","0.0-53.0","A3AX7TD0RPYKF8","img_art/29.jpg","null","","","","","","","","","","","","","","","","","","","","","","","","",""
"2852","","image-button-response","54","689438","0.0-54.0","A3AX7TD0RPYKF8","img_art/29.jpg","1","","","","","","","","","","","","","","","","","","","","","","","","",""
"3379","","image-button-response","55","692819","0.0-55.0-0.0","A3AX7TD0RPYKF8","img_art/29.jpg","2","","","","","","","","","","","","","","","","","","","","","","","","",""
"7994","","image-button-response","56","700816","0.0-56.0-0.0","A3AX7TD0RPYKF8","img_art/29.jpg","3","","","","","","","","","","","","","","","","","","","","","","","","",""
"null","","html-keyboard-response","57","701819","0.0-57.0","A3AX7TD0RPYKF8","<p style=""font-size: 48px;"">+</p>","","","","","null","allTrialResponses","1000","1","2","img_art/29.jpg","-50","Dark. I'm just not feeling it.","Gregory,Brandon,Patrick,Shane,Luis,Derek","3D looks is really cool,30,220,20","The black color is great, but I'm really not a fan of this hectic style,-40,320,20","I don't like the black,-50,280,20","Darkness and torment,-50,80,20","I love the representation of a mess,50,400,20","Very wild and I like it,20,360,20","Brandon","The black color is great, but I'm really not a fan of this hectic style,-40,320,20","Patrick","I don't like the black,-50,280,20","Shane","Darkness and torment,-50,80,20","0"
"36378","","survey-text","58","738200","0.0-58.0-0.0","A3AX7TD0RPYKF8","","","","{""Q0"":""I like the colors, reminds me of a rainy day""}","","","","","","","","","","","","","","","","","","","","","","",""
"9462.699999988079","","image-slider-response","59","747665","0.0-59.0","A3AX7TD0RPYKF8","","","","","15","","","","","","","","","","","","","","","","","","","","","",""
"null","","image-button-response","60","752671","0.0-60.0","A3AX7TD0RPYKF8","img_art/12.jpg","null","","","","","","","","","","","","","","","","","","","","","","","","",""
"425","","image-button-response","61","753099","0.0-61.0","A3AX7TD0RPYKF8","img_art/12.jpg","0","","","","","","","","","","","","","","","","","","","","","","","","",""
"2676","","image-button-response","62","755777","0.0-62.0-0.0","A3AX7TD0RPYKF8","img_art/12.jpg","0","","","","","","","","","","","","","","","","","","","","","","","","",""
"4912","","image-button-response","63","770302","0.0-62.1-0.1","A3AX7TD0RPYKF8","img_art/12.jpg","3","","","","","","","","","","","","","","","","","","","","","","","","",""
"23565","","image-button-response","64","793873","0.0-63.0-0.0","A3AX7TD0RPYKF8","img_art/12.jpg","5","","","","","","","","","","","","","","","","","","","","","","","","",""
"null","","html-keyboard-response","65","794885","0.0-64.0","A3AX7TD0RPYKF8","<p style=""font-size: 48px;"">+</p>","","","","","null","allTrialResponses","1000","1","3","img_art/12.jpg","15","I like the colors, reminds me of a rainy day","Marcus,Brandon,Patrick,Shane,Devin,Jacob","I like the colors in the bottom half of the painting,10,60,20","I like the cubic feel.,11,320,20","I don't like the blocking,-20,280,20","Something you would see in a government building hallway,3,80,20","Love the shapes here,12,380,20","I like this concept.,11,340,20","Marcus","I like the colors in the bottom half of the painting,10,60,20","Shane","Something you would see in a government building hallway,3,80,20","Jacob","I like this concept.,11,340,20","2"
"38657","","survey-text","66","833549","0.0-65.0-0.0","A3AX7TD0RPYKF8","","","","{""Q0"":""Colorful, Cheerful with a certain dark twist""}","","","","","","","","","","","","","","","","","","","","","","",""
"17383.19999998808","","image-slider-response","67","850935","0.0-66.0","A3AX7TD0RPYKF8","","","","","26","","","","","","","","","","","","","","","","","","","","","",""
"null","","image-button-response","68","855942","0.0-67.0","A3AX7TD0RPYKF8","img_art/22.jpg","null","","","","","","","","","","","","","","","","","","","","","","","","",""
"6691","","image-button-response","69","862636","0.0-68.0","A3AX7TD0RPYKF8","img_art/22.jpg","5","","","","","","","","","","","","","","","","","","","","","","","","",""
"2227","","image-button-response","70","864865","0.0-69.0-0.0","A3AX7TD0RPYKF8","img_art/22.jpg","0","","","","","","","","","","","","","","","","","","","","","","","","",""
"23599","","image-button-response","71","888468","0.0-70.0-0.0","A3AX7TD0RPYKF8","img_art/22.jpg","2","","","","","","","","","","","","","","","","","","","","","","","","",""
"null","","html-keyboard-response","72","889985","0.0-71.0","A3AX7TD0RPYKF8","<p style=""font-size: 48px;"">+</p>","","","","","null","allTrialResponses","1500","1","4","img_art/22.jpg","26","Colorful, Cheerful with a certain dark twist","Marcus,Samuel,Alejandro,Shane,Ryan,Jacob","Like the colors. I enjoy looking at this one.,15,60,20","ball of light in 90s,8,400,20","Beautiful use of chalk or pastels. Love the abstract nature.,35,80,20","Sunsets at the beach,42,80,20","Very generic, seen many times before,-43,380,20","I like the mixing of the primary colors.,8,340,20","Jacob","I like the mixing of the primary colors.,8,340,20","Marcus","Like the colors. I enjoy looking at this one.,15,60,20","Alejandro","Beautiful use of chalk or pastels. Love the abstract nature.,35,80,20","2"
"66891","","survey-text","73","956881","0.0-72.0-0.0","A3AX7TD0RPYKF8","","","","{""Q0"":""Woman reclining on a settee""}","","","","","","","","","","","","","","","","","","","","","","",""
"11263.800000011921","","image-slider-response","74","968146","0.0-73.0","A3AX7TD0RPYKF8","","","","","6","","","","","","","","","","","","","","","","","","","","","",""
"null","","image-button-response","75","973156","0.0-74.0","A3AX7TD0RPYKF8","img_art/9.jpg","null","","","","","","","","","","","","","","","","","","","","","","","","",""
"4334","","image-button-response","76","977492","0.0-75.0","A3AX7TD0RPYKF8","img_art/9.jpg","1","","","","","","","","","","","","","","","","","","","","","","","","",""
"28421","","image-button-response","77","1005916","0.0-76.0-0.0","A3AX7TD0RPYKF8","img_art/9.jpg","5","","","","","","","","","","","","","","","","","","","","","","","","",""
"31478","","image-button-response","78","1037398","0.0-77.0-0.0","A3AX7TD0RPYKF8","img_art/9.jpg","4","","","","","","","","","","","","","","","","","","","","","","","","",""
"null","","html-keyboard-response","79","1037911","0.0-78.0","A3AX7TD0RPYKF8","<p style=""font-size: 48px;"">+</p>","","","","","null","allTrialResponses","500","1","5","img_art/9.jpg","6","Woman reclining on a settee","Marcus,Dalton,Alejandro,Dylan,Elijah,Jacob","This painting feels too jumbled for me to like it.,-12,60,20","a mother in bed surrounded by emotions,1,300,20","Evokes triumph of a mountain over powering a drowning sea,24,80,20","This picture is too busy and ugly,-20,40,20","It's a mix of paint splash and scribbling,-33,80,20","So I don't really like this style but it looks somewhat okay,3,340,20","Dalton","a mother in bed surrounded by emotions,1,300,20","Jacob","So I don't really like this style but it looks somewhat okay,3,340,20","Elijah","It's a mix of paint splash and scribbling,-33,80,20","2"
"6163","","survey-text","80","1044081","0.0-79.0-0.0","A3AX7TD0RPYKF8","","","","{""Q0"":""sky""}","","","","","","","","","","","","","","","","","","","","","","",""
"59652","","survey-text","81","1103735","0.0-80.0-0.0","A3AX7TD0RPYKF8","","","","{""Q0"":""The colors are light but overall painting is bland""}","","","","","","","","","","","","","","","","","","","","","","",""
"16620.400000035763","","image-slider-response","82","1120357","0.0-81.0","A3AX7TD0RPYKF8","","","","","-10","","","","","","","","","","","","","","","","","","","","","",""
"null","","image-button-response","83","1125360","0.0-82.0","A3AX7TD0RPYKF8","img_art/28.jpg","null","","","","","","","","","","","","","","","","","","","","","","","","",""
"8607","","image-button-response","84","1133969","0.0-83.0","A3AX7TD0RPYKF8","img_art/28.jpg","1","","","","","","","","","","","","","","","","","","","","","","","","",""
"15607","","image-button-response","85","1149579","0.0-84.0-0.0","A3AX7TD0RPYKF8","img_art/28.jpg","4","","","","","","","","","","","","","","","","","","","","","","","","",""
"3637","","image-button-response","86","1153218","0.0-85.0-0.0","A3AX7TD0RPYKF8","img_art/28.jpg","2","","","","","","","","","","","","","","","","","","","","","","","","",""
"null","","html-keyboard-response","87","1154221","0.0-86.0","A3AX7TD0RPYKF8","<p style=""font-size: 48px;"">+</p>","","","","","null","allTrialResponses","1000","1","6","img_art/28.jpg","-10","The colors are light but overall painting is bland","Mitchell,Dalton,Justin,Hunter,Elijah,Jacob","A mom protecting her child because something scary, (perhaps imaginary) wants to take the child.,-10,180,20","not sure what i feel but it makes me feel uncomfortable,1,300,20","I don't like the colors or the design.,-20,280,20","reminds me of kandinsky,14,240,20","The colors are depressing,-5,80,20","I can't tell what's going on but it looks a little bit more lively at least,7,340,20","Dalton","not sure what i feel but it makes me feel uncomfortable,1,300,20","Elijah","The colors are depressing,-5,80,20","Justin","I don't like the colors or the design.,-20,280,20","2"
"28132","","survey-text","88","1182359","0.0-87.0-0.0","A3AX7TD0RPYKF8","","","","{""Q0"":""No, Hell No ""}","","","","","","","","","","","","","","","","","","","","","","",""
"5912.5","","image-slider-response","89","1188274","0.0-88.0","A3AX7TD0RPYKF8","","","","","-50","","","","","","","","","","","","","","","","","","","","","",""
"null","","image-button-response","90","1193292","0.0-89.0","A3AX7TD0RPYKF8","img_art/18.jpg","null","","","","","","","","","","","","","","","","","","","","","","","","",""
"7464","","image-button-response","91","1200759","0.0-90.0","A3AX7TD0RPYKF8","img_art/18.jpg","3","","","","","","","","","","","","","","","","","","","","","","","","",""
"39504","","image-button-response","92","1240267","0.0-91.0-0.0","A3AX7TD0RPYKF8","img_art/18.jpg","5","","","","","","","","","","","","","","","","","","","","","","","","",""
"3105","","image-button-response","93","1243375","0.0-92.0-0.0","A3AX7TD0RPYKF8","img_art/18.jpg","5","","","","","","","","","","","","","","","","","","","","","","","","",""
"1524","","image-button-response","94","1252333","0.0-92.1-0.1","A3AX7TD0RPYKF8","img_art/18.jpg","0","","","","","","","","","","","","","","","","","","","","","","","","",""
"null","","html-keyboard-response","95","1253836","0.0-93.0","A3AX7TD0RPYKF8","<p style=""font-size: 48px;"">+</p>","","","","","null","allTrialResponses","1500","1","7","img_art/18.jpg","-50","No, Hell No ","William,Dalton,Justin,Cody,Elijah,Jonathan","Makes me think of stormy oceans,20,380,20","i like the colors in the picture and can make out my own images,42,300,20","This is really interesting to look at. I like the colors and the spectral look.,27,280,20","Vaguely creepy ........,-20,180,20","Makes me feel confused,16,80,20","There's danger in this painting and it's awesome,40,140,20","Cody","Vaguely creepy ........,-20,180,20","Jonathan","There's danger in this painting and it's awesome,40,140,20","William","Makes me think of stormy oceans,20,380,20","4"
"27712","","survey-text","96","1281555","0.0-94.0-0.0","A3AX7TD0RPYKF8","","","","{""Q0"":""Light, peaceful, calming day outside""}","","","","","","","","","","","","","","","","","","","","","","",""
"7668.800000011921","","image-slider-response","97","1289226","0.0-95.0","A3AX7TD0RPYKF8","","","","","50","","","","","","","","","","","","","","","","","","","","","",""
"null","","image-button-response","98","1294229","0.0-96.0","A3AX7TD0RPYKF8","img_art/26.jpg","null","","","","","","","","","","","","","","","","","","","","","","","","",""
"5573","","image-button-response","99","1299804","0.0-97.0","A3AX7TD0RPYKF8","img_art/26.jpg","2","","","","","","","","","","","","","","","","","","","","","","","","",""
"12528","","image-button-response","100","1312335","0.0-98.0-0.0","A3AX7TD0RPYKF8","img_art/26.jpg","4","","","","","","","","","","","","","","","","","","","","","","","","",""
"5506","","image-button-response","101","1317844","0.0-99.0-0.0","A3AX7TD0RPYKF8","img_art/26.jpg","5","","","","","","","","","","","","","","","","","","","","","","","","",""
"null","","html-keyboard-response","102","1318352","0.0-100.0","A3AX7TD0RPYKF8","<p style=""font-size: 48px;"">+</p>","","","","","null","allTrialResponses","500","1","8","img_art/26.jpg","50","Light, peaceful, calming day outside","William,Juan,Richard,Cody,Kenneth,Jonathan","feels a tad old,30,380,20","Something I'd see in a thrift store. It looks like not much effort was used to paint this.,9,260,20","subtle use of colors, city street view?,8,340,20","Looks unfinished,-31,180,20","Very subdued, but wouldn't give it a 2nd notice.,4,300,20","It's relaxing to look at but I wish it was just a little more defined,20,140,20","Richard","subtle use of colors, city street view?,8,340,20","Kenneth","Very subdued, but wouldn't give it a 2nd notice.,4,300,20","Jonathan","It's relaxing to look at but I wish it was just a little more defined,20,140,20","4"
"19878","","survey-text","103","1338236","0.0-101.0-0.0","A3AX7TD0RPYKF8","","","","{""Q0"":""Very colorful, very captivating""}","","","","","","","","","","","","","","","","","","","","","","",""
"6661.900000035763","","image-slider-response","104","1344901","0.0-102.0","A3AX7TD0RPYKF8","","","","","50","","","","","","","","","","","","","","","","","","","","","",""
"null","","image-button-response","105","1349909","0.0-103.0","A3AX7TD0RPYKF8","img_art/20.jpg","null","","","","","","","","","","","","","","","","","","","","","","","","",""
"25689","","image-button-response","106","1375602","0.0-104.0","A3AX7TD0RPYKF8","img_art/20.jpg","3","","","","","","","","","","","","","","","","","","","","","","","","",""
"811","","image-button-response","107","1376416","0.0-105.0-0.0","A3AX7TD0RPYKF8","img_art/20.jpg","4","","","","","","","","","","","","","","","","","","","","","","","","",""
"962","","image-button-response","108","1377382","0.0-106.0-0.0","A3AX7TD0RPYKF8","img_art/20.jpg","5","","","","","","","","","","","","","","","","","","","","","","","","",""
"null","","html-keyboard-response","109","1378897","0.0-107.0","A3AX7TD0RPYKF8","<p style=""font-size: 48px;"">+</p>","","","","","null","allTrialResponses","1500","1","9","img_art/20.jpg","50","Very colorful, very captivating","Scott,Stephen,Richard,Gabriel,Kenneth,Jonathan","feels distorted and uncomfortable,-41,20,20","Liked the background,15,140,20","The white blob on the left seems out of place,-34,340,20","i almost feel like i can recognize what this is,-6,160,20","I want to like this more, but i wish it was more detailed. It's hard for me to see what it is.,5,300,20","This one feels scary in a bad way,-30,140,20","Gabriel","i almost feel like i can recognize what this is,-6,160,20","Kenneth","I want to like this more, but i wish it was more detailed. It's hard for me to see what it is.,5,300,20","Jonathan","This one feels scary in a bad way,-30,140,20","4"
"27798","","survey-text","110","1406700","0.0-108.0-0.0","A3AX7TD0RPYKF8","","","","{""Q0"":""My son's painting at age 5""}","","","","","","","","","","","","","","","","","","","","","","",""
"8191.600000023842","","image-slider-response","111","1414895","0.0-109.0","A3AX7TD0RPYKF8","","","","","-50","","","","","","","","","","","","","","","","","","","","","",""
"null","","image-button-response","112","1419910","0.0-110.0","A3AX7TD0RPYKF8","img_art/5.jpg","null","","","","","","","","","","","","","","","","","","","","","","","","",""
"11388","","image-button-response","113","1431301","0.0-111.0","A3AX7TD0RPYKF8","img_art/5.jpg","3","","","","","","","","","","","","","","","","","","","","","","","","",""
"1075","","image-button-response","114","1432380","0.0-112.0-0.0","A3AX7TD0RPYKF8","img_art/5.jpg","4","","","","","","","","","","","","","","","","","","","","","","","","",""
"1094","","image-button-response","115","1433478","0.0-113.0-0.0","A3AX7TD0RPYKF8","img_art/5.jpg","5","","","","","","","","","","","","","","","","","","","","","","","","",""
"null","","html-keyboard-response","116","1433990","0.0-114.0","A3AX7TD0RPYKF8","<p style=""font-size: 48px;"">+</p>","","","","","null","allTrialResponses","500","1","10","img_art/5.jpg","-50","My son's painting at age 5","Dakota,Brett,Dustin,Gabriel,Kenneth,Jonathan","fresh and fun - bright and active,16,280,20","It reminds me of a piece of lemon candy, which is one of my favorite flavors,20,360,20","I don't get it at all. But, maybe it is the top portion of a piece of fruit.,-50,20,20","too abstract, looks like a pyramid,-22,160,20","It looks like daffy duck's leg with a random trail of pink.,-22,300,20","I hate the shapes,-30,140,20","Gabriel","too abstract, looks like a pyramid,-22,160,20","Kenneth","It looks like daffy duck's leg with a random trail of pink.,-22,300,20","Jonathan","I hate the shapes,-30,140,20","4"
"5012","","survey-text","117","1439016","0.0-115.0-0.0","A3AX7TD0RPYKF8","","","","{""Q0"":""our""}","","","","","","","","","","","","","","","","","","","","","","",""
"17467","","survey-text","118","1456485","0.0-116.0-0.0","A3AX7TD0RPYKF8","","","","{""Q0"":""Nothig to see here""}","","","","","","","","","","","","","","","","","","","","","","",""
"7044.199999988079","","image-slider-response","119","1463531","0.0-117.0","A3AX7TD0RPYKF8","","","","","-50","","","","","","","","","","","","","","","","","","","","","",""
"3936","","image-button-response","120","1468534","0.0-118.0","A3AX7TD0RPYKF8","img_art/16.jpg","0","","","","","","","","","","","","","","","","","","","","","","","","",""
"6712","","image-button-response","121","1475248","0.0-119.0","A3AX7TD0RPYKF8","img_art/16.jpg","0","","","","","","","","","","","","","","","","","","","","","","","","",""
"1810","","image-button-response","122","1477061","0.0-120.0-0.0","A3AX7TD0RPYKF8","img_art/16.jpg","2","","","","","","","","","","","","","","","","","","","","","","","","",""
"6461","","image-button-response","123","1483525","0.0-121.0-0.0","A3AX7TD0RPYKF8","img_art/16.jpg","4","","","","","","","","","","","","","","","","","","","","","","","","",""
"null","","html-keyboard-response","124","1484031","0.0-122.0","A3AX7TD0RPYKF8","<p style=""font-size: 48px;"">+</p>","","","","","null","allTrialResponses","500","1","11","img_art/16.jpg","-50","Nothig to see here","Tyler,Devon,Connor,Gabriel,Kenneth,Jonathan","Pop art, Tate Modern horse dung.,-50,320,20","The teddy bear looks really scared,-30,400,20","Not original. Bear is odd,-50,240,20","its disturbing! what the heck,-27,160,20","Looks like someone got really high and did a bad photoshop job.,-27,300,20","It's a little anxiety inducing in a good way,16,140,20","Tyler","Pop art, Tate Modern horse dung.,-50,320,20","Connor","Not original. Bear is odd,-50,240,20","Kenneth","Looks like someone got really high and did a bad photoshop job.,-27,300,20","4"
"37675","","survey-text","125","1521712","0.0-123.0-0.0","A3AX7TD0RPYKF8","","","","{""Q0"":""bright, colorful, noticeable ""}","","","","","","","","","","","","","","","","","","","","","","",""
"8222.199999988079","","image-slider-response","126","1529936","0.0-124.0","A3AX7TD0RPYKF8","","","","","16","","","","","","","","","","","","","","","","","","","","","",""
"null","","image-button-response","127","1534944","0.0-125.0","A3AX7TD0RPYKF8","img_art/1.jpg","null","","","","","","","","","","","","","","","","","","","","","","","","",""
"3998","","image-button-response","128","1538944","0.0-126.0","A3AX7TD0RPYKF8","img_art/1.jpg","1","","","","","","","","","","","","","","","","","","","","","","","","",""
"3137","","image-button-response","129","1542084","0.0-127.0-0.0","A3AX7TD0RPYKF8","img_art/1.jpg","2","","","","","","","","","","","","","","","","","","","","","","","","",""
"5682","","image-button-response","130","1547769","0.0-128.0-0.0","A3AX7TD0RPYKF8","img_art/1.jpg","4","","","","","","","","","","","","","","","","","","","","","","","","",""
"null","","html-keyboard-response","131","1548274","0.0-129.0","A3AX7TD0RPYKF8","<p style=""font-size: 48px;"">+</p>","","","","","null","allTrialResponses","500","1","12","img_art/1.jpg","16","bright, colorful, noticeable ","Tyler,Alexis,Connor,Chase,Kenneth,Tristan","This looks like the same artist as the first picture, but cropped? Looks incomplete.,28,320,20","This photo reminds me of a fall afternoon, serene,11,140,20","Love the coloration and abstract figures,18,240,20","It's alright but lacks any depth.,-5,120,20","I love colorful photos and I like this one a lot.,25,300,20","Unpleasing palette. I see a figure but it seems incongrous to the highly abstract background.,-20,300,20","Alexis","This photo reminds me of a fall afternoon, serene,11,140,20","Connor","Love the coloration and abstract figures,18,240,20","Kenneth","I love colorful photos and I like this one a lot.,25,300,20","4"
"13632","","survey-text","132","1561913","0.0-130.0-0.0","A3AX7TD0RPYKF8","","","","{""Q0"":""Lonely, ""}","","","","","","","","","","","","","","","","","","","","","","",""
"18941.5","","image-slider-response","133","1580857","0.0-131.0","A3AX7TD0RPYKF8","","","","","-11","","","","","","","","","","","","","","","","","","","","","",""
"null","","image-button-response","134","1585870","0.0-132.0","A3AX7TD0RPYKF8","img_art/6.jpg","null","","","","","","","","","","","","","","","","","","","","","","","","",""
"2187","","image-button-response","135","1588060","0.0-133.0","A3AX7TD0RPYKF8","img_art/6.jpg","1","","","","","","","","","","","","","","","","","","","","","","","","",""
"29600","","image-button-response","136","1617663","0.0-134.0-0.0","A3AX7TD0RPYKF8","img_art/6.jpg","0","","","","","","","","","","","","","","","","","","","","","","","","",""
"1394","","image-button-response","137","1619060","0.0-135.0-0.0","A3AX7TD0RPYKF8","img_art/6.jpg","2","","","","","","","","","","","","","","","","","","","","","","","","",""
"null","","html-keyboard-response","138","1620577","0.0-136.0","A3AX7TD0RPYKF8","<p style=""font-size: 48px;"">+</p>","","","","","null","allTrialResponses","1500","1","13","img_art/6.jpg","-11","Lonely, ","Christian,Alexis,Connor,Carlos,Kenneth,John","??????? fake floating leaf? headless bird,-28,140,20","This looks like a crow, sort of bleak,-26,140,20","Blackbird in the desert,27,240,20","Clean and simple, a pleasant resting place for the eyes.,21,80,20","Simple and pretty.,18,300,20","It makes me stop and think about what the artist is trying to say.It creates a feeling of solitude and tranqulity,30,120,20","Alexis","This looks like a crow, sort of bleak,-26,140,20","Christian","??????? fake floating leaf? headless bird,-28,140,20","Connor","Blackbird in the desert,27,240,20","4"
"73971","","survey-text","139","1694556","0.0-137.0-0.0","A3AX7TD0RPYKF8","","","","{""Q0"":""I like the colors, city, people, water, hills""}","","","","","","","","","","","","","","","","","","","","","","",""
"15956.5","","image-slider-response","140","1710515","0.0-138.0","A3AX7TD0RPYKF8","","","","","5","","","","","","","","","","","","","","","","","","","","","",""
"null","","image-button-response","141","1715533","0.0-139.0","A3AX7TD0RPYKF8","img_art/19.jpg","null","","","","","","","","","","","","","","","","","","","","","","","","",""
"7925","","image-button-response","142","1723462","0.0-140.0","A3AX7TD0RPYKF8","img_art/19.jpg","3","","","","","","","","","","","","","","","","","","","","","","","","",""
"2355","","image-button-response","143","1725822","0.0-141.0-0.0","A3AX7TD0RPYKF8","img_art/19.jpg","4","","","","","","","","","","","","","","","","","","","","","","","","",""
"2257","","image-button-response","144","1728083","0.0-142.0-0.0","A3AX7TD0RPYKF8","img_art/19.jpg","5","","","","","","","","","","","","","","","","","","","","","","","","",""
"null","","html-keyboard-response","145","1729094","0.0-143.0","A3AX7TD0RPYKF8","<p style=""font-size: 48px;"">+</p>","","","","","null","allTrialResponses","1000","1","14","img_art/19.jpg","5","I like the colors, city, people, water, hills","Christian,Alexis,Connor,Bryce,Jeremy,Blake","interesting take on depth (reminds me of those 1000 piece puzzles),2,140,20","it looks messy and non-unique.,-9,140,20","Childish music hall,-20,240,20","Very pretty and colorful.,23,20,20","it's too busy for me. Makes me feel stressed.,1,60,20","an old cityfrom many years ago. its ok,6,280,20","Bryce","Very pretty and colorful.,23,20,20","Jeremy","it's too busy for me. Makes me feel stressed.,1,60,20","Blake","an old cityfrom many years ago. its ok,6,280,20","4"
"8259","","survey-text","146","1737357","0.0-144.0-0.0","A3AX7TD0RPYKF8","","","","{""Q0"":""yuk""}","","","","","","","","","","","","","","","","","","","","","","",""
"34018","","survey-text","147","1777464","0.0-144.1-0.1","A3AX7TD0RPYKF8","","","","{""Q0"":""Looks like a drop cloth. Nothing to see here""}","","","","","","","","","","","","","","","","","","","","","","",""
"7431.099999964237","","image-slider-response","148","1784897","0.0-145.0","A3AX7TD0RPYKF8","","","","","-50","","","","","","","","","","","","","","","","","","","","","",""
"null","","image-button-response","149","1789909","0.0-146.0","A3AX7TD0RPYKF8","img_art/13.jpg","null","","","","","","","","","","","","","","","","","","","","","","","","",""
"7865","","image-button-response","150","1797776","0.0-147.0","A3AX7TD0RPYKF8","img_art/13.jpg","0","","","","","","","","","","","","","","","","","","","","","","","","",""
"845","","image-button-response","151","1798624","0.0-148.0-0.0","A3AX7TD0RPYKF8","img_art/13.jpg","1","","","","","","","","","","","","","","","","","","","","","","","","",""
"928","","image-button-response","152","1799555","0.0-149.0-0.0","A3AX7TD0RPYKF8","img_art/13.jpg","2","","","","","","","","","","","","","","","","","","","","","","","","",""
"null","","html-keyboard-response","153","1800057","0.0-150.0","A3AX7TD0RPYKF8","<p style=""font-size: 48px;"">+</p>","","","","","null","allTrialResponses","500","1","15","img_art/13.jpg","-50","Looks like a drop cloth. Nothing to see here","Edward,Alexander,Benjamin,Bryce,Jeremy,Blake","The colors are really pretty together,39,60,20","Seeing the world through different lenses.,15,120,20","Reminds me of rain running down a window.,35,260,20","My favorite!,47,20,20","Pleased. I like to combination of colors,17,60,20","warm splash of salt water from ocean,16,280,20","Edward","The colors are really pretty together,39,60,20","Alexander","Seeing the world through different lenses.,15,120,20","Benjamin","Reminds me of rain running down a window.,35,260,20","4"
"6033","","survey-text","154","1806098","0.0-151.0-0.0","A3AX7TD0RPYKF8","","","","{""Q0"":""course""}","","","","","","","","","","","","","","","","","","","","","","",""
"53775","","survey-text","155","1859875","0.0-152.0-0.0","A3AX7TD0RPYKF8","","","","{""Q0"":""I'm no artist and I could do better. ""}","","","","","","","","","","","","","","","","","","","","","","",""
"3605","","image-slider-response","156","1863483","0.0-153.0","A3AX7TD0RPYKF8","","","","","-50","","","","","","","","","","","","","","","","","","","","","",""
"2341","","image-button-response","157","1868491","0.0-154.0","A3AX7TD0RPYKF8","img_art/27.jpg","1","","","","","","","","","","","","","","","","","","","","","","","","",""
"1787","","image-button-response","158","1870280","0.0-155.0","A3AX7TD0RPYKF8","img_art/27.jpg","0","","","","","","","","","","","","","","","","","","","","","","","","",""
"3007","","image-button-response","159","1873290","0.0-156.0-0.0","A3AX7TD0RPYKF8","img_art/27.jpg","1","","","","","","","","","","","","","","","","","","","","","","","","",""
"2929","","image-button-response","160","1876223","0.0-157.0-0.0","A3AX7TD0RPYKF8","img_art/27.jpg","3","","","","","","","","","","","","","","","","","","","","","","","","",""
"null","","html-keyboard-response","161","1877224","0.0-158.0","A3AX7TD0RPYKF8","<p style=""font-size: 48px;"">+</p>","","","","","null","allTrialResponses","1000","1","16","img_art/27.jpg","-50","I'm no artist and I could do better. ","Edward,Alexander,Benjamin,Colton,Mason,Bradley","It looks like a kid colored a picture and an adult added to it,19,60,20","Messy field of various plants.,-5,120,20","I like the colors.,6,260,20","looks like a little kid did it,-30,220,20","dont like it, don't hate it, meh.,2,100,20","Yikes. I think I made this in kindergarten.,-20,300,20","Edward","It looks like a kid colored a picture and an adult added to it,19,60,20","Alexander","Messy field of various plants.,-5,120,20","Colton","looks like a little kid did it,-30,220,20","4"
"40125","","survey-text","162","1917353","0.0-159.0-0.0","A3AX7TD0RPYKF8","","","","{""Q0"":""Scribbles, scribbles, scribbles""}","","","","","","","","","","","","","","","","","","","","","","",""
"6696.400000035763","","image-slider-response","163","1924052","0.0-160.0","A3AX7TD0RPYKF8","","","","","-50","","","","","","","","","","","","","","","","","","","","","",""
"4236","","image-button-response","164","1929059","0.0-161.0","A3AX7TD0RPYKF8","img_art/3.jpg","0","","","","","","","","","","","","","","","","","","","","","","","","",""
"1339","","image-button-response","165","1930401","0.0-162.0","A3AX7TD0RPYKF8","img_art/3.jpg","0","","","","","","","","","","","","","","","","","","","","","","","","",""
"8426","","image-button-response","166","1938830","0.0-163.0-0.0","A3AX7TD0RPYKF8","img_art/3.jpg","3","","","","","","","","","","","","","","","","","","","","","","","","",""
"10849","","image-button-response","167","1949683","0.0-164.0-0.0","A3AX7TD0RPYKF8","img_art/3.jpg","2","","","","","","","","","","","","","","","","","","","","","","","","",""
"null","","html-keyboard-response","168","1950695","0.0-165.0","A3AX7TD0RPYKF8","<p style=""font-size: 48px;"">+</p>","","","","","null","allTrialResponses","1000","1","17","img_art/3.jpg","-50","Scribbles, scribbles, scribbles","Edward,Alexander,Robert,Colton,Alex,Eric","It looks like someone took a red sharpie and just scribbled angrily,-20,60,20","Somewhere between a child's art and a poorly drawn battle map.,8,120,20","I think of an angry child,-50,360,20","looks like a kid scribbled with crayon,-35,220,20","Ok, just a bunch of red lines and a grey smudge. Would pass this right by in a gallery,-12,100,20","This piece makes me think it has a backstory or a reason which I like.,5,100,20","Edward","It looks like someone took a red sharpie and just scribbled angrily,-20,60,20","Colton","looks like a kid scribbled with crayon,-35,220,20","Robert","I think of an angry child,-50,360,20","4"
"21371","","survey-text","169","1972072","0.0-166.0-0.0","A3AX7TD0RPYKF8","","","","{""Q0"":""Not feeling it. ""}","","","","","","","","","","","","","","","","","","","","","","",""
"5102.699999988079","","image-slider-response","170","1977177","0.0-167.0","A3AX7TD0RPYKF8","","","","","-50","","","","","","","","","","","","","","","","","","","","","",""
"null","","image-button-response","171","1982194","0.0-168.0","A3AX7TD0RPYKF8","img_art/14.jpg","null","","","","","","","","","","","","","","","","","","","","","","","","",""
"7977","","image-button-response","172","1990173","0.0-169.0","A3AX7TD0RPYKF8","img_art/14.jpg","0","","","","","","","","","","","","","","","","","","","","","","","","",""
"813","","image-button-response","173","1990989","0.0-170.0-0.0","A3AX7TD0RPYKF8","img_art/14.jpg","1","","","","","","","","","","","","","","","","","","","","","","","","",""
"860","","image-button-response","174","1991852","0.0-171.0-0.0","A3AX7TD0RPYKF8","img_art/14.jpg","2","","","","","","","","","","","","","","","","","","","","","","","","",""
"null","","html-keyboard-response","175","1992865","0.0-172.0","A3AX7TD0RPYKF8","<p style=""font-size: 48px;"">+</p>","","","","","null","allTrialResponses","1000","1","18","img_art/14.jpg","-50","Not feeling it. ","Edward,Austin,Robert,Colton,Jason,Adrian","I just really like light and wispy things,33,60,20","Love the abstractness of this painting,39,240,20","Late Winter when things are just starting to bloom.,21,360,20","mythical and nature like,37,220,20","Focal point is interesting,5,20,20","Warm, positive, growth.,8,60,20","Edward","I just really like light and wispy things,33,60,20","Austin","Love the abstractness of this painting,39,240,20","Robert","Late Winter when things are just starting to bloom.,21,360,20","4"
"38360","","survey-text","176","2031232","0.0-173.0-0.0","A3AX7TD0RPYKF8","","","","{""Q0"":""Bright colors, but if these paintings were part of an exhibit, I would be getting very bored. ""}","","","","","","","","","","","","","","","","","","","","","","",""
"5189.199999988079","","image-slider-response","177","2036425","0.0-174.0","A3AX7TD0RPYKF8","","","","","-11","","","","","","","","","","","","","","","","","","","","","",""
"null","","image-button-response","178","2041441","0.0-175.0","A3AX7TD0RPYKF8","img_art/21.jpg","null","","","","","","","","","","","","","","","","","","","","","","","","",""
"374","","image-button-response","179","2041817","0.0-176.0","A3AX7TD0RPYKF8","img_art/21.jpg","3","","","","","","","","","","","","","","","","","","","","","","","","",""
"978","","image-button-response","180","2042797","0.0-177.0-0.0","A3AX7TD0RPYKF8","img_art/21.jpg","4","","","","","","","","","","","","","","","","","","","","","","","","",""
"1054","","image-button-response","181","2043854","0.0-178.0-0.0","A3AX7TD0RPYKF8","img_art/21.jpg","5","","","","","","","","","","","","","","","","","","","","","","","","",""
"null","","html-keyboard-response","182","2044863","0.0-179.0","A3AX7TD0RPYKF8","<p style=""font-size: 48px;"">+</p>","","","","","null","allTrialResponses","1000","1","19","img_art/21.jpg","-11","Bright colors, but if these paintings were part of an exhibit, I would be getting very bored. ","Edward,Austin,Robert,Tanner,Jake,Jorge","I love how vague it is but how you can imagine a story anyway, like clouds,45,60,20","Touches the heart,50,240,20","A battle at sea, the red is a bomb exploding.,-31,360,20","calm, ship at sea, sunset,16,180,20","It looks epic and is nice to look at in terms of colors/style.,23,360,20","mythical between good and evil,16,180,20","Tanner","calm, ship at sea, sunset,16,180,20","Jake","It looks epic and is nice to look at in terms of colors/style.,23,360,20","Jorge","mythical between good and evil,16,180,20","4"
"25356","","survey-text","183","2070225","0.0-180.0-0.0","A3AX7TD0RPYKF8","","","","{""Q0"":""Nothing special, waste of time lets move on""}","","","","","","","","","","","","","","","","","","","","","","",""
"6272.300000011921","","image-slider-response","184","2076499","0.0-181.0","A3AX7TD0RPYKF8","","","","","-50","","","","","","","","","","","","","","","","","","","","","",""
"3213","","image-button-response","185","2081507","0.0-182.0","A3AX7TD0RPYKF8","img_art/4.jpg","1","","","","","","","","","","","","","","","","","","","","","","","","",""
"1181","","image-button-response","186","2082691","0.0-183.0","A3AX7TD0RPYKF8","img_art/4.jpg","1","","","","","","","","","","","","","","","","","","","","","","","","",""
"944","","image-button-response","187","2083638","0.0-184.0-0.0","A3AX7TD0RPYKF8","img_art/4.jpg","2","","","","","","","","","","","","","","","","","","","","","","","","",""
"3138","","image-button-response","188","2086779","0.0-185.0-0.0","A3AX7TD0RPYKF8","img_art/4.jpg","4","","","","","","","","","","","","","","","","","","","","","","","","",""
"null","","html-keyboard-response","189","2087283","0.0-186.0","A3AX7TD0RPYKF8","<p style=""font-size: 48px;"">+</p>","","","","","null","allTrialResponses","500","1","20","img_art/4.jpg","-50","Nothing special, waste of time lets move on","Nathan,Isaac,Ethan,Tanner,Jake,Jorge","Not my preference when it comes to art styles or subjects,-10,200,20","The colors remind me of McDonalds.,-41,280,20","This looks like a child got into his diaper.,-46,120,20","stresses me out, uncomfortable,-18,180,20","This is ugly in color and in terms of the shape on it.,-32,360,20","creepy as it looks like fingernails,-23,180,20","Isaac","The colors remind me of McDonalds.,-41,280,20","Ethan","This looks like a child got into his diaper.,-46,120,20","Jake","This is ugly in color and in terms of the shape on it.,-32,360,20","4"
"6544","","survey-text","190","2093835","0.0-187.0-0.0","A3AX7TD0RPYKF8","","","","{""Q0"":""we""}","","","","","","","","","","","","","","","","","","","","","","",""
"63767","","survey-text","191","2157605","0.0-188.0-0.0","A3AX7TD0RPYKF8","","","","{""Q0"":""I wouldn't buy it, I wouldn't hang it""}","","","","","","","","","","","","","","","","","","","","","","",""
"26243.599999964237","","image-slider-response","192","2183852","0.0-189.0","A3AX7TD0RPYKF8","","","","","0","","","","","","","","","","","","","","","","","","","","","",""
"null","","image-button-response","193","2188865","0.0-190.0","A3AX7TD0RPYKF8","img_art/25.jpg","null","","","","","","","","","","","","","","","","","","","","","","","","",""
"1698","","image-button-response","194","2190566","0.0-191.0","A3AX7TD0RPYKF8","img_art/25.jpg","4","","","","","","","","","","","","","","","","","","","","","","","","",""
"1178","","image-button-response","195","2191747","0.0-192.0-0.0","A3AX7TD0RPYKF8","img_art/25.jpg","5","","","","","","","","","","","","","","","","","","","","","","","","",""
"1491","","image-button-response","196","2193241","0.0-193.0-0.0","A3AX7TD0RPYKF8","img_art/25.jpg","2","","","","","","","","","","","","","","","","","","","","","","","","",""
"null","","html-keyboard-response","197","2193743","0.0-194.0","A3AX7TD0RPYKF8","<p style=""font-size: 48px;"">+</p>","","","","","null","allTrialResponses","500","1","21","img_art/25.jpg","0","I wouldn't buy it, I wouldn't hang it","Noah,Isaac,Ethan,Jordan,Jake,Thomas","I find it enjoyable - mainly because it is not art I ever expected to see,16,260,20","The color and image are unsettling.,-29,280,20","The artist was daring to create this. Don't love the green and black combo though.,9,120,20","This is creepy and I dont like it,-28,160,20","This is strange and poorly done.,-2,360,20","I like the design but the brightness of the color feels almost blinding to me.,-3,220,20","Jake","This is strange and poorly done.,-2,360,20","Thomas","I like the design but the brightness of the color feels almost blinding to me.,-3,220,20","Ethan","The artist was daring to create this. Don't love the green and black combo though.,9,120,20","4"
"46451","","survey-text","198","2240199","0.0-195.0-0.0","A3AX7TD0RPYKF8","","","","{""Q0"":""I wouldn't buy it, I wouldn't hang it. Not interesting, nothing to see. ""}","","","","","","","","","","","","","","","","","","","","","","",""
"12031","","image-slider-response","199","2252232","0.0-196.0","A3AX7TD0RPYKF8","","","","","0","","","","","","","","","","","","","","","","","","","","","",""
"3536","","image-button-response","200","2257242","0.0-197.0","A3AX7TD0RPYKF8","img_art/7.jpg","3","","","","","","","","","","","","","","","","","","","","","","","","",""
"1004","","image-button-response","201","2258250","0.0-198.0","A3AX7TD0RPYKF8","img_art/7.jpg","3","","","","","","","","","","","","","","","","","","","","","","","","",""
"1293","","image-button-response","202","2259546","0.0-199.0-0.0","A3AX7TD0RPYKF8","img_art/7.jpg","4","","","","","","","","","","","","","","","","","","","","","","","","",""
"4103","","image-button-response","203","2263652","0.0-200.0-0.0","A3AX7TD0RPYKF8","img_art/7.jpg","0","","","","","","","","","","","","","","","","","","","","","","","","",""
"null","","html-keyboard-response","204","2264156","0.0-201.0","A3AX7TD0RPYKF8","<p style=""font-size: 48px;"">+</p>","","","","","null","allTrialResponses","500","1","22","img_art/7.jpg","0","I wouldn't buy it, I wouldn't hang it. Not interesting, nothing to see. ","Kevin,Evan,Ethan,Adam,Jake,Thomas","That a desert floor,16,320,20","I feel confused, am I looking at a painting or a close up picture of some sort of fly stone?,-19,140,20","This reminds me of a close up photo of a stone wall.,-19,120,20","I like the earth tones here,5,40,20","This is vague and ugly.,-3,360,20","Confusion, mild aversion,-36,220,20","Adam","I like the earth tones here,5,40,20","Jake","This is vague and ugly.,-3,360,20","Kevin","That a desert floor,16,320,20","4"
"17975","","survey-text","205","2282136","0.0-202.0-0.0","A3AX7TD0RPYKF8","","","","{""Q0"":""I love the colors and the scene ""}","","","","","","","","","","","","","","","","","","","","","","",""
"20158.099999964237","","image-slider-response","206","2302297","0.0-203.0","A3AX7TD0RPYKF8","","","","","50","","","","","","","","","","","","","","","","","","","","","",""
"null","","image-button-response","207","2307300","0.0-204.0","A3AX7TD0RPYKF8","img_art/17.jpg","null","","","","","","","","","","","","","","","","","","","","","","","","",""
"747","","image-button-response","208","2308050","0.0-205.0","A3AX7TD0RPYKF8","img_art/17.jpg","5","","","","","","","","","","","","","","","","","","","","","","","","",""
"4185","","image-button-response","209","2312238","0.0-206.0-0.0","A3AX7TD0RPYKF8","img_art/17.jpg","1","","","","","","","","","","","","","","","","","","","","","","","","",""
"5346","","image-button-response","210","2317587","0.0-207.0-0.0","A3AX7TD0RPYKF8","img_art/17.jpg","2","","","","","","","","","","","","","","","","","","","","","","","","",""
"null","","html-keyboard-response","211","2318602","0.0-208.0","A3AX7TD0RPYKF8","<p style=""font-size: 48px;"">+</p>","","","","","null","allTrialResponses","1000","1","23","img_art/17.jpg","50","I love the colors and the scene ","Kevin,Angel,Matthew,Adam,Jake,Aaron","Some new perm we got there.,12,320,20","Reminds me of the modern art museum in Rome. I didn't ""get"" many pieces, but had a positive cultural experience overall.,20,180,20","taste the rainbow, feel the flavor.,23,120,20","Very washed out.,-10,40,20","This could have been good but was poorly done.,-5,360,20","it brings a clear picture to my minds eye:,45,20,20","Aaron","it brings a clear picture to my minds eye:,45,20,20","Angel","Reminds me of the modern art museum in Rome. I didn't ""get"" many pieces, but had a positive cultural experience overall.,20,180,20","Matthew","taste the rainbow, feel the flavor.,23,120,20","4"
"19175","","survey-text","212","2337785","0.0-209.0-0.0","A3AX7TD0RPYKF8","","","","{""Q0"":""talentless""}","","","","","","","","","","","","","","","","","","","","","","",""
"10919.099999964237","","image-slider-response","213","2348706","0.0-210.0","A3AX7TD0RPYKF8","","","","","0","","","","","","","","","","","","","","","","","","","","","",""
"4099","","image-button-response","214","2353712","0.0-211.0","A3AX7TD0RPYKF8","img_art/10.jpg","0","","","","","","","","","","","","","","","","","","","","","","","","",""
"1339","","image-button-response","215","2355054","0.0-212.0","A3AX7TD0RPYKF8","img_art/10.jpg","0","","","","","","","","","","","","","","","","","","","","","","","","",""
"2359","","image-button-response","216","2357415","0.0-213.0-0.0","A3AX7TD0RPYKF8","img_art/10.jpg","3","","","","","","","","","","","","","","","","","","","","","","","","",""
"9123","","image-button-response","217","2366541","0.0-214.0-0.0","A3AX7TD0RPYKF8","img_art/10.jpg","1","","","","","","","","","","","","","","","","","","","","","","","","",""
"null","","html-keyboard-response","218","2368046","0.0-215.0","A3AX7TD0RPYKF8","<p style=""font-size: 48px;"">+</p>","","","","","null","allTrialResponses","1500","1","24","img_art/10.jpg","0","talentless","Brian,Angel,Matthew,Jared,Luke,Aaron","this is a good painting, but feels musical in a way that I don't connect with.,-14,380,20","This piece makes me think of music. The music is dark; I like dark music so it edges toward good.,10,180,20","AWESOME VIOLIN!`,26,120,20","it just doesnt appeal to me.,-10,400,20","it reminds me of a musical instrument,19,20,20","I like how simple but intricate it is.,30,20,20","Brian","this is a good painting, but feels musical in a way that I don't connect with.,-14,380,20","Jared","it just doesnt appeal to me.,-10,400,20","Angel","This piece makes me think of music. The music is dark; I like dark music so it edges toward good.,10,180,20","4"
"28387","","survey-text","219","2396442","0.0-216.0-0.0","A3AX7TD0RPYKF8","","","","{""Q0"":""Nice colors, but I'm not interested""}","","","","","","","","","","","","","","","","","","","","","","",""
"6559.700000047684","","image-slider-response","220","2403005","0.0-217.0","A3AX7TD0RPYKF8","","","","","3","","","","","","","","","","","","","","","","","","","","","",""
"2659","","image-button-response","221","2408023","0.0-218.0","A3AX7TD0RPYKF8","img_art/30.jpg","2","","","","","","","","","","","","","","","","","","","","","","","","",""
"235","","image-button-response","222","2408261","0.0-219.0","A3AX7TD0RPYKF8","img_art/30.jpg","2","","","","","","","","","","","","","","","","","","","","","","","","",""
"8723","","image-button-response","223","2416986","0.0-220.0-0.0","A3AX7TD0RPYKF8","img_art/30.jpg","1","","","","","","","","","","","","","","","","","","","","","","","","",""
"2457","","image-button-response","224","2419446","0.0-221.0-0.0","A3AX7TD0RPYKF8","img_art/30.jpg","1","","","","","","","","","","","","","","","","","","","","","","","","",""
"1123","","image-button-response","225","2428589","0.0-221.1-0.1","A3AX7TD0RPYKF8","img_art/30.jpg","0","","","","","","","","","","","","","","","","","","","","","","","","",""
"null","","html-keyboard-response","226","2430093","0.0-222.0","A3AX7TD0RPYKF8","<p style=""font-size: 48px;"">+</p>","","","","","null","allTrialResponses","1500","1","25","img_art/30.jpg","3","Nice colors, but I'm not interested","Brian,Angel,Taylor,Jared,Steven,Corey","this is probably part of a neat series, but the abstraction doesn't speak to me,-17,380,20","It's like a child's art piece: carefree and not trying to conform to anything.,10,180,20","My kid drew this same picture at daycare!!!,5,200,20","i dont like how the colors are mixed,-6,400,20","cant see the meaning behind it,-20,160,20","I dont like the colors whatsoever,-15,260,20","Taylor","My kid drew this same picture at daycare!!!,5,200,20","Angel","It's like a child's art piece: carefree and not trying to conform to anything.,10,180,20","Brian","this is probably part of a neat series, but the abstraction doesn't speak to me,-17,380,20","6"
"8140","","survey-text","227","2438247","0.0-223.0-0.0","A3AX7TD0RPYKF8","","","","{""Q0"":""table""}","","","","","","","","","","","","","","","","","","","","","","",""
"32445","","survey-text","228","2470694","0.0-224.0-0.0","A3AX7TD0RPYKF8","","","","{""Q0"":""Interesting, a little dark""}","","","","","","","","","","","","","","","","","","","","","","",""
"6204.899999976158","","image-slider-response","229","2476902","0.0-225.0","A3AX7TD0RPYKF8","","","","","6","","","","","","","","","","","","","","","","","","","","","",""
"null","","image-button-response","230","2481909","0.0-226.0","A3AX7TD0RPYKF8","img_art/11.jpg","null","","","","","","","","","","","","","","","","","","","","","","","","",""
"13264","","image-button-response","231","2495176","0.0-227.0","A3AX7TD0RPYKF8","img_art/11.jpg","3","","","","","","","","","","","","","","","","","","","","","","","","",""
"5069","","image-button-response","232","2500248","0.0-228.0-0.0","A3AX7TD0RPYKF8","img_art/11.jpg","4","","","","","","","","","","","","","","","","","","","","","","","","",""
"1690","","image-button-response","233","2501941","0.0-229.0-0.0","A3AX7TD0RPYKF8","img_art/11.jpg","0","","","","","","","","","","","","","","","","","","","","","","","","",""
"null","","html-keyboard-response","234","2502944","0.0-230.0","A3AX7TD0RPYKF8","<p style=""font-size: 48px;"">+</p>","","","","","null","allTrialResponses","1000","1","26","img_art/11.jpg","6","Interesting, a little dark","Brian,Angel,Taylor,Travis,Kyle,Nicholas","this looks like a beautiful rainy day in a hellish urban mountain city,14,380,20","This is disorienting, like motion sickness.,-20,180,20","Busy, busy oceanside city.,-10,200,20","I liked it it looked like an roller coasters at an amusment park.,16,260,20","Reminds me of a city on a grey/rainy winter's day,25,340,20","Love the colors and flow,50,240,20","Travis","I liked it it looked like an roller coasters at an amusment park.,16,260,20","Kyle","Reminds me of a city on a grey/rainy winter's day,25,340,20","Brian","this looks like a beautiful rainy day in a hellish urban mountain city,14,380,20","6"
"23078","","survey-text","235","2526028","0.0-231.0-0.0","A3AX7TD0RPYKF8","","","","{""Q0"":""Blah, blah, blah - nothing special""}","","","","","","","","","","","","","","","","","","","","","","",""
"14841.100000023842","","image-slider-response","236","2540871","0.0-232.0","A3AX7TD0RPYKF8","","","","","0","","","","","","","","","","","","","","","","","","","","","",""
"null","","image-button-response","237","2545880","0.0-233.0","A3AX7TD0RPYKF8","img_art/15.jpg","null","","","","","","","","","","","","","","","","","","","","","","","","",""
"4397","","image-button-response","238","2550281","0.0-234.0","A3AX7TD0RPYKF8","img_art/15.jpg","3","","","","","","","","","","","","","","","","","","","","","","","","",""
"2304","","image-button-response","239","2552586","0.0-235.0-0.0","A3AX7TD0RPYKF8","img_art/15.jpg","5","","","","","","","","","","","","","","","","","","","","","","","","",""
"5011","","image-button-response","240","2557600","0.0-236.0-0.0","A3AX7TD0RPYKF8","img_art/15.jpg","0","","","","","","","","","","","","","","","","","","","","","","","","",""
"null","","html-keyboard-response","241","2559117","0.0-237.0","A3AX7TD0RPYKF8","<p style=""font-size: 48px;"">+</p>","","","","","null","allTrialResponses","1500","1","27","img_art/15.jpg","0","Blah, blah, blah - nothing special","Brian,Timothy,Zachary,Travis,Kyle,Michael","This is simply too ""old-school"",-27,380,20","This painting gives a calm vibe but no stronger emotions than that,10,240,20","Reminds me of blue birds in a tree at night. I love nature.,40,400,20","Hate it...black dots.,-47,260,20","I like it as the colors complement each other well,21,340,20","Looks incomplete.,-19,140,20","Travis","Hate it...black dots.,-47,260,20","Michael","Looks incomplete.,-19,140,20","Brian","This is simply too ""old-school"",-27,380,20","6"
"23281","","survey-text","242","2582408","0.0-238.0-0.0","A3AX7TD0RPYKF8","","","","{""Q0"":""I like the colors but it does nothing for me""}","","","","","","","","","","","","","","","","","","","","","","",""
"6846.399999976158","","image-slider-response","243","2589257","0.0-239.0","A3AX7TD0RPYKF8","","","","","0","","","","","","","","","","","","","","","","","","","","","",""
"null","","image-button-response","244","2594265","0.0-240.0","A3AX7TD0RPYKF8","img_art/2.jpg","null","","","","","","","","","","","","","","","","","","","","","","","","",""
"2617","","image-button-response","245","2596884","0.0-241.0","A3AX7TD0RPYKF8","img_art/2.jpg","4","","","","","","","","","","","","","","","","","","","","","","","","",""
"3083","","image-button-response","246","2599970","0.0-242.0-0.0","A3AX7TD0RPYKF8","img_art/2.jpg","3","","","","","","","","","","","","","","","","","","","","","","","","",""
"2316","","image-button-response","247","2602289","0.0-243.0-0.0","A3AX7TD0RPYKF8","img_art/2.jpg","1","","","","","","","","","","","","","","","","","","","","","","","","",""
"null","","html-keyboard-response","248","2603798","0.0-244.0","A3AX7TD0RPYKF8","<p style=""font-size: 48px;"">+</p>","","","","","null","allTrialResponses","1500","1","28","img_art/2.jpg","0","I like the colors but it does nothing for me","Brian,Christopher,Vincent,Travis,Peter,Michael","I like how it looks like a cute smiling face,43,380,20","nope. just looks like a mess,-28,160,20","This reminds me of a peaceful day out alone shopping and spending some me time,41,360,20","I didn't like this it looked like a kindergardner painted it and the green was out of place.,-46,260,20","I don't feel indifferent,4,320,20","Random colors and shapes mashed together. Nothing artistic, but better than some of the other ones.,-37,140,20","Peter","I don't feel indifferent,4,320,20","Travis","I didn't like this it looked like a kindergardner painted it and the green was out of place.,-46,260,20","Christopher","nope. just looks like a mess,-28,160,20","6"
"27417","","survey-text","249","2631226","0.0-245.0-0.0","A3AX7TD0RPYKF8","","","","{""Q0"":""I love it, colorful and active""}","","","","","","","","","","","","","","","","","","","","","","",""
"5315.600000023842","","image-slider-response","250","2636544","0.0-246.0","A3AX7TD0RPYKF8","","","","","50","","","","","","","","","","","","","","","","","","","","","",""
"3386","","image-button-response","251","2641548","0.0-247.0","A3AX7TD0RPYKF8","img_art/24.jpg","5","","","","","","","","","","","","","","","","","","","","","","","","",""
"2441","","image-button-response","252","2643992","0.0-248.0","A3AX7TD0RPYKF8","img_art/24.jpg","5","","","","","","","","","","","","","","","","","","","","","","","","",""
"3517","","image-button-response","253","2647512","0.0-249.0-0.0","A3AX7TD0RPYKF8","img_art/24.jpg","2","","","","","","","","","","","","","","","","","","","","","","","","",""
"7279","","image-button-response","254","2654793","0.0-250.0-0.0","A3AX7TD0RPYKF8","img_art/24.jpg","3","","","","","","","","","","","","","","","","","","","","","","","","",""
"null","","html-keyboard-response","255","2655307","0.0-251.0","A3AX7TD0RPYKF8","<p style=""font-size: 48px;"">+</p>","","","","","null","allTrialResponses","500","1","29","img_art/24.jpg","50","I love it, colorful and active","Miguel,Christopher,Brendan,Travis,Peter,Caleb","Very cute amateur piece.,18,160,20","it's fine, the colors are pleasing, but not my taste,9,160,20","lovely forest vibes,36,340,20","I like it...looks like a waterfall.,11,260,20","Looks like a serene waterfall and woods,29,320,20","This is gorgeous. Strong, saturated colors and clear meaning.,50,40,20","Caleb","This is gorgeous. Strong, saturated colors and clear meaning.,50,40,20","Brendan","lovely forest vibes,36,340,20","Travis","I like it...looks like a waterfall.,11,260,20","6"
"18595","","survey-text","256","2673912","0.0-252.0-0.0","A3AX7TD0RPYKF8","","","","{""Q0"":""I get it, I'm just not impressed""}","","","","","","","","","","","","","","","","","","","","","","",""
"4998.699999988079","","image-slider-response","257","2678913","0.0-253.0","A3AX7TD0RPYKF8","","","","","0","","","","","","","","","","","","","","","","","","","","","",""
"null","","image-button-response","258","2683917","0.0-254.0","A3AX7TD0RPYKF8","img_art/23.jpg","null","","","","","","","","","","","","","","","","","","","","","","","","",""
"2622","","image-button-response","259","2686541","0.0-255.0","A3AX7TD0RPYKF8","img_art/23.jpg","3","","","","","","","","","","","","","","","","","","","","","","","","",""
"5849","","image-button-response","260","2692392","0.0-256.0-0.0","A3AX7TD0RPYKF8","img_art/23.jpg","5","","","","","","","","","","","","","","","","","","","","","","","","",""
"16320","","image-button-response","261","2708716","0.0-257.0-0.0","A3AX7TD0RPYKF8","img_art/23.jpg","2","","","","","","","","","","","","","","","","","","","","","","","","",""
"null","","html-keyboard-response","262","2709721","0.0-258.0","A3AX7TD0RPYKF8","<p style=""font-size: 48px;"">+</p>","","","","","null","allTrialResponses","1000","1","30","img_art/23.jpg","0","I get it, I'm just not impressed","James,Garrett,Brendan,Travis,Lucas,Caleb","I love the rainbow!,12,380,20","I really like the way all the colors look, I think this is a pretty picture.,40,180,20","i completely dont get it,-47,340,20","I had a very neutral feeling to this,no feelings at all.,1,260,20","Shocked, beautiful.,20,380,20","Very colorful. Nice contrasts.,26,40,20","Travis","I had a very neutral feeling to this,no feelings at all.,1,260,20","Caleb","Very colorful. Nice contrasts.,26,40,20","Brendan","i completely dont get it,-47,340,20","6"
"3461","","image-button-response_instructions","263","2713189","0.0-259.0","A3AX7TD0RPYKF8","","0","instructions","","","","","","","","","","","","","","","","","","","","","","","",""
"2134","","image-button-response","264","2715329","0.0-260.0","A3AX7TD0RPYKF8","","0","","","","","","","","","","","","","","","","","","","","","","","","",""
