"rt","url","trial_type","trial_index","time_elapsed","internal_node_id","participant_id","stimulus","button_pressed","Name","responses","response","key_press","variableName","fixationTime","condition","trial","photo","subjectRating","subjectResponse","agentsNames","agent_1_Response","agent_2_Response","agent_3_Response","agent_4_Response","agent_5_Response","agent_6_Response","kept_1_name","kept_1_response","kept_2_name","kept_2_response","kept_3_name","kept_3_response","errorCounter"
"4176","external_page_harvard.html","external-html","0","4204","0.0-0.0","A3B01L2TR8ZH4O","","","","","","","","","","","","","","","","","","","","","","","","","","",""
"1538","","image-button-response","1","5751","0.0-1.0","A3B01L2TR8ZH4O","","0","","","","","","","","","","","","","","","","","","","","","","","","",""
"5042","","image-button-response","2","10806","0.0-2.0-0.0","A3B01L2TR8ZH4O","","1","phone","","","","","","","","","","","","","","","","","","","","","","","",""
"5097","","survey-text","3","15908","0.0-3.0-0.0","A3B01L2TR8ZH4O","","","","{""Q0"":""A3B01L2TR8ZH4O""}","","","","","","","","","","","","","","","","","","","","","","",""
"6668","","image-button-response_instructions","4","22583","0.0-4.0","A3B01L2TR8ZH4O","","0","instructions","","","","","","","","","","","","","","","","","","","","","","","",""
"5188","","image-button-response_instructions","5","27787","0.0-5.0","A3B01L2TR8ZH4O","img_art/ins/popularity/ins1.png","0","instructions","","","","","","","","","","","","","","","","","","","","","","","",""
"5876","","image-button-response_instructions","6","33665","0.0-6.0","A3B01L2TR8ZH4O","img_art/ins/popularity/ins2.png","0","instructions","","","","","","","","","","","","","","","","","","","","","","","",""
"2851","","image-button-response_instructions","7","36518","0.0-7.0","A3B01L2TR8ZH4O","img_art/ins/popularity/ins2Extreme.png","0","instructions","","","","","","","","","","","","","","","","","","","","","","","",""
"4150","","image-button-response_instructions","8","40672","0.0-8.0","A3B01L2TR8ZH4O","img_art/ins/popularity/ins3KEEPpop.PNG","0","instructions","","","","","","","","","","","","","","","","","","","","","","","",""
"2298","","image-button-response_instructions","9","42973","0.0-9.0","A3B01L2TR8ZH4O","img_art/ins/popularity/ins3ANamepop.PNG","0","instructions","","","","","","","","","","","","","","","","","","","","","","","",""
"1169","","image-button-response_instructions","10","44144","0.0-10.0","A3B01L2TR8ZH4O","img_art/ins/popularity/ins3ARatingpop.png","0","instructions","","","","","","","","","","","","","","","","","","","","","","","",""
"1160","","image-button-response_instructions","11","45306","0.0-11.0","A3B01L2TR8ZH4O","img_art/ins/popularity/ins3ATextpop.png","0","instructions","","","","","","","","","","","","","","","","","","","","","","","",""
"6492","","image-button-response_instructions","12","51800","0.0-12.0","A3B01L2TR8ZH4O","img_art/ins/popularity/ins3ALikespop.png","0","instructions","","","","","","","","","","","","","","","","","","","","","","","",""
"76785","","image-button-response_instructions","13","128588","0.0-13.0","A3B01L2TR8ZH4O","img_art/ins/popularity/ins3KEEPpop.PNG","0","instructions","","","","","","","","","","","","","","","","","","","","","","","",""
"243655","","image-button-response_instructions","14","372246","0.0-14.0","A3B01L2TR8ZH4O","img_art/ins/popularity/ins3_5RED.png","0","instructions","","","","","","","","","","","","","","","","","","","","","","","",""
"1665","","image-button-response_instructions","15","373913","0.0-15.0","A3B01L2TR8ZH4O","img_art/ins/popularity/ins3KEEPpop.PNG","0","instructions","","","","","","","","","","","","","","","","","","","","","","","",""
"3147","","image-button-response_instructions","16","377061","0.0-16.0","A3B01L2TR8ZH4O","img_art/ins/popularity/ins4KEEPpop.PNG","0","instructions","","","","","","","","","","","","","","","","","","","","","","","",""
"1992","","image-button-response_instructions","17","379055","0.0-17.0","A3B01L2TR8ZH4O","img_art/ins/popularity/ins5KEEPpop.PNG","0","instructions","","","","","","","","","","","","","","","","","","","","","","","",""
"1176","","image-button-response_instructions","18","380234","0.0-18.0","A3B01L2TR8ZH4O","","0","instructions","","","","","","","","","","","","","","","","","","","","","","","",""
"3247","","survey-text","19","383532","0.0-19.0-0.0","A3B01L2TR8ZH4O","","","","{""Q0"":""but""}","","","","","","","","","","","","","","","","","","","","","","",""
"17620","","survey-text","20","401154","0.0-20.0-0.0","A3B01L2TR8ZH4O","","","","{""Q0"":""A background art piece that you would hang on a living room or waiting room wall""}","","","","","","","","","","","","","","","","","","","","","","",""
"2798.5","","image-slider-response","21","403965","0.0-21.0","A3B01L2TR8ZH4O","","","","","11","","","","","","","","","","","","","","","","","","","","","",""
"null","","image-button-response","22","408970","0.0-22.0","A3B01L2TR8ZH4O","img_art/ins/1.jpg","null","","","","","","","","","","","","","","","","","","","","","","","","",""
"2852","","image-button-response","23","411826","0.0-23.0","A3B01L2TR8ZH4O","img_art/ins/1.jpg","0","","","","","","","","","","","","","","","","","","","","","","","","",""
"6605","","image-button-response","24","418438","0.0-24.0-0.0","A3B01L2TR8ZH4O","img_art/ins/1.jpg","5","","","","","","","","","","","","","","","","","","","","","","","","",""
"809","","image-button-response","25","419254","0.0-25.0-0.0","A3B01L2TR8ZH4O","img_art/ins/1.jpg","3","","","","","","","","","","","","","","","","","","","","","","","","",""
"null","","html-keyboard-response","26","419764","0.0-26.0","A3B01L2TR8ZH4O","<p style=""font-size: 48px;"">+</p>","","","","","null","allTrialResponses","500","1","-2","img_art/ins/1.jpg","11","A background art piece that you would hang on a living room or waiting room wall","Adam,Alex,Ben,Carl,Daniel,Jack","Seems like doodles,-20,20,20","very creative work.,36,40,20","This color reminds me of poo,-46,60,20","very calming artwork,42,80,20","It looks like a murder scene.,-48,100,20","I like the sophisticated brushwork,40,120,20","Adam","Seems like doodles,-20,20,20","Jack","I like the sophisticated brushwork,40,120,20","Carl","very calming artwork,42,80,20","0"
"9334","","survey-text","27","429105","0.0-27.0-0.0","A3B01L2TR8ZH4O","","","","{""Q0"":""Colors seem intense and intersting""}","","","","","","","","","","","","","","","","","","","","","","",""
"2414.5","","image-slider-response","28","431526","0.0-28.0","A3B01L2TR8ZH4O","","","","","-7","","","","","","","","","","","","","","","","","","","","","",""
"3614","","image-button-response","29","436533","0.0-29.0","A3B01L2TR8ZH4O","img_art/ins/2.jpg","0","","","","","","","","","","","","","","","","","","","","","","","","",""
"954","","image-button-response","30","437491","0.0-30.0","A3B01L2TR8ZH4O","img_art/ins/2.jpg","0","","","","","","","","","","","","","","","","","","","","","","","","",""
"5475","","image-button-response","31","442970","0.0-31.0-0.0","A3B01L2TR8ZH4O","img_art/ins/2.jpg","2","","","","","","","","","","","","","","","","","","","","","","","","",""
"668","","image-button-response","32","443643","0.0-32.0-0.0","A3B01L2TR8ZH4O","img_art/ins/2.jpg","1","","","","","","","","","","","","","","","","","","","","","","","","",""
"null","","html-keyboard-response","33","444145","0.0-33.0","A3B01L2TR8ZH4O","<p style=""font-size: 48px;"">+</p>","","","","","null","allTrialResponses","500","1","-1","img_art/ins/2.jpg","-7","Colors seem intense and intersting","Adam,James,Kyle,Carl,John,Jack","too much color,-18,20,20","looks too angry,-50,140,20","Idk, it is just annoying,-32,180,20","I can feel the artist's passion in it,45,80,20","love the texture of paint,48,160,20","I would never be able to compose a sophisticated pallete like this,48,120,20","Adam","too much color,-18,20,20","Kyle","Idk, it is just annoying,-32,180,20","James","looks too angry,-50,140,20","0"
"11797","","survey-text","34","455950","0.0-34.0-0.0","A3B01L2TR8ZH4O","","","","{""Q0"":""I like the cool, blue colors and shades""}","","","","","","","","","","","","","","","","","","","","","","",""
"2358.0999999940395","","image-slider-response","35","458311","0.0-35.0","A3B01L2TR8ZH4O","","","","","22","","","","","","","","","","","","","","","","","","","","","",""
"3547","","image-button-response","36","463317","0.0-36.0","A3B01L2TR8ZH4O","img_art/ins/3.jpg","3","","","","","","","","","","","","","","","","","","","","","","","","",""
"422","","image-button-response","37","463742","0.0-37.0","A3B01L2TR8ZH4O","img_art/ins/3.jpg","3","","","","","","","","","","","","","","","","","","","","","","","","",""
"903","","image-button-response","38","464648","0.0-38.0-0.0","A3B01L2TR8ZH4O","img_art/ins/3.jpg","3","","","","","","","","","","","","","","","","","","","","","","","","",""
"3841","","image-button-response","39","471535","0.0-38.1-0.1","A3B01L2TR8ZH4O","img_art/ins/3.jpg","5","","","","","","","","","","","","","","","","","","","","","","","","",""
"3836","","image-button-response","40","475375","0.0-39.0-0.0","A3B01L2TR8ZH4O","img_art/ins/3.jpg","2","","","","","","","","","","","","","","","","","","","","","","","","",""
"null","","html-keyboard-response","41","475878","0.0-40.0","A3B01L2TR8ZH4O","<p style=""font-size: 48px;"">+</p>","","","","","null","allTrialResponses","500","1","0","img_art/ins/3.jpg","22","I like the cool, blue colors and shades","Adam,James,Kyle,Mike,Ron,Sam","My daily routine, it's depressing,-20,20,20","My worst nightmare,-42,140,20","It looks like a playground for bats,-36,180,20","enjoy the different shades of blue,22,200,20","It looks depressing,-26,220,20","I can feel a rainy day from this painting,18,240,20","Mike","enjoy the different shades of blue,22,200,20","Sam","I can feel a rainy day from this painting,18,240,20","Kyle","It looks like a playground for bats,-36,180,20","2"
"2787","","image-button-response_instructions","42","478673","0.0-41.0","A3B01L2TR8ZH4O","","0","instructions","","","","","","","","","","","","","","","","","","","","","","","",""
"6331","","survey-likert","43","485007","0.0-42.0-0.0","A3B01L2TR8ZH4O","","","","{""Q0"":"""",""Q1"":0,""Q2"":1}","","","","","","","","","","","","","","","","","","","","","","",""
"3275","","survey-text","44","488296","0.0-43.0-0.0","A3B01L2TR8ZH4O","","","","{""Q0"":""rock""}","","","","","","","","","","","","","","","","","","","","","","",""
"6698","","survey-text","45","494997","0.0-44.0-0.0","A3B01L2TR8ZH4O","","","","{""Q0"":""seems like the surface of the moon""}","","","","","","","","","","","","","","","","","","","","","","",""
"4176.100000008941","","image-slider-response","46","499177","0.0-45.0","A3B01L2TR8ZH4O","","","","","-11","","","","","","","","","","","","","","","","","","","","","",""
"4950","","image-button-response","47","504210","0.0-46.0","A3B01L2TR8ZH4O","img_art/7.jpg","1","","","","","","","","","","","","","","","","","","","","","","","","",""
"1468","","image-button-response","48","505681","0.0-47.0","A3B01L2TR8ZH4O","img_art/7.jpg","1","","","","","","","","","","","","","","","","","","","","","","","","",""
"758","","image-button-response","49","506443","0.0-48.0-0.0","A3B01L2TR8ZH4O","img_art/7.jpg","5","","","","","","","","","","","","","","","","","","","","","","","","",""
"4280","","image-button-response","50","510728","0.0-49.0-0.0","A3B01L2TR8ZH4O","img_art/7.jpg","2","","","","","","","","","","","","","","","","","","","","","","","","",""
"null","","html-keyboard-response","51","511236","0.0-50.0","A3B01L2TR8ZH4O","<p style=""font-size: 48px;"">+</p>","","","","","null","allTrialResponses","500","1","1","img_art/7.jpg","-11","seems like the surface of the moon","Antonio,Travis,Sean,Mark,Devin,Steven","Looks like dirt on the ground. Makes me feel unclean,-37,220,20","Just neutral...looks like sand at the beach.,3,260,20","does not look good,-42,40,20","Reminds me of mold. Repulsive.,-10,80,20","Not very big on the sameness here,-20,380,20","looks like the surface of the moon.,1,160,20","Travis","Just neutral...looks like sand at the beach.,3,260,20","Steven","looks like the surface of the moon.,1,160,20","Sean","does not look good,-42,40,20","2"
"11608","","survey-text","52","522849","0.0-51.0-0.0","A3B01L2TR8ZH4O","","","","{""Q0"":""Seems very artsy and overdone""}","","","","","","","","","","","","","","","","","","","","","","",""
"2237.4000000059605","","image-slider-response","53","525090","0.0-52.0","A3B01L2TR8ZH4O","","","","","-14","","","","","","","","","","","","","","","","","","","","","",""
"null","","image-button-response","54","530094","0.0-53.0","A3B01L2TR8ZH4O","img_art/1.jpg","null","","","","","","","","","","","","","","","","","","","","","","","","",""
"2010","","image-button-response","55","532109","0.0-54.0","A3B01L2TR8ZH4O","img_art/1.jpg","1","","","","","","","","","","","","","","","","","","","","","","","","",""
"3600","","image-button-response","56","535713","0.0-55.0-0.0","A3B01L2TR8ZH4O","img_art/1.jpg","2","","","","","","","","","","","","","","","","","","","","","","","","",""
"2801","","image-button-response","57","538519","0.0-56.0-0.0","A3B01L2TR8ZH4O","img_art/1.jpg","5","","","","","","","","","","","","","","","","","","","","","","","","",""
"null","","html-keyboard-response","58","539029","0.0-57.0","A3B01L2TR8ZH4O","<p style=""font-size: 48px;"">+</p>","","","","","null","allTrialResponses","500","1","2","img_art/1.jpg","-14","Seems very artsy and overdone","Lucas,Travis,Sean,Vincent,Aaron,Steven","The colors match and create a nice artistic disorder.,20,380,20","I didn't like this too much...I didn't like the red and the jaggedness to it.,-29,260,20","my reaction is that the picture is that Ive seen it before,-14,40,20","I love the detail and colors like a beautiful autumn day,35,360,20","The colors are nice but that's all it is,21,20,20","It's fine, but its like something you'd see in the restroom of a cheap restaurant,10,160,20","Travis","I didn't like this too much...I didn't like the red and the jaggedness to it.,-29,260,20","Sean","my reaction is that the picture is that Ive seen it before,-14,40,20","Steven","It's fine, but its like something you'd see in the restroom of a cheap restaurant,10,160,20","2"
"10401","","survey-text","59","549434","0.0-58.0-0.0","A3B01L2TR8ZH4O","","","","{""Q0"":""This isn't art and looks like blood""}","","","","","","","","","","","","","","","","","","","","","","",""
"2851","","image-slider-response","60","552288","0.0-59.0","A3B01L2TR8ZH4O","","","","","-33","","","","","","","","","","","","","","","","","","","","","",""
"2285","","image-button-response","61","557294","0.0-60.0","A3B01L2TR8ZH4O","img_art/3.jpg","1","","","","","","","","","","","","","","","","","","","","","","","","",""
"1465","","image-button-response","62","558763","0.0-61.0","A3B01L2TR8ZH4O","img_art/3.jpg","1","","","","","","","","","","","","","","","","","","","","","","","","",""
"3295","","image-button-response","63","562062","0.0-62.0-0.0","A3B01L2TR8ZH4O","img_art/3.jpg","5","","","","","","","","","","","","","","","","","","","","","","","","",""
"933","","image-button-response","64","563000","0.0-63.0-0.0","A3B01L2TR8ZH4O","img_art/3.jpg","4","","","","","","","","","","","","","","","","","","","","","","","","",""
"null","","html-keyboard-response","65","564508","0.0-64.0","A3B01L2TR8ZH4O","<p style=""font-size: 48px;"">+</p>","","","","","null","allTrialResponses","1500","1","3","img_art/3.jpg","-33","This isn't art and looks like blood","Christian,Travis,Sean,Taylor,Thomas,Steven","sorry do not understand,-26,140,20","I hate this...just a scribble of red.,-50,260,20","my response to the picture is a lot of red, danger,,-21,40,20","Why kids with color crayons is called art is beyond me. People pay for this???,-40,200,20","Too messy and structure-less,-10,220,20","i don't like this, just looks like scribbles,-50,160,20","Travis","I hate this...just a scribble of red.,-50,260,20","Steven","i don't like this, just looks like scribbles,-50,160,20","Thomas","Too messy and structure-less,-10,220,20","2"
"12606","","survey-text","66","577119","0.0-65.0-0.0","A3B01L2TR8ZH4O","","","","{""Q0"":""Looks completely messy and inscrutable""}","","","","","","","","","","","","","","","","","","","","","","",""
"2590.2999999970198","","image-slider-response","67","579713","0.0-66.0","A3B01L2TR8ZH4O","","","","","-42","","","","","","","","","","","","","","","","","","","","","",""
"4834","","image-button-response","68","584722","0.0-67.0","A3B01L2TR8ZH4O","img_art/10.jpg","0","","","","","","","","","","","","","","","","","","","","","","","","",""
"1119","","image-button-response","69","585843","0.0-68.0","A3B01L2TR8ZH4O","img_art/10.jpg","0","","","","","","","","","","","","","","","","","","","","","","","","",""
"3384","","image-button-response","70","589230","0.0-69.0-0.0","A3B01L2TR8ZH4O","img_art/10.jpg","3","","","","","","","","","","","","","","","","","","","","","","","","",""
"782","","image-button-response","71","590016","0.0-70.0-0.0","A3B01L2TR8ZH4O","img_art/10.jpg","5","","","","","","","","","","","","","","","","","","","","","","","","",""
"null","","html-keyboard-response","72","591023","0.0-71.0","A3B01L2TR8ZH4O","<p style=""font-size: 48px;"">+</p>","","","","","null","allTrialResponses","1000","1","4","img_art/10.jpg","-42","Looks completely messy and inscrutable","Jordan,Travis,Cameron,Nicholas,Thomas,Steven","Looks gross and messy,-39,160,20","I liked it...it looked somewhat like a guitar.,32,260,20","artistic cello piece?,30,60,20","I like it but do not love it. It is sort of depressing,13,240,20","Makes me want to know more about it, and potentially the artist.,20,220,20","I dont like it, there is too much going on,-19,160,20","Jordan","Looks gross and messy,-39,160,20","Nicholas","I like it but do not love it. It is sort of depressing,13,240,20","Steven","I dont like it, there is too much going on,-19,160,20","2"
"23564","","survey-text","73","614596","0.0-72.0-0.0","A3B01L2TR8ZH4O","","","","{""Q0"":""Semi-interesting brushstrokes, except for the red part""}","","","","","","","","","","","","","","","","","","","","","","",""
"2178.2000000029802","","image-slider-response","74","616777","0.0-73.0","A3B01L2TR8ZH4O","","","","","-16","","","","","","","","","","","","","","","","","","","","","",""
"2886","","image-button-response","75","621782","0.0-74.0","A3B01L2TR8ZH4O","img_art/30.jpg","0","","","","","","","","","","","","","","","","","","","","","","","","",""
"408","","image-button-response","76","622193","0.0-75.0","A3B01L2TR8ZH4O","img_art/30.jpg","0","","","","","","","","","","","","","","","","","","","","","","","","",""
"3055","","image-button-response","77","625252","0.0-76.0-0.0","A3B01L2TR8ZH4O","img_art/30.jpg","3","","","","","","","","","","","","","","","","","","","","","","","","",""
"2713","","image-button-response","78","627970","0.0-77.0-0.0","A3B01L2TR8ZH4O","img_art/30.jpg","4","","","","","","","","","","","","","","","","","","","","","","","","",""
"null","","html-keyboard-response","79","628975","0.0-78.0","A3B01L2TR8ZH4O","<p style=""font-size: 48px;"">+</p>","","","","","null","allTrialResponses","1000","1","5","img_art/30.jpg","-16","Semi-interesting brushstrokes, except for the red part","Jordan,Jesse,Edward,Nicholas,Kyle,Steven","Combination of colors arent good,-6,160,20","I do like the multi-dimensional aspect of this piece,10,80,20","My son made me a painting that looked like this,26,60,20","Too much like childrens finger paint. I dont like the smear of blended colors,-50,240,20","Pretty neutral about this one,0,340,20","cant see the meaning behind it,-20,160,20","Jordan","Combination of colors arent good,-6,160,20","Nicholas","Too much like childrens finger paint. I dont like the smear of blended colors,-50,240,20","Kyle","Pretty neutral about this one,0,340,20","2"
"2699","","survey-text","80","631685","0.0-79.0-0.0","A3B01L2TR8ZH4O","","","","{""Q0"":""sky""}","","","","","","","","","","","","","","","","","","","","","","",""
"8922","","survey-text","81","640610","0.0-80.0-0.0","A3B01L2TR8ZH4O","","","","{""Q0"":""completely messy, looks like a kid's drawing""}","","","","","","","","","","","","","","","","","","","","","","",""
"2719","","image-slider-response","82","643332","0.0-81.0","A3B01L2TR8ZH4O","","","","","-38","","","","","","","","","","","","","","","","","","","","","",""
"null","","image-button-response","83","648340","0.0-82.0","A3B01L2TR8ZH4O","img_art/9.jpg","null","","","","","","","","","","","","","","","","","","","","","","","","",""
"1968","","image-button-response","84","650312","0.0-83.0","A3B01L2TR8ZH4O","img_art/9.jpg","3","","","","","","","","","","","","","","","","","","","","","","","","",""
"605","","image-button-response","85","650920","0.0-84.0-0.0","A3B01L2TR8ZH4O","img_art/9.jpg","0","","","","","","","","","","","","","","","","","","","","","","","","",""
"8136","","image-button-response","86","659066","0.0-85.0-0.0","A3B01L2TR8ZH4O","img_art/9.jpg","5","","","","","","","","","","","","","","","","","","","","","","","","",""
"null","","html-keyboard-response","87","659570","0.0-86.0","A3B01L2TR8ZH4O","<p style=""font-size: 48px;"">+</p>","","","","","null","allTrialResponses","500","1","6","img_art/9.jpg","-38","completely messy, looks like a kid's drawing","Jordan,Brandon,Garrett,Nicholas,Kyle,Jacob","Reminds me of a cave in a scary movie,-21,160,20","I like the sense of forboding, the green creates a claustrophobic feeling,10,320,20","This looks like someone sleeping in a bed, and I think the colors make it look interesting.,20,180,20","Some nice colors but i do not like it,-18,240,20","I like abstract art that looks that there is more than random brush strokes. This one looks the former,10,340,20","So I don't really like this style but it looks somewhat okay,3,340,20","Nicholas","Some nice colors but i do not like it,-18,240,20","Jordan","Reminds me of a cave in a scary movie,-21,160,20","Jacob","So I don't really like this style but it looks somewhat okay,3,340,20","2"
"8966","","survey-text","88","668544","0.0-87.0-0.0","A3B01L2TR8ZH4O","","","","{""Q0"":""Looks contemporary and socially relevant""}","","","","","","","","","","","","","","","","","","","","","","",""
"3025.5999999940395","","image-slider-response","89","671572","0.0-88.0","A3B01L2TR8ZH4O","","","","","-3","","","","","","","","","","","","","","","","","","","","","",""
"4312","","image-button-response","90","676576","0.0-89.0","A3B01L2TR8ZH4O","img_art/8.jpg","4","","","","","","","","","","","","","","","","","","","","","","","","",""
"335","","image-button-response","91","676915","0.0-90.0","A3B01L2TR8ZH4O","img_art/8.jpg","4","","","","","","","","","","","","","","","","","","","","","","","","",""
"1512","","image-button-response","92","678429","0.0-91.0-0.0","A3B01L2TR8ZH4O","img_art/8.jpg","0","","","","","","","","","","","","","","","","","","","","","","","","",""
"694","","image-button-response","93","679128","0.0-92.0-0.0","A3B01L2TR8ZH4O","img_art/8.jpg","3","","","","","","","","","","","","","","","","","","","","","","","","",""
"null","","html-keyboard-response","94","679632","0.0-93.0","A3B01L2TR8ZH4O","<p style=""font-size: 48px;"">+</p>","","","","","null","allTrialResponses","500","1","7","img_art/8.jpg","-3","Looks contemporary and socially relevant","Jordan,Jose,Isaac,Nicholas,Adrian,Jacob","I did not like the face,-10,160,20","This is really cool, I love the fragments of faces,38,200,20","It looks like it took a lot of time to complete.,34,280,20","The face bothers me,-25,240,20","Pleasant colors, lots of interest. Not sure what's going on but I like it.,20,60,20","Very cool! I like this piece,9,340,20","Adrian","Pleasant colors, lots of interest. Not sure what's going on but I like it.,20,60,20","Jordan","I did not like the face,-10,160,20","Nicholas","The face bothers me,-25,240,20","2"
"14458","","survey-text","95","694097","0.0-94.0-0.0","A3B01L2TR8ZH4O","","","","{""Q0"":""Seems like it could be less blurry and looks like an ocean""}","","","","","","","","","","","","","","","","","","","","","","",""
"1909","","image-slider-response","96","696009","0.0-95.0","A3B01L2TR8ZH4O","","","","","-6","","","","","","","","","","","","","","","","","","","","","",""
"null","","image-button-response","97","701015","0.0-96.0","A3B01L2TR8ZH4O","img_art/21.jpg","null","","","","","","","","","","","","","","","","","","","","","","","","",""
"968","","image-button-response","98","701987","0.0-97.0","A3B01L2TR8ZH4O","img_art/21.jpg","4","","","","","","","","","","","","","","","","","","","","","","","","",""
"382","","image-button-response","99","702373","0.0-98.0-0.0","A3B01L2TR8ZH4O","img_art/21.jpg","5","","","","","","","","","","","","","","","","","","","","","","","","",""
"862","","image-button-response","100","703242","0.0-99.0-0.0","A3B01L2TR8ZH4O","img_art/21.jpg","5","","","","","","","","","","","","","","","","","","","","","","","","",""
"761","","image-button-response","101","706867","0.0-99.1-0.1","A3B01L2TR8ZH4O","img_art/21.jpg","2","","","","","","","","","","","","","","","","","","","","","","","","",""
"null","","html-keyboard-response","102","707373","0.0-100.0","A3B01L2TR8ZH4O","<p style=""font-size: 48px;"">+</p>","","","","","null","allTrialResponses","500","1","8","img_art/21.jpg","-6","Seems like it could be less blurry and looks like an ocean","Jordan,David,Zachary,Nicholas,Adrian,Nathaniel","Beautiful colors, remind me of my yoga studio,50,160,20","I like how the piece has the possibility of depicting some type of story.,30,340,20","Looks like a body of water during a sunset. I like this piece.,21,400,20","Love the colors and the relationship between the light and storm,50,240,20","I like this piece more the more I look at. Still wouldn't want it in my home, though.,8,60,20","Looks like two ships on fire. Cool image.,12,220,20","Adrian","I like this piece more the more I look at. Still wouldn't want it in my home, though.,8,60,20","Nathaniel","Looks like two ships on fire. Cool image.,12,220,20","Zachary","Looks like a body of water during a sunset. I like this piece.,21,400,20","4"
"55016","","survey-text","103","762395","0.0-101.0-0.0","A3B01L2TR8ZH4O","","","","{""Q0"":""Seems like a bunch or blurry grids""}","","","","","","","","","","","","","","","","","","","","","","",""
"1992.2999999970198","","image-slider-response","104","764392","0.0-102.0","A3B01L2TR8ZH4O","","","","","-13","","","","","","","","","","","","","","","","","","","","","",""
"4970","","image-button-response","105","769396","0.0-103.0","A3B01L2TR8ZH4O","img_art/12.jpg","5","","","","","","","","","","","","","","","","","","","","","","","","",""
"335","","image-button-response","106","769735","0.0-104.0","A3B01L2TR8ZH4O","img_art/12.jpg","4","","","","","","","","","","","","","","","","","","","","","","","","",""
"490","","image-button-response","107","770228","0.0-105.0-0.0","A3B01L2TR8ZH4O","img_art/12.jpg","3","","","","","","","","","","","","","","","","","","","","","","","","",""
"421","","image-button-response","108","770653","0.0-106.0-0.0","A3B01L2TR8ZH4O","img_art/12.jpg","5","","","","","","","","","","","","","","","","","","","","","","","","",""
"null","","html-keyboard-response","109","772161","0.0-107.0","A3B01L2TR8ZH4O","<p style=""font-size: 48px;"">+</p>","","","","","null","allTrialResponses","1500","1","9","img_art/12.jpg","-13","Seems like a bunch or blurry grids","Victor,Malik,Zachary,Devon,Adrian,Nathaniel","I like the colors and pattern,21,340,20","I don't like it, but I appreciate the effort and technique,11,40,20","I like how it's split into tiny squares, but otherwise, not very intriguing.,-18,400,20","too much - just overcrowded,-20,400,20","Ugly colors and I'm just not too much a fan of cubist abstract art.,-50,60,20","Too many blocks. I can't see a purpose or a focal point,-44,220,20","Adrian","Ugly colors and I'm just not too much a fan of cubist abstract art.,-50,60,20","Devon","too much - just overcrowded,-20,400,20","Nathaniel","Too many blocks. I can't see a purpose or a focal point,-44,220,20","4"
"12117","","survey-text","110","784285","0.0-108.0-0.0","A3B01L2TR8ZH4O","","","","{""Q0"":""Seems like very cool album art""}","","","","","","","","","","","","","","","","","","","","","","",""
"1784.5","","image-slider-response","111","786072","0.0-109.0","A3B01L2TR8ZH4O","","","","","15","","","","","","","","","","","","","","","","","","","","","",""
"3528","","image-button-response","112","791078","0.0-110.0","A3B01L2TR8ZH4O","img_art/23.jpg","1","","","","","","","","","","","","","","","","","","","","","","","","",""
"3947","","image-button-response","113","795028","0.0-111.0","A3B01L2TR8ZH4O","img_art/23.jpg","2","","","","","","","","","","","","","","","","","","","","","","","","",""
"843","","image-button-response","114","795875","0.0-112.0-0.0","A3B01L2TR8ZH4O","img_art/23.jpg","1","","","","","","","","","","","","","","","","","","","","","","","","",""
"461","","image-button-response","115","796339","0.0-113.0-0.0","A3B01L2TR8ZH4O","img_art/23.jpg","0","","","","","","","","","","","","","","","","","","","","","","","","",""
"null","","html-keyboard-response","116","797843","0.0-114.0","A3B01L2TR8ZH4O","<p style=""font-size: 48px;"">+</p>","","","","","null","allTrialResponses","1500","1","10","img_art/23.jpg","15","Seems like very cool album art","Alejandro,Jeffrey,Spencer,Devon,Adrian,Nathaniel","I love the funky colors accompanied by perhaps dancing silhouettes. I love the white against the chaotic surroundings.,50,80,20","Very energetic, seems like it is pulling me in,24,40,20","Interesting, want to look at it more to identify,25,120,20","i cannot breath in this,-10,400,20","Too much contrasting colors together. I hate it.,-50,60,20","Not a fan of these dot pieces. They hurt my eyes.,-25,220,20","Spencer","Interesting, want to look at it more to identify,25,120,20","Jeffrey","Very energetic, seems like it is pulling me in,24,40,20","Alejandro","I love the funky colors accompanied by perhaps dancing silhouettes. I love the white against the chaotic surroundings.,50,80,20","4"
"8389","","survey-text","117","806246","0.0-115.0-0.0","A3B01L2TR8ZH4O","","","","{""Q0"":""our""}","","","","","","","","","","","","","","","","","","","","","","",""
"12592","","survey-text","118","818839","0.0-116.0-0.0","A3B01L2TR8ZH4O","","","","{""Q0"":""seems like a decent painting that was ruined by scribbles""}","","","","","","","","","","","","","","","","","","","","","","",""
"1973.7000000029802","","image-slider-response","119","820816","0.0-117.0","A3B01L2TR8ZH4O","","","","","-15","","","","","","","","","","","","","","","","","","","","","",""
"4571","","image-button-response","120","825820","0.0-118.0","A3B01L2TR8ZH4O","img_art/27.jpg","0","","","","","","","","","","","","","","","","","","","","","","","","",""
"666","","image-button-response","121","826489","0.0-119.0","A3B01L2TR8ZH4O","img_art/27.jpg","0","","","","","","","","","","","","","","","","","","","","","","","","",""
"421","","image-button-response","122","826913","0.0-120.0-0.0","A3B01L2TR8ZH4O","img_art/27.jpg","1","","","","","","","","","","","","","","","","","","","","","","","","",""
"723","","image-button-response","123","827640","0.0-121.0-0.0","A3B01L2TR8ZH4O","img_art/27.jpg","0","","","","","","","","","","","","","","","","","","","","","","","","",""
"1722","","image-button-response","124","831969","0.0-121.1-0.1","A3B01L2TR8ZH4O","img_art/27.jpg","4","","","","","","","","","","","","","","","","","","","","","","","","",""
"null","","html-keyboard-response","125","832972","0.0-122.0","A3B01L2TR8ZH4O","<p style=""font-size: 48px;"">+</p>","","","","","null","allTrialResponses","1000","1","11","img_art/27.jpg","-15","seems like a decent painting that was ruined by scribbles","Alejandro,Jeffrey,Spencer,Jonathan,Alexander,James","Muddied and directionless. Like someone dragged a brush across the paper for the sake of doing something.,-50,80,20","I like the pictures but it is a lot of going on,10,40,20","An attractive assortment of squiggles and colors,22,120,20","Very cool colors and I like the contrast of lights and darks,30,140,20","Messy field of various plants.,-5,120,20","This painting is very unique,21,380,20","Alejandro","Muddied and directionless. Like someone dragged a brush across the paper for the sake of doing something.,-50,80,20","Jeffrey","I like the pictures but it is a lot of going on,10,40,20","Alexander","Messy field of various plants.,-5,120,20","6"
"14826","","survey-text","126","847806","0.0-123.0-0.0","A3B01L2TR8ZH4O","","","","{""Q0"":""not a fan of all the tree branches""}","","","","","","","","","","","","","","","","","","","","","","",""
"3249","","image-slider-response","127","851058","0.0-124.0","A3B01L2TR8ZH4O","","","","","-11","","","","","","","","","","","","","","","","","","","","","",""
"4049","","image-button-response","128","856064","0.0-125.0","A3B01L2TR8ZH4O","img_art/17.jpg","2","","","","","","","","","","","","","","","","","","","","","","","","",""
"2196","","image-button-response","129","858264","0.0-126.0","A3B01L2TR8ZH4O","img_art/17.jpg","2","","","","","","","","","","","","","","","","","","","","","","","","",""
"5309","","image-button-response","130","863576","0.0-127.0-0.0","A3B01L2TR8ZH4O","img_art/17.jpg","3","","","","","","","","","","","","","","","","","","","","","","","","",""
"3068","","image-button-response","131","866651","0.0-128.0-0.0","A3B01L2TR8ZH4O","img_art/17.jpg","4","","","","","","","","","","","","","","","","","","","","","","","","",""
"null","","html-keyboard-response","132","868154","0.0-129.0","A3B01L2TR8ZH4O","<p style=""font-size: 48px;"">+</p>","","","","","null","allTrialResponses","1500","1","12","img_art/17.jpg","-11","not a fan of all the tree branches","Alejandro,Jeffrey,Alex,Nathan,Alexander,William","Embodies beauty and complexity and in simplicity as well,50,80,20","Makes me warm and cozy just by looking at it,29,40,20","I can tell there are tress and maybe some doors but I'm not a fan of the style,-2,100,20","It's alright, nothing I particularly like but it's just fine,-10,200,20","Tree of knowledge in a quiet school.,17,120,20","love the wispyness of it,34,380,20","Alex","I can tell there are tress and maybe some doors but I'm not a fan of the style,-2,100,20","Nathan","It's alright, nothing I particularly like but it's just fine,-10,200,20","Alexander","Tree of knowledge in a quiet school.,17,120,20","6"
"10062","","survey-text","133","878225","0.0-130.0-0.0","A3B01L2TR8ZH4O","","","","{""Q0"":""completely disgusting, this is not art""}","","","","","","","","","","","","","","","","","","","","","","",""
"2870","","image-slider-response","134","881099","0.0-131.0","A3B01L2TR8ZH4O","","","","","-44","","","","","","","","","","","","","","","","","","","","","",""
"4795","","image-button-response","135","886103","0.0-132.0","A3B01L2TR8ZH4O","img_art/29.jpg","1","","","","","","","","","","","","","","","","","","","","","","","","",""
"1435","","image-button-response","136","887541","0.0-133.0","A3B01L2TR8ZH4O","img_art/29.jpg","4","","","","","","","","","","","","","","","","","","","","","","","","",""
"3055","","image-button-response","137","890600","0.0-134.0-0.0","A3B01L2TR8ZH4O","img_art/29.jpg","3","","","","","","","","","","","","","","","","","","","","","","","","",""
"1463","","image-button-response","138","892067","0.0-135.0-0.0","A3B01L2TR8ZH4O","img_art/29.jpg","1","","","","","","","","","","","","","","","","","","","","","","","","",""
"null","","html-keyboard-response","139","893070","0.0-136.0","A3B01L2TR8ZH4O","<p style=""font-size: 48px;"">+</p>","","","","","null","allTrialResponses","1000","1","13","img_art/29.jpg","-44","completely disgusting, this is not art","Dalton,Elijah,Alex,Nathan,Alexander,Christopher","i dont know how it makes me feel.,1,300,20","Makes me feel untidy,-9,80,20","The texture really stands out, this is an interesting composition,6,100,20","Quite ugly in my opinion,-30,200,20","Tested and failed a lot of ideas.,-20,120,20","it's interesting but not my style,9,160,20","Alexander","Tested and failed a lot of ideas.,-20,120,20","Nathan","Quite ugly in my opinion,-30,200,20","Elijah","Makes me feel untidy,-9,80,20","6"
"11316","","survey-text","140","904392","0.0-137.0-0.0","A3B01L2TR8ZH4O","","","","{""Q0"":""Seems like a lot of other paintings, nothing special but okay""}","","","","","","","","","","","","","","","","","","","","","","",""
"2418.7999999970198","","image-slider-response","141","906814","0.0-138.0","A3B01L2TR8ZH4O","","","","","5","","","","","","","","","","","","","","","","","","","","","",""
"4362","","image-button-response","142","911819","0.0-139.0","A3B01L2TR8ZH4O","img_art/22.jpg","2","","","","","","","","","","","","","","","","","","","","","","","","",""
"1454","","image-button-response","143","913278","0.0-140.0","A3B01L2TR8ZH4O","img_art/22.jpg","3","","","","","","","","","","","","","","","","","","","","","","","","",""
"1745","","image-button-response","144","915025","0.0-141.0-0.0","A3B01L2TR8ZH4O","img_art/22.jpg","2","","","","","","","","","","","","","","","","","","","","","","","","",""
"2317","","image-button-response","145","917347","0.0-142.0-0.0","A3B01L2TR8ZH4O","img_art/22.jpg","0","","","","","","","","","","","","","","","","","","","","","","","","",""
"null","","html-keyboard-response","146","918849","0.0-143.0","A3B01L2TR8ZH4O","<p style=""font-size: 48px;"">+</p>","","","","","null","allTrialResponses","1500","1","14","img_art/22.jpg","5","Seems like a lot of other paintings, nothing special but okay","Joshua,Elijah,Brian,Nathan,Alexander,Tanner","This one would work in the right frame. It's nice.,20,240,20","Makes me feel a bit anxious,6,80,20","this is too generic,-27,380,20","A bit colorful, but slightly enjoyable, almost gives off castle/sunset vibes,10,200,20","Glowing city of many emotions.,10,120,20","fire, danger, resentful,-17,180,20","Nathan","A bit colorful, but slightly enjoyable, almost gives off castle/sunset vibes,10,200,20","Brian","this is too generic,-27,380,20","Joshua","This one would work in the right frame. It's nice.,20,240,20","6"
"10306","","survey-text","147","929164","0.0-144.0-0.0","A3B01L2TR8ZH4O","","","","{""Q0"":""A nice, background painting""}","","","","","","","","","","","","","","","","","","","","","","",""
"2210.0999999940395","","image-slider-response","148","931377","0.0-145.0","A3B01L2TR8ZH4O","","","","","12","","","","","","","","","","","","","","","","","","","","","",""
"4987","","image-button-response","149","936381","0.0-146.0","A3B01L2TR8ZH4O","img_art/26.jpg","4","","","","","","","","","","","","","","","","","","","","","","","","",""
"537","","image-button-response","150","936922","0.0-147.0","A3B01L2TR8ZH4O","img_art/26.jpg","4","","","","","","","","","","","","","","","","","","","","","","","","",""
"509","","image-button-response","151","937435","0.0-148.0-0.0","A3B01L2TR8ZH4O","img_art/26.jpg","5","","","","","","","","","","","","","","","","","","","","","","","","",""
"3429","","image-button-response","152","940869","0.0-149.0-0.0","A3B01L2TR8ZH4O","img_art/26.jpg","2","","","","","","","","","","","","","","","","","","","","","","","","",""
"null","","html-keyboard-response","153","941876","0.0-150.0","A3B01L2TR8ZH4O","<p style=""font-size: 48px;"">+</p>","","","","","null","allTrialResponses","1000","1","15","img_art/26.jpg","12","A nice, background painting","Joshua,Cole,Brian,Nathan,Austin,Bryan","This is boring.,-15,240,20","Another blob on a landscape. A city street?,9,200,20","I'm not really into landscapes unless I have a personal connection to them,-21,380,20","It's a little too yellow-y for me, I'm not a huge fan of the color schemes or setting it portrays.,-20,200,20","Like the soft blend of colors,26,240,20","Like the muted colors & the scene which seems to be serene.,14,400,20","Austin","Like the soft blend of colors,26,240,20","Bryan","Like the muted colors & the scene which seems to be serene.,14,400,20","Brian","I'm not really into landscapes unless I have a personal connection to them,-21,380,20","6"
"2394","","survey-text","154","944284","0.0-151.0-0.0","A3B01L2TR8ZH4O","","","","{""Q0"":""course""}","","","","","","","","","","","","","","","","","","","","","","",""
"14527","","survey-text","155","958813","0.0-152.0-0.0","A3B01L2TR8ZH4O","","","","{""Q0"":""colors seem too intense for the piece being so nondescript""}","","","","","","","","","","","","","","","","","","","","","","",""
"2045","","image-slider-response","156","960861","0.0-153.0","A3B01L2TR8ZH4O","","","","","-8","","","","","","","","","","","","","","","","","","","","","",""
"3764","","image-button-response","157","965865","0.0-154.0","A3B01L2TR8ZH4O","img_art/19.jpg","1","","","","","","","","","","","","","","","","","","","","","","","","",""
"704","","image-button-response","158","966573","0.0-155.0","A3B01L2TR8ZH4O","img_art/19.jpg","1","","","","","","","","","","","","","","","","","","","","","","","","",""
"2860","","image-button-response","159","969438","0.0-156.0-0.0","A3B01L2TR8ZH4O","img_art/19.jpg","5","","","","","","","","","","","","","","","","","","","","","","","","",""
"1143","","image-button-response","160","970584","0.0-157.0-0.0","A3B01L2TR8ZH4O","img_art/19.jpg","2","","","","","","","","","","","","","","","","","","","","","","","","",""
"null","","html-keyboard-response","161","971590","0.0-158.0","A3B01L2TR8ZH4O","<p style=""font-size: 48px;"">+</p>","","","","","null","allTrialResponses","1000","1","16","img_art/19.jpg","-8","colors seem too intense for the piece being so nondescript","Logan,Connor,Brian,Matthew,Austin,Bryan","this flow I just really like how everything blends but also doesn't,45,360,20","Childish music hall,-20,240,20","I like this style but don't really like the specific setting of the landscape,-7,380,20","someone at the beach maybe?,27,120,20","Like the painting strokes,39,240,20","Looks like a child's rendering of a city street but not too sure.,0,400,20","Connor","Childish music hall,-20,240,20","Bryan","Looks like a child's rendering of a city street but not too sure.,0,400,20","Brian","I like this style but don't really like the specific setting of the landscape,-7,380,20","6"
"12072","","survey-text","162","983671","0.0-159.0-0.0","A3B01L2TR8ZH4O","","","","{""Q0"":""extremely ugly, looks like black mold or a bug infestation""}","","","","","","","","","","","","","","","","","","","","","","",""
"2552.4000000059605","","image-slider-response","163","986227","0.0-160.0","A3B01L2TR8ZH4O","","","","","-36","","","","","","","","","","","","","","","","","","","","","",""
"4264","","image-button-response","164","991235","0.0-161.0","A3B01L2TR8ZH4O","img_art/15.jpg","3","","","","","","","","","","","","","","","","","","","","","","","","",""
"553","","image-button-response","165","991791","0.0-162.0","A3B01L2TR8ZH4O","img_art/15.jpg","3","","","","","","","","","","","","","","","","","","","","","","","","",""
"2000","","image-button-response","166","993795","0.0-163.0-0.0","A3B01L2TR8ZH4O","img_art/15.jpg","0","","","","","","","","","","","","","","","","","","","","","","","","",""
"984","","image-button-response","167","994782","0.0-164.0-0.0","A3B01L2TR8ZH4O","img_art/15.jpg","2","","","","","","","","","","","","","","","","","","","","","","","","",""
"null","","html-keyboard-response","168","995789","0.0-165.0","A3B01L2TR8ZH4O","<p style=""font-size: 48px;"">+</p>","","","","","null","allTrialResponses","1000","1","17","img_art/15.jpg","-36","extremely ugly, looks like black mold or a bug infestation","Luke,Connor,Brian,Samuel,Stephen,Bryan","it looks like trees but they are up to interpretation,16,20,20","Neat to explore meaning, blue is interesting,11,240,20","This is simply too ""old-school"",-27,380,20","Black reminds me of darkness,-18,400,20","I like how the black and blue clash.,14,140,20","Interesting. Reminds me of a biopsy slide.,21,400,20","Samuel","Black reminds me of darkness,-18,400,20","Luke","it looks like trees but they are up to interpretation,16,20,20","Brian","This is simply too ""old-school"",-27,380,20","6"
"15211","","survey-text","169","1011008","0.0-166.0-0.0","A3B01L2TR8ZH4O","","","","{""Q0"":""pretty interesting, looks like colored rainwater on a window""}","","","","","","","","","","","","","","","","","","","","","","",""
"3426.2000000029802","","image-slider-response","170","1014438","0.0-167.0","A3B01L2TR8ZH4O","","","","","12","","","","","","","","","","","","","","","","","","","","","",""
"3200","","image-button-response","171","1019444","0.0-168.0","A3B01L2TR8ZH4O","img_art/13.jpg","0","","","","","","","","","","","","","","","","","","","","","","","","",""
"2608","","image-button-response","172","1022056","0.0-169.0","A3B01L2TR8ZH4O","img_art/13.jpg","4","","","","","","","","","","","","","","","","","","","","","","","","",""
"798","","image-button-response","173","1022857","0.0-170.0-0.0","A3B01L2TR8ZH4O","img_art/13.jpg","0","","","","","","","","","","","","","","","","","","","","","","","","",""
"2125","","image-button-response","174","1024986","0.0-171.0-0.0","A3B01L2TR8ZH4O","img_art/13.jpg","3","","","","","","","","","","","","","","","","","","","","","","","","",""
"null","","html-keyboard-response","175","1025493","0.0-172.0","A3B01L2TR8ZH4O","<p style=""font-size: 48px;"">+</p>","","","","","null","allTrialResponses","500","1","18","img_art/13.jpg","12","pretty interesting, looks like colored rainwater on a window","Luke,Ethan,Brian,Samuel,Tyler,Mason","the monochrome of blue with splatters makes me excited and happy,36,20,20","I do not care for the colors in this art. it doesnt go well at all.,-15,120,20","I don't really care for splatter paintings; the spectral colors underneath are nice.,-18,380,20","eighties here we come,7,400,20","Pollock? Love the juxtaposition of colors. Soothing and stirring, a beautiful inexplicable paradox.,50,320,20","meh, 80's. retro,-9,100,20","Tyler","Pollock? Love the juxtaposition of colors. Soothing and stirring, a beautiful inexplicable paradox.,50,320,20","Luke","the monochrome of blue with splatters makes me excited and happy,36,20,20","Samuel","eighties here we come,7,400,20","6"
"5957","","survey-text","176","1031459","0.0-173.0-0.0","A3B01L2TR8ZH4O","","","","{""Q0"":""too messy in the middle, ugly""}","","","","","","","","","","","","","","","","","","","","","","",""
"1940.3999999910593","","image-slider-response","177","1033403","0.0-174.0","A3B01L2TR8ZH4O","","","","","-11","","","","","","","","","","","","","","","","","","","","","",""
"3040","","image-button-response","178","1038407","0.0-175.0","A3B01L2TR8ZH4O","img_art/18.jpg","1","","","","","","","","","","","","","","","","","","","","","","","","",""
"585","","image-button-response","179","1038996","0.0-176.0","A3B01L2TR8ZH4O","img_art/18.jpg","3","","","","","","","","","","","","","","","","","","","","","","","","",""
"854","","image-button-response","180","1039854","0.0-177.0-0.0","A3B01L2TR8ZH4O","img_art/18.jpg","1","","","","","","","","","","","","","","","","","","","","","","","","",""
"2064","","image-button-response","181","1041922","0.0-178.0-0.0","A3B01L2TR8ZH4O","img_art/18.jpg","4","","","","","","","","","","","","","","","","","","","","","","","","",""
"null","","html-keyboard-response","182","1043428","0.0-179.0","A3B01L2TR8ZH4O","<p style=""font-size: 48px;"">+</p>","","","","","null","allTrialResponses","1500","1","19","img_art/18.jpg","-11","too messy in the middle, ugly","Luke,Corey,Miguel,Samuel,Tyler,Chase","the harsh lines with the smooth lines makes me think of wild animals,20,20,20","reminds me of dying at sea in the 1700s,-8,260,20","This looks amazing.,40,160,20","death rides in life,-25,400,20","Pleasant design and composition, unpleasant theme and focus.,-19,320,20","Kinda neat, looks like cavalry, or a knight.,15,120,20","Samuel","death rides in life,-25,400,20","Corey","reminds me of dying at sea in the 1700s,-8,260,20","Tyler","Pleasant design and composition, unpleasant theme and focus.,-19,320,20","6"
"13218","","survey-text","183","1056654","0.0-180.0-0.0","A3B01L2TR8ZH4O","","","","{""Q0"":""seems pretty unique and interesting with the yellow""}","","","","","","","","","","","","","","","","","","","","","","",""
"3247.7000000029802","","image-slider-response","184","1059904","0.0-181.0","A3B01L2TR8ZH4O","","","","","12","","","","","","","","","","","","","","","","","","","","","",""
"1271","","image-button-response","185","1064909","0.0-182.0","A3B01L2TR8ZH4O","img_art/5.jpg","0","","","","","","","","","","","","","","","","","","","","","","","","",""
"898","","image-button-response","186","1065810","0.0-183.0","A3B01L2TR8ZH4O","img_art/5.jpg","0","","","","","","","","","","","","","","","","","","","","","","","","",""
"914","","image-button-response","187","1066727","0.0-184.0-0.0","A3B01L2TR8ZH4O","img_art/5.jpg","1","","","","","","","","","","","","","","","","","","","","","","","","",""
"4542","","image-button-response","188","1071273","0.0-185.0-0.0","A3B01L2TR8ZH4O","img_art/5.jpg","2","","","","","","","","","","","","","","","","","","","","","","","","",""
"null","","html-keyboard-response","189","1072276","0.0-186.0","A3B01L2TR8ZH4O","<p style=""font-size: 48px;"">+</p>","","","","","null","allTrialResponses","1000","1","20","img_art/5.jpg","12","seems pretty unique and interesting with the yellow","Timothy,Corey,Jake,Samuel,Tyler,Daniel","This feels joyful,39,240,20","simple. love the color scheme,27,260,20","This is interesting and nice.,16,360,20","a brush in time,-14,400,20","Bright and luminous,31,320,20","Cop out, easy money for artist for a 4 min piece,-29,320,20","Timothy","This feels joyful,39,240,20","Corey","simple. love the color scheme,27,260,20","Jake","This is interesting and nice.,16,360,20","6"
"2256","","survey-text","190","1074547","0.0-187.0-0.0","A3B01L2TR8ZH4O","","","","{""Q0"":""we""}","","","","","","","","","","","","","","","","","","","","","","",""
"15935","","survey-text","191","1090484","0.0-188.0-0.0","A3B01L2TR8ZH4O","","","","{""Q0"":""too intense color-wise, do not like the nature setting""}","","","","","","","","","","","","","","","","","","","","","","",""
"2919.7000000029802","","image-slider-response","192","1093408","0.0-189.0","A3B01L2TR8ZH4O","","","","","-25","","","","","","","","","","","","","","","","","","","","","",""
"4392","","image-button-response","193","1098412","0.0-190.0","A3B01L2TR8ZH4O","img_art/24.jpg","2","","","","","","","","","","","","","","","","","","","","","","","","",""
"528","","image-button-response","194","1098946","0.0-191.0","A3B01L2TR8ZH4O","img_art/24.jpg","2","","","","","","","","","","","","","","","","","","","","","","","","",""
"1615","","image-button-response","195","1100565","0.0-192.0-0.0","A3B01L2TR8ZH4O","img_art/24.jpg","4","","","","","","","","","","","","","","","","","","","","","","","","",""
"1462","","image-button-response","196","1102032","0.0-193.0-0.0","A3B01L2TR8ZH4O","img_art/24.jpg","5","","","","","","","","","","","","","","","","","","","","","","","","",""
"null","","html-keyboard-response","197","1103538","0.0-194.0","A3B01L2TR8ZH4O","<p style=""font-size: 48px;"">+</p>","","","","","null","allTrialResponses","1500","1","21","img_art/24.jpg","-25","too intense color-wise, do not like the nature setting","Timothy,Corey,Jake,Bryce,Hunter,Eric","Earthy wonderful, love everything about it,50,240,20","peaceful and serene but Im not the biggest landscape fan,4,260,20","This looks ugly and simple, as if done by a young person.,-2,360,20","Looks like a waterfall!,34,20,20","feels overdone, but still executed well,0,240,20","I'm reminded of a waterfall, but I feel like it could've been better portrayed.,5,100,20","Jake","This looks ugly and simple, as if done by a young person.,-2,360,20","Hunter","feels overdone, but still executed well,0,240,20","Eric","I'm reminded of a waterfall, but I feel like it could've been better portrayed.,5,100,20","6"
"19480","","survey-text","198","1123027","0.0-195.0-0.0","A3B01L2TR8ZH4O","","","","{""Q0"":""very interesting, seems like a bunch of flags hung on a curvy wire""}","","","","","","","","","","","","","","","","","","","","","","",""
"2380.699999988079","","image-slider-response","199","1125411","0.0-196.0","A3B01L2TR8ZH4O","","","","","11","","","","","","","","","","","","","","","","","","","","","",""
"null","","image-button-response","200","1130419","0.0-197.0","A3B01L2TR8ZH4O","img_art/11.jpg","null","","","","","","","","","","","","","","","","","","","","","","","","",""
"1411","","image-button-response","201","1131834","0.0-198.0","A3B01L2TR8ZH4O","img_art/11.jpg","3","","","","","","","","","","","","","","","","","","","","","","","","",""
"1435","","image-button-response","202","1133272","0.0-199.0-0.0","A3B01L2TR8ZH4O","img_art/11.jpg","1","","","","","","","","","","","","","","","","","","","","","","","","",""
"405","","image-button-response","203","1133681","0.0-200.0-0.0","A3B01L2TR8ZH4O","img_art/11.jpg","0","","","","","","","","","","","","","","","","","","","","","","","","",""
"null","","html-keyboard-response","204","1134183","0.0-201.0","A3B01L2TR8ZH4O","<p style=""font-size: 48px;"">+</p>","","","","","null","allTrialResponses","500","1","22","img_art/11.jpg","11","very interesting, seems like a bunch of flags hung on a curvy wire","Bradley,Marcus,Jake,Ian,Hunter,Eric","WOW!  I love how the ships and the seas become one in this piece.,50,300,20","I like this one very much, especially the shades of gray.,30,60,20","This is very unappealing.,-11,360,20","This one is a little erie, gives me post-apocalyptic feeling,27,260,20","reminds me of home,5,240,20","I don't like the gloomy color, but it reminds me of a city which I like.,35,100,20","Ian","This one is a little erie, gives me post-apocalyptic feeling,27,260,20","Marcus","I like this one very much, especially the shades of gray.,30,60,20","Bradley","WOW!  I love how the ships and the seas become one in this piece.,50,300,20","6"
"5302","","survey-text","205","1139492","0.0-202.0-0.0","A3B01L2TR8ZH4O","","","","{""Q0"":""Too boring and generic""}","","","","","","","","","","","","","","","","","","","","","","",""
"1680.199999988079","","image-slider-response","206","1141175","0.0-203.0","A3B01L2TR8ZH4O","","","","","-16","","","","","","","","","","","","","","","","","","","","","",""
"4376","","image-button-response","207","1146179","0.0-204.0","A3B01L2TR8ZH4O","img_art/14.jpg","3","","","","","","","","","","","","","","","","","","","","","","","","",""
"334","","image-button-response","208","1146517","0.0-205.0","A3B01L2TR8ZH4O","img_art/14.jpg","2","","","","","","","","","","","","","","","","","","","","","","","","",""
"802","","image-button-response","209","1147323","0.0-206.0-0.0","A3B01L2TR8ZH4O","img_art/14.jpg","4","","","","","","","","","","","","","","","","","","","","","","","","",""
"441","","image-button-response","210","1147771","0.0-207.0-0.0","A3B01L2TR8ZH4O","img_art/14.jpg","3","","","","","","","","","","","","","","","","","","","","","","","","",""
"null","","html-keyboard-response","211","1148774","0.0-208.0","A3B01L2TR8ZH4O","<p style=""font-size: 48px;"">+</p>","","","","","null","allTrialResponses","1000","1","23","img_art/14.jpg","-16","Too boring and generic","Bradley,Marcus,Cody,Ian,Brett,Derek","I don't know why, but this piece makes me happy.,20,300,20","I like the colors and the shapes are interesting,11,60,20","Don't love it.,-10,180,20","This just looks like a kids watercolor painting.,-30,260,20","Confusion or an explosion,40,360,20","Very abstract and colorful,40,360,20","Cody","Don't love it.,-10,180,20","Brett","Confusion or an explosion,40,360,20","Ian","This just looks like a kids watercolor painting.,-30,260,20","6"
"14946","","survey-text","212","1163727","0.0-209.0-0.0","A3B01L2TR8ZH4O","","","","{""Q0"":""Seems like blurred album art, too unfocused ""}","","","","","","","","","","","","","","","","","","","","","","",""
"2441.2000000029802","","image-slider-response","213","1166171","0.0-210.0","A3B01L2TR8ZH4O","","","","","-16","","","","","","","","","","","","","","","","","","","","","",""
"1603","","image-button-response","214","1171180","0.0-211.0","A3B01L2TR8ZH4O","img_art/20.jpg","1","","","","","","","","","","","","","","","","","","","","","","","","",""
"13546","","image-button-response","215","1184729","0.0-212.0","A3B01L2TR8ZH4O","img_art/20.jpg","5","","","","","","","","","","","","","","","","","","","","","","","","",""
"823","","image-button-response","216","1185555","0.0-213.0-0.0","A3B01L2TR8ZH4O","img_art/20.jpg","0","","","","","","","","","","","","","","","","","","","","","","","","",""
"1816","","image-button-response","217","1187374","0.0-214.0-0.0","A3B01L2TR8ZH4O","img_art/20.jpg","1","","","","","","","","","","","","","","","","","","","","","","","","",""
"null","","html-keyboard-response","218","1187877","0.0-215.0","A3B01L2TR8ZH4O","<p style=""font-size: 48px;"">+</p>","","","","","null","allTrialResponses","500","1","24","img_art/20.jpg","-16","Seems like blurred album art, too unfocused ","Joseph,Ryan,Cody,Ian,Brett,Shawn","Something fell over and is burning, but it's kinda dope, you know?,14,220,20","Too negative looks like a car and plane crash,-50,380,20","I like the distortion of the objects, good colors,20,180,20","A painting within a painting, the inner painting looks like a car crash with a semi truck.,21,260,20","City life vs shore life,40,360,20","Mood setting if a little dreary,20,100,20","Shawn","Mood setting if a little dreary,20,100,20","Joseph","Something fell over and is burning, but it's kinda dope, you know?,14,220,20","Ryan","Too negative looks like a car and plane crash,-50,380,20","6"
"45273","","survey-text","219","1233156","0.0-216.0-0.0","A3B01L2TR8ZH4O","","","","{""Q0"":""Seems completely nonsensical ""}","","","","","","","","","","","","","","","","","","","","","","",""
"2542.2000000029802","","image-slider-response","220","1235702","0.0-217.0","A3B01L2TR8ZH4O","","","","","-22","","","","","","","","","","","","","","","","","","","","","",""
"3554","","image-button-response","221","1240708","0.0-218.0","A3B01L2TR8ZH4O","img_art/4.jpg","0","","","","","","","","","","","","","","","","","","","","","","","","",""
"300","","image-button-response","222","1241010","0.0-219.0","A3B01L2TR8ZH4O","img_art/4.jpg","4","","","","","","","","","","","","","","","","","","","","","","","","",""
"494","","image-button-response","223","1241507","0.0-220.0-0.0","A3B01L2TR8ZH4O","img_art/4.jpg","0","","","","","","","","","","","","","","","","","","","","","","","","",""
"629","","image-button-response","224","1242140","0.0-221.0-0.0","A3B01L2TR8ZH4O","img_art/4.jpg","2","","","","","","","","","","","","","","","","","","","","","","","","",""
"null","","html-keyboard-response","225","1243148","0.0-222.0","A3B01L2TR8ZH4O","<p style=""font-size: 48px;"">+</p>","","","","","null","allTrialResponses","1000","1","25","img_art/4.jpg","-22","Seems completely nonsensical ","Joseph,Ryan,Dustin,Kevin,Patrick,Shawn","It's okay, I guess. Nothing much either way.,5,220,20","Looks like an abstract version of the Scream painting,-50,380,20","Warm colors, but too random. I feel like I'm seeing something mangled. It is unpleasant.,-30,20,20","A leaning trophy,-9,320,20","Random swirls again,-30,280,20","Great movement but don't love the yellowy tones.,31,100,20","Patrick","Random swirls again,-30,280,20","Joseph","It's okay, I guess. Nothing much either way.,5,220,20","Dustin","Warm colors, but too random. I feel like I'm seeing something mangled. It is unpleasant.,-30,20,20","6"
"2507","","survey-text","226","1245670","0.0-223.0-0.0","A3B01L2TR8ZH4O","","","","{""Q0"":""table""}","","","","","","","","","","","","","","","","","","","","","","",""
"8009","","survey-text","227","1253682","0.0-224.0-0.0","A3B01L2TR8ZH4O","","","","{""Q0"":""Ugly colors and pattern""}","","","","","","","","","","","","","","","","","","","","","","",""
"2072.2000000029802","","image-slider-response","228","1255758","0.0-225.0","A3B01L2TR8ZH4O","","","","","-18","","","","","","","","","","","","","","","","","","","","","",""
"4609","","image-button-response","229","1260761","0.0-226.0","A3B01L2TR8ZH4O","img_art/28.jpg","0","","","","","","","","","","","","","","","","","","","","","","","","",""
"583","","image-button-response","230","1261347","0.0-227.0","A3B01L2TR8ZH4O","img_art/28.jpg","1","","","","","","","","","","","","","","","","","","","","","","","","",""
"457","","image-button-response","231","1261808","0.0-228.0-0.0","A3B01L2TR8ZH4O","img_art/28.jpg","0","","","","","","","","","","","","","","","","","","","","","","","","",""
"2648","","image-button-response","232","1264461","0.0-229.0-0.0","A3B01L2TR8ZH4O","img_art/28.jpg","2","","","","","","","","","","","","","","","","","","","","","","","","",""
"null","","html-keyboard-response","233","1265963","0.0-230.0","A3B01L2TR8ZH4O","<p style=""font-size: 48px;"">+</p>","","","","","null","allTrialResponses","1500","1","26","img_art/28.jpg","-18","Ugly colors and pattern","Joseph,Luis,Dustin,Alexis,Patrick,Kenneth","Don't love it, don't hate it. It's just there.,1,220,20","Self-hate and abuse at home, unsafe and torturing,-30,400,20","Like the muted pink colors. However, the mood is sad because of the blurriness,22,20,20","The brown and green colors used look dull and unappealing,-30,140,20","This swirly drawing i snot my type I get confused and dizzy,-20,280,20","This one is too bleak, not a fan of the image or colors.,-28,300,20","Luis","Self-hate and abuse at home, unsafe and torturing,-30,400,20","Joseph","Don't love it, don't hate it. It's just there.,1,220,20","Dustin","Like the muted pink colors. However, the mood is sad because of the blurriness,22,20,20","6"
"16575","","survey-text","234","1282550","0.0-231.0-0.0","A3B01L2TR8ZH4O","","","","{""Q0"":""interesting assortment of semi-intense colors""}","","","","","","","","","","","","","","","","","","","","","","",""
"2331.5","","image-slider-response","235","1284884","0.0-232.0","A3B01L2TR8ZH4O","","","","","9","","","","","","","","","","","","","","","","","","","","","",""
"4766","","image-button-response","236","1289893","0.0-233.0","A3B01L2TR8ZH4O","img_art/2.jpg","3","","","","","","","","","","","","","","","","","","","","","","","","",""
"2021","","image-button-response","237","1291918","0.0-234.0","A3B01L2TR8ZH4O","img_art/2.jpg","0","","","","","","","","","","","","","","","","","","","","","","","","",""
"606","","image-button-response","238","1292527","0.0-235.0-0.0","A3B01L2TR8ZH4O","img_art/2.jpg","3","","","","","","","","","","","","","","","","","","","","","","","","",""
"749","","image-button-response","239","1293280","0.0-236.0-0.0","A3B01L2TR8ZH4O","img_art/2.jpg","1","","","","","","","","","","","","","","","","","","","","","","","","",""
"null","","html-keyboard-response","240","1294788","0.0-237.0","A3B01L2TR8ZH4O","<p style=""font-size: 48px;"">+</p>","","","","","null","allTrialResponses","1500","1","27","img_art/2.jpg","9","interesting assortment of semi-intense colors","Joseph,Luis,Dustin,Seth,Jorge,Adam","Different cultures. I like that it brings differences together.,4,220,20","I dont like the expression of this,-19,400,20","Doesn't look like anything. Just a blob of colors.,1,20,20","I think I see people sitting in lawn chairs in a circle watching an event. Not really sure so I rated it lower.,-35,60,20","Confused and disoriented,-33,180,20","Hate the vomit green.,-31,40,20","Joseph","Different cultures. I like that it brings differences together.,4,220,20","Seth","I think I see people sitting in lawn chairs in a circle watching an event. Not really sure so I rated it lower.,-35,60,20","Luis","I dont like the expression of this,-19,400,20","6"
"14740","","survey-text","241","1309537","0.0-238.0-0.0","A3B01L2TR8ZH4O","","","","{""Q0"":""a headless bird ruins a pleasant color scheme""}","","","","","","","","","","","","","","","","","","","","","","",""
"2156","","image-slider-response","242","1311696","0.0-239.0","A3B01L2TR8ZH4O","","","","","-12","","","","","","","","","","","","","","","","","","","","","",""
"null","","image-button-response","243","1316705","0.0-240.0","A3B01L2TR8ZH4O","img_art/6.jpg","null","","","","","","","","","","","","","","","","","","","","","","","","",""
"3138","","image-button-response","244","1319847","0.0-241.0","A3B01L2TR8ZH4O","img_art/6.jpg","4","","","","","","","","","","","","","","","","","","","","","","","","",""
"1590","","image-button-response","245","1321441","0.0-242.0-0.0","A3B01L2TR8ZH4O","img_art/6.jpg","0","","","","","","","","","","","","","","","","","","","","","","","","",""
"714","","image-button-response","246","1322159","0.0-243.0-0.0","A3B01L2TR8ZH4O","img_art/6.jpg","1","","","","","","","","","","","","","","","","","","","","","","","","",""
"null","","html-keyboard-response","247","1322666","0.0-244.0","A3B01L2TR8ZH4O","<p style=""font-size: 48px;"">+</p>","","","","","null","allTrialResponses","500","1","28","img_art/6.jpg","-12","a headless bird ruins a pleasant color scheme","Joseph,Luis,Noah,Seth,Shane,Benjamin","Little birdie in a desert. Seeking better frontiers.,13,220,20","I love the representation of death and life.,50,400,20","intrigues me - not sure what I'm seeing, but I like combination of colour and texture,21,260,20","I love it. It reminds me of a bird sitting on a wall.,26,60,20","A bird standing in the sun,37,80,20","Something very simplistic about it. The colors mesh well.,10,260,20","Shane","A bird standing in the sun,37,80,20","Joseph","Little birdie in a desert. Seeking better frontiers.,13,220,20","Luis","I love the representation of death and life.,50,400,20","6"
"8312","","survey-text","248","1330989","0.0-245.0-0.0","A3B01L2TR8ZH4O","","","","{""Q0"":""kind of ugly and goblinlike ""}","","","","","","","","","","","","","","","","","","","","","","",""
"1856.2000000029802","","image-slider-response","249","1332848","0.0-246.0","A3B01L2TR8ZH4O","","","","","-13","","","","","","","","","","","","","","","","","","","","","",""
"4488","","image-button-response","250","1337856","0.0-247.0","A3B01L2TR8ZH4O","img_art/25.jpg","3","","","","","","","","","","","","","","","","","","","","","","","","",""
"546","","image-button-response","251","1338407","0.0-248.0","A3B01L2TR8ZH4O","img_art/25.jpg","0","","","","","","","","","","","","","","","","","","","","","","","","",""
"685","","image-button-response","252","1339096","0.0-249.0-0.0","A3B01L2TR8ZH4O","img_art/25.jpg","3","","","","","","","","","","","","","","","","","","","","","","","","",""
"2309","","image-button-response","253","1341408","0.0-250.0-0.0","A3B01L2TR8ZH4O","img_art/25.jpg","5","","","","","","","","","","","","","","","","","","","","","","","","",""
"null","","html-keyboard-response","254","1342416","0.0-251.0","A3B01L2TR8ZH4O","<p style=""font-size: 48px;"">+</p>","","","","","null","allTrialResponses","1000","1","29","img_art/25.jpg","-13","kind of ugly and goblinlike ","Joseph,Luis,John,Angel,Shane,Gabriel","Ghosts are NOT my thing.,-13,220,20","New life, rising from your personal battles,50,400,20","Dark silhouette against the murky background Illicites an ominous feeling. Don't really like it.,-20,120,20","I feel uneasy. Like watching someone powerful ready to perform a ritual, but I don't know their intentions.,-10,180,20","I love the green and the figure is black but the green makes it pop,29,80,20","quite unnerving,-15,160,20","Joseph","Ghosts are NOT my thing.,-13,220,20","Angel","I feel uneasy. Like watching someone powerful ready to perform a ritual, but I don't know their intentions.,-10,180,20","Gabriel","quite unnerving,-15,160,20","6"
"13324","","survey-text","255","1355750","0.0-252.0-0.0","A3B01L2TR8ZH4O","","","","{""Q0"":""this is photoshop, not art""}","","","","","","","","","","","","","","","","","","","","","","",""
"4648.20000000298","","image-slider-response","256","1360402","0.0-253.0","A3B01L2TR8ZH4O","","","","","-13","","","","","","","","","","","","","","","","","","","","","",""
"2805","","image-button-response","257","1365406","0.0-254.0","A3B01L2TR8ZH4O","img_art/16.jpg","1","","","","","","","","","","","","","","","","","","","","","","","","",""
"1704","","image-button-response","258","1367114","0.0-255.0","A3B01L2TR8ZH4O","img_art/16.jpg","5","","","","","","","","","","","","","","","","","","","","","","","","",""
"533","","image-button-response","259","1367651","0.0-256.0-0.0","A3B01L2TR8ZH4O","img_art/16.jpg","4","","","","","","","","","","","","","","","","","","","","","","","","",""
"1234","","image-button-response","260","1368889","0.0-257.0-0.0","A3B01L2TR8ZH4O","img_art/16.jpg","3","","","","","","","","","","","","","","","","","","","","","","","","",""
"null","","html-keyboard-response","261","1370392","0.0-258.0","A3B01L2TR8ZH4O","<p style=""font-size: 48px;"">+</p>","","","","","null","allTrialResponses","1500","1","30","img_art/16.jpg","-13","this is photoshop, not art","Joseph,Michael,Grant,Angel,Jason,Gabriel","Looks upsetting. Like it's actually graphic violence but you can't tell.,-24,220,20","Looks like a kid did itt and ti looks disturbing.,-45,140,20","This is making me feel nervous in an enjoyable way.,20,200,20","I see something that is supposed to be comforting but it's been discarded and lost.,-20,180,20","The bear is a weird choice,-22,20,20","its disturbing! what the heck,-27,160,20","Gabriel","its disturbing! what the heck,-27,160,20","Jason","The bear is a weird choice,-22,20,20","Angel","I see something that is supposed to be comforting but it's been discarded and lost.,-20,180,20","6"
"2633","","image-button-response_instructions","262","1373036","0.0-259.0","A3B01L2TR8ZH4O","","0","instructions","","","","","","","","","","","","","","","","","","","","","","","",""
"967","","image-button-response","263","1374013","0.0-260.0","A3B01L2TR8ZH4O","","0","","","","","","","","","","","","","","","","","","","","","","","","",""
