"rt","url","trial_type","trial_index","time_elapsed","internal_node_id","participant_id","stimulus","button_pressed","Name","responses","response","key_press","variableName","fixationTime","condition","trial","photo","subjectRating","subjectResponse","agentsNames","agent_1_Response","agent_2_Response","agent_3_Response","agent_4_Response","agent_5_Response","agent_6_Response","kept_1_name","kept_1_response","kept_2_name","kept_2_response","kept_3_name","kept_3_response","errorCounter"
"146831","external_page_harvard.html","external-html","0","147146","0.0-0.0","A3B6TQSAA8YQ9T","","","","","","","","","","","","","","","","","","","","","","","","","","",""
"2057","","image-button-response","1","149208","0.0-1.0","A3B6TQSAA8YQ9T","","1","","","","","","","","","","","","","","","","","","","","","","","","",""
"2441","","image-button-response","2","151661","0.0-2.0-0.0","A3B6TQSAA8YQ9T","","1","phone","","","","","","","","","","","","","","","","","","","","","","","",""
"8303","","survey-text","3","159967","0.0-3.0-0.0","A3B6TQSAA8YQ9T","","","","{""Q0"":""A3B6TQSAA8YQ9T""}","","","","","","","","","","","","","","","","","","","","","","",""
"7173","","image-button-response_instructions","4","167144","0.0-4.0","A3B6TQSAA8YQ9T","","0","instructions","","","","","","","","","","","","","","","","","","","","","","","",""
"49427","","image-button-response_instructions","5","216574","0.0-5.0","A3B6TQSAA8YQ9T","img_art/ins/popularity/ins1.png","0","instructions","","","","","","","","","","","","","","","","","","","","","","","",""
"23036","","image-button-response_instructions","6","239615","0.0-6.0","A3B6TQSAA8YQ9T","img_art/ins/popularity/ins2.png","0","instructions","","","","","","","","","","","","","","","","","","","","","","","",""
"14323","","image-button-response_instructions","7","253942","0.0-7.0","A3B6TQSAA8YQ9T","img_art/ins/popularity/ins2Extreme.png","0","instructions","","","","","","","","","","","","","","","","","","","","","","","",""
"38905","","image-button-response_instructions","8","292851","0.0-8.0","A3B6TQSAA8YQ9T","img_art/ins/popularity/ins3KEEPpop.PNG","0","instructions","","","","","","","","","","","","","","","","","","","","","","","",""
"6525","","image-button-response_instructions","9","299381","0.0-9.0","A3B6TQSAA8YQ9T","img_art/ins/popularity/ins3ANamepop.PNG","0","instructions","","","","","","","","","","","","","","","","","","","","","","","",""
"7568","","image-button-response_instructions","10","306952","0.0-10.0","A3B6TQSAA8YQ9T","img_art/ins/popularity/ins3ARatingpop.png","0","instructions","","","","","","","","","","","","","","","","","","","","","","","",""
"6748","","image-button-response_instructions","11","313704","0.0-11.0","A3B6TQSAA8YQ9T","img_art/ins/popularity/ins3ATextpop.png","0","instructions","","","","","","","","","","","","","","","","","","","","","","","",""
"14005","","image-button-response_instructions","12","327714","0.0-12.0","A3B6TQSAA8YQ9T","img_art/ins/popularity/ins3ALikespop.png","0","instructions","","","","","","","","","","","","","","","","","","","","","","","",""
"36448","","image-button-response_instructions","13","364165","0.0-13.0","A3B6TQSAA8YQ9T","img_art/ins/popularity/ins3KEEPpop.PNG","0","instructions","","","","","","","","","","","","","","","","","","","","","","","",""
"16779","","image-button-response_instructions","14","380948","0.0-14.0","A3B6TQSAA8YQ9T","img_art/ins/popularity/ins3_5RED.png","0","instructions","","","","","","","","","","","","","","","","","","","","","","","",""
"10686","","image-button-response_instructions","15","391637","0.0-15.0","A3B6TQSAA8YQ9T","img_art/ins/popularity/ins3KEEPpop.PNG","0","instructions","","","","","","","","","","","","","","","","","","","","","","","",""
"18088","","image-button-response_instructions","16","409728","0.0-16.0","A3B6TQSAA8YQ9T","img_art/ins/popularity/ins4KEEPpop.PNG","0","instructions","","","","","","","","","","","","","","","","","","","","","","","",""
"7759","","image-button-response_instructions","17","417490","0.0-17.0","A3B6TQSAA8YQ9T","img_art/ins/popularity/ins5KEEPpop.PNG","0","instructions","","","","","","","","","","","","","","","","","","","","","","","",""
"2737","","image-button-response_instructions","18","420230","0.0-18.0","A3B6TQSAA8YQ9T","","0","instructions","","","","","","","","","","","","","","","","","","","","","","","",""
"7300","","survey-text","19","427571","0.0-19.0-0.0","A3B6TQSAA8YQ9T","","","","{""Q0"":""but""}","","","","","","","","","","","","","","","","","","","","","","",""
"25700","","survey-text","20","453275","0.0-20.0-0.0","A3B6TQSAA8YQ9T","","","","{""Q0"":""brightened, I think of a meadow or the coastline""}","","","","","","","","","","","","","","","","","","","","","","",""
"10637","","image-slider-response","21","463919","0.0-21.0","A3B6TQSAA8YQ9T","","","","","9","","","","","","","","","","","","","","","","","","","","","",""
"null","","image-button-response","22","468924","0.0-22.0","A3B6TQSAA8YQ9T","img_art/ins/1.jpg","null","","","","","","","","","","","","","","","","","","","","","","","","",""
"18088","","image-button-response","23","487015","0.0-23.0","A3B6TQSAA8YQ9T","img_art/ins/1.jpg","5","","","","","","","","","","","","","","","","","","","","","","","","",""
"5222","","image-button-response","24","492243","0.0-24.0-0.0","A3B6TQSAA8YQ9T","img_art/ins/1.jpg","1","","","","","","","","","","","","","","","","","","","","","","","","",""
"6825","","image-button-response","25","499072","0.0-25.0-0.0","A3B6TQSAA8YQ9T","img_art/ins/1.jpg","4","","","","","","","","","","","","","","","","","","","","","","","","",""
"null","","html-keyboard-response","26","499580","0.0-26.0","A3B6TQSAA8YQ9T","<p style=""font-size: 48px;"">+</p>","","","","","null","allTrialResponses","500","1","-2","img_art/ins/1.jpg","9","brightened, I think of a meadow or the coastline","Allison,Ashley,Beth,Dora,Erika,Jen","looks like a lot of things going on in the mist,20,20,20","I just don't get why these type of art would be popular,-32,40,20","This color reminds me of poo,-46,60,20","looks like what my niece in 3rd grade did this afternoon,-50,80,20","I like the sophisticated brushwork,40,100,20","It reminds me of a candy land dream I had,36,120,20","Jen","It reminds me of a candy land dream I had,36,120,20","Ashley","I just don't get why these type of art would be popular,-32,40,20","Erika","I like the sophisticated brushwork,40,100,20","0"
"32660","","survey-text","27","532251","0.0-27.0-0.0","A3B6TQSAA8YQ9T","","","","{""Q0"":""I feel grounded, reminds me of the city in the ancient times""}","","","","","","","","","","","","","","","","","","","","","","",""
"7677","","image-slider-response","28","539932","0.0-28.0","A3B6TQSAA8YQ9T","","","","","3","","","","","","","","","","","","","","","","","","","","","",""
"null","","image-button-response","29","544942","0.0-29.0","A3B6TQSAA8YQ9T","img_art/ins/2.jpg","null","","","","","","","","","","","","","","","","","","","","","","","","",""
"19029","","image-button-response","30","563972","0.0-30.0","A3B6TQSAA8YQ9T","img_art/ins/2.jpg","5","","","","","","","","","","","","","","","","","","","","","","","","",""
"28689","","image-button-response","31","592666","0.0-31.0-0.0","A3B6TQSAA8YQ9T","img_art/ins/2.jpg","1","","","","","","","","","","","","","","","","","","","","","","","","",""
"5429","","image-button-response","32","598099","0.0-32.0-0.0","A3B6TQSAA8YQ9T","img_art/ins/2.jpg","2","","","","","","","","","","","","","","","","","","","","","","","","",""
"null","","html-keyboard-response","33","598605","0.0-33.0","A3B6TQSAA8YQ9T","<p style=""font-size: 48px;"">+</p>","","","","","null","allTrialResponses","500","1","-1","img_art/ins/2.jpg","3","I feel grounded, reminds me of the city in the ancient times","Kara,Ashley,Katie,Jenna,Erika,Jen","I like the blocks of color arrangements,30,160,20","Idk, it is just annoying,-32,40,20","too much color!,-28,180,20","One of my pet peevs,-48,140,20","I would never be able to compose a sophisticated pallete like this,48,100,20","It reminds me of a fireplace,36,120,20","Jen","It reminds me of a fireplace,36,120,20","Ashley","Idk, it is just annoying,-32,40,20","Katie","too much color!,-28,180,20","0"
"28623","","survey-text","34","627236","0.0-34.0-0.0","A3B6TQSAA8YQ9T","","","","{""Q0"":""cooled, its very blue and I feel a shiver reminds me of winter""}","","","","","","","","","","","","","","","","","","","","","","",""
"13394","","image-slider-response","35","640635","0.0-35.0","A3B6TQSAA8YQ9T","","","","","2","","","","","","","","","","","","","","","","","","","","","",""
"null","","image-button-response","36","645645","0.0-36.0","A3B6TQSAA8YQ9T","img_art/ins/3.jpg","null","","","","","","","","","","","","","","","","","","","","","","","","",""
"10863","","image-button-response","37","656510","0.0-37.0","A3B6TQSAA8YQ9T","img_art/ins/3.jpg","1","","","","","","","","","","","","","","","","","","","","","","","","",""
"12787","","image-button-response","38","669301","0.0-38.0-0.0","A3B6TQSAA8YQ9T","img_art/ins/3.jpg","0","","","","","","","","","","","","","","","","","","","","","","","","",""
"2736","","image-button-response","39","672041","0.0-39.0-0.0","A3B6TQSAA8YQ9T","img_art/ins/3.jpg","0","","","","","","","","","","","","","","","","","","","","","","","","",""
"3070","","image-button-response","40","681590","0.0-39.1-0.1","A3B6TQSAA8YQ9T","img_art/ins/3.jpg","3","","","","","","","","","","","","","","","","","","","","","","","","",""
"null","","html-keyboard-response","41","683097","0.0-40.0","A3B6TQSAA8YQ9T","<p style=""font-size: 48px;"">+</p>","","","","","null","allTrialResponses","1500","1","0","img_art/ins/3.jpg","2","cooled, its very blue and I feel a shiver reminds me of winter","Rose,Ashley,Katie,Leslie,Mary,Jen","My daily routine, it's depressing,-20,240,20","It looks like a playground for bats,-36,40,20","It looks depressing,-26,180,20","It's an alright work,15,200,20","I like the overlapping of brushes,41,220,20","I can feel a rainy day from this painting,18,120,20","Ashley","It looks like a playground for bats,-36,40,20","Rose","My daily routine, it's depressing,-20,240,20","Leslie","It's an alright work,15,200,20","2"
"14165","","image-button-response_instructions","42","697271","0.0-41.0","A3B6TQSAA8YQ9T","","0","instructions","","","","","","","","","","","","","","","","","","","","","","","",""
"22205","","survey-likert","43","719480","0.0-42.0-0.0","A3B6TQSAA8YQ9T","","","","{""Q0"":"""",""Q1"":0,""Q2"":1}","","","","","","","","","","","","","","","","","","","","","","",""
"6772","","survey-text","44","726265","0.0-43.0-0.0","A3B6TQSAA8YQ9T","","","","{""Q0"":""rock""}","","","","","","","","","","","","","","","","","","","","","","",""
"40628","","survey-text","45","766895","0.0-44.0-0.0","A3B6TQSAA8YQ9T","","","","{""Q0"":""eels, snakes and waterfalls is what I see here. Nature in its darker form.""}","","","","","","","","","","","","","","","","","","","","","","",""
"7756","","image-slider-response","46","774657","0.0-45.0","A3B6TQSAA8YQ9T","","","","","8","","","","","","","","","","","","","","","","","","","","","",""
"null","","image-button-response","47","779683","0.0-46.0","A3B6TQSAA8YQ9T","img_art/30.jpg","null","","","","","","","","","","","","","","","","","","","","","","","","",""
"12258","","image-button-response","48","791942","0.0-47.0","A3B6TQSAA8YQ9T","img_art/30.jpg","0","","","","","","","","","","","","","","","","","","","","","","","","",""
"6118","","image-button-response","49","798064","0.0-48.0-0.0","A3B6TQSAA8YQ9T","img_art/30.jpg","4","","","","","","","","","","","","","","","","","","","","","","","","",""
"1303","","image-button-response","50","799371","0.0-49.0-0.0","A3B6TQSAA8YQ9T","img_art/30.jpg","5","","","","","","","","","","","","","","","","","","","","","","","","",""
"null","","html-keyboard-response","51","800884","0.0-50.0","A3B6TQSAA8YQ9T","<p style=""font-size: 48px;"">+</p>","","","","","null","allTrialResponses","1500","1","1","img_art/30.jpg","8","eels, snakes and waterfalls is what I see here. Nature in its darker form.","Olivia,Kelsey,Jasmine,Diana,Caroline,Erica","perceiving greatness,20,40,20","dont like this much at all,-30,240,20","Pretty neutral about this one,0,340,20","I love the color contrast of the red against the blue.,9,380,20","Fear. It looks like snakes in the picture,13,100,20","calming and relaxing,14,80,20","Olivia","perceiving greatness,20,40,20","Caroline","Fear. It looks like snakes in the picture,13,100,20","Erica","calming and relaxing,14,80,20","2"
"47094","","survey-text","52","847985","0.0-51.0-0.0","A3B6TQSAA8YQ9T","","","","{""Q0"":""Interesting, looks unfinished. I like the idea of the scene about to be revealed.""}","","","","","","","","","","","","","","","","","","","","","","",""
"10315","","image-slider-response","53","858305","0.0-52.0","A3B6TQSAA8YQ9T","","","","","3","","","","","","","","","","","","","","","","","","","","","",""
"null","","image-button-response","54","863309","0.0-53.0","A3B6TQSAA8YQ9T","img_art/26.jpg","null","","","","","","","","","","","","","","","","","","","","","","","","",""
"9596","","image-button-response","55","872906","0.0-54.0","A3B6TQSAA8YQ9T","img_art/26.jpg","1","","","","","","","","","","","","","","","","","","","","","","","","",""
"7591","","image-button-response","56","880501","0.0-55.0-0.0","A3B6TQSAA8YQ9T","img_art/26.jpg","0","","","","","","","","","","","","","","","","","","","","","","","","",""
"2150","","image-button-response","57","882656","0.0-56.0-0.0","A3B6TQSAA8YQ9T","img_art/26.jpg","2","","","","","","","","","","","","","","","","","","","","","","","","",""
"null","","html-keyboard-response","58","883167","0.0-57.0","A3B6TQSAA8YQ9T","<p style=""font-size: 48px;"">+</p>","","","","","null","allTrialResponses","500","1","2","img_art/26.jpg","3","Interesting, looks unfinished. I like the idea of the scene about to be revealed.","Olivia,Natalie,Kylie,Alexis,Caroline,Erica","reminds me of a hometown,7,40,20","picture looks alright,1,400,20","Picturesque little town,45,300,20","Much too simple and without color for my taste,-33,100,20","Calming and relaxing,28,100,20","very relaxing and easy going,22,80,20","Natalie","picture looks alright,1,400,20","Olivia","reminds me of a hometown,7,40,20","Kylie","Picturesque little town,45,300,20","2"
"31881","","survey-text","59","915056","0.0-58.0-0.0","A3B6TQSAA8YQ9T","","","","{""Q0"":""busy like the city is seems to be set in or is on a river bank in the woods some where?""}","","","","","","","","","","","","","","","","","","","","","","",""
"13524","","image-slider-response","60","928583","0.0-59.0","A3B6TQSAA8YQ9T","","","","","1","","","","","","","","","","","","","","","","","","","","","",""
"null","","image-button-response","61","933589","0.0-60.0","A3B6TQSAA8YQ9T","img_art/19.jpg","null","","","","","","","","","","","","","","","","","","","","","","","","",""
"19728","","image-button-response","62","953320","0.0-61.0","A3B6TQSAA8YQ9T","img_art/19.jpg","5","","","","","","","","","","","","","","","","","","","","","","","","",""
"4482","","image-button-response","63","957804","0.0-62.0-0.0","A3B6TQSAA8YQ9T","img_art/19.jpg","1","","","","","","","","","","","","","","","","","","","","","","","","",""
"4674","","image-button-response","64","962483","0.0-63.0-0.0","A3B6TQSAA8YQ9T","img_art/19.jpg","4","","","","","","","","","","","","","","","","","","","","","","","","",""
"null","","html-keyboard-response","65","963487","0.0-64.0","A3B6TQSAA8YQ9T","<p style=""font-size: 48px;"">+</p>","","","","","null","allTrialResponses","1000","1","3","img_art/19.jpg","1","busy like the city is seems to be set in or is on a river bank in the woods some where?","Olivia,Natalie,Kylie,Andrea,Amanda,Jordan","city life energy,8,40,20","the picture gave me anxiety,-38,400,20","Reminds me of a quaint little town I once visited in Italy,50,300,20","Feels like a cafe in Paris.,35,240,20","Its just a nice painting, nothing too special but nothing negative,25,180,20","I like it, I see someone walking his dog in the early morning time,23,20,20","Jordan","I like it, I see someone walking his dog in the early morning time,23,20,20","Natalie","the picture gave me anxiety,-38,400,20","Amanda","Its just a nice painting, nothing too special but nothing negative,25,180,20","2"
"28781","","survey-text","66","992277","0.0-65.0-0.0","A3B6TQSAA8YQ9T","","","","{""Q0"":""huh, interesting is a bird or a tree?""}","","","","","","","","","","","","","","","","","","","","","","",""
"8188","","image-slider-response","67","1000469","0.0-66.0","A3B6TQSAA8YQ9T","","","","","10","","","","","","","","","","","","","","","","","","","","","",""
"null","","image-button-response","68","1005477","0.0-67.0","A3B6TQSAA8YQ9T","img_art/6.jpg","null","","","","","","","","","","","","","","","","","","","","","","","","",""
"5179","","image-button-response","69","1010658","0.0-68.0","A3B6TQSAA8YQ9T","img_art/6.jpg","3","","","","","","","","","","","","","","","","","","","","","","","","",""
"17814","","image-button-response","70","1028476","0.0-69.0-0.0","A3B6TQSAA8YQ9T","img_art/6.jpg","0","","","","","","","","","","","","","","","","","","","","","","","","",""
"11511","","image-button-response","71","1039991","0.0-70.0-0.0","A3B6TQSAA8YQ9T","img_art/6.jpg","1","","","","","","","","","","","","","","","","","","","","","","","","",""
"null","","html-keyboard-response","72","1040994","0.0-71.0","A3B6TQSAA8YQ9T","<p style=""font-size: 48px;"">+</p>","","","","","null","allTrialResponses","1000","1","4","img_art/6.jpg","10","huh, interesting is a bird or a tree?","Kristen,Natalie,Alyssa,Madeline,Amanda,Jordan","loneliness, fragile, forever alone, a girl who's been there for eternity, only think tracking time is the length of her hair,9,280,20","reminds me a giant peach,19,400,20","It makes me stop and think about what the artist is trying to say.It creates a feeling of solitude and tranqulity,30,160,20","Looks a bit like a pickle or something?,-16,40,20","Makes me feel lonely,-22,180,20","This is interesting, I feel solitude, and loneliness from this.,13,20,20","Madeline","Looks a bit like a pickle or something?,-16,40,20","Kristen","loneliness, fragile, forever alone, a girl who's been there for eternity, only think tracking time is the length of her hair,9,280,20","Natalie","reminds me a giant peach,19,400,20","2"
"10046","","survey-text","73","1051048","0.0-72.0-0.0","A3B6TQSAA8YQ9T","","","","{""Q0"":""eh""}","","","","","","","","","","","","","","","","","","","","","","",""
"36389","","survey-text","74","1089773","0.0-72.1-0.1","A3B6TQSAA8YQ9T","","","","{""Q0"":""eh, nothing too exciting, very geometric yet organic""}","","","","","","","","","","","","","","","","","","","","","","",""
"6390","","image-slider-response","75","1096167","0.0-73.0","A3B6TQSAA8YQ9T","","","","","2","","","","","","","","","","","","","","","","","","","","","",""
"null","","image-button-response","76","1101176","0.0-74.0","A3B6TQSAA8YQ9T","img_art/12.jpg","null","","","","","","","","","","","","","","","","","","","","","","","","",""
"12102","","image-button-response","77","1113280","0.0-75.0","A3B6TQSAA8YQ9T","img_art/12.jpg","2","","","","","","","","","","","","","","","","","","","","","","","","",""
"1806","","image-button-response","78","1115089","0.0-76.0-0.0","A3B6TQSAA8YQ9T","img_art/12.jpg","1","","","","","","","","","","","","","","","","","","","","","","","","",""
"3494","","image-button-response","79","1118586","0.0-77.0-0.0","A3B6TQSAA8YQ9T","img_art/12.jpg","4","","","","","","","","","","","","","","","","","","","","","","","","",""
"null","","html-keyboard-response","80","1119597","0.0-78.0","A3B6TQSAA8YQ9T","<p style=""font-size: 48px;"">+</p>","","","","","null","allTrialResponses","1000","1","5","img_art/12.jpg","2","eh, nothing too exciting, very geometric yet organic","Kristen,Natalie,Destiny,Madeline,Kimberly,Catherine","stressful, upsetting,-10,280,20","my reaction is that the picture is wierd,-11,400,20","giving me major endless summer vibes,26,360,20","Love the shapes here,12,40,20","Just not a fan, I can't figure out why,-17,260,20","confused. stages of a persons life from beginning positive to ending negative.,-10,160,20","Destiny","giving me major endless summer vibes,26,360,20","Natalie","my reaction is that the picture is wierd,-11,400,20","Kimberly","Just not a fan, I can't figure out why,-17,260,20","2"
"7307","","survey-text","81","1126919","0.0-79.0-0.0","A3B6TQSAA8YQ9T","","","","{""Q0"":""sky""}","","","","","","","","","","","","","","","","","","","","","","",""
"23953","","survey-text","82","1150876","0.0-80.0-0.0","A3B6TQSAA8YQ9T","","","","{""Q0"":""dark woods with blue flowers on a path to somewhere""}","","","","","","","","","","","","","","","","","","","","","","",""
"6592","","image-slider-response","83","1157472","0.0-81.0","A3B6TQSAA8YQ9T","","","","","1","","","","","","","","","","","","","","","","","","","","","",""
"null","","image-button-response","84","1162480","0.0-82.0","A3B6TQSAA8YQ9T","img_art/15.jpg","null","","","","","","","","","","","","","","","","","","","","","","","","",""
"28761","","image-button-response","85","1191241","0.0-83.0","A3B6TQSAA8YQ9T","img_art/15.jpg","5","","","","","","","","","","","","","","","","","","","","","","","","",""
"3449","","image-button-response","86","1194695","0.0-84.0-0.0","A3B6TQSAA8YQ9T","img_art/15.jpg","2","","","","","","","","","","","","","","","","","","","","","","","","",""
"8272","","image-button-response","87","1202970","0.0-85.0-0.0","A3B6TQSAA8YQ9T","img_art/15.jpg","4","","","","","","","","","","","","","","","","","","","","","","","","",""
"null","","html-keyboard-response","88","1203980","0.0-86.0","A3B6TQSAA8YQ9T","<p style=""font-size: 48px;"">+</p>","","","","","null","allTrialResponses","1000","1","6","img_art/15.jpg","1","dark woods with blue flowers on a path to somewhere","Crystal,Natalie,Destiny,Paige,Kimberly,Sydney","The blotted black spots create a nice contrast between the brush strokes within the center and sides. I like it.,41,300,20","my response to the picture is that I dont know what I am looking at,-25,400,20","I couldn't tell you why but I'm really into this,39,360,20","I feel nothing when looking at this,1,60,20","it looks like lavender,10,260,20","This picture is too confusing for me. I wouldn't want to stare at it to figure it out.,-10,320,20","Sydney","This picture is too confusing for me. I wouldn't want to stare at it to figure it out.,-10,320,20","Destiny","I couldn't tell you why but I'm really into this,39,360,20","Kimberly","it looks like lavender,10,260,20","2"
"29870","","survey-text","89","1233857","0.0-87.0-0.0","A3B6TQSAA8YQ9T","","","","{""Q0"":""it's okay, looks like people sitting in a courtyard perhaps?""}","","","","","","","","","","","","","","","","","","","","","","",""
"6944","","image-slider-response","90","1240805","0.0-88.0","A3B6TQSAA8YQ9T","","","","","1","","","","","","","","","","","","","","","","","","","","","",""
"null","","image-button-response","91","1245818","0.0-89.0","A3B6TQSAA8YQ9T","img_art/2.jpg","null","","","","","","","","","","","","","","","","","","","","","","","","",""
"5509","","image-button-response","92","1251328","0.0-90.0","A3B6TQSAA8YQ9T","img_art/2.jpg","5","","","","","","","","","","","","","","","","","","","","","","","","",""
"8809","","image-button-response","93","1260141","0.0-91.0-0.0","A3B6TQSAA8YQ9T","img_art/2.jpg","2","","","","","","","","","","","","","","","","","","","","","","","","",""
"12484","","image-button-response","94","1272629","0.0-92.0-0.0","A3B6TQSAA8YQ9T","img_art/2.jpg","0","","","","","","","","","","","","","","","","","","","","","","","","",""
"null","","html-keyboard-response","95","1273138","0.0-93.0","A3B6TQSAA8YQ9T","<p style=""font-size: 48px;"">+</p>","","","","","null","allTrialResponses","500","1","7","img_art/2.jpg","1","it's okay, looks like people sitting in a courtyard perhaps?","Leah,Kelly,Destiny,Rebecca,Kimberly,Sydney","Kind of looks upside down, I need a focal point,-29,360,20","I cant tell whats happening here and that shade of green is just not my thing.,-17,220,20","omg she's so cute look at that little smile those eyelashes ugh love it,30,360,20","do not understand,-21,100,20","I like the green,13,260,20","I like the color, but I feel like I see a creepy face which I dislike.,-5,320,20","Sydney","I like the color, but I feel like I see a creepy face which I dislike.,-5,320,20","Destiny","omg she's so cute look at that little smile those eyelashes ugh love it,30,360,20","Leah","Kind of looks upside down, I need a focal point,-29,360,20","2"
"43922","","survey-text","96","1317067","0.0-94.0-0.0","A3B6TQSAA8YQ9T","","","","{""Q0"":""splashy, in a cool calm way, reminds me of a local artist's work I like.""}","","","","","","","","","","","","","","","","","","","","","","",""
"7539","","image-slider-response","97","1324611","0.0-95.0","A3B6TQSAA8YQ9T","","","","","13","","","","","","","","","","","","","","","","","","","","","",""
"null","","image-button-response","98","1329623","0.0-96.0","A3B6TQSAA8YQ9T","img_art/13.jpg","null","","","","","","","","","","","","","","","","","","","","","","","","",""
"2159","","image-button-response","99","1331784","0.0-97.0","A3B6TQSAA8YQ9T","img_art/13.jpg","3","","","","","","","","","","","","","","","","","","","","","","","","",""
"22828","","image-button-response","100","1354616","0.0-98.0-0.0","A3B6TQSAA8YQ9T","img_art/13.jpg","0","","","","","","","","","","","","","","","","","","","","","","","","",""
"21175","","image-button-response","101","1375795","0.0-99.0-0.0","A3B6TQSAA8YQ9T","img_art/13.jpg","4","","","","","","","","","","","","","","","","","","","","","","","","",""
"null","","html-keyboard-response","102","1377306","0.0-100.0","A3B6TQSAA8YQ9T","<p style=""font-size: 48px;"">+</p>","","","","","null","allTrialResponses","1500","1","8","img_art/13.jpg","13","splashy, in a cool calm way, reminds me of a local artist's work I like.","Leah,Christina,Destiny,Makayla,Erin,Sydney","Like it a lot, reminds me of rainy day on glass,43,360,20","i like the colors but it looks like something that would hang in a hotel,18,240,20","so simple and stupid this looks like what I did to my cousins wall when we repainted it for her 13th bday,0,360,20","Reminds me of the aquarium,4,80,20","Color palette is complementary,40,120,20","I love the style of this piece, but the color choice could've been more eye catching or calming.,40,320,20","Makayla","Reminds me of the aquarium,4,80,20","Leah","Like it a lot, reminds me of rainy day on glass,43,360,20","Erin","Color palette is complementary,40,120,20","2"
"45210","","survey-text","103","1422523","0.0-101.0-0.0","A3B6TQSAA8YQ9T","","","","{""Q0"":""ooh, this is more interesting. A tree in a building maybe?""}","","","","","","","","","","","","","","","","","","","","","","",""
"7303","","image-slider-response","104","1429831","0.0-102.0","A3B6TQSAA8YQ9T","","","","","26","","","","","","","","","","","","","","","","","","","","","",""
"null","","image-button-response","105","1434842","0.0-103.0","A3B6TQSAA8YQ9T","img_art/17.jpg","null","","","","","","","","","","","","","","","","","","","","","","","","",""
"7752","","image-button-response","106","1442596","0.0-104.0","A3B6TQSAA8YQ9T","img_art/17.jpg","3","","","","","","","","","","","","","","","","","","","","","","","","",""
"22710","","image-button-response","107","1465310","0.0-105.0-0.0","A3B6TQSAA8YQ9T","img_art/17.jpg","0","","","","","","","","","","","","","","","","","","","","","","","","",""
"3241","","image-button-response","108","1468555","0.0-106.0-0.0","A3B6TQSAA8YQ9T","img_art/17.jpg","4","","","","","","","","","","","","","","","","","","","","","","","","",""
"null","","html-keyboard-response","109","1469105","0.0-107.0","A3B6TQSAA8YQ9T","<p style=""font-size: 48px;"">+</p>","","","","","null","allTrialResponses","500","1","9","img_art/17.jpg","26","ooh, this is more interesting. A tree in a building maybe?","Leah,Autumn,Monica,Makayla,Erin,Rachel","Love the colors, the flow, like a strange storm or tree off the balcony,50,360,20","Looks awesome .,33,340,20","The colors remind me of a sunset and give a bittersweet feeling. It looks unfinished but not terrible.,6,360,20","I feel okay , it's like a tree,28,80,20","Windows indoor tree, weird palette,-11,120,20","Reminds me of a beautiful tree growing in a courtyard. I like the light and airy technique used.,34,80,20","Makayla","I feel okay , it's like a tree,28,80,20","Leah","Love the colors, the flow, like a strange storm or tree off the balcony,50,360,20","Erin","Windows indoor tree, weird palette,-11,120,20","2"
"31220","","survey-text","110","1500333","0.0-108.0-0.0","A3B6TQSAA8YQ9T","","","","{""Q0"":""ugh, I like the colors though, shapes are interesting I guess""}","","","","","","","","","","","","","","","","","","","","","","",""
"9383","","image-slider-response","111","1509723","0.0-109.0","A3B6TQSAA8YQ9T","","","","","-1","","","","","","","","","","","","","","","","","","","","","",""
"null","","image-button-response","112","1514729","0.0-110.0","A3B6TQSAA8YQ9T","img_art/22.jpg","null","","","","","","","","","","","","","","","","","","","","","","","","",""
"1562","","image-button-response","113","1516293","0.0-111.0","A3B6TQSAA8YQ9T","img_art/22.jpg","4","","","","","","","","","","","","","","","","","","","","","","","","",""
"13514","","image-button-response","114","1529811","0.0-112.0-0.0","A3B6TQSAA8YQ9T","img_art/22.jpg","5","","","","","","","","","","","","","","","","","","","","","","","","",""
"2726","","image-button-response","115","1532541","0.0-113.0-0.0","A3B6TQSAA8YQ9T","img_art/22.jpg","2","","","","","","","","","","","","","","","","","","","","","","","","",""
"null","","html-keyboard-response","116","1533049","0.0-114.0","A3B6TQSAA8YQ9T","<p style=""font-size: 48px;"">+</p>","","","","","null","allTrialResponses","500","1","10","img_art/22.jpg","-1","ugh, I like the colors though, shapes are interesting I guess","Leah,Mackenzie,Grace,Makayla,Erin,Mikayla","Pretty colors but too blocky for me,-19,360,20","Different shapes within the image make it interesting to look at,20,20,20","Love vibrant colors & the abstractness.,43,180,20","Just neutral no feelings,2,80,20","Seems dated with geometic forms,-20,120,20","So colorful i love it!,22,300,20","Erin","Seems dated with geometic forms,-20,120,20","Mikayla","So colorful i love it!,22,300,20","Grace","Love vibrant colors & the abstractness.,43,180,20","2"
"5037","","survey-text","117","1538102","0.0-115.0-0.0","A3B6TQSAA8YQ9T","","","","{""Q0"":""our""}","","","","","","","","","","","","","","","","","","","","","","",""
"53507","","survey-text","118","1591613","0.0-116.0-0.0","A3B6TQSAA8YQ9T","","","","{""Q0"":""Teddy bear! hmm, I feel contemplative. Oh, there's a gun!""}","","","","","","","","","","","","","","","","","","","","","","",""
"9450","","image-slider-response","119","1601067","0.0-117.0","A3B6TQSAA8YQ9T","","","","","25","","","","","","","","","","","","","","","","","","","","","",""
"null","","image-button-response","120","1606074","0.0-118.0","A3B6TQSAA8YQ9T","img_art/16.jpg","null","","","","","","","","","","","","","","","","","","","","","","","","",""
"16368","","image-button-response","121","1622443","0.0-119.0","A3B6TQSAA8YQ9T","img_art/16.jpg","3","","","","","","","","","","","","","","","","","","","","","","","","",""
"2682","","image-button-response","122","1625128","0.0-120.0-0.0","A3B6TQSAA8YQ9T","img_art/16.jpg","4","","","","","","","","","","","","","","","","","","","","","","","","",""
"1980","","image-button-response","123","1627112","0.0-121.0-0.0","A3B6TQSAA8YQ9T","img_art/16.jpg","5","","","","","","","","","","","","","","","","","","","","","","","","",""
"null","","html-keyboard-response","124","1628624","0.0-122.0","A3B6TQSAA8YQ9T","<p style=""font-size: 48px;"">+</p>","","","","","null","allTrialResponses","1500","1","11","img_art/16.jpg","25","Teddy bear! hmm, I feel contemplative. Oh, there's a gun!","Isabella,Angelica,Grace,Hannah,Erin,Mikayla","This looks chaotic,-25,280,20","This is creepy and puerile.,-45,280,20","Something terrible happened. Either the figure on the right is the victim or another shredded toy.,-49,180,20","This is weird and a little creepy.,6,240,20","Not original. Bear is odd,-50,120,20","The teddy bear is scary as hell.,-44,300,20","Hannah","This is weird and a little creepy.,6,240,20","Erin","Not original. Bear is odd,-50,120,20","Mikayla","The teddy bear is scary as hell.,-44,300,20","2"
"49118","","survey-text","125","1677749","0.0-123.0-0.0","A3B6TQSAA8YQ9T","","","","{""Q0"":""Interesting somewhat. I see there are hidden faces, parts of this art remind me of Dali.""}","","","","","","","","","","","","","","","","","","","","","","",""
"6326","","image-slider-response","126","1684079","0.0-124.0","A3B6TQSAA8YQ9T","","","","","19","","","","","","","","","","","","","","","","","","","","","",""
"null","","image-button-response","127","1689087","0.0-125.0","A3B6TQSAA8YQ9T","img_art/8.jpg","null","","","","","","","","","","","","","","","","","","","","","","","","",""
"28466","","image-button-response","128","1717554","0.0-126.0","A3B6TQSAA8YQ9T","img_art/8.jpg","1","","","","","","","","","","","","","","","","","","","","","","","","",""
"9168","","image-button-response","129","1726725","0.0-127.0-0.0","A3B6TQSAA8YQ9T","img_art/8.jpg","2","","","","","","","","","","","","","","","","","","","","","","","","",""
"1415","","image-button-response","130","1728144","0.0-128.0-0.0","A3B6TQSAA8YQ9T","img_art/8.jpg","5","","","","","","","","","","","","","","","","","","","","","","","","",""
"null","","html-keyboard-response","131","1729653","0.0-129.0","A3B6TQSAA8YQ9T","<p style=""font-size: 48px;"">+</p>","","","","","null","allTrialResponses","1500","1","12","img_art/8.jpg","19","Interesting somewhat. I see there are hidden faces, parts of this art remind me of Dali.","Jamie,Katie,Danielle,Hannah,Erin,Mikayla","Cool designs and color schemes,44,320,20","I like the colors. But I don't like the faces, they look distraught. Faces and sharp shapes make me anxious,1,160,20","Enjoy this, it looks like a rushing water pool, surrounded by mountains and buildings, hiding details such as faces.,30,340,20","I don't understand it. Makes no sense to me.,5,240,20","Lots of depth, faces, city, arch,3,120,20","Its kinda like an optical illusion.,22,300,20","Katie","I like the colors. But I don't like the faces, they look distraught. Faces and sharp shapes make me anxious,1,160,20","Danielle","Enjoy this, it looks like a rushing water pool, surrounded by mountains and buildings, hiding details such as faces.,30,340,20","Mikayla","Its kinda like an optical illusion.,22,300,20","2"
"32377","","survey-text","132","1762038","0.0-130.0-0.0","A3B6TQSAA8YQ9T","","","","{""Q0"":""looks like two creatures communicating and trying to reach out to each other.""}","","","","","","","","","","","","","","","","","","","","","","",""
"4457","","image-slider-response","133","1766499","0.0-131.0","A3B6TQSAA8YQ9T","","","","","3","","","","","","","","","","","","","","","","","","","","","",""
"null","","image-button-response","134","1771510","0.0-132.0","A3B6TQSAA8YQ9T","img_art/28.jpg","null","","","","","","","","","","","","","","","","","","","","","","","","",""
"5522","","image-button-response","135","1777033","0.0-133.0","A3B6TQSAA8YQ9T","img_art/28.jpg","5","","","","","","","","","","","","","","","","","","","","","","","","",""
"20377","","image-button-response","136","1797414","0.0-134.0-0.0","A3B6TQSAA8YQ9T","img_art/28.jpg","0","","","","","","","","","","","","","","","","","","","","","","","","",""
"2836","","image-button-response","137","1800254","0.0-135.0-0.0","A3B6TQSAA8YQ9T","img_art/28.jpg","2","","","","","","","","","","","","","","","","","","","","","","","","",""
"null","","html-keyboard-response","138","1801257","0.0-136.0","A3B6TQSAA8YQ9T","<p style=""font-size: 48px;"">+</p>","","","","","null","allTrialResponses","1000","1","13","img_art/28.jpg","3","looks like two creatures communicating and trying to reach out to each other.","Sophia,Katie,Danielle,Amber,Shannon,Mikayla","I think this may have to do with humpty dumpty?,-7,280,20","Like the muted pink colors. However, the mood is sad because of the blurriness,22,160,20","I enjoy the color themes, they seem gloomy and mysterious, and content in their own way, which I love.,20,340,20","Colors are too dull.,-30,200,20","I don't like the way the colors look; I think very disgusting colors were used.,-20,220,20","It gives me weird vibes.,-25,300,20","Mikayla","It gives me weird vibes.,-25,300,20","Sophia","I think this may have to do with humpty dumpty?,-7,280,20","Danielle","I enjoy the color themes, they seem gloomy and mysterious, and content in their own way, which I love.,20,340,20","2"
"71189","","survey-text","139","1872455","0.0-137.0-0.0","A3B6TQSAA8YQ9T","","","","{""Q0"":""okay, nothing particularly exciting bubt you could dream up a few fun scenarios like a funny looking bird is going on an epic adventure through space and time.""}","","","","","","","","","","","","","","","","","","","","","","",""
"4353","","image-slider-response","140","1876812","0.0-138.0","A3B6TQSAA8YQ9T","","","","","7","","","","","","","","","","","","","","","","","","","","","",""
"null","","image-button-response","141","1881823","0.0-139.0","A3B6TQSAA8YQ9T","img_art/1.jpg","null","","","","","","","","","","","","","","","","","","","","","","","","",""
"16982","","image-button-response","142","1898808","0.0-140.0","A3B6TQSAA8YQ9T","img_art/1.jpg","1","","","","","","","","","","","","","","","","","","","","","","","","",""
"18413","","image-button-response","143","1917225","0.0-141.0-0.0","A3B6TQSAA8YQ9T","img_art/1.jpg","0","","","","","","","","","","","","","","","","","","","","","","","","",""
"1124","","image-button-response","144","1918353","0.0-142.0-0.0","A3B6TQSAA8YQ9T","img_art/1.jpg","2","","","","","","","","","","","","","","","","","","","","","","","","",""
"null","","html-keyboard-response","145","1918857","0.0-143.0","A3B6TQSAA8YQ9T","<p style=""font-size: 48px;"">+</p>","","","","","null","allTrialResponses","500","1","14","img_art/1.jpg","7","okay, nothing particularly exciting bubt you could dream up a few fun scenarios like a funny looking bird is going on an epic adventure through space and time.","Sophia,Kayla,Danielle,Vanessa,Kaitlin,Mikayla","This is a great piece that has a lot more going on the longer you look at it. I like it!,30,280,20","Happy! Reminds me of hiking in tennesee.,18,180,20","Not a fan of the mood, overly party-ish and bright colors do not suit my taste,-40,340,20","I don't like how this one makes me feel.,-32,380,20","I see happiness from different aspects of life,31,60,20","Again kind a boring.,-38,300,20","Kayla","Happy! Reminds me of hiking in tennesee.,18,180,20","Sophia","This is a great piece that has a lot more going on the longer you look at it. I like it!,30,280,20","Danielle","Not a fan of the mood, overly party-ish and bright colors do not suit my taste,-40,340,20","2"
"22563","","survey-text","146","1941428","0.0-144.0-0.0","A3B6TQSAA8YQ9T","","","","{""Q0"":""Yellow Ribbons or a morphed trophy""}","","","","","","","","","","","","","","","","","","","","","","",""
"7249","","image-slider-response","147","1948682","0.0-145.0","A3B6TQSAA8YQ9T","","","","","8","","","","","","","","","","","","","","","","","","","","","",""
"null","","image-button-response","148","1953694","0.0-146.0","A3B6TQSAA8YQ9T","img_art/4.jpg","null","","","","","","","","","","","","","","","","","","","","","","","","",""
"15130","","image-button-response","149","1968825","0.0-147.0","A3B6TQSAA8YQ9T","img_art/4.jpg","1","","","","","","","","","","","","","","","","","","","","","","","","",""
"4517","","image-button-response","150","1973345","0.0-148.0-0.0","A3B6TQSAA8YQ9T","img_art/4.jpg","0","","","","","","","","","","","","","","","","","","","","","","","","",""
"9557","","image-button-response","151","1982907","0.0-149.0-0.0","A3B6TQSAA8YQ9T","img_art/4.jpg","5","","","","","","","","","","","","","","","","","","","","","","","","",""
"null","","html-keyboard-response","152","1984413","0.0-150.0","A3B6TQSAA8YQ9T","<p style=""font-size: 48px;"">+</p>","","","","","null","allTrialResponses","1500","1","15","img_art/4.jpg","8","Yellow Ribbons or a morphed trophy","Sophia,Kayla,Danielle,Katelyn,Marissa,Shelby","This looks like what happens when someone steps on a mustard packet.,-7,280,20","It's okay, I guess. Nothing much either way.,5,180,20","Not my preference when it comes to art styles or subjects,-10,340,20","I like the warmth in the colors. Its reassuring.,9,100,20","I'm disappointed that such a simple piece, with very little effort spent, could be grouped with other detailed pieces,-31,160,20","The colors feel a bit off to me,-10,240,20","Kayla","It's okay, I guess. Nothing much either way.,5,180,20","Sophia","This looks like what happens when someone steps on a mustard packet.,-7,280,20","Shelby","The colors feel a bit off to me,-10,240,20","2"
"7338","","survey-text","153","1991769","0.0-151.0-0.0","A3B6TQSAA8YQ9T","","","","{""Q0"":""course""}","","","","","","","","","","","","","","","","","","","","","","",""
"63633","","survey-text","154","2055405","0.0-152.0-0.0","A3B6TQSAA8YQ9T","","","","{""Q0"":""oh finally something a bit interesting, is that a hunter in the middle and a sad person chasing after them? Or is the spirit of death on the hunt?""}","","","","","","","","","","","","","","","","","","","","","","",""
"7378","","image-slider-response","155","2062788","0.0-153.0","A3B6TQSAA8YQ9T","","","","","28","","","","","","","","","","","","","","","","","","","","","",""
"null","","image-button-response","156","2067795","0.0-154.0","A3B6TQSAA8YQ9T","img_art/18.jpg","null","","","","","","","","","","","","","","","","","","","","","","","","",""
"15909","","image-button-response","157","2083704","0.0-155.0","A3B6TQSAA8YQ9T","img_art/18.jpg","1","","","","","","","","","","","","","","","","","","","","","","","","",""
"3420","","image-button-response","158","2087128","0.0-156.0-0.0","A3B6TQSAA8YQ9T","img_art/18.jpg","3","","","","","","","","","","","","","","","","","","","","","","","","",""
"10615","","image-button-response","159","2097747","0.0-157.0-0.0","A3B6TQSAA8YQ9T","img_art/18.jpg","0","","","","","","","","","","","","","","","","","","","","","","","","",""
"null","","html-keyboard-response","160","2099257","0.0-158.0","A3B6TQSAA8YQ9T","<p style=""font-size: 48px;"">+</p>","","","","","null","allTrialResponses","1500","1","16","img_art/18.jpg","28","oh finally something a bit interesting, is that a hunter in the middle and a sad person chasing after them? Or is the spirit of death on the hunt?","Sophia,Kayla,Erika,Brittany,Angela,Shelby","This one is very dark and apocalyptic indeed!,-30,280,20","It's like a ship, but a freaky ship.,-11,180,20","Gently chaotic and beautiful,40,100,20","This is really interesting to look at. I like the colors and the spectral look.,27,40,20","like the grays and contrast of the yellow. This piece feels a bit angry,10,260,20","This gives a very ominous feeling,-30,240,20","Kayla","It's like a ship, but a freaky ship.,-11,180,20","Brittany","This is really interesting to look at. I like the colors and the spectral look.,27,40,20","Sophia","This one is very dark and apocalyptic indeed!,-30,280,20","2"
"38960","","survey-text","161","2138227","0.0-159.0-0.0","A3B6TQSAA8YQ9T","","","","{""Q0"":""eh, its okay. Looks like an attempt at angry red scribbed about and then there is a rock in the middle..""}","","","","","","","","","","","","","","","","","","","","","","",""
"6650","","image-slider-response","162","2144881","0.0-160.0","A3B6TQSAA8YQ9T","","","","","1","","","","","","","","","","","","","","","","","","","","","",""
"null","","image-button-response","163","2149885","0.0-161.0","A3B6TQSAA8YQ9T","img_art/3.jpg","null","","","","","","","","","","","","","","","","","","","","","","","","",""
"8924","","image-button-response","164","2158811","0.0-162.0","A3B6TQSAA8YQ9T","img_art/3.jpg","5","","","","","","","","","","","","","","","","","","","","","","","","",""
"5273","","image-button-response","165","2164087","0.0-163.0-0.0","A3B6TQSAA8YQ9T","img_art/3.jpg","0","","","","","","","","","","","","","","","","","","","","","","","","",""
"9467","","image-button-response","166","2173558","0.0-164.0-0.0","A3B6TQSAA8YQ9T","img_art/3.jpg","2","","","","","","","","","","","","","","","","","","","","","","","","",""
"null","","html-keyboard-response","167","2174065","0.0-165.0","A3B6TQSAA8YQ9T","<p style=""font-size: 48px;"">+</p>","","","","","null","allTrialResponses","500","1","17","img_art/3.jpg","1","eh, its okay. Looks like an attempt at angry red scribbed about and then there is a rock in the middle..","Sophia,Kayla,Sierra,Brittany,Gabriela,Tiffany","Marker gone wild?  Not sure what's going on here.,-21,280,20","Really have no idea what I'm looking at.,1,180,20","scattered and angry,-26,260,20","I don't care for art that looks like it was just scribbled.,-19,40,20","It looks like a child drawing,-29,140,20","I feel uncomfortable, like I am looking at a crime scene.,-17,360,20","Tiffany","I feel uncomfortable, like I am looking at a crime scene.,-17,360,20","Sophia","Marker gone wild?  Not sure what's going on here.,-21,280,20","Sierra","scattered and angry,-26,260,20","2"
"27444","","survey-text","168","2201517","0.0-166.0-0.0","A3B6TQSAA8YQ9T","","","","{""Q0"":""cute, I do like the pagan like figure in the middle and the color scheme.""}","","","","","","","","","","","","","","","","","","","","","","",""
"5494","","image-slider-response","169","2207015","0.0-167.0","A3B6TQSAA8YQ9T","","","","","11","","","","","","","","","","","","","","","","","","","","","",""
"null","","image-button-response","170","2212025","0.0-168.0","A3B6TQSAA8YQ9T","img_art/25.jpg","null","","","","","","","","","","","","","","","","","","","","","","","","",""
"13116","","image-button-response","171","2225144","0.0-169.0","A3B6TQSAA8YQ9T","img_art/25.jpg","1","","","","","","","","","","","","","","","","","","","","","","","","",""
"6511","","image-button-response","172","2231658","0.0-170.0-0.0","A3B6TQSAA8YQ9T","img_art/25.jpg","4","","","","","","","","","","","","","","","","","","","","","","","","",""
"5305","","image-button-response","173","2236967","0.0-171.0-0.0","A3B6TQSAA8YQ9T","img_art/25.jpg","2","","","","","","","","","","","","","","","","","","","","","","","","",""
"null","","html-keyboard-response","174","2238477","0.0-172.0","A3B6TQSAA8YQ9T","<p style=""font-size: 48px;"">+</p>","","","","","null","allTrialResponses","1500","1","18","img_art/25.jpg","11","cute, I do like the pagan like figure in the middle and the color scheme.","Sophia,Laura,Sierra,Breanna,Abigail,Tiffany","This one just has a dark feeling to me.,-50,280,20","I think of death,-28,320,20","the green is serene. the figure is scare crow like,7,260,20","Makes me feel intrigued,13,380,20","This is creepy and I dont like it,-28,20,20","I feel little to no emotion looking at this painting.,0,360,20","Laura","I think of death,-28,320,20","Abigail","This is creepy and I dont like it,-28,20,20","Sierra","the green is serene. the figure is scare crow like,7,260,20","2"
"54893","","survey-text","175","2293380","0.0-173.0-0.0","A3B6TQSAA8YQ9T","","","","{""Q0"":""Ooh, a babblign brook, finally a conhesive picture. The splashes of color are refreshing.""}","","","","","","","","","","","","","","","","","","","","","","",""
"5101","","image-slider-response","176","2298485","0.0-174.0","A3B6TQSAA8YQ9T","","","","","27","","","","","","","","","","","","","","","","","","","","","",""
"null","","image-button-response","177","2303498","0.0-175.0","A3B6TQSAA8YQ9T","img_art/24.jpg","null","","","","","","","","","","","","","","","","","","","","","","","","",""
"2316","","image-button-response","178","2305815","0.0-176.0","A3B6TQSAA8YQ9T","img_art/24.jpg","4","","","","","","","","","","","","","","","","","","","","","","","","",""
"7174","","image-button-response","179","2312993","0.0-177.0-0.0","A3B6TQSAA8YQ9T","img_art/24.jpg","1","","","","","","","","","","","","","","","","","","","","","","","","",""
"15055","","image-button-response","180","2328051","0.0-178.0-0.0","A3B6TQSAA8YQ9T","img_art/24.jpg","5","","","","","","","","","","","","","","","","","","","","","","","","",""
"null","","html-keyboard-response","181","2328559","0.0-179.0","A3B6TQSAA8YQ9T","<p style=""font-size: 48px;"">+</p>","","","","","null","allTrialResponses","500","1","19","img_art/24.jpg","27","Ooh, a babblign brook, finally a conhesive picture. The splashes of color are refreshing.","Courtney,Laura,Sierra,Stephanie,Abigail,Samantha","What a nice refreshing waterfall.,39,280,20","chunky fresh color,27,320,20","i like that the water seems in motion,6,260,20","A beautiful waterfall in the springtime.,40,300,20","Beautiful waterfall I like waterfalls,39,20,20","Happy and relaxing bubbling brook,37,140,20","Abigail","Beautiful waterfall I like waterfalls,39,20,20","Laura","chunky fresh color,27,320,20","Samantha","Happy and relaxing bubbling brook,37,140,20","2"
"21572","","survey-text","182","2350141","0.0-180.0-0.0","A3B6TQSAA8YQ9T","","","","{""Q0"":""hmm, an city morphing through time eh?""}","","","","","","","","","","","","","","","","","","","","","","",""
"4732","","image-slider-response","183","2354879","0.0-181.0","A3B6TQSAA8YQ9T","","","","","26","","","","","","","","","","","","","","","","","","","","","",""
"null","","image-button-response","184","2359892","0.0-182.0","A3B6TQSAA8YQ9T","img_art/11.jpg","null","","","","","","","","","","","","","","","","","","","","","","","","",""
"8059","","image-button-response","185","2367951","0.0-183.0","A3B6TQSAA8YQ9T","img_art/11.jpg","2","","","","","","","","","","","","","","","","","","","","","","","","",""
"2442","","image-button-response","186","2370397","0.0-184.0-0.0","A3B6TQSAA8YQ9T","img_art/11.jpg","1","","","","","","","","","","","","","","","","","","","","","","","","",""
"13787","","image-button-response","187","2384190","0.0-185.0-0.0","A3B6TQSAA8YQ9T","img_art/11.jpg","3","","","","","","","","","","","","","","","","","","","","","","","","",""
"null","","html-keyboard-response","188","2385202","0.0-186.0","A3B6TQSAA8YQ9T","<p style=""font-size: 48px;"">+</p>","","","","","null","allTrialResponses","1000","1","20","img_art/11.jpg","26","hmm, an city morphing through time eh?","Ashley,Laura,Alexandra,Victoria,Abigail,Samantha","Dark but bright, city but ocean, musical scales.,50,320,20","i think of beatnik music and dark piano lounges,25,320,20","I normally would not like this photo, but the design is nice.,21,60,20","reminds me of a rainy day in the city,32,400,20","Rainy highways in RI,20,20,20","Love the colors and flow,50,140,20","Alexandra","I normally would not like this photo, but the design is nice.,21,60,20","Laura","i think of beatnik music and dark piano lounges,25,320,20","Victoria","reminds me of a rainy day in the city,32,400,20","2"
"4241","","survey-text","189","2389461","0.0-187.0-0.0","A3B6TQSAA8YQ9T","","","","{""Q0"":""we""}","","","","","","","","","","","","","","","","","","","","","","",""
"25696","","survey-text","190","2415162","0.0-188.0-0.0","A3B6TQSAA8YQ9T","","","","{""Q0"":""meh, an angel stick on a mountain of cheese""}","","","","","","","","","","","","","","","","","","","","","","",""
"8958","","image-slider-response","191","2424124","0.0-189.0","A3B6TQSAA8YQ9T","","","","","0","","","","","","","","","","","","","","","","","","","","","",""
"null","","image-button-response","192","2429135","0.0-190.0","A3B6TQSAA8YQ9T","img_art/5.jpg","null","","","","","","","","","","","","","","","","","","","","","","","","",""
"10314","","image-button-response","193","2439451","0.0-191.0","A3B6TQSAA8YQ9T","img_art/5.jpg","5","","","","","","","","","","","","","","","","","","","","","","","","",""
"7398","","image-button-response","194","2446852","0.0-192.0-0.0","A3B6TQSAA8YQ9T","img_art/5.jpg","1","","","","","","","","","","","","","","","","","","","","","","","","",""
"3012","","image-button-response","195","2449867","0.0-193.0-0.0","A3B6TQSAA8YQ9T","img_art/5.jpg","4","","","","","","","","","","","","","","","","","","","","","","","","",""
"null","","html-keyboard-response","196","2450874","0.0-194.0","A3B6TQSAA8YQ9T","<p style=""font-size: 48px;"">+</p>","","","","","null","allTrialResponses","1000","1","21","img_art/5.jpg","0","meh, an angel stick on a mountain of cheese","Sarah,Laura,Alexandra,Victoria,Dominique,Lindsey","looks very childish,-35,180,20","fresh and fun - bright and active,16,320,20","This looks like a twelve year old did it,-40,60,20","very boring and plain,-35,400,20","It speaks volumes to some. It's also a conversational piece. And very different ideas,34,400,20","Black bit reminds me of a giant splinter. Yellow bit reminds me of urine. I hate it.,-50,400,20","Lindsey","Black bit reminds me of a giant splinter. Yellow bit reminds me of urine. I hate it.,-50,400,20","Laura","fresh and fun - bright and active,16,320,20","Dominique","It speaks volumes to some. It's also a conversational piece. And very different ideas,34,400,20","2"
"75210","","survey-text","197","2526094","0.0-195.0-0.0","A3B6TQSAA8YQ9T","","","","{""Q0"":""really??? it looks like someone didn't clean up their studio and left it to be an artistic statement lol.""}","","","","","","","","","","","","","","","","","","","","","","",""
"7397","","image-slider-response","198","2533496","0.0-196.0","A3B6TQSAA8YQ9T","","","","","-4","","","","","","","","","","","","","","","","","","","","","",""
"null","","image-button-response","199","2538504","0.0-197.0","A3B6TQSAA8YQ9T","img_art/29.jpg","null","","","","","","","","","","","","","","","","","","","","","","","","",""
"12827","","image-button-response","200","2551334","0.0-198.0","A3B6TQSAA8YQ9T","img_art/29.jpg","5","","","","","","","","","","","","","","","","","","","","","","","","",""
"7211","","image-button-response","201","2558548","0.0-199.0-0.0","A3B6TQSAA8YQ9T","img_art/29.jpg","2","","","","","","","","","","","","","","","","","","","","","","","","",""
"13775","","image-button-response","202","2572327","0.0-200.0-0.0","A3B6TQSAA8YQ9T","img_art/29.jpg","0","","","","","","","","","","","","","","","","","","","","","","","","",""
"null","","html-keyboard-response","203","2572833","0.0-201.0","A3B6TQSAA8YQ9T","<p style=""font-size: 48px;"">+</p>","","","","","null","allTrialResponses","500","1","22","img_art/29.jpg","-4","really??? it looks like someone didn't clean up their studio and left it to be an artistic statement lol.","Jenna,Laura,Caitlin,Michelle,Dominique,Lindsey","risks well taken. the brush is hilarious. feels like an artist's frustration, which is relatable.,50,360,20","this is not art to me - it's random collage,-45,320,20","I would give up and give it a red X too.,-5,80,20","The texture really stands out, this is an interesting composition,6,280,20","Another great work of art and very conversational piece,33,400,20","Again, ugly colors and I'm not a fan of abstract. This looks like the view into a garbage dump.,-50,400,20","Lindsey","Again, ugly colors and I'm not a fan of abstract. This looks like the view into a garbage dump.,-50,400,20","Caitlin","I would give up and give it a red X too.,-5,80,20","Jenna","risks well taken. the brush is hilarious. feels like an artist's frustration, which is relatable.,50,360,20","2"
"66634","","survey-text","204","2639477","0.0-202.0-0.0","A3B6TQSAA8YQ9T","","","","{""Q0"":""I either want granola or bread pudding now. Actually, I really want bread pudding with a yummy bourbon butter glaze.""}","","","","","","","","","","","","","","","","","","","","","","",""
"10268","","image-slider-response","205","2649750","0.0-203.0","A3B6TQSAA8YQ9T","","","","","14","","","","","","","","","","","","","","","","","","","","","",""
"null","","image-button-response","206","2654759","0.0-204.0","A3B6TQSAA8YQ9T","img_art/7.jpg","null","","","","","","","","","","","","","","","","","","","","","","","","",""
"21862","","image-button-response","207","2676623","0.0-205.0","A3B6TQSAA8YQ9T","img_art/7.jpg","5","","","","","","","","","","","","","","","","","","","","","","","","",""
"2092","","image-button-response","208","2678719","0.0-206.0-0.0","A3B6TQSAA8YQ9T","img_art/7.jpg","1","","","","","","","","","","","","","","","","","","","","","","","","",""
"6916","","image-button-response","209","2685639","0.0-207.0-0.0","A3B6TQSAA8YQ9T","img_art/7.jpg","2","","","","","","","","","","","","","","","","","","","","","","","","",""
"null","","html-keyboard-response","210","2687146","0.0-208.0","A3B6TQSAA8YQ9T","<p style=""font-size: 48px;"">+</p>","","","","","null","allTrialResponses","1500","1","23","img_art/7.jpg","14","I either want granola or bread pudding now. Actually, I really want bread pudding with a yummy bourbon butter glaze.","Jenna,Bailey,Caitlin,Chelsea,Emily,Lindsey","reminds me of a desert from far above,23,360,20","It gives off an alien-like vastness of space vibe which I like,9,360,20","Looks like a photo taken from the moon.,-6,80,20","It looks more like wallpaper rather than a painting.,-27,180,20","Ugly. I don't like the colors or the scattering.,-50,40,20","It's dirty. I don't mind the colors so much as the way they are put together in this dirty-looking pattern.,-41,400,20","Lindsey","It's dirty. I don't mind the colors so much as the way they are put together in this dirty-looking pattern.,-41,400,20","Bailey","It gives off an alien-like vastness of space vibe which I like,9,360,20","Caitlin","Looks like a photo taken from the moon.,-6,80,20","2"
"29568","","survey-text","211","2716723","0.0-209.0-0.0","A3B6TQSAA8YQ9T","","","","{""Q0"":""okay, a bit calming. Looks like a storm passing through.""}","","","","","","","","","","","","","","","","","","","","","","",""
"4335","","image-slider-response","212","2721063","0.0-210.0","A3B6TQSAA8YQ9T","","","","","3","","","","","","","","","","","","","","","","","","","","","",""
"null","","image-button-response","213","2726077","0.0-211.0","A3B6TQSAA8YQ9T","img_art/21.jpg","null","","","","","","","","","","","","","","","","","","","","","","","","",""
"10109","","image-button-response","214","2736186","0.0-212.0","A3B6TQSAA8YQ9T","img_art/21.jpg","5","","","","","","","","","","","","","","","","","","","","","","","","",""
"5433","","image-button-response","215","2741623","0.0-213.0-0.0","A3B6TQSAA8YQ9T","img_art/21.jpg","2","","","","","","","","","","","","","","","","","","","","","","","","",""
"4280","","image-button-response","216","2745910","0.0-214.0-0.0","A3B6TQSAA8YQ9T","img_art/21.jpg","1","","","","","","","","","","","","","","","","","","","","","","","","",""
"null","","html-keyboard-response","217","2746417","0.0-215.0","A3B6TQSAA8YQ9T","<p style=""font-size: 48px;"">+</p>","","","","","null","allTrialResponses","500","1","24","img_art/21.jpg","3","okay, a bit calming. Looks like a storm passing through.","Melissa,Bailey,Caitlin,Alexa,Mariah,Lindsey","feels like a harbor scene,11,240,20","Looks like two ships on fire. Cool image.,12,360,20","Remove the rocks(?) on the lower right.,5,80,20","I love the colors in this painting,30,40,20","Motion, the light marks in the lower right corner are very appealing.,15,140,20","I like this piece more the more I look at. Still wouldn't want it in my home, though.,8,400,20","Lindsey","I like this piece more the more I look at. Still wouldn't want it in my home, though.,8,400,20","Caitlin","Remove the rocks(?) on the lower right.,5,80,20","Bailey","Looks like two ships on fire. Cool image.,12,360,20","2"
"30200","","survey-text","218","2776627","0.0-216.0-0.0","A3B6TQSAA8YQ9T","","","","{""Q0"":""A happy tree in a desert village or maybe by the sea?""}","","","","","","","","","","","","","","","","","","","","","","",""
"7272","","image-slider-response","219","2783902","0.0-217.0","A3B6TQSAA8YQ9T","","","","","7","","","","","","","","","","","","","","","","","","","","","",""
"null","","image-button-response","220","2788908","0.0-218.0","A3B6TQSAA8YQ9T","img_art/14.jpg","null","","","","","","","","","","","","","","","","","","","","","","","","",""
"6869","","image-button-response","221","2795779","0.0-219.0","A3B6TQSAA8YQ9T","img_art/14.jpg","2","","","","","","","","","","","","","","","","","","","","","","","","",""
"15120","","image-button-response","222","2810903","0.0-220.0-0.0","A3B6TQSAA8YQ9T","img_art/14.jpg","1","","","","","","","","","","","","","","","","","","","","","","","","",""
"2269","","image-button-response","223","2813177","0.0-221.0-0.0","A3B6TQSAA8YQ9T","img_art/14.jpg","3","","","","","","","","","","","","","","","","","","","","","","","","",""
"null","","html-keyboard-response","224","2814685","0.0-222.0","A3B6TQSAA8YQ9T","<p style=""font-size: 48px;"">+</p>","","","","","null","allTrialResponses","1500","1","25","img_art/14.jpg","7","A happy tree in a desert village or maybe by the sea?","Jennifer,Bailey,Caitlin,Meghan,Mary,Lindsey","This piece is average compared to the others.,1,380,20","Not quite the style I'd like, but it does have a certain air of emptiness.,12,360,20","Are they blowing up a tree?,-5,80,20","its okay nothing special,11,220,20","I like the layers of color in this piece. The circles and lines are interesting.,29,180,20","Warm, positive, growth.,8,400,20","Caitlin","Are they blowing up a tree?,-5,80,20","Bailey","Not quite the style I'd like, but it does have a certain air of emptiness.,12,360,20","Meghan","its okay nothing special,11,220,20","2"
"5506","","survey-text","225","2820212","0.0-223.0-0.0","A3B6TQSAA8YQ9T","","","","{""Q0"":""table""}","","","","","","","","","","","","","","","","","","","","","","",""
"47911","","survey-text","226","2868125","0.0-224.0-0.0","A3B6TQSAA8YQ9T","","","","{""Q0"":""an abstract guitar or a worm attemping to be an infinity sign while sitting on a whicker bridge.""}","","","","","","","","","","","","","","","","","","","","","","",""
"15204","","image-slider-response","227","2883334","0.0-225.0","A3B6TQSAA8YQ9T","","","","","0","","","","","","","","","","","","","","","","","","","","","",""
"null","","image-button-response","228","2888338","0.0-226.0","A3B6TQSAA8YQ9T","img_art/10.jpg","null","","","","","","","","","","","","","","","","","","","","","","","","",""
"6535","","image-button-response","229","2894875","0.0-227.0","A3B6TQSAA8YQ9T","img_art/10.jpg","2","","","","","","","","","","","","","","","","","","","","","","","","",""
"7838","","image-button-response","230","2902718","0.0-228.0-0.0","A3B6TQSAA8YQ9T","img_art/10.jpg","0","","","","","","","","","","","","","","","","","","","","","","","","",""
"2957","","image-button-response","231","2905678","0.0-229.0-0.0","A3B6TQSAA8YQ9T","img_art/10.jpg","4","","","","","","","","","","","","","","","","","","","","","","","","",""
"null","","html-keyboard-response","232","2906189","0.0-230.0","A3B6TQSAA8YQ9T","<p style=""font-size: 48px;"">+</p>","","","","","null","allTrialResponses","500","1","26","img_art/10.jpg","0","an abstract guitar or a worm attemping to be an infinity sign while sitting on a whicker bridge.","Hailey,Bailey,Caitlin,Meghan,Brooke,Amy","a fast racetrack. go, go, go,5,200,20","For black and white, this is pretty vibrant and cool. I like this.,39,360,20","The roller coaster from hell !!!,-10,80,20","kind of reminds me of a map,1,220,20","artistic cello piece?,30,60,20","Highly abstract and yet the shapes and colors provide an emotional accessibility for me.,20,220,20","Caitlin","The roller coaster from hell !!!,-10,80,20","Hailey","a fast racetrack. go, go, go,5,200,20","Brooke","artistic cello piece?,30,60,20","2"
"27973","","survey-text","233","2934172","0.0-231.0-0.0","A3B6TQSAA8YQ9T","","","","{""Q0"":""a hole in the clouds on a warm autumn day.""}","","","","","","","","","","","","","","","","","","","","","","",""
"6823","","image-slider-response","234","2940999","0.0-232.0","A3B6TQSAA8YQ9T","","","","","2","","","","","","","","","","","","","","","","","","","","","",""
"null","","image-button-response","235","2946003","0.0-233.0","A3B6TQSAA8YQ9T","img_art/27.jpg","null","","","","","","","","","","","","","","","","","","","","","","","","",""
"18890","","image-button-response","236","2964895","0.0-234.0","A3B6TQSAA8YQ9T","img_art/27.jpg","0","","","","","","","","","","","","","","","","","","","","","","","","",""
"8916","","image-button-response","237","2973815","0.0-235.0-0.0","A3B6TQSAA8YQ9T","img_art/27.jpg","3","","","","","","","","","","","","","","","","","","","","","","","","",""
"5235","","image-button-response","238","2979054","0.0-236.0-0.0","A3B6TQSAA8YQ9T","img_art/27.jpg","5","","","","","","","","","","","","","","","","","","","","","","","","",""
"null","","html-keyboard-response","239","2980565","0.0-237.0","A3B6TQSAA8YQ9T","<p style=""font-size: 48px;"">+</p>","","","","","null","allTrialResponses","1500","1","27","img_art/27.jpg","2","a hole in the clouds on a warm autumn day.","Hailey,Lauren,Caitlin,Morgan,Brooke,Savannah","fruity and sweet. warm and juicy,10,200,20","Not a fan of the green; gives off the impression that someone else drew on it.,-20,340,20","Looks like a child added his own interpretation with a black marker.,-5,80,20","Messy field of various plants.,-5,380,20","Like it, autumn colors, trees and foliage scene.,25,60,20","An abstract piece with such lifeless colors.,-26,200,20","Hailey","fruity and sweet. warm and juicy,10,200,20","Morgan","Messy field of various plants.,-5,380,20","Savannah","An abstract piece with such lifeless colors.,-26,200,20","2"
"57354","","survey-text","240","3037928","0.0-238.0-0.0","A3B6TQSAA8YQ9T","","","","{""Q0"":""a cave with weird creatures or a giant clam with a play on its tongue.""}","","","","","","","","","","","","","","","","","","","","","","",""
"7155","","image-slider-response","241","3045088","0.0-239.0","A3B6TQSAA8YQ9T","","","","","8","","","","","","","","","","","","","","","","","","","","","",""
"null","","image-button-response","242","3050094","0.0-240.0","A3B6TQSAA8YQ9T","img_art/9.jpg","null","","","","","","","","","","","","","","","","","","","","","","","","",""
"1435","","image-button-response","243","3051530","0.0-241.0","A3B6TQSAA8YQ9T","img_art/9.jpg","4","","","","","","","","","","","","","","","","","","","","","","","","",""
"9823","","image-button-response","244","3061358","0.0-242.0-0.0","A3B6TQSAA8YQ9T","img_art/9.jpg","2","","","","","","","","","","","","","","","","","","","","","","","","",""
"2782","","image-button-response","245","3064145","0.0-243.0-0.0","A3B6TQSAA8YQ9T","img_art/9.jpg","0","","","","","","","","","","","","","","","","","","","","","","","","",""
"null","","html-keyboard-response","246","3065152","0.0-244.0","A3B6TQSAA8YQ9T","<p style=""font-size: 48px;"">+</p>","","","","","null","allTrialResponses","1000","1","28","img_art/9.jpg","8","a cave with weird creatures or a giant clam with a play on its tongue.","Hailey,Anna,Heather,Morgan,Michaela,Savannah","looks like a woman in bed and its ok,8,200,20","It looks like a child's crayon drawing.,-10,300,20","a mother in bed surrounded by emotions,1,260,20","The mouth of an ugly beast.,-25,380,20","The colors remind me of peacocks,24,260,20","Unfinished, weird composition.,-34,200,20","Michaela","The colors remind me of peacocks,24,260,20","Heather","a mother in bed surrounded by emotions,1,260,20","Hailey","looks like a woman in bed and its ok,8,200,20","2"
"39779","","survey-text","247","3104942","0.0-245.0-0.0","A3B6TQSAA8YQ9T","","","","{""Q0"":""a long fogotten city  fading into the mist as a jet plane flies by.""}","","","","","","","","","","","","","","","","","","","","","","",""
"5977","","image-slider-response","248","3110924","0.0-246.0","A3B6TQSAA8YQ9T","","","","","10","","","","","","","","","","","","","","","","","","","","","",""
"null","","image-button-response","249","3115930","0.0-247.0","A3B6TQSAA8YQ9T","img_art/20.jpg","null","","","","","","","","","","","","","","","","","","","","","","","","",""
"24251","","image-button-response","250","3140183","0.0-248.0","A3B6TQSAA8YQ9T","img_art/20.jpg","0","","","","","","","","","","","","","","","","","","","","","","","","",""
"1285","","image-button-response","251","3141472","0.0-249.0-0.0","A3B6TQSAA8YQ9T","img_art/20.jpg","2","","","","","","","","","","","","","","","","","","","","","","","","",""
"2344","","image-button-response","252","3143821","0.0-250.0-0.0","A3B6TQSAA8YQ9T","img_art/20.jpg","5","","","","","","","","","","","","","","","","","","","","","","","","",""
"null","","html-keyboard-response","253","3145329","0.0-251.0","A3B6TQSAA8YQ9T","<p style=""font-size: 48px;"">+</p>","","","","","null","allTrialResponses","1500","1","29","img_art/20.jpg","10","a long fogotten city  fading into the mist as a jet plane flies by.","Hailey,Chloe,Heather,Sara,Michaela,Nicole","reminds me of a dead animal in the west. ugly,-25,200,20","Mood setting if a little dreary,20,220,20","make me feel like its a little country maybe a tractor and a skull head of a bull,1,260,20","Looks calm but a bit dark,21,160,20","I can't tell what's going on but I like the colors,12,260,20","This one feels scary in a bad way,-30,20,20","Hailey","reminds me of a dead animal in the west. ugly,-25,200,20","Heather","make me feel like its a little country maybe a tractor and a skull head of a bull,1,260,20","Nicole","This one feels scary in a bad way,-30,20,20","2"
"49867","","survey-text","254","3195206","0.0-252.0-0.0","A3B6TQSAA8YQ9T","","","","{""Q0"":""graffiti and confeti, this is a little fun, definitely looks like it has some street cred.""}","","","","","","","","","","","","","","","","","","","","","","",""
"9452","","image-slider-response","255","3204662","0.0-253.0","A3B6TQSAA8YQ9T","","","","","18","","","","","","","","","","","","","","","","","","","","","",""
"null","","image-button-response","256","3209671","0.0-254.0","A3B6TQSAA8YQ9T","img_art/23.jpg","null","","","","","","","","","","","","","","","","","","","","","","","","",""
"28326","","image-button-response","257","3237999","0.0-255.0","A3B6TQSAA8YQ9T","img_art/23.jpg","3","","","","","","","","","","","","","","","","","","","","","","","","",""
"1850","","image-button-response","258","3239852","0.0-256.0-0.0","A3B6TQSAA8YQ9T","img_art/23.jpg","4","","","","","","","","","","","","","","","","","","","","","","","","",""
"2846","","image-button-response","259","3242703","0.0-257.0-0.0","A3B6TQSAA8YQ9T","img_art/23.jpg","5","","","","","","","","","","","","","","","","","","","","","","","","",""
"null","","html-keyboard-response","260","3244210","0.0-258.0","A3B6TQSAA8YQ9T","<p style=""font-size: 48px;"">+</p>","","","","","null","allTrialResponses","1500","1","30","img_art/23.jpg","18","graffiti and confeti, this is a little fun, definitely looks like it has some street cred.","Hailey,Haley,Heather,Jacqueline,Kathryn,Nicole","cold and dark feeling,-27,200,20","Beautiful. Very detailed and colorful. I enjoy looking at it.,50,220,20","illegible wording with a graffiti background,1,260,20","It's kind of neat with the white slash marks.,13,300,20","I feel positive community and comfort. Singing along at a concert, united with a bunch of strangers through shared joy.,20,140,20","Those colors are awesome! And I love the strip of negative space that almost looks like a line of people,50,20,20","Jacqueline","It's kind of neat with the white slash marks.,13,300,20","Kathryn","I feel positive community and comfort. Singing along at a concert, united with a bunch of strangers through shared joy.,20,140,20","Nicole","Those colors are awesome! And I love the strip of negative space that almost looks like a line of people,50,20,20","2"
"9233","","image-button-response_instructions","261","3253455","0.0-259.0","A3B6TQSAA8YQ9T","","0","instructions","","","","","","","","","","","","","","","","","","","","","","","",""
