"rt","url","trial_type","trial_index","time_elapsed","internal_node_id","participant_id","stimulus","button_pressed","Name","responses","response","key_press","variableName","fixationTime","condition","trial","photo","subjectRating","subjectResponse","agentsNames","agent_1_Response","agent_2_Response","agent_3_Response","agent_4_Response","agent_5_Response","agent_6_Response","kept_1_name","kept_1_response","kept_2_name","kept_2_response","kept_3_name","kept_3_response","errorCounter"
"59385","external_page_harvard.html","external-html","0","59588","0.0-0.0","A3B84NGQT7Z9WE","","","","","","","","","","","","","","","","","","","","","","","","","","",""
"2637","","image-button-response","1","62227","0.0-1.0","A3B84NGQT7Z9WE","","0","","","","","","","","","","","","","","","","","","","","","","","","",""
"15081","","image-button-response","2","77313","0.0-2.0-0.0","A3B84NGQT7Z9WE","","1","phone","","","","","","","","","","","","","","","","","","","","","","","",""
"8625","","survey-text","3","85940","0.0-3.0-0.0","A3B84NGQT7Z9WE","","","","{""Q0"":""A3B84NGQT7Z9WE""}","","","","","","","","","","","","","","","","","","","","","","",""
"24101","","image-button-response_instructions","4","110042","0.0-4.0","A3B84NGQT7Z9WE","","0","instructions","","","","","","","","","","","","","","","","","","","","","","","",""
"53348","","image-button-response_instructions","5","163392","0.0-5.0","A3B84NGQT7Z9WE","img_art/ins/popularity/ins1.png","0","instructions","","","","","","","","","","","","","","","","","","","","","","","",""
"11094","","image-button-response_instructions","6","174486","0.0-6.0","A3B84NGQT7Z9WE","img_art/ins/popularity/ins2.png","0","instructions","","","","","","","","","","","","","","","","","","","","","","","",""
"7190","","image-button-response_instructions","7","181677","0.0-7.0","A3B84NGQT7Z9WE","img_art/ins/popularity/ins2Extreme.png","0","instructions","","","","","","","","","","","","","","","","","","","","","","","",""
"28372","","image-button-response_instructions","8","210051","0.0-8.0","A3B84NGQT7Z9WE","img_art/ins/popularity/ins3KEEPpop.PNG","0","instructions","","","","","","","","","","","","","","","","","","","","","","","",""
"7172","","image-button-response_instructions","9","217223","0.0-9.0","A3B84NGQT7Z9WE","img_art/ins/popularity/ins3ANamepop.PNG","0","instructions","","","","","","","","","","","","","","","","","","","","","","","",""
"5805","","image-button-response_instructions","10","223030","0.0-10.0","A3B84NGQT7Z9WE","img_art/ins/popularity/ins3ARatingpop.png","0","instructions","","","","","","","","","","","","","","","","","","","","","","","",""
"6527","","image-button-response_instructions","11","229558","0.0-11.0","A3B84NGQT7Z9WE","img_art/ins/popularity/ins3ATextpop.png","0","instructions","","","","","","","","","","","","","","","","","","","","","","","",""
"8681","","image-button-response_instructions","12","238240","0.0-12.0","A3B84NGQT7Z9WE","img_art/ins/popularity/ins3ALikespop.png","0","instructions","","","","","","","","","","","","","","","","","","","","","","","",""
"15602","","image-button-response_instructions","13","253843","0.0-13.0","A3B84NGQT7Z9WE","img_art/ins/popularity/ins3KEEPpop.PNG","0","instructions","","","","","","","","","","","","","","","","","","","","","","","",""
"18243","","image-button-response_instructions","14","272088","0.0-14.0","A3B84NGQT7Z9WE","img_art/ins/popularity/ins3_5RED.png","0","instructions","","","","","","","","","","","","","","","","","","","","","","","",""
"6438","","image-button-response_instructions","15","278527","0.0-15.0","A3B84NGQT7Z9WE","img_art/ins/popularity/ins3KEEPpop.PNG","0","instructions","","","","","","","","","","","","","","","","","","","","","","","",""
"11999","","image-button-response_instructions","16","290528","0.0-16.0","A3B84NGQT7Z9WE","img_art/ins/popularity/ins4KEEPpop.PNG","0","instructions","","","","","","","","","","","","","","","","","","","","","","","",""
"9635","","image-button-response_instructions","17","300163","0.0-17.0","A3B84NGQT7Z9WE","img_art/ins/popularity/ins5KEEPpop.PNG","0","instructions","","","","","","","","","","","","","","","","","","","","","","","",""
"1921","","image-button-response_instructions","18","302085","0.0-18.0","A3B84NGQT7Z9WE","","0","instructions","","","","","","","","","","","","","","","","","","","","","","","",""
"14295","","survey-text","19","316411","0.0-19.0-0.0","A3B84NGQT7Z9WE","","","","{""Q0"":""but""}","","","","","","","","","","","","","","","","","","","","","","",""
"70539","","survey-text","20","386952","0.0-20.0-0.0","A3B84NGQT7Z9WE","","","","{""Q0"":""not sure if this is suppose to be abstract or actual portrait""}","","","","","","","","","","","","","","","","","","","","","","",""
"7766.800000011921","","image-slider-response","21","394721","0.0-21.0","A3B84NGQT7Z9WE","","","","","-18","","","","","","","","","","","","","","","","","","","","","",""
"null","","image-button-response","22","399728","0.0-22.0","A3B84NGQT7Z9WE","img_art/ins/1.jpg","null","","","","","","","","","","","","","","","","","","","","","","","","",""
"7223","","image-button-response","23","406954","0.0-23.0","A3B84NGQT7Z9WE","img_art/ins/1.jpg","5","","","","","","","","","","","","","","","","","","","","","","","","",""
"17848","","image-button-response","24","424805","0.0-24.0-0.0","A3B84NGQT7Z9WE","img_art/ins/1.jpg","2","","","","","","","","","","","","","","","","","","","","","","","","",""
"12877","","image-button-response","25","437685","0.0-25.0-0.0","A3B84NGQT7Z9WE","img_art/ins/1.jpg","3","","","","","","","","","","","","","","","","","","","","","","","","",""
"null","","html-keyboard-response","26","438693","0.0-26.0","A3B84NGQT7Z9WE","<p style=""font-size: 48px;"">+</p>","","","","","null","allTrialResponses","1000","1","-2","img_art/ins/1.jpg","-18","not sure if this is suppose to be abstract or actual portrait","Adam,Alex,Ben,Carl,Daniel,Jack","Seems like doodles,-20,20,20","very creative work.,36,40,20","This color reminds me of poo,-46,60,20","very calming artwork,42,80,20","It looks like a murder scene.,-48,100,20","I like the sophisticated brushwork,40,120,20","Jack","I like the sophisticated brushwork,40,120,20","Ben","This color reminds me of poo,-46,60,20","Carl","very calming artwork,42,80,20","0"
"25759","","survey-text","27","464464","0.0-27.0-0.0","A3B84NGQT7Z9WE","","","","{""Q0"":""Uses color variances very well""}","","","","","","","","","","","","","","","","","","","","","","",""
"5237.599999964237","","image-slider-response","28","469703","0.0-28.0","A3B84NGQT7Z9WE","","","","","18","","","","","","","","","","","","","","","","","","","","","",""
"null","","image-button-response","29","474722","0.0-29.0","A3B84NGQT7Z9WE","img_art/ins/2.jpg","null","","","","","","","","","","","","","","","","","","","","","","","","",""
"2766","","image-button-response","30","477491","0.0-30.0","A3B84NGQT7Z9WE","img_art/ins/2.jpg","5","","","","","","","","","","","","","","","","","","","","","","","","",""
"2668","","image-button-response","31","480161","0.0-31.0-0.0","A3B84NGQT7Z9WE","img_art/ins/2.jpg","4","","","","","","","","","","","","","","","","","","","","","","","","",""
"8678","","image-button-response","32","488842","0.0-32.0-0.0","A3B84NGQT7Z9WE","img_art/ins/2.jpg","0","","","","","","","","","","","","","","","","","","","","","","","","",""
"null","","html-keyboard-response","33","489344","0.0-33.0","A3B84NGQT7Z9WE","<p style=""font-size: 48px;"">+</p>","","","","","null","allTrialResponses","500","1","-1","img_art/ins/2.jpg","18","Uses color variances very well","Kyle,James,Ben,Carl,John,Jack","Idk, it is just annoying,-32,180,20","looks too angry,-50,140,20","meaningless painting,-45,60,20","I can feel the artist's passion in it,45,80,20","love the texture of paint,48,160,20","I would never be able to compose a sophisticated pallete like this,48,120,20","Jack","I would never be able to compose a sophisticated pallete like this,48,120,20","John","love the texture of paint,48,160,20","Kyle","Idk, it is just annoying,-32,180,20","0"
"34306","","survey-text","34","523662","0.0-34.0-0.0","A3B84NGQT7Z9WE","","","","{""Q0"":""good portrait of something cold""}","","","","","","","","","","","","","","","","","","","","","","",""
"6675.100000023842","","image-slider-response","35","530339","0.0-35.0","A3B84NGQT7Z9WE","","","","","21","","","","","","","","","","","","","","","","","","","","","",""
"null","","image-button-response","36","535351","0.0-36.0","A3B84NGQT7Z9WE","img_art/ins/3.jpg","null","","","","","","","","","","","","","","","","","","","","","","","","",""
"5110","","image-button-response","37","540464","0.0-37.0","A3B84NGQT7Z9WE","img_art/ins/3.jpg","2","","","","","","","","","","","","","","","","","","","","","","","","",""
"7846","","image-button-response","38","548312","0.0-38.0-0.0","A3B84NGQT7Z9WE","img_art/ins/3.jpg","4","","","","","","","","","","","","","","","","","","","","","","","","",""
"3274","","image-button-response","39","551589","0.0-39.0-0.0","A3B84NGQT7Z9WE","img_art/ins/3.jpg","3","","","","","","","","","","","","","","","","","","","","","","","","",""
"null","","html-keyboard-response","40","552097","0.0-40.0","A3B84NGQT7Z9WE","<p style=""font-size: 48px;"">+</p>","","","","","null","allTrialResponses","500","1","0","img_art/ins/3.jpg","21","good portrait of something cold","Kyle,Ron,Sam,Mike,John,Jack","It looks like a playground for bats,-36,180,20","It looks depressing,-26,220,20","I can feel a rainy day from this painting,18,240,20","enjoy the different shades of blue,22,200,20","I like the overlapping of brushes,41,160,20","I feel connected to the artist,40,120,20","Sam","I can feel a rainy day from this painting,18,240,20","John","I like the overlapping of brushes,41,160,20","Mike","enjoy the different shades of blue,22,200,20","0"
"16324","","image-button-response_instructions","41","568431","0.0-41.0","A3B84NGQT7Z9WE","","0","instructions","","","","","","","","","","","","","","","","","","","","","","","",""
"12690","","survey-likert","42","581124","0.0-42.0-0.0","A3B84NGQT7Z9WE","","","","{""Q0"":"""",""Q1"":0,""Q2"":1}","","","","","","","","","","","","","","","","","","","","","","",""
"7235","","survey-text","43","588364","0.0-43.0-0.0","A3B84NGQT7Z9WE","","","","{""Q0"":""rock""}","","","","","","","","","","","","","","","","","","","","","","",""
"33384","","survey-text","44","621749","0.0-44.0-0.0","A3B84NGQT7Z9WE","","","","{""Q0"":""beautiful seaport illustration""}","","","","","","","","","","","","","","","","","","","","","","",""
"4611.599999964237","","image-slider-response","45","626363","0.0-45.0","A3B84NGQT7Z9WE","","","","","25","","","","","","","","","","","","","","","","","","","","","",""
"null","","image-button-response","46","631393","0.0-46.0","A3B84NGQT7Z9WE","img_art/11.jpg","null","","","","","","","","","","","","","","","","","","","","","","","","",""
"4388","","image-button-response","47","635784","0.0-47.0","A3B84NGQT7Z9WE","img_art/11.jpg","5","","","","","","","","","","","","","","","","","","","","","","","","",""
"4769","","image-button-response","48","640555","0.0-48.0-0.0","A3B84NGQT7Z9WE","img_art/11.jpg","3","","","","","","","","","","","","","","","","","","","","","","","","",""
"12917","","image-button-response","49","653474","0.0-49.0-0.0","A3B84NGQT7Z9WE","img_art/11.jpg","0","","","","","","","","","","","","","","","","","","","","","","","","",""
"null","","html-keyboard-response","50","653976","0.0-50.0","A3B84NGQT7Z9WE","<p style=""font-size: 48px;"">+</p>","","","","","null","allTrialResponses","500","1","1","img_art/11.jpg","25","beautiful seaport illustration","Malik,Jason,Brandon,Jesus,Benjamin,Tyler","I want to know which skyline the artist is depicting,26,40,20","Interesting use of color,9,20,20","Don't like cityscapes, which this picture reminds me of,-29,320,20","The different textures and colors make this pleasing to look at.,30,100,20","Look like it's in constant movement.,10,260,20","Rainy day at an urban sea port. Portugal?,30,320,20","Tyler","Rainy day at an urban sea port. Portugal?,30,320,20","Jesus","The different textures and colors make this pleasing to look at.,30,100,20","Malik","I want to know which skyline the artist is depicting,26,40,20","0"
"17904","","survey-text","51","671891","0.0-51.0-0.0","A3B84NGQT7Z9WE","","","","{""Q0"":""very detailed piece of art""}","","","","","","","","","","","","","","","","","","","","","","",""
"5996.199999988079","","image-slider-response","52","677889","0.0-52.0","A3B84NGQT7Z9WE","","","","","23","","","","","","","","","","","","","","","","","","","","","",""
"null","","image-button-response","53","682900","0.0-53.0","A3B84NGQT7Z9WE","img_art/10.jpg","null","","","","","","","","","","","","","","","","","","","","","","","","",""
"2815","","image-button-response","54","685717","0.0-54.0","A3B84NGQT7Z9WE","img_art/10.jpg","3","","","","","","","","","","","","","","","","","","","","","","","","",""
"4306","","image-button-response","55","690025","0.0-55.0-0.0","A3B84NGQT7Z9WE","img_art/10.jpg","0","","","","","","","","","","","","","","","","","","","","","","","","",""
"5418","","image-button-response","56","695446","0.0-56.0-0.0","A3B84NGQT7Z9WE","img_art/10.jpg","5","","","","","","","","","","","","","","","","","","","","","","","","",""
"null","","html-keyboard-response","57","695957","0.0-57.0","A3B84NGQT7Z9WE","<p style=""font-size: 48px;"">+</p>","","","","","null","allTrialResponses","500","1","2","img_art/10.jpg","23","very detailed piece of art","Malik,Robert,Dalton,Jesus,Jeffrey,Tyler","Good texture, expressive,18,40,20","The black color is depressing.,-50,360,20","for some reason reminds me of music,2,300,20","The design is very fluid and fun to interpret,35,100,20","Relaxing; a lot of going on but colours make it easy to look at,20,40,20","In proper lighting I might enjoy this,11,320,20","Jesus","The design is very fluid and fun to interpret,35,100,20","Malik","Good texture, expressive,18,40,20","Tyler","In proper lighting I might enjoy this,11,320,20","0"
"23390","","survey-text","58","719356","0.0-58.0-0.0","A3B84NGQT7Z9WE","","","","{""Q0"":""very colorful and bright piece of art""}","","","","","","","","","","","","","","","","","","","","","","",""
"4529.600000023842","","image-slider-response","59","723887","0.0-59.0","A3B84NGQT7Z9WE","","","","","25","","","","","","","","","","","","","","","","","","","","","",""
"null","","image-button-response","60","728894","0.0-60.0","A3B84NGQT7Z9WE","img_art/14.jpg","null","","","","","","","","","","","","","","","","","","","","","","","","",""
"2129","","image-button-response","61","731027","0.0-61.0","A3B84NGQT7Z9WE","img_art/14.jpg","3","","","","","","","","","","","","","","","","","","","","","","","","",""
"10192","","image-button-response","62","741221","0.0-62.0-0.0","A3B84NGQT7Z9WE","img_art/14.jpg","4","","","","","","","","","","","","","","","","","","","","","","","","",""
"1271","","image-button-response","63","742495","0.0-63.0-0.0","A3B84NGQT7Z9WE","img_art/14.jpg","2","","","","","","","","","","","","","","","","","","","","","","","","",""
"null","","html-keyboard-response","64","743002","0.0-64.0","A3B84NGQT7Z9WE","<p style=""font-size: 48px;"">+</p>","","","","","null","allTrialResponses","500","1","3","img_art/14.jpg","25","very colorful and bright piece of art","Malik,Dakota,Lucas,Jesus,Jared,Tyler","It's alright, something I'd see in a guest bedroom,10,40,20","feels incomplete, poorly planned/executed,-34,280,20","In my opinion it's spectacular.,35,380,20","I like the combination of colors and textures.,35,100,20","it put me on edge.,-11,400,20","No strong feelings either direction.,-4,320,20","Jesus","I like the combination of colors and textures.,35,100,20","Jared","it put me on edge.,-11,400,20","Lucas","In my opinion it's spectacular.,35,380,20","0"
"33220","","survey-text","65","776234","0.0-65.0-0.0","A3B84NGQT7Z9WE","","","","{""Q0"":""the white objects in the middle makes me spellbound""}","","","","","","","","","","","","","","","","","","","","","","",""
"6098.300000011921","","image-slider-response","66","782334","0.0-66.0","A3B84NGQT7Z9WE","","","","","26","","","","","","","","","","","","","","","","","","","","","",""
"null","","image-button-response","67","787352","0.0-67.0","A3B84NGQT7Z9WE","img_art/23.jpg","null","","","","","","","","","","","","","","","","","","","","","","","","",""
"2798","","image-button-response","68","790153","0.0-68.0","A3B84NGQT7Z9WE","img_art/23.jpg","5","","","","","","","","","","","","","","","","","","","","","","","","",""
"8908","","image-button-response","69","799064","0.0-69.0-0.0","A3B84NGQT7Z9WE","img_art/23.jpg","2","","","","","","","","","","","","","","","","","","","","","","","","",""
"7714","","image-button-response","70","806780","0.0-70.0-0.0","A3B84NGQT7Z9WE","img_art/23.jpg","1","","","","","","","","","","","","","","","","","","","","","","","","",""
"null","","html-keyboard-response","71","807789","0.0-71.0","A3B84NGQT7Z9WE","<p style=""font-size: 48px;"">+</p>","","","","","null","allTrialResponses","1000","1","4","img_art/23.jpg","26","the white objects in the middle makes me spellbound","Adrian,Kyle,Lucas,Jesus,Jared,Joshua","Too much contrasting colors together. I hate it.,-50,60,20","Mostly neutral but a bit too guady with the brash colors,-6,340,20","Shocked, beautiful.,20,380,20","The usage of color is great, but not my style.,-15,100,20","it makes me aggitated,-21,400,20","This one is interesting. Looks like people with maybe musical instruments?,11,240,20","Joshua","This one is interesting. Looks like people with maybe musical instruments?,11,240,20","Lucas","Shocked, beautiful.,20,380,20","Kyle","Mostly neutral but a bit too guady with the brash colors,-6,340,20","0"
"16277","","survey-text","72","824076","0.0-72.0-0.0","A3B84NGQT7Z9WE","","","","{""Q0"":""lonely bird on a beach?""}","","","","","","","","","","","","","","","","","","","","","","",""
"5125.800000011921","","image-slider-response","73","829204","0.0-73.0","A3B84NGQT7Z9WE","","","","","-15","","","","","","","","","","","","","","","","","","","","","",""
"3831","","image-button-response","74","834221","0.0-74.0","A3B84NGQT7Z9WE","img_art/6.jpg","0","","","","","","","","","","","","","","","","","","","","","","","","",""
"632","","image-button-response","75","834857","0.0-75.0","A3B84NGQT7Z9WE","img_art/6.jpg","0","","","","","","","","","","","","","","","","","","","","","","","","",""
"7936","","image-button-response","76","842795","0.0-76.0-0.0","A3B84NGQT7Z9WE","img_art/6.jpg","5","","","","","","","","","","","","","","","","","","","","","","","","",""
"1849","","image-button-response","77","844645","0.0-77.0-0.0","A3B84NGQT7Z9WE","img_art/6.jpg","0","","","","","","","","","","","","","","","","","","","","","","","","",""
"2223","","image-button-response","78","852037","0.0-77.1-0.1","A3B84NGQT7Z9WE","img_art/6.jpg","4","","","","","","","","","","","","","","","","","","","","","","","","",""
"null","","html-keyboard-response","79","852540","0.0-78.0","A3B84NGQT7Z9WE","<p style=""font-size: 48px;"">+</p>","","","","","null","allTrialResponses","500","1","5","img_art/6.jpg","-15","lonely bird on a beach?","Christian,Kyle,Lucas,Vincent,Ian,Joshua","??????? fake floating leaf? headless bird,-28,140,20","Simple and clean,11,340,20","Nothing special.,-20,380,20","Calm and catching,30,360,20","It's slightly unnerving to look at, it looks a little creepy/eerie,-16,260,20","Looks like a bird. It's fine.,7,240,20","Christian","??????? fake floating leaf? headless bird,-28,140,20","Joshua","Looks like a bird. It's fine.,7,240,20","Ian","It's slightly unnerving to look at, it looks a little creepy/eerie,-16,260,20","2"
"5702","","survey-text","80","858265","0.0-79.0-0.0","A3B84NGQT7Z9WE","","","","{""Q0"":""sky""}","","","","","","","","","","","","","","","","","","","","","","",""
"16689","","survey-text","81","874955","0.0-80.0-0.0","A3B84NGQT7Z9WE","","","","{""Q0"":""very soothing portrait""}","","","","","","","","","","","","","","","","","","","","","","",""
"4266","","image-slider-response","82","879223","0.0-81.0","A3B84NGQT7Z9WE","","","","","22","","","","","","","","","","","","","","","","","","","","","",""
"null","","image-button-response","83","884236","0.0-82.0","A3B84NGQT7Z9WE","img_art/26.jpg","null","","","","","","","","","","","","","","","","","","","","","","","","",""
"3024","","image-button-response","84","887264","0.0-83.0","A3B84NGQT7Z9WE","img_art/26.jpg","4","","","","","","","","","","","","","","","","","","","","","","","","",""
"18805","","image-button-response","85","906070","0.0-84.0-0.0","A3B84NGQT7Z9WE","img_art/26.jpg","0","","","","","","","","","","","","","","","","","","","","","","","","",""
"5771","","image-button-response","86","911843","0.0-85.0-0.0","A3B84NGQT7Z9WE","img_art/26.jpg","1","","","","","","","","","","","","","","","","","","","","","","","","",""
"null","","html-keyboard-response","87","912848","0.0-86.0","A3B84NGQT7Z9WE","<p style=""font-size: 48px;"">+</p>","","","","","null","allTrialResponses","1000","1","6","img_art/26.jpg","22","very soothing portrait","Christian,James,William,Noah,Ian,Joshua","love the ""lowkey"" vibrant colors that are colorful but at the same time greyscale,12,140,20","This picture is ok; just a normal city,11,380,20","feels a tad old,30,380,20","fairly neutral, really,8,260,20","This seems pretty and sweet, it's something I would like to actually see.,31,260,20","This is boring.,-15,240,20","Ian","This seems pretty and sweet, it's something I would like to actually see.,31,260,20","Christian","love the ""lowkey"" vibrant colors that are colorful but at the same time greyscale,12,140,20","James","This picture is ok; just a normal city,11,380,20","2"
"17955","","survey-text","88","930814","0.0-87.0-0.0","A3B84NGQT7Z9WE","","","","{""Q0"":""death and depressing""}","","","","","","","","","","","","","","","","","","","","","","",""
"4315.199999988079","","image-slider-response","89","935131","0.0-88.0","A3B84NGQT7Z9WE","","","","","-42","","","","","","","","","","","","","","","","","","","","","",""
"null","","image-button-response","90","940146","0.0-89.0","A3B84NGQT7Z9WE","img_art/28.jpg","null","","","","","","","","","","","","","","","","","","","","","","","","",""
"1926","","image-button-response","91","942075","0.0-90.0","A3B84NGQT7Z9WE","img_art/28.jpg","2","","","","","","","","","","","","","","","","","","","","","","","","",""
"4639","","image-button-response","92","946716","0.0-91.0-0.0","A3B84NGQT7Z9WE","img_art/28.jpg","4","","","","","","","","","","","","","","","","","","","","","","","","",""
"10968","","image-button-response","93","957686","0.0-92.0-0.0","A3B84NGQT7Z9WE","img_art/28.jpg","5","","","","","","","","","","","","","","","","","","","","","","","","",""
"null","","html-keyboard-response","94","958203","0.0-93.0","A3B84NGQT7Z9WE","<p style=""font-size: 48px;"">+</p>","","","","","null","allTrialResponses","500","1","7","img_art/28.jpg","-42","death and depressing","Christian,James,Daniel,Nicholas,Ian,Connor","the color scheme is very well matched but i just didn't like it,-6,140,20","My grandparents would like this, maybe my great grandparents. It's not my style.,-30,380,20","Compact grey mess lack negative space,-10,320,20","Interesting and weird. Perfect conversational piece,33,240,20","This one looks very dark and seems like it has a lot of depth to it.,31,260,20","Dislike color palette and amoeba,-9,240,20","Daniel","Compact grey mess lack negative space,-10,320,20","Ian","This one looks very dark and seems like it has a lot of depth to it.,31,260,20","Connor","Dislike color palette and amoeba,-9,240,20","2"
"25130","","survey-text","95","983345","0.0-94.0-0.0","A3B84NGQT7Z9WE","","","","{""Q0"":""colorful bear head is pretty weird""}","","","","","","","","","","","","","","","","","","","","","","",""
"4457.800000011921","","image-slider-response","96","987804","0.0-95.0","A3B84NGQT7Z9WE","","","","","-28","","","","","","","","","","","","","","","","","","","","","",""
"4285","","image-button-response","97","992808","0.0-96.0","A3B84NGQT7Z9WE","img_art/16.jpg","0","","","","","","","","","","","","","","","","","","","","","","","","",""
"2920","","image-button-response","98","995731","0.0-97.0","A3B84NGQT7Z9WE","img_art/16.jpg","5","","","","","","","","","","","","","","","","","","","","","","","","",""
"4011","","image-button-response","99","999745","0.0-98.0-0.0","A3B84NGQT7Z9WE","img_art/16.jpg","1","","","","","","","","","","","","","","","","","","","","","","","","",""
"5845","","image-button-response","100","1005592","0.0-99.0-0.0","A3B84NGQT7Z9WE","img_art/16.jpg","2","","","","","","","","","","","","","","","","","","","","","","","","",""
"null","","html-keyboard-response","101","1007097","0.0-100.0","A3B84NGQT7Z9WE","<p style=""font-size: 48px;"">+</p>","","","","","null","allTrialResponses","1500","1","8","img_art/16.jpg","-28","colorful bear head is pretty weird","Zachary,Caleb,Daniel,Colton,Ian,Connor","Not pleasing to the eyes. I do like that the gun is broken though.,-28,400,20","A strange collage made by a child. Do not like the colored face of the bear.,-29,40,20","Ugly, broken up and mismatched,-50,320,20","the materials used are interesting,30,220,20","This looks like it was made by an art student filled with angst,-30,260,20","Not original. Bear is odd,-50,240,20","Connor","Not original. Bear is odd,-50,240,20","Caleb","A strange collage made by a child. Do not like the colored face of the bear.,-29,40,20","Daniel","Ugly, broken up and mismatched,-50,320,20","2"
"36543","","survey-text","102","1043654","0.0-101.0-0.0","A3B84NGQT7Z9WE","","","","{""Q0"":""holiday themed but lacking cohesiveness""}","","","","","","","","","","","","","","","","","","","","","","",""
"3891.300000011921","","image-slider-response","103","1047547","0.0-102.0","A3B84NGQT7Z9WE","","","","","-18","","","","","","","","","","","","","","","","","","","","","",""
"null","","image-button-response","104","1052556","0.0-103.0","A3B84NGQT7Z9WE","img_art/2.jpg","null","","","","","","","","","","","","","","","","","","","","","","","","",""
"8538","","image-button-response","105","1061098","0.0-104.0","A3B84NGQT7Z9WE","img_art/2.jpg","3","","","","","","","","","","","","","","","","","","","","","","","","",""
"6893","","image-button-response","106","1067993","0.0-105.0-0.0","A3B84NGQT7Z9WE","img_art/2.jpg","1","","","","","","","","","","","","","","","","","","","","","","","","",""
"4739","","image-button-response","107","1072735","0.0-106.0-0.0","A3B84NGQT7Z9WE","img_art/2.jpg","0","","","","","","","","","","","","","","","","","","","","","","","","",""
"null","","html-keyboard-response","108","1073237","0.0-107.0","A3B84NGQT7Z9WE","<p style=""font-size: 48px;"">+</p>","","","","","null","allTrialResponses","500","1","9","img_art/2.jpg","-18","holiday themed but lacking cohesiveness","Alexis,Caleb,Daniel,Nathaniel,Thomas,Connor","The people look blurred together,-21,140,20","Very gross colors. What were they thinking?,-47,40,20","Colors and space work but the top scribbled killed it.,11,320,20","Too gloopy and unfocused,-38,220,20","My first thought was that it looks like a children's art project,-30,220,20","There is an odd face here that is creepy,-4,240,20","Nathaniel","Too gloopy and unfocused,-38,220,20","Caleb","Very gross colors. What were they thinking?,-47,40,20","Alexis","The people look blurred together,-21,140,20","2"
"19661","","survey-text","109","1092909","0.0-108.0-0.0","A3B84NGQT7Z9WE","","","","{""Q0"":""cool water flow make me feel relaxed""}","","","","","","","","","","","","","","","","","","","","","","",""
"4113.300000011921","","image-slider-response","110","1097024","0.0-109.0","A3B84NGQT7Z9WE","","","","","19","","","","","","","","","","","","","","","","","","","","","",""
"3477","","image-button-response","111","1102035","0.0-110.0","A3B84NGQT7Z9WE","img_art/24.jpg","1","","","","","","","","","","","","","","","","","","","","","","","","",""
"162","","image-button-response","112","1102201","0.0-111.0","A3B84NGQT7Z9WE","img_art/24.jpg","1","","","","","","","","","","","","","","","","","","","","","","","","",""
"5407","","image-button-response","113","1107610","0.0-112.0-0.0","A3B84NGQT7Z9WE","img_art/24.jpg","2","","","","","","","","","","","","","","","","","","","","","","","","",""
"1495","","image-button-response","114","1109106","0.0-113.0-0.0","A3B84NGQT7Z9WE","img_art/24.jpg","3","","","","","","","","","","","","","","","","","","","","","","","","",""
"null","","html-keyboard-response","115","1109611","0.0-114.0","A3B84NGQT7Z9WE","<p style=""font-size: 48px;"">+</p>","","","","","null","allTrialResponses","500","1","10","img_art/24.jpg","19","cool water flow make me feel relaxed","Alexis,Caleb,Mason,Nathaniel,Luke,Jonathan","I love how bold and vibrant the colors are,40,140,20","This is gorgeous. Strong, saturated colors and clear meaning.,50,40,20","Nature, abstract, I'd hang this in my house.,37,100,20","Feels surreal, in a way, and vibrant,37,220,20","very colorful and intricate and makes me feel at peace,50,20,20","The colors and brush strokes make it feel adventurous,20,140,20","Caleb","This is gorgeous. Strong, saturated colors and clear meaning.,50,40,20","Mason","Nature, abstract, I'd hang this in my house.,37,100,20","Nathaniel","Feels surreal, in a way, and vibrant,37,220,20","2"
"4992","","survey-text","116","1114626","0.0-115.0-0.0","A3B84NGQT7Z9WE","","","","{""Q0"":""our""}","","","","","","","","","","","","","","","","","","","","","","",""
"16464","","survey-text","117","1131091","0.0-116.0-0.0","A3B84NGQT7Z9WE","","","","{""Q0"":""nice mix of colors""}","","","","","","","","","","","","","","","","","","","","","","",""
"4851.5","","image-slider-response","118","1135944","0.0-117.0","A3B84NGQT7Z9WE","","","","","23","","","","","","","","","","","","","","","","","","","","","",""
"4082","","image-button-response","119","1140948","0.0-118.0","A3B84NGQT7Z9WE","img_art/22.jpg","0","","","","","","","","","","","","","","","","","","","","","","","","",""
"564","","image-button-response","120","1141515","0.0-119.0","A3B84NGQT7Z9WE","img_art/22.jpg","0","","","","","","","","","","","","","","","","","","","","","","","","",""
"868","","image-button-response","121","1142385","0.0-120.0-0.0","A3B84NGQT7Z9WE","img_art/22.jpg","0","","","","","","","","","","","","","","","","","","","","","","","","",""
"1263","","image-button-response","122","1147298","0.0-120.1-0.1","A3B84NGQT7Z9WE","img_art/22.jpg","4","","","","","","","","","","","","","","","","","","","","","","","","",""
"2100","","image-button-response","123","1149401","0.0-121.0-0.0","A3B84NGQT7Z9WE","img_art/22.jpg","2","","","","","","","","","","","","","","","","","","","","","","","","",""
"null","","html-keyboard-response","124","1149903","0.0-122.0","A3B84NGQT7Z9WE","<p style=""font-size: 48px;"">+</p>","","","","","null","allTrialResponses","500","1","11","img_art/22.jpg","23","nice mix of colors","Blake,Caleb,Mason,Nathaniel,Scott,Gabriel","a lost balloon in outer space,12,280,20","Seems too simple.,-19,40,20","Could be interpreted so many ways, bold. I like it.,29,100,20","Looks like a giant blob,-45,220,20","really beautiful colors and contrast,30,20,20","its messy, like a child painted it,-14,160,20","Blake","a lost balloon in outer space,12,280,20","Scott","really beautiful colors and contrast,30,20,20","Mason","Could be interpreted so many ways, bold. I like it.,29,100,20","4"
"19519","","survey-text","125","1169433","0.0-123.0-0.0","A3B84NGQT7Z9WE","","","","{""Q0"":""good depiction of the desert in winter""}","","","","","","","","","","","","","","","","","","","","","","",""
"4831.199999988079","","image-slider-response","126","1174266","0.0-124.0","A3B84NGQT7Z9WE","","","","","28","","","","","","","","","","","","","","","","","","","","","",""
"4639","","image-button-response","127","1179272","0.0-125.0","A3B84NGQT7Z9WE","img_art/20.jpg","2","","","","","","","","","","","","","","","","","","","","","","","","",""
"451","","image-button-response","128","1179725","0.0-126.0","A3B84NGQT7Z9WE","img_art/20.jpg","1","","","","","","","","","","","","","","","","","","","","","","","","",""
"1878","","image-button-response","129","1181606","0.0-127.0-0.0","A3B84NGQT7Z9WE","img_art/20.jpg","2","","","","","","","","","","","","","","","","","","","","","","","","",""
"9324","","image-button-response","130","1190931","0.0-128.0-0.0","A3B84NGQT7Z9WE","img_art/20.jpg","5","","","","","","","","","","","","","","","","","","","","","","","","",""
"null","","html-keyboard-response","131","1192434","0.0-129.0","A3B84NGQT7Z9WE","<p style=""font-size: 48px;"">+</p>","","","","","null","allTrialResponses","1500","1","12","img_art/20.jpg","28","good depiction of the desert in winter","Blake,Luis,Mason,Jake,Scott,Tristan","reminds me of a dead animal in the west. ugly,-25,280,20","I love the way it expresses dark nature and uncontrolled situations.,44,400,20","Very cool, and calming (again) Love it.,47,100,20","It's too brash and loud and ugly.,-21,360,20","feels distorted and uncomfortable,-41,20,20","Elements that are more defined are incongruous to the soft and melting nature of this painting,5,300,20","Luis","I love the way it expresses dark nature and uncontrolled situations.,44,400,20","Mason","Very cool, and calming (again) Love it.,47,100,20","Tristan","Elements that are more defined are incongruous to the soft and melting nature of this painting,5,300,20","4"
"23643","","survey-text","132","1216089","0.0-130.0-0.0","A3B84NGQT7Z9WE","","","","{""Q0"":""I don't get it!""}","","","","","","","","","","","","","","","","","","","","","","",""
"4770.5","","image-slider-response","133","1220861","0.0-131.0","A3B84NGQT7Z9WE","","","","","-29","","","","","","","","","","","","","","","","","","","","","",""
"4861","","image-button-response","134","1225867","0.0-132.0","A3B84NGQT7Z9WE","img_art/3.jpg","1","","","","","","","","","","","","","","","","","","","","","","","","",""
"1058","","image-button-response","135","1226928","0.0-133.0","A3B84NGQT7Z9WE","img_art/3.jpg","1","","","","","","","","","","","","","","","","","","","","","","","","",""
"7854","","image-button-response","136","1234784","0.0-134.0-0.0","A3B84NGQT7Z9WE","img_art/3.jpg","2","","","","","","","","","","","","","","","","","","","","","","","","",""
"3496","","image-button-response","137","1238282","0.0-135.0-0.0","A3B84NGQT7Z9WE","img_art/3.jpg","0","","","","","","","","","","","","","","","","","","","","","","","","",""
"null","","html-keyboard-response","138","1239285","0.0-136.0","A3B84NGQT7Z9WE","<p style=""font-size: 48px;"">+</p>","","","","","null","allTrialResponses","1000","1","13","img_art/3.jpg","-29","I don't get it!","Logan,Luis,Mason,Jacob,Isaiah,Tristan","im just getting more agitated and less appreciative of art. I have absolutely no scale to base on,-34,360,20","I dont really feel anything from this, i cant see or understand any of it,-20,400,20","scribbles in red. 2 minute piece.,-30,100,20","Don't get the scribbles.,-13,340,20","I feel uncomfortable, like I am looking at a crime scene.,-17,300,20","i like the colors particulairly the contrast of foreground to background. Exciting and thoughtful.,10,300,20","Luis","I dont really feel anything from this, i cant see or understand any of it,-20,400,20","Mason","scribbles in red. 2 minute piece.,-30,100,20","Logan","im just getting more agitated and less appreciative of art. I have absolutely no scale to base on,-34,360,20","4"
"36779","","survey-text","139","1276077","0.0-137.0-0.0","A3B84NGQT7Z9WE","","","","{""Q0"":""Good picture of Christ birthplace""}","","","","","","","","","","","","","","","","","","","","","","",""
"4347.399999976158","","image-slider-response","140","1280426","0.0-138.0","A3B84NGQT7Z9WE","","","","","35","","","","","","","","","","","","","","","","","","","","","",""
"4215","","image-button-response","141","1285432","0.0-139.0","A3B84NGQT7Z9WE","img_art/9.jpg","1","","","","","","","","","","","","","","","","","","","","","","","","",""
"290","","image-button-response","142","1285726","0.0-140.0","A3B84NGQT7Z9WE","img_art/9.jpg","1","","","","","","","","","","","","","","","","","","","","","","","","",""
"3507","","image-button-response","143","1289235","0.0-141.0-0.0","A3B84NGQT7Z9WE","img_art/9.jpg","2","","","","","","","","","","","","","","","","","","","","","","","","",""
"564","","image-button-response","144","1289801","0.0-142.0-0.0","A3B84NGQT7Z9WE","img_art/9.jpg","2","","","","","","","","","","","","","","","","","","","","","","","","",""
"3173","","image-button-response","145","1298203","0.0-142.1-0.1","A3B84NGQT7Z9WE","img_art/9.jpg","3","","","","","","","","","","","","","","","","","","","","","","","","",""
"null","","html-keyboard-response","146","1299205","0.0-143.0","A3B84NGQT7Z9WE","<p style=""font-size: 48px;"">+</p>","","","","","null","allTrialResponses","1000","1","14","img_art/9.jpg","35","Good picture of Christ birthplace","Logan,Luis,Mason,Derek,Brian,Brett","is that sleeping beauty,33,360,20","Calming and relaxing,42,400,20","Abstract titanic scene. It's nice though. I like how it makes me feel.,28,100,20","It's wild and chaotic but also beautiful and has some kind of calming factor about it,20,360,20","I don't like the framing of this one,-25,380,20","Peaceful dreaming,40,360,20","Luis","Calming and relaxing,42,400,20","Mason","Abstract titanic scene. It's nice though. I like how it makes me feel.,28,100,20","Derek","It's wild and chaotic but also beautiful and has some kind of calming factor about it,20,360,20","6"
"26405","","survey-text","147","1325623","0.0-144.0-0.0","A3B84NGQT7Z9WE","","","","{""Q0"":""Does being a sense of awe over me""}","","","","","","","","","","","","","","","","","","","","","","",""
"5206","","image-slider-response","148","1330831","0.0-145.0","A3B84NGQT7Z9WE","","","","","31","","","","","","","","","","","","","","","","","","","","","",""
"null","","image-button-response","149","1335836","0.0-146.0","A3B84NGQT7Z9WE","img_art/13.jpg","null","","","","","","","","","","","","","","","","","","","","","","","","",""
"1595","","image-button-response","150","1337433","0.0-147.0","A3B84NGQT7Z9WE","img_art/13.jpg","4","","","","","","","","","","","","","","","","","","","","","","","","",""
"3689","","image-button-response","151","1341124","0.0-148.0-0.0","A3B84NGQT7Z9WE","img_art/13.jpg","1","","","","","","","","","","","","","","","","","","","","","","","","",""
"1970","","image-button-response","152","1343095","0.0-149.0-0.0","A3B84NGQT7Z9WE","img_art/13.jpg","0","","","","","","","","","","","","","","","","","","","","","","","","",""
"null","","html-keyboard-response","153","1344098","0.0-150.0","A3B84NGQT7Z9WE","<p style=""font-size: 48px;"">+</p>","","","","","null","allTrialResponses","1000","1","15","img_art/13.jpg","31","Does being a sense of awe over me","Seth,Luis,Mason,Derek,Chase,Bryce","I really loved the color contrast. Having the white stripe in the center makes the it appear 3D.,11,60,20","I love the edgy nature,50,400,20","meh, 80's. retro,-9,100,20","This looks like a staple bedroom or bathroom piece,41,360,20","Seems a little cold but I like the neuron looking splatters.,10,120,20","My favorite!,47,20,20","Chase","Seems a little cold but I like the neuron looking splatters.,10,120,20","Luis","I love the edgy nature,50,400,20","Seth","I really loved the color contrast. Having the white stripe in the center makes the it appear 3D.,11,60,20","6"
"8272","","survey-text","154","1352397","0.0-151.0-0.0","A3B84NGQT7Z9WE","","","","{""Q0"":""course""}","","","","","","","","","","","","","","","","","","","","","","",""
"31672","","survey-text","155","1384071","0.0-152.0-0.0","A3B84NGQT7Z9WE","","","","{""Q0"":""paint brush strokes does more harm than good to the piece""}","","","","","","","","","","","","","","","","","","","","","","",""
"3689.899999976158","","image-slider-response","156","1387763","0.0-153.0","A3B84NGQT7Z9WE","","","","","-25","","","","","","","","","","","","","","","","","","","","","",""
"null","","image-button-response","157","1392771","0.0-154.0","A3B84NGQT7Z9WE","img_art/30.jpg","null","","","","","","","","","","","","","","","","","","","","","","","","",""
"4070","","image-button-response","158","1396844","0.0-155.0","A3B84NGQT7Z9WE","img_art/30.jpg","5","","","","","","","","","","","","","","","","","","","","","","","","",""
"5843","","image-button-response","159","1402688","0.0-156.0-0.0","A3B84NGQT7Z9WE","img_art/30.jpg","2","","","","","","","","","","","","","","","","","","","","","","","","",""
"5508","","image-button-response","160","1408199","0.0-157.0-0.0","A3B84NGQT7Z9WE","img_art/30.jpg","3","","","","","","","","","","","","","","","","","","","","","","","","",""
"null","","html-keyboard-response","161","1409706","0.0-158.0","A3B84NGQT7Z9WE","<p style=""font-size: 48px;"">+</p>","","","","","null","allTrialResponses","1500","1","16","img_art/30.jpg","-25","paint brush strokes does more harm than good to the piece","Seth,Luis,Cody,Devon,Chase,Carlos","I love the color contrast of the red against the blue.,9,60,20","Flowing freely of the rest of the world,42,400,20","Like the design, not a big fan of the colors,20,180,20","the different roads to take in life,10,400,20","Too dark and ugly with all the black smears,-20,120,20","It just feels hasty and not well composed. Has an angsty teen feel,-31,80,20","Carlos","It just feels hasty and not well composed. Has an angsty teen feel,-31,80,20","Cody","Like the design, not a big fan of the colors,20,180,20","Devon","the different roads to take in life,10,400,20","6"
"25949","","survey-text","162","1435667","0.0-159.0-0.0","A3B84NGQT7Z9WE","","","","{""Q0"":""quaint picture of a seaside village""}","","","","","","","","","","","","","","","","","","","","","","",""
"4163.700000047684","","image-slider-response","163","1439833","0.0-160.0","A3B84NGQT7Z9WE","","","","","22","","","","","","","","","","","","","","","","","","","","","",""
"null","","image-button-response","164","1444837","0.0-161.0","A3B84NGQT7Z9WE","img_art/19.jpg","null","","","","","","","","","","","","","","","","","","","","","","","","",""
"3476","","image-button-response","165","1448317","0.0-162.0","A3B84NGQT7Z9WE","img_art/19.jpg","3","","","","","","","","","","","","","","","","","","","","","","","","",""
"1939","","image-button-response","166","1450258","0.0-163.0-0.0","A3B84NGQT7Z9WE","img_art/19.jpg","2","","","","","","","","","","","","","","","","","","","","","","","","",""
"383","","image-button-response","167","1450642","0.0-164.0-0.0","A3B84NGQT7Z9WE","img_art/19.jpg","2","","","","","","","","","","","","","","","","","","","","","","","","",""
"1161","","image-button-response","168","1455890","0.0-164.1-0.1","A3B84NGQT7Z9WE","img_art/19.jpg","1","","","","","","","","","","","","","","","","","","","","","","","","",""
"null","","html-keyboard-response","169","1456392","0.0-165.0","A3B84NGQT7Z9WE","<p style=""font-size: 48px;"">+</p>","","","","","null","allTrialResponses","500","1","17","img_art/19.jpg","22","quaint picture of a seaside village","Christopher,Shane,Cody,Devon,Dylan,Carlos","too much of a mix of lines and shading,-22,160,20","A day in a small city,45,80,20","Interesting, leaves you wondering what it is,40,180,20","this looks like a busy city lifestyle,24,400,20","This photo has too much going on.,-19,40,20","I like the watercolor and colors, do not like the deconstructed city scene feel.,0,80,20","Devon","this looks like a busy city lifestyle,24,400,20","Cody","Interesting, leaves you wondering what it is,40,180,20","Shane","A day in a small city,45,80,20","8"
"15979","","survey-text","170","1472384","0.0-166.0-0.0","A3B84NGQT7Z9WE","","","","{""Q0"":""colors do not mix well""}","","","","","","","","","","","","","","","","","","","","","","",""
"5224.900000035763","","image-slider-response","171","1477611","0.0-167.0","A3B84NGQT7Z9WE","","","","","-17","","","","","","","","","","","","","","","","","","","","","",""
"3608","","image-button-response","172","1482627","0.0-168.0","A3B84NGQT7Z9WE","img_art/27.jpg","2","","","","","","","","","","","","","","","","","","","","","","","","",""
"496","","image-button-response","173","1483127","0.0-169.0","A3B84NGQT7Z9WE","img_art/27.jpg","2","","","","","","","","","","","","","","","","","","","","","","","","",""
"5377","","image-button-response","174","1488506","0.0-170.0-0.0","A3B84NGQT7Z9WE","img_art/27.jpg","0","","","","","","","","","","","","","","","","","","","","","","","","",""
"2263","","image-button-response","175","1490771","0.0-171.0-0.0","A3B84NGQT7Z9WE","img_art/27.jpg","0","","","","","","","","","","","","","","","","","","","","","","","","",""
"2729","","image-button-response","176","1497554","0.0-171.1-0.1","A3B84NGQT7Z9WE","img_art/27.jpg","5","","","","","","","","","","","","","","","","","","","","","","","","",""
"null","","html-keyboard-response","177","1498056","0.0-172.0","A3B84NGQT7Z9WE","<p style=""font-size: 48px;"">+</p>","","","","","null","allTrialResponses","500","1","18","img_art/27.jpg","-17","colors do not mix well","Marcus,Shane,Cody,Devon,Spencer,Taylor","It's okay. Not really interesting to me.,-10,60,20","Makes me feel warm inside,21,80,20","Not sure how I feel about this. Messy, even for art. But good colors.,0,180,20","this reminds me of simpler time,31,400,20","An attractive assortment of squiggles and colors,22,120,20","Looks like a child added his own interpretation with a black marker.,-5,200,20","Cody","Not sure how I feel about this. Messy, even for art. But good colors.,0,180,20","Marcus","It's okay. Not really interesting to me.,-10,60,20","Taylor","Looks like a child added his own interpretation with a black marker.,-5,200,20","10"
"24665","","survey-text","178","1522735","0.0-173.0-0.0","A3B84NGQT7Z9WE","","","","{""Q0"":""uses basically every color known to man""}","","","","","","","","","","","","","","","","","","","","","","",""
"4800.899999976158","","image-slider-response","179","1527537","0.0-174.0","A3B84NGQT7Z9WE","","","","","12","","","","","","","","","","","","","","","","","","","","","",""
"4963","","image-button-response","180","1532541","0.0-175.0","A3B84NGQT7Z9WE","img_art/1.jpg","1","","","","","","","","","","","","","","","","","","","","","","","","",""
"1201","","image-button-response","181","1533745","0.0-176.0","A3B84NGQT7Z9WE","img_art/1.jpg","1","","","","","","","","","","","","","","","","","","","","","","","","",""
"1090","","image-button-response","182","1534837","0.0-177.0-0.0","A3B84NGQT7Z9WE","img_art/1.jpg","2","","","","","","","","","","","","","","","","","","","","","","","","",""
"5922","","image-button-response","183","1540761","0.0-178.0-0.0","A3B84NGQT7Z9WE","img_art/1.jpg","0","","","","","","","","","","","","","","","","","","","","","","","","",""
"null","","html-keyboard-response","184","1542264","0.0-179.0","A3B84NGQT7Z9WE","<p style=""font-size: 48px;"">+</p>","","","","","null","allTrialResponses","1500","1","19","img_art/1.jpg","12","uses basically every color known to man","Marcus,Angel,Cody,Nathan,Travis,Taylor","Like the colors very much, and this piece makes me feel peaceful.,29,60,20","For some reason this makes me want to go ice skating. It's whimsical and free but also very smooth.,20,180,20","Pretty, nice use of color,40,180,20","Not a fan of the mood, overly party-ish and bright colors do not suit my taste,-40,200,20","I didn't like this too much...I didn't like the red and the jaggedness to it.,-29,260,20","Deja vu. Haven't I seen this one before? Not bad for those living in the backwoods.,10,200,20","Angel","For some reason this makes me want to go ice skating. It's whimsical and free but also very smooth.,20,180,20","Cody","Pretty, nice use of color,40,180,20","Marcus","Like the colors very much, and this piece makes me feel peaceful.,29,60,20","10"
"24222","","survey-text","185","1566499","0.0-180.0-0.0","A3B84NGQT7Z9WE","","","","{""Q0"":""definitely a conversational piece""}","","","","","","","","","","","","","","","","","","","","","","",""
"4204.099999964237","","image-slider-response","186","1570705","0.0-181.0","A3B84NGQT7Z9WE","","","","","27","","","","","","","","","","","","","","","","","","","","","",""
"null","","image-button-response","187","1575711","0.0-182.0","A3B84NGQT7Z9WE","img_art/18.jpg","null","","","","","","","","","","","","","","","","","","","","","","","","",""
"916","","image-button-response","188","1576629","0.0-183.0","A3B84NGQT7Z9WE","img_art/18.jpg","0","","","","","","","","","","","","","","","","","","","","","","","","",""
"4476","","image-button-response","189","1581108","0.0-184.0-0.0","A3B84NGQT7Z9WE","img_art/18.jpg","4","","","","","","","","","","","","","","","","","","","","","","","","",""
"3092","","image-button-response","190","1584202","0.0-185.0-0.0","A3B84NGQT7Z9WE","img_art/18.jpg","5","","","","","","","","","","","","","","","","","","","","","","","","",""
"null","","html-keyboard-response","191","1584706","0.0-186.0","A3B84NGQT7Z9WE","<p style=""font-size: 48px;"">+</p>","","","","","null","allTrialResponses","500","1","20","img_art/18.jpg","27","definitely a conversational piece","Marcus,Angel,Cody,Tanner,Mark,Miguel","like the grays and contrast of the yellow. This piece feels a bit angry,10,60,20","Like riding into battle. A sense of confidence, but also trepidation for what's coming. Could be a personification of death.,-10,180,20","Vaguely creepy ........,-20,180,20","pegssus going into battle,25,180,20","I see an artistic representation of the riding of last of the four horseman. Its stunning.,45,80,20","This looks amazing.,40,160,20","Marcus","like the grays and contrast of the yellow. This piece feels a bit angry,10,60,20","Mark","I see an artistic representation of the riding of last of the four horseman. Its stunning.,45,80,20","Miguel","This looks amazing.,40,160,20","10"
"4099","","survey-text","192","1588831","0.0-187.0-0.0","A3B84NGQT7Z9WE","","","","{""Q0"":""we""}","","","","","","","","","","","","","","","","","","","","","","",""
"16891","","survey-text","193","1605723","0.0-188.0-0.0","A3B84NGQT7Z9WE","","","","{""Q0"":""big storm ready to come onland?""}","","","","","","","","","","","","","","","","","","","","","","",""
"6640.5","","image-slider-response","194","1612365","0.0-189.0","A3B84NGQT7Z9WE","","","","","5","","","","","","","","","","","","","","","","","","","","","",""
"2414","","image-button-response","195","1617377","0.0-190.0","A3B84NGQT7Z9WE","img_art/21.jpg","1","","","","","","","","","","","","","","","","","","","","","","","","",""
"909","","image-button-response","196","1618290","0.0-191.0","A3B84NGQT7Z9WE","img_art/21.jpg","1","","","","","","","","","","","","","","","","","","","","","","","","",""
"6741","","image-button-response","197","1625033","0.0-192.0-0.0","A3B84NGQT7Z9WE","img_art/21.jpg","4","","","","","","","","","","","","","","","","","","","","","","","","",""
"4274","","image-button-response","198","1629310","0.0-193.0-0.0","A3B84NGQT7Z9WE","img_art/21.jpg","2","","","","","","","","","","","","","","","","","","","","","","","","",""
"null","","html-keyboard-response","199","1629812","0.0-194.0","A3B84NGQT7Z9WE","<p style=""font-size: 48px;"">+</p>","","","","","null","allTrialResponses","500","1","21","img_art/21.jpg","5","big storm ready to come onland?","Marcus,Matthew,Corey,David,Mark,Miguel","I feel like I'm looking at two different paintings mashed together in the middle.,20,60,20","Disturbing, land meets ocean, lvoely really.,43,120,20","i like the colors and the blending,17,260,20","I like how the piece has the possibility of depicting some type of story.,30,340,20","It feels like a day at sea but the pink is slightly jarring and holding my eye.,26,80,20","Amazing colors.,34,160,20","Matthew","Disturbing, land meets ocean, lvoely really.,43,120,20","Mark","It feels like a day at sea but the pink is slightly jarring and holding my eye.,26,80,20","Corey","i like the colors and the blending,17,260,20","10"
"19998","","survey-text","200","1649824","0.0-195.0-0.0","A3B84NGQT7Z9WE","","","","{""Q0"":""creepy and a big turn off""}","","","","","","","","","","","","","","","","","","","","","","",""
"3698.300000011921","","image-slider-response","201","1653524","0.0-196.0","A3B84NGQT7Z9WE","","","","","-32","","","","","","","","","","","","","","","","","","","","","",""
"null","","image-button-response","202","1658528","0.0-197.0","A3B84NGQT7Z9WE","img_art/25.jpg","null","","","","","","","","","","","","","","","","","","","","","","","","",""
"796","","image-button-response","203","1659327","0.0-198.0","A3B84NGQT7Z9WE","img_art/25.jpg","3","","","","","","","","","","","","","","","","","","","","","","","","",""
"1868","","image-button-response","204","1661198","0.0-199.0-0.0","A3B84NGQT7Z9WE","img_art/25.jpg","4","","","","","","","","","","","","","","","","","","","","","","","","",""
"1373","","image-button-response","205","1662573","0.0-200.0-0.0","A3B84NGQT7Z9WE","img_art/25.jpg","5","","","","","","","","","","","","","","","","","","","","","","","","",""
"null","","html-keyboard-response","206","1664085","0.0-201.0","A3B84NGQT7Z9WE","<p style=""font-size: 48px;"">+</p>","","","","","null","allTrialResponses","1500","1","22","img_art/25.jpg","-32","creepy and a big turn off","Jeremy,Matthew,Corey,Juan,Mark,Charles","reminds me of ancient history which makes me happy,40,60,20","haunting, a lovely impression.,50,120,20","love the color and the contrast of the black on teal,50,260,20","I don't like the color. I don't like the abstract-ness of it.,-22,260,20","Looks like Burning Man, dont care for the colors.,-5,80,20","Cult-like, which to me makes it kind of creepy,-21,100,20","Juan","I don't like the color. I don't like the abstract-ness of it.,-22,260,20","Mark","Looks like Burning Man, dont care for the colors.,-5,80,20","Charles","Cult-like, which to me makes it kind of creepy,-21,100,20","10"
"14527","","survey-text","207","1678627","0.0-202.0-0.0","A3B84NGQT7Z9WE","","","","{""Q0"":""too abstract for me""}","","","","","","","","","","","","","","","","","","","","","","",""
"4123.100000023842","","image-slider-response","208","1682751","0.0-203.0","A3B84NGQT7Z9WE","","","","","-17","","","","","","","","","","","","","","","","","","","","","",""
"2323","","image-button-response","209","1687756","0.0-204.0","A3B84NGQT7Z9WE","img_art/29.jpg","0","","","","","","","","","","","","","","","","","","","","","","","","",""
"724","","image-button-response","210","1688484","0.0-205.0","A3B84NGQT7Z9WE","img_art/29.jpg","1","","","","","","","","","","","","","","","","","","","","","","","","",""
"1615","","image-button-response","211","1690101","0.0-206.0-0.0","A3B84NGQT7Z9WE","img_art/29.jpg","0","","","","","","","","","","","","","","","","","","","","","","","","",""
"747","","image-button-response","212","1690849","0.0-207.0-0.0","A3B84NGQT7Z9WE","img_art/29.jpg","0","","","","","","","","","","","","","","","","","","","","","","","","",""
"10971","","image-button-response","213","1705298","0.0-207.1-0.1","A3B84NGQT7Z9WE","img_art/29.jpg","2","","","","","","","","","","","","","","","","","","","","","","","","",""
"null","","html-keyboard-response","214","1706313","0.0-208.0","A3B84NGQT7Z9WE","<p style=""font-size: 48px;"">+</p>","","","","","null","allTrialResponses","1000","1","23","img_art/29.jpg","-17","too abstract for me","Alexander,Bryan,Richard,Juan,Mark,Charles","Tested and failed a lot of ideas.,-20,120,20","Doesn't do much for me. I like some of the colors but not much else.,-10,400,20","it's OK, no clue to what's going on but good use of light and dark,4,340,20","I hate the red x over everything, hate the black hate how hopeless this is.,-50,260,20","Bottomless pit and prison. Feels like its saying time is precious.,11,80,20","I like the usage of a physical object,33,100,20","Bryan","Doesn't do much for me. I like some of the colors but not much else.,-10,400,20","Alexander","Tested and failed a lot of ideas.,-20,120,20","Richard","it's OK, no clue to what's going on but good use of light and dark,4,340,20","12"
"29839","","survey-text","215","1736169","0.0-209.0-0.0","A3B84NGQT7Z9WE","","","","{""Q0"":""good contrast between geometry and waviness""}","","","","","","","","","","","","","","","","","","","","","","",""
"4023.199999988079","","image-slider-response","216","1740194","0.0-210.0","A3B84NGQT7Z9WE","","","","","17","","","","","","","","","","","","","","","","","","","","","",""
"3264","","image-button-response","217","1745201","0.0-211.0","A3B84NGQT7Z9WE","img_art/17.jpg","0","","","","","","","","","","","","","","","","","","","","","","","","",""
"925","","image-button-response","218","1746129","0.0-212.0","A3B84NGQT7Z9WE","img_art/17.jpg","0","","","","","","","","","","","","","","","","","","","","","","","","",""
"1303","","image-button-response","219","1747433","0.0-213.0-0.0","A3B84NGQT7Z9WE","img_art/17.jpg","2","","","","","","","","","","","","","","","","","","","","","","","","",""
"3678","","image-button-response","220","1751114","0.0-214.0-0.0","A3B84NGQT7Z9WE","img_art/17.jpg","3","","","","","","","","","","","","","","","","","","","","","","","","",""
"null","","html-keyboard-response","221","1752116","0.0-215.0","A3B84NGQT7Z9WE","<p style=""font-size: 48px;"">+</p>","","","","","null","allTrialResponses","1000","1","24","img_art/17.jpg","17","good contrast between geometry and waviness","Alexander,Bryan,Richard,Steven,Isaac,Edward","Tree of knowledge in a quiet school.,17,120,20","Reminds me of winters in Minnesota.,48,400,20","nice composition and colors, fairy land,28,340,20","absolutely gorgeous, I feel solitude again, but the beauty is there also,50,160,20","The colors are soft.,32,280,20","I love how soft it is,35,60,20","Alexander","Tree of knowledge in a quiet school.,17,120,20","Richard","nice composition and colors, fairy land,28,340,20","Steven","absolutely gorgeous, I feel solitude again, but the beauty is there also,50,160,20","12"
"22505","","survey-text","222","1774637","0.0-216.0-0.0","A3B84NGQT7Z9WE","","","","{""Q0"":""Details are quite intriguing""}","","","","","","","","","","","","","","","","","","","","","","",""
"4770.600000023842","","image-slider-response","223","1779409","0.0-217.0","A3B84NGQT7Z9WE","","","","","21","","","","","","","","","","","","","","","","","","","","","",""
"null","","image-button-response","224","1784421","0.0-218.0","A3B84NGQT7Z9WE","img_art/7.jpg","null","","","","","","","","","","","","","","","","","","","","","","","","",""
"1819","","image-button-response","225","1786245","0.0-219.0","A3B84NGQT7Z9WE","img_art/7.jpg","3","","","","","","","","","","","","","","","","","","","","","","","","",""
"2627","","image-button-response","226","1788874","0.0-220.0-0.0","A3B84NGQT7Z9WE","img_art/7.jpg","4","","","","","","","","","","","","","","","","","","","","","","","","",""
"4355","","image-button-response","227","1793231","0.0-221.0-0.0","A3B84NGQT7Z9WE","img_art/7.jpg","0","","","","","","","","","","","","","","","","","","","","","","","","",""
"null","","html-keyboard-response","228","1793738","0.0-222.0","A3B84NGQT7Z9WE","<p style=""font-size: 48px;"">+</p>","","","","","null","allTrialResponses","500","1","25","img_art/7.jpg","21","Details are quite intriguing","Alexander,Jose,Richard,Steven,Alex,Joseph","Dead bugs on an insect battleground.,-10,120,20","Reminds me of bugs, I hate bugs,-7,200,20","looks like wallpaper,-6,340,20","looks like the surface of the moon.,1,160,20","Hmm interesting, looks like mars or something terrestrial. Too abstract for me and too much brown,4,100,20","Dinosaur bones. Death.,-14,220,20","Steven","looks like the surface of the moon.,1,160,20","Alex","Hmm interesting, looks like mars or something terrestrial. Too abstract for me and too much brown,4,100,20","Alexander","Dead bugs on an insect battleground.,-10,120,20","12"
"4336","","survey-text","229","1798103","0.0-223.0-0.0","A3B84NGQT7Z9WE","","","","{""Q0"":""table""}","","","","","","","","","","","","","","","","","","","","","","",""
"17943","","survey-text","230","1816047","0.0-224.0-0.0","A3B84NGQT7Z9WE","","","","{""Q0"":""colorful checkerboard ""}","","","","","","","","","","","","","","","","","","","","","","",""
"4123.5","","image-slider-response","231","1820173","0.0-225.0","A3B84NGQT7Z9WE","","","","","12","","","","","","","","","","","","","","","","","","","","","",""
"3688","","image-button-response","232","1825177","0.0-226.0","A3B84NGQT7Z9WE","img_art/12.jpg","1","","","","","","","","","","","","","","","","","","","","","","","","",""
"553","","image-button-response","233","1825733","0.0-227.0","A3B84NGQT7Z9WE","img_art/12.jpg","1","","","","","","","","","","","","","","","","","","","","","","","","",""
"4518","","image-button-response","234","1830252","0.0-228.0-0.0","A3B84NGQT7Z9WE","img_art/12.jpg","5","","","","","","","","","","","","","","","","","","","","","","","","",""
"1918","","image-button-response","235","1832173","0.0-229.0-0.0","A3B84NGQT7Z9WE","img_art/12.jpg","2","","","","","","","","","","","","","","","","","","","","","","","","",""
"null","","html-keyboard-response","236","1833684","0.0-230.0","A3B84NGQT7Z9WE","<p style=""font-size: 48px;"">+</p>","","","","","null","allTrialResponses","1500","1","26","img_art/12.jpg","12","colorful checkerboard ","Alexander,Michael,Andrew,Steven,Alex,Alejandro","Ugly color combinations, no focus.,-25,120,20","Not quite my style but there more of a pattern and it is interesting to look at.,15,140,20","It's kind of ominous,-15,160,20","not my kind of thing,1,160,20","eww hate everything about this, looks like it belongs in a dentist's office,-14,100,20","I like the sectioned nature of the squares and curves. Not my favorite but still a good one.,27,80,20","Michael","Not quite my style but there more of a pattern and it is interesting to look at.,15,140,20","Alejandro","I like the sectioned nature of the squares and curves. Not my favorite but still a good one.,27,80,20","Andrew","It's kind of ominous,-15,160,20","12"
"26573","","survey-text","237","1860273","0.0-231.0-0.0","A3B84NGQT7Z9WE","","","","{""Q0"":""looks like it was done in 2 minutes by 2nd grader""}","","","","","","","","","","","","","","","","","","","","","","",""
"5277.099999964237","","image-slider-response","238","1865551","0.0-232.0","A3B84NGQT7Z9WE","","","","","-32","","","","","","","","","","","","","","","","","","","","","",""
"2071","","image-button-response","239","1870557","0.0-233.0","A3B84NGQT7Z9WE","img_art/5.jpg","1","","","","","","","","","","","","","","","","","","","","","","","","",""
"947","","image-button-response","240","1871507","0.0-234.0","A3B84NGQT7Z9WE","img_art/5.jpg","1","","","","","","","","","","","","","","","","","","","","","","","","",""
"2739","","image-button-response","241","1874247","0.0-235.0-0.0","A3B84NGQT7Z9WE","img_art/5.jpg","2","","","","","","","","","","","","","","","","","","","","","","","","",""
"8672","","image-button-response","242","1882921","0.0-236.0-0.0","A3B84NGQT7Z9WE","img_art/5.jpg","5","","","","","","","","","","","","","","","","","","","","","","","","",""
"null","","html-keyboard-response","243","1883433","0.0-237.0","A3B84NGQT7Z9WE","<p style=""font-size: 48px;"">+</p>","","","","","null","allTrialResponses","500","1","27","img_art/5.jpg","-32","looks like it was done in 2 minutes by 2nd grader","Garrett,Michael,Andrew,Shawn,Jesse,Alejandro","I don't know what it's supposed to be and it looks ugly the way the colors are on the yellow cube.,-50,180,20","Complete garbage. Looks like a kid drew it.,-50,140,20","Doesn't make me think anything,-1,160,20","Black stripe looks violent,-31,100,20","I just dont get it. Means very little to me,-22,80,20","Confused as to what the artist is attempting to do.,-50,80,20","Michael","Complete garbage. Looks like a kid drew it.,-50,140,20","Andrew","Doesn't make me think anything,-1,160,20","Alejandro","Confused as to what the artist is attempting to do.,-50,80,20","12"
"25912","","survey-text","244","1909363","0.0-238.0-0.0","A3B84NGQT7Z9WE","","","","{""Q0"":""Someone is getting ready to wreck havoc over this city""}","","","","","","","","","","","","","","","","","","","","","","",""
"3759.600000023842","","image-slider-response","245","1913124","0.0-239.0","A3B84NGQT7Z9WE","","","","","13","","","","","","","","","","","","","","","","","","","","","",""
"2010","","image-button-response","246","1918129","0.0-240.0","A3B84NGQT7Z9WE","img_art/8.jpg","1","","","","","","","","","","","","","","","","","","","","","","","","",""
"976","","image-button-response","247","1919109","0.0-241.0","A3B84NGQT7Z9WE","img_art/8.jpg","1","","","","","","","","","","","","","","","","","","","","","","","","",""
"1070","","image-button-response","248","1920181","0.0-242.0-0.0","A3B84NGQT7Z9WE","img_art/8.jpg","0","","","","","","","","","","","","","","","","","","","","","","","","",""
"928","","image-button-response","249","1921111","0.0-243.0-0.0","A3B84NGQT7Z9WE","img_art/8.jpg","0","","","","","","","","","","","","","","","","","","","","","","","","",""
"1424","","image-button-response","250","1926055","0.0-243.1-0.1","A3B84NGQT7Z9WE","img_art/8.jpg","5","","","","","","","","","","","","","","","","","","","","","","","","",""
"null","","html-keyboard-response","251","1927058","0.0-244.0","A3B84NGQT7Z9WE","<p style=""font-size: 48px;"">+</p>","","","","","null","allTrialResponses","1000","1","28","img_art/8.jpg","13","Someone is getting ready to wreck havoc over this city","Austin,Michael,Andrew,Grant,Bradley,Alejandro","Very unique and different,31,240,20","It is interesting to look at. Abstract but ordered.,9,140,20","Looks like it would be an interesting place to live,35,160,20","The stylized faces remind me of German expressionism in a very good way.,40,200,20","Interesting but it has a bit of a dark feel to it.,6,300,20","i like the abstract nature of a birds eye view of the city. The hard shapes and squares present with a softness rather than rigidity.,26,80,20","Michael","It is interesting to look at. Abstract but ordered.,9,140,20","Austin","Very unique and different,31,240,20","Alejandro","i like the abstract nature of a birds eye view of the city. The hard shapes and squares present with a softness rather than rigidity.,26,80,20","14"
"39419","","survey-text","252","1966495","0.0-245.0-0.0","A3B84NGQT7Z9WE","","","","{""Q0"":""interesting piece and use of blue coloring""}","","","","","","","","","","","","","","","","","","","","","","",""
"4286.300000011921","","image-slider-response","253","1970783","0.0-246.0","A3B84NGQT7Z9WE","","","","","18","","","","","","","","","","","","","","","","","","","","","",""
"null","","image-button-response","254","1975787","0.0-247.0","A3B84NGQT7Z9WE","img_art/15.jpg","null","","","","","","","","","","","","","","","","","","","","","","","","",""
"2525","","image-button-response","255","1978316","0.0-248.0","A3B84NGQT7Z9WE","img_art/15.jpg","5","","","","","","","","","","","","","","","","","","","","","","","","",""
"3234","","image-button-response","256","1981552","0.0-249.0-0.0","A3B84NGQT7Z9WE","img_art/15.jpg","0","","","","","","","","","","","","","","","","","","","","","","","","",""
"2142","","image-button-response","257","1983695","0.0-250.0-0.0","A3B84NGQT7Z9WE","img_art/15.jpg","4","","","","","","","","","","","","","","","","","","","","","","","","",""
"null","","html-keyboard-response","258","1984204","0.0-251.0","A3B84NGQT7Z9WE","<p style=""font-size: 48px;"">+</p>","","","","","null","allTrialResponses","500","1","29","img_art/15.jpg","18","interesting piece and use of blue coloring","Austin,Michael,Justin,Ryan,Cameron,Alejandro","Perfect Abstract painting,50,240,20","Looks incomplete.,-19,140,20","Color scheme and design are rather boring.,-10,280,20","It triggers my tripophobia,-50,380,20","This one reminds me of a postage stamp, but branches and leaves. Kind of fun.,15,60,20","The blotted black spots create a nice contrast between the brush strokes within the center and sides. I like it.,41,80,20","Alejandro","The blotted black spots create a nice contrast between the brush strokes within the center and sides. I like it.,41,80,20","Austin","Perfect Abstract painting,50,240,20","Cameron","This one reminds me of a postage stamp, but branches and leaves. Kind of fun.,15,60,20","14"
"23852","","survey-text","259","2008076","0.0-252.0-0.0","A3B84NGQT7Z9WE","","","","{""Q0"":""too simple with no cohesiveness""}","","","","","","","","","","","","","","","","","","","","","","",""
"4204.600000023842","","image-slider-response","260","2012282","0.0-253.0","A3B84NGQT7Z9WE","","","","","-14","","","","","","","","","","","","","","","","","","","","","",""
"4821","","image-button-response","261","2017293","0.0-254.0","A3B84NGQT7Z9WE","img_art/4.jpg","1","","","","","","","","","","","","","","","","","","","","","","","","",""
"932","","image-button-response","262","2018227","0.0-255.0","A3B84NGQT7Z9WE","img_art/4.jpg","1","","","","","","","","","","","","","","","","","","","","","","","","",""
"3659","","image-button-response","263","2021887","0.0-256.0-0.0","A3B84NGQT7Z9WE","img_art/4.jpg","4","","","","","","","","","","","","","","","","","","","","","","","","",""
"1383","","image-button-response","264","2023273","0.0-257.0-0.0","A3B84NGQT7Z9WE","img_art/4.jpg","3","","","","","","","","","","","","","","","","","","","","","","","","",""
"null","","html-keyboard-response","265","2023774","0.0-258.0","A3B84NGQT7Z9WE","<p style=""font-size: 48px;"">+</p>","","","","","null","allTrialResponses","500","1","30","img_art/4.jpg","-14","too simple with no cohesiveness","Austin,Victor,Aaron,Patrick,Cameron,Alejandro","Like the color vibrancy,29,240,20","Hate the color, and just do not get the point.,-13,340,20","It doesn't make me feel anything it just looks like a kid did it.,-30,20,20","Random swirls again,-30,280,20","Looks like the roomba got into dog poop,-30,60,20","Looks like finger nails from the Guinness world record book.,-30,80,20","Victor","Hate the color, and just do not get the point.,-13,340,20","Cameron","Looks like the roomba got into dog poop,-30,60,20","Patrick","Random swirls again,-30,280,20","14"
"5720","","image-button-response_instructions","266","2029512","0.0-259.0","A3B84NGQT7Z9WE","","0","instructions","","","","","","","","","","","","","","","","","","","","","","","",""
"5210","","image-button-response","267","2034728","0.0-260.0","A3B84NGQT7Z9WE","","0","","","","","","","","","","","","","","","","","","","","","","","","",""
