"rt","url","trial_type","trial_index","time_elapsed","internal_node_id","participant_id","stimulus","button_pressed","Name","responses","response","key_press","variableName","fixationTime","condition","trial","photo","subjectRating","subjectResponse","agentsNames","agent_1_Response","agent_2_Response","agent_3_Response","agent_4_Response","agent_5_Response","agent_6_Response","kept_1_name","kept_1_response","kept_2_name","kept_2_response","kept_3_name","kept_3_response","errorCounter"
"303894","external_page_harvard.html","external-html","0","304032","0.0-0.0","A3BWZ6V34W8SXX","","","","","","","","","","","","","","","","","","","","","","","","","","",""
"2518","","image-button-response","1","306553","0.0-1.0","A3BWZ6V34W8SXX","","1","","","","","","","","","","","","","","","","","","","","","","","","",""
"13638","","image-button-response","2","320198","0.0-2.0-0.0","A3BWZ6V34W8SXX","","1","phone","","","","","","","","","","","","","","","","","","","","","","","",""
"14784","","survey-text","3","334985","0.0-3.0-0.0","A3BWZ6V34W8SXX","","","","{""Q0"":""A3BWZ6V34W8SXX""}","","","","","","","","","","","","","","","","","","","","","","",""
"10555","","image-button-response_instructions","4","345543","0.0-4.0","A3BWZ6V34W8SXX","","0","instructions","","","","","","","","","","","","","","","","","","","","","","","",""
"15798","","image-button-response_instructions","5","361343","0.0-5.0","A3BWZ6V34W8SXX","img_art/ins/popularity/ins1.png","0","instructions","","","","","","","","","","","","","","","","","","","","","","","",""
"6699","","image-button-response_instructions","6","368043","0.0-6.0","A3BWZ6V34W8SXX","img_art/ins/popularity/ins2.png","0","instructions","","","","","","","","","","","","","","","","","","","","","","","",""
"5506","","image-button-response_instructions","7","373551","0.0-7.0","A3BWZ6V34W8SXX","img_art/ins/popularity/ins2Extreme.png","0","instructions","","","","","","","","","","","","","","","","","","","","","","","",""
"74809","","image-button-response_instructions","8","448362","0.0-8.0","A3BWZ6V34W8SXX","img_art/ins/popularity/ins3KEEPpop.PNG","0","instructions","","","","","","","","","","","","","","","","","","","","","","","",""
"2580","","image-button-response_instructions","9","450943","0.0-9.0","A3BWZ6V34W8SXX","img_art/ins/popularity/ins3ANamepop.PNG","0","instructions","","","","","","","","","","","","","","","","","","","","","","","",""
"1804","","image-button-response_instructions","10","452748","0.0-10.0","A3BWZ6V34W8SXX","img_art/ins/popularity/ins3ARatingpop.png","0","instructions","","","","","","","","","","","","","","","","","","","","","","","",""
"1752","","image-button-response_instructions","11","454501","0.0-11.0","A3BWZ6V34W8SXX","img_art/ins/popularity/ins3ATextpop.png","0","instructions","","","","","","","","","","","","","","","","","","","","","","","",""
"4531","","image-button-response_instructions","12","459034","0.0-12.0","A3BWZ6V34W8SXX","img_art/ins/popularity/ins3ALikespop.png","0","instructions","","","","","","","","","","","","","","","","","","","","","","","",""
"6155","","image-button-response_instructions","13","465190","0.0-13.0","A3BWZ6V34W8SXX","img_art/ins/popularity/ins3KEEPpop.PNG","0","instructions","","","","","","","","","","","","","","","","","","","","","","","",""
"177560","","image-button-response_instructions","14","642752","0.0-14.0","A3BWZ6V34W8SXX","img_art/ins/popularity/ins3_5RED.png","0","instructions","","","","","","","","","","","","","","","","","","","","","","","",""
"4325","","image-button-response_instructions","15","647078","0.0-15.0","A3BWZ6V34W8SXX","img_art/ins/popularity/ins3KEEPpop.PNG","0","instructions","","","","","","","","","","","","","","","","","","","","","","","",""
"307215","","image-button-response_instructions","16","954294","0.0-16.0","A3BWZ6V34W8SXX","img_art/ins/popularity/ins4KEEPpop.PNG","0","instructions","","","","","","","","","","","","","","","","","","","","","","","",""
"28732","","image-button-response_instructions","17","983028","0.0-17.0","A3BWZ6V34W8SXX","img_art/ins/popularity/ins5KEEPpop.PNG","0","instructions","","","","","","","","","","","","","","","","","","","","","","","",""
"1999","","image-button-response_instructions","18","985027","0.0-18.0","A3BWZ6V34W8SXX","","0","instructions","","","","","","","","","","","","","","","","","","","","","","","",""
"7167","","survey-text","19","992235","0.0-19.0-0.0","A3BWZ6V34W8SXX","","","","{""Q0"":""but""}","","","","","","","","","","","","","","","","","","","","","","",""
"239427","","survey-text","20","1231666","0.0-20.0-0.0","A3BWZ6V34W8SXX","","","","{""Q0"":""kind of odd but I like the colors.""}","","","","","","","","","","","","","","","","","","","","","","",""
"3639.5","","image-slider-response","21","1235308","0.0-21.0","A3BWZ6V34W8SXX","","","","","6","","","","","","","","","","","","","","","","","","","","","",""
"null","","image-button-response","22","1240614","0.0-22.0","A3BWZ6V34W8SXX","img_art/ins/1.jpg","null","","","","","","","","","","","","","","","","","","","","","","","","",""
"496990","","image-button-response","23","1737607","0.0-23.0","A3BWZ6V34W8SXX","img_art/ins/1.jpg","1","","","","","","","","","","","","","","","","","","","","","","","","",""
"2983","","image-button-response","24","1740592","0.0-24.0-0.0","A3BWZ6V34W8SXX","img_art/ins/1.jpg","0","","","","","","","","","","","","","","","","","","","","","","","","",""
"5462","","image-button-response","25","1746058","0.0-25.0-0.0","A3BWZ6V34W8SXX","img_art/ins/1.jpg","4","","","","","","","","","","","","","","","","","","","","","","","","",""
"null","","html-keyboard-response","26","1747061","0.0-26.0","A3BWZ6V34W8SXX","<p style=""font-size: 48px;"">+</p>","","","","","null","allTrialResponses","1000","1","-2","img_art/ins/1.jpg","6","kind of odd but I like the colors.","Allison,Ashley,Beth,Dora,Erika,Jen","looks like a lot of things going on in the mist,20,20,20","I just don't get why these type of art would be popular,-32,40,20","This color reminds me of poo,-46,60,20","looks like what my niece in 3rd grade did this afternoon,-50,80,20","I like the sophisticated brushwork,40,100,20","It reminds me of a candy land dream I had,36,120,20","Ashley","I just don't get why these type of art would be popular,-32,40,20","Allison","looks like a lot of things going on in the mist,20,20,20","Erika","I like the sophisticated brushwork,40,100,20","0"
"17374","","survey-text","27","1764456","0.0-27.0-0.0","A3BWZ6V34W8SXX","","","","{""Q0"":""I love the abstract style and great colors""}","","","","","","","","","","","","","","","","","","","","","","",""
"5133.600000023842","","image-slider-response","28","1769592","0.0-28.0","A3BWZ6V34W8SXX","","","","","27","","","","","","","","","","","","","","","","","","","","","",""
"2259","","image-button-response","29","1774596","0.0-29.0","A3BWZ6V34W8SXX","img_art/ins/2.jpg","4","","","","","","","","","","","","","","","","","","","","","","","","",""
"2159","","image-button-response","30","1776757","0.0-30.0","A3BWZ6V34W8SXX","img_art/ins/2.jpg","2","","","","","","","","","","","","","","","","","","","","","","","","",""
"1620","","image-button-response","31","1778380","0.0-31.0-0.0","A3BWZ6V34W8SXX","img_art/ins/2.jpg","4","","","","","","","","","","","","","","","","","","","","","","","","",""
"5752","","image-button-response","32","1784135","0.0-32.0-0.0","A3BWZ6V34W8SXX","img_art/ins/2.jpg","0","","","","","","","","","","","","","","","","","","","","","","","","",""
"null","","html-keyboard-response","33","1784645","0.0-33.0","A3BWZ6V34W8SXX","<p style=""font-size: 48px;"">+</p>","","","","","null","allTrialResponses","500","1","-1","img_art/ins/2.jpg","27","I love the abstract style and great colors","Allison,Ashley,Kara,Jenna,Erika,Katie","I don't have strong feelings about this,10,20,20","Idk, it is just annoying,-32,40,20","I like the blocks of color arrangements,30,160,20","One of my pet peevs,-48,140,20","I would never be able to compose a sophisticated pallete like this,48,100,20","too much color!,-28,180,20","Kara","I like the blocks of color arrangements,30,160,20","Erika","I would never be able to compose a sophisticated pallete like this,48,100,20","Allison","I don't have strong feelings about this,10,20,20","0"
"9832","","survey-text","34","1794483","0.0-34.0-0.0","A3BWZ6V34W8SXX","","","","{""Q0"":""very nice colors""}","","","","","","","","","","","","","","","","","","","","","","",""
"4623.399999976158","","image-slider-response","35","1799109","0.0-35.0","A3BWZ6V34W8SXX","","","","","19","","","","","","","","","","","","","","","","","","","","","",""
"4411","","image-button-response","36","1804113","0.0-36.0","A3BWZ6V34W8SXX","img_art/ins/3.jpg","0","","","","","","","","","","","","","","","","","","","","","","","","",""
"1665","","image-button-response","37","1805780","0.0-37.0","A3BWZ6V34W8SXX","img_art/ins/3.jpg","1","","","","","","","","","","","","","","","","","","","","","","","","",""
"1221","","image-button-response","38","1807003","0.0-38.0-0.0","A3BWZ6V34W8SXX","img_art/ins/3.jpg","0","","","","","","","","","","","","","","","","","","","","","","","","",""
"4700","","image-button-response","39","1811706","0.0-39.0-0.0","A3BWZ6V34W8SXX","img_art/ins/3.jpg","2","","","","","","","","","","","","","","","","","","","","","","","","",""
"null","","html-keyboard-response","40","1812708","0.0-40.0","A3BWZ6V34W8SXX","<p style=""font-size: 48px;"">+</p>","","","","","null","allTrialResponses","1000","1","0","img_art/ins/3.jpg","19","very nice colors","Allison,Mary,Kara,Leslie,Erika,Rose","enjoy the different shades of blue,22,20,20","I like the overlapping of brushes,41,220,20","calming blue is very nice,36,160,20","It's an alright work,15,200,20","I feel connected to the artist,40,100,20","My daily routine, it's depressing,-20,240,20","Mary","I like the overlapping of brushes,41,220,20","Allison","enjoy the different shades of blue,22,20,20","Kara","calming blue is very nice,36,160,20","0"
"2993","","image-button-response_instructions","41","1815707","0.0-41.0","A3BWZ6V34W8SXX","","0","instructions","","","","","","","","","","","","","","","","","","","","","","","",""
"7633","","survey-likert","42","1823343","0.0-42.0-0.0","A3BWZ6V34W8SXX","","","","{""Q0"":"""",""Q1"":0,""Q2"":1}","","","","","","","","","","","","","","","","","","","","","","",""
"5478","","survey-text","43","1828827","0.0-43.0-0.0","A3BWZ6V34W8SXX","","","","{""Q0"":""rock""}","","","","","","","","","","","","","","","","","","","","","","",""
"17700","","survey-text","44","1846530","0.0-44.0-0.0","A3BWZ6V34W8SXX","","","","{""Q0"":""I love this abstract piece ""}","","","","","","","","","","","","","","","","","","","","","","",""
"4676.200000047684","","image-slider-response","45","1851209","0.0-45.0","A3BWZ6V34W8SXX","","","","","27","","","","","","","","","","","","","","","","","","","","","",""
"3936","","image-button-response","46","1856270","0.0-46.0","A3BWZ6V34W8SXX","img_art/21.jpg","1","","","","","","","","","","","","","","","","","","","","","","","","",""
"1793","","image-button-response","47","1858065","0.0-47.0","A3BWZ6V34W8SXX","img_art/21.jpg","1","","","","","","","","","","","","","","","","","","","","","","","","",""
"3178","","image-button-response","48","1861247","0.0-48.0-0.0","A3BWZ6V34W8SXX","img_art/21.jpg","2","","","","","","","","","","","","","","","","","","","","","","","","",""
"2628","","image-button-response","49","1863878","0.0-49.0-0.0","A3BWZ6V34W8SXX","img_art/21.jpg","5","","","","","","","","","","","","","","","","","","","","","","","","",""
"null","","html-keyboard-response","50","1865389","0.0-50.0","A3BWZ6V34W8SXX","<p style=""font-size: 48px;"">+</p>","","","","","null","allTrialResponses","1500","1","1","img_art/21.jpg","27","I love this abstract piece ","Victoria,Meghan,Miranda,Katie,Elizabeth,Hailey","like the colors,30,400,20","looks like a sunrise, great colors,40,220,20","This looks very interesting because something is happening but I can't tell what.,28,320,20","Immediately a positive response! I like the muted colors. the blurriness calms me. It's serene,40,160,20","Touches the heart,50,20,20","ocean and rocks at the beach,11,200,20","Meghan","looks like a sunrise, great colors,40,220,20","Miranda","This looks very interesting because something is happening but I can't tell what.,28,320,20","Hailey","ocean and rocks at the beach,11,200,20","0"
"23571","","survey-text","51","1888967","0.0-51.0-0.0","A3BWZ6V34W8SXX","","","","{""Q0"":""I don't like this it looks like graffiti ""}","","","","","","","","","","","","","","","","","","","","","","",""
"4548.200000047684","","image-slider-response","52","1893517","0.0-52.0","A3BWZ6V34W8SXX","","","","","-21","","","","","","","","","","","","","","","","","","","","","",""
"3486","","image-button-response","53","1898521","0.0-53.0","A3BWZ6V34W8SXX","img_art/3.jpg","0","","","","","","","","","","","","","","","","","","","","","","","","",""
"1482","","image-button-response","54","1900006","0.0-54.0","A3BWZ6V34W8SXX","img_art/3.jpg","0","","","","","","","","","","","","","","","","","","","","","","","","",""
"5369","","image-button-response","55","1905378","0.0-55.0-0.0","A3BWZ6V34W8SXX","img_art/3.jpg","3","","","","","","","","","","","","","","","","","","","","","","","","",""
"2117","","image-button-response","56","1907498","0.0-56.0-0.0","A3BWZ6V34W8SXX","img_art/3.jpg","5","","","","","","","","","","","","","","","","","","","","","","","","",""
"null","","html-keyboard-response","57","1909005","0.0-57.0","A3BWZ6V34W8SXX","<p style=""font-size: 48px;"">+</p>","","","","","null","allTrialResponses","1500","1","2","img_art/3.jpg","-21","I don't like this it looks like graffiti ","Brittany,Meghan,Miranda,Morgan,Shelby,Hailey","I don't care for art that looks like it was just scribbled.,-19,40,20","I like that it's messy,14,220,20","It just makes me think of blood splattered everywhere.,-31,320,20","Somewhere between a child's art and a poorly drawn battle map.,8,380,20","This makes me feel a bit disturbed,-35,240,20","painted by a 2 year old. cold and boring,-30,200,20","Brittany","I don't care for art that looks like it was just scribbled.,-19,40,20","Morgan","Somewhere between a child's art and a poorly drawn battle map.,8,380,20","Hailey","painted by a 2 year old. cold and boring,-30,200,20","0"
"13543","","survey-text","58","1922554","0.0-58.0-0.0","A3BWZ6V34W8SXX","","","","{""Q0"":""a bit simple but pretty""}","","","","","","","","","","","","","","","","","","","","","","",""
"3017.5999999046326","","image-slider-response","59","1925574","0.0-59.0","A3BWZ6V34W8SXX","","","","","12","","","","","","","","","","","","","","","","","","","","","",""
"null","","image-button-response","60","1930584","0.0-60.0","A3BWZ6V34W8SXX","img_art/26.jpg","null","","","","","","","","","","","","","","","","","","","","","","","","",""
"374","","image-button-response","61","1930960","0.0-61.0","A3BWZ6V34W8SXX","img_art/26.jpg","2","","","","","","","","","","","","","","","","","","","","","","","","",""
"2537","","image-button-response","62","1933500","0.0-62.0-0.0","A3BWZ6V34W8SXX","img_art/26.jpg","4","","","","","","","","","","","","","","","","","","","","","","","","",""
"3601","","image-button-response","63","1937104","0.0-63.0-0.0","A3BWZ6V34W8SXX","img_art/26.jpg","1","","","","","","","","","","","","","","","","","","","","","","","","",""
"null","","html-keyboard-response","64","1938107","0.0-64.0","A3BWZ6V34W8SXX","<p style=""font-size: 48px;"">+</p>","","","","","null","allTrialResponses","1000","1","3","img_art/26.jpg","12","a bit simple but pretty","Brittany,Leah,Maria,Morgan,Mariah,Hailey","It looks boring and too rough.,-9,40,20","Really like it, a very nice neighborhood scene to me,42,360,20","fairly neutral, really,8,120,20","Confusing park picture.,8,380,20","Pleasant but bland.,10,140,20","bedroom in the outdoors. warm,9,200,20","Maria","fairly neutral, really,8,120,20","Mariah","Pleasant but bland.,10,140,20","Leah","Really like it, a very nice neighborhood scene to me,42,360,20","0"
"10452","","survey-text","65","1948565","0.0-65.0-0.0","A3BWZ6V34W8SXX","","","","{""Q0"":""warm and pretty""}","","","","","","","","","","","","","","","","","","","","","","",""
"2961.7000000476837","","image-slider-response","66","1951529","0.0-66.0","A3BWZ6V34W8SXX","","","","","30","","","","","","","","","","","","","","","","","","","","","",""
"1803","","image-button-response","67","1956533","0.0-67.0","A3BWZ6V34W8SXX","img_art/1.jpg","1","","","","","","","","","","","","","","","","","","","","","","","","",""
"1496","","image-button-response","68","1958031","0.0-68.0","A3BWZ6V34W8SXX","img_art/1.jpg","1","","","","","","","","","","","","","","","","","","","","","","","","",""
"2241","","image-button-response","69","1960275","0.0-69.0-0.0","A3BWZ6V34W8SXX","img_art/1.jpg","4","","","","","","","","","","","","","","","","","","","","","","","","",""
"1646","","image-button-response","70","1961924","0.0-70.0-0.0","A3BWZ6V34W8SXX","img_art/1.jpg","3","","","","","","","","","","","","","","","","","","","","","","","","",""
"null","","html-keyboard-response","71","1963427","0.0-71.0","A3BWZ6V34W8SXX","<p style=""font-size: 48px;"">+</p>","","","","","null","allTrialResponses","1500","1","4","img_art/1.jpg","30","warm and pretty","Sara,Leah,Maria,Kaitlyn,Mariah,Marissa","I feel uneasy looking at this,-41,160,20","Pretty intermeshing of colors, happy,32,360,20","the bright colours evoke the 90s, and not their best part,-10,120,20","Interesting blend of colors,9,80,20","Colors are pleasant, but feels incredibly generic.,9,140,20","It is beautiful, I really enjoy the colors,32,160,20","Leah","Pretty intermeshing of colors, happy,32,360,20","Mariah","Colors are pleasant, but feels incredibly generic.,9,140,20","Kaitlyn","Interesting blend of colors,9,80,20","0"
"24069","","survey-text","72","1987502","0.0-72.0-0.0","A3BWZ6V34W8SXX","","","","{""Q0"":""I'm not sure what this is but it's interesting""}","","","","","","","","","","","","","","","","","","","","","","",""
"7565","","image-slider-response","73","1995069","0.0-73.0","A3BWZ6V34W8SXX","","","","","18","","","","","","","","","","","","","","","","","","","","","",""
"null","","image-button-response","74","2000073","0.0-74.0","A3BWZ6V34W8SXX","img_art/9.jpg","null","","","","","","","","","","","","","","","","","","","","","","","","",""
"985","","image-button-response","75","2001060","0.0-75.0","A3BWZ6V34W8SXX","img_art/9.jpg","3","","","","","","","","","","","","","","","","","","","","","","","","",""
"2503","","image-button-response","76","2003567","0.0-76.0-0.0","A3BWZ6V34W8SXX","img_art/9.jpg","5","","","","","","","","","","","","","","","","","","","","","","","","",""
"1788","","image-button-response","77","2005359","0.0-77.0-0.0","A3BWZ6V34W8SXX","img_art/9.jpg","2","","","","","","","","","","","","","","","","","","","","","","","","",""
"null","","html-keyboard-response","78","2005870","0.0-78.0","A3BWZ6V34W8SXX","<p style=""font-size: 48px;"">+</p>","","","","","null","allTrialResponses","500","1","5","img_art/9.jpg","18","I'm not sure what this is but it's interesting","Hannah,Leah,Andrea,Kaitlyn,Mariah,Katherine","Someone lying in bed?  Don't care for it.,-14,240,20","Depressing to me, like a dark dream,-11,360,20","Sleeping woman in a cave. Makes me feel safe.,20,240,20","Focal point is interesting,2,80,20","Pleasant in all ways.,27,140,20","Idk what is in the middle but the blurry image makes it seem like the subject is of the painters interest,22,120,20","Kaitlyn","Focal point is interesting,2,80,20","Katherine","Idk what is in the middle but the blurry image makes it seem like the subject is of the painters interest,22,120,20","Andrea","Sleeping woman in a cave. Makes me feel safe.,20,240,20","0"
"4781","","survey-text","79","2010663","0.0-79.0-0.0","A3BWZ6V34W8SXX","","","","{""Q0"":""sky""}","","","","","","","","","","","","","","","","","","","","","","",""
"11540","","survey-text","80","2022206","0.0-80.0-0.0","A3BWZ6V34W8SXX","","","","{""Q0"":""strange but interesting""}","","","","","","","","","","","","","","","","","","","","","","",""
"6407.5","","image-slider-response","81","2028617","0.0-81.0","A3BWZ6V34W8SXX","","","","","2","","","","","","","","","","","","","","","","","","","","","",""
"4535","","image-button-response","82","2033621","0.0-82.0","A3BWZ6V34W8SXX","img_art/16.jpg","0","","","","","","","","","","","","","","","","","","","","","","","","",""
"832","","image-button-response","83","2034456","0.0-83.0","A3BWZ6V34W8SXX","img_art/16.jpg","1","","","","","","","","","","","","","","","","","","","","","","","","",""
"840","","image-button-response","84","2035299","0.0-84.0-0.0","A3BWZ6V34W8SXX","img_art/16.jpg","0","","","","","","","","","","","","","","","","","","","","","","","","",""
"7497","","image-button-response","85","2042799","0.0-85.0-0.0","A3BWZ6V34W8SXX","img_art/16.jpg","5","","","","","","","","","","","","","","","","","","","","","","","","",""
"null","","html-keyboard-response","86","2043302","0.0-86.0","A3BWZ6V34W8SXX","<p style=""font-size: 48px;"">+</p>","","","","","null","allTrialResponses","500","1","6","img_art/16.jpg","2","strange but interesting","Makayla,Angelica,Andrea,Kaitlyn,Bailey,Katherine","It's a little unsettling,2,80,20","This is creepy and puerile.,-45,280,20","I think it's about child abuse. The teddy bear represents innocence and the dark shape is approaching it.,40,240,20","The bear is a weird choice,-22,80,20","Creeps me out. Like..really creeps me out.,-48,360,20","Super weird. Id like to know more about it,24,120,20","Angelica","This is creepy and puerile.,-45,280,20","Makayla","It's a little unsettling,2,80,20","Katherine","Super weird. Id like to know more about it,24,120,20","0"
"15551","","survey-text","87","2058860","0.0-87.0-0.0","A3BWZ6V34W8SXX","","","","{""Q0"":""very pretty and delicate""}","","","","","","","","","","","","","","","","","","","","","","",""
"4629.199999928474","","image-slider-response","88","2063491","0.0-88.0","A3BWZ6V34W8SXX","","","","","25","","","","","","","","","","","","","","","","","","","","","",""
"3077","","image-button-response","89","2068494","0.0-89.0","A3BWZ6V34W8SXX","img_art/17.jpg","2","","","","","","","","","","","","","","","","","","","","","","","","",""
"1400","","image-button-response","90","2069897","0.0-90.0","A3BWZ6V34W8SXX","img_art/17.jpg","0","","","","","","","","","","","","","","","","","","","","","","","","",""
"1394","","image-button-response","91","2071292","0.0-91.0-0.0","A3BWZ6V34W8SXX","img_art/17.jpg","2","","","","","","","","","","","","","","","","","","","","","","","","",""
"1420","","image-button-response","92","2072716","0.0-92.0-0.0","A3BWZ6V34W8SXX","img_art/17.jpg","0","","","","","","","","","","","","","","","","","","","","","","","","",""
"2665","","image-button-response","93","2079400","0.0-92.1-0.1","A3BWZ6V34W8SXX","img_art/17.jpg","4","","","","","","","","","","","","","","","","","","","","","","","","",""
"null","","html-keyboard-response","94","2080402","0.0-93.0","A3BWZ6V34W8SXX","<p style=""font-size: 48px;"">+</p>","","","","","null","allTrialResponses","1000","1","7","img_art/17.jpg","25","very pretty and delicate","Makayla,Angelica,Mackenzie,Nicole,Jordan,Katherine","I feel okay , it's like a tree,28,80,20","This could have been good but was poorly done.,-5,280,20","Very fun textures,32,20,20","Feels nostalgic somehow,31,20,20","absolutely gorgeous, I feel solitude again, but the beauty is there also,50,20,20","Looks like a weird blurry heaven again! I dig,32,120,20","Makayla","I feel okay , it's like a tree,28,80,20","Mackenzie","Very fun textures,32,20,20","Jordan","absolutely gorgeous, I feel solitude again, but the beauty is there also,50,20,20","2"
"14553","","survey-text","95","2094961","0.0-94.0-0.0","A3BWZ6V34W8SXX","","","","{""Q0"":""sort of odd but very evocative ""}","","","","","","","","","","","","","","","","","","","","","","",""
"3103.5","","image-slider-response","96","2098067","0.0-95.0","A3BWZ6V34W8SXX","","","","","8","","","","","","","","","","","","","","","","","","","","","",""
"4896","","image-button-response","97","2103075","0.0-96.0","A3BWZ6V34W8SXX","img_art/29.jpg","0","","","","","","","","","","","","","","","","","","","","","","","","",""
"2742","","image-button-response","98","2105820","0.0-97.0","A3BWZ6V34W8SXX","img_art/29.jpg","2","","","","","","","","","","","","","","","","","","","","","","","","",""
"1296","","image-button-response","99","2107119","0.0-98.0-0.0","A3BWZ6V34W8SXX","img_art/29.jpg","0","","","","","","","","","","","","","","","","","","","","","","","","",""
"5167","","image-button-response","100","2112290","0.0-99.0-0.0","A3BWZ6V34W8SXX","img_art/29.jpg","4","","","","","","","","","","","","","","","","","","","","","","","","",""
"null","","html-keyboard-response","101","2113793","0.0-100.0","A3BWZ6V34W8SXX","<p style=""font-size: 48px;"">+</p>","","","","","null","allTrialResponses","1500","1","8","img_art/29.jpg","8","sort of odd but very evocative ","Makayla,Brooke,Mackenzie,Samantha,Jordan,Gabriela","Looks like a jail cell,-15,80,20","Lines and light are clean but subject doesn't interest me,0,60,20","The light source is confusing, but still interesting to look at,11,20,20","I love this things almost hidden in it like paint brush and other details,50,140,20","Yeah, I don't know. It's clearly a situation where art is the reject of something more,-27,20,20","I like that it looks like a scene from perhaps a failed painted project,10,140,20","Mackenzie","The light source is confusing, but still interesting to look at,11,20,20","Makayla","Looks like a jail cell,-15,80,20","Jordan","Yeah, I don't know. It's clearly a situation where art is the reject of something more,-27,20,20","2"
"24441","","survey-text","102","2138241","0.0-101.0-0.0","A3BWZ6V34W8SXX","","","","{""Q0"":""great colors but not sure about scribbles""}","","","","","","","","","","","","","","","","","","","","","","",""
"3284.5","","image-slider-response","103","2141528","0.0-102.0","A3BWZ6V34W8SXX","","","","","-18","","","","","","","","","","","","","","","","","","","","","",""
"3166","","image-button-response","104","2146531","0.0-103.0","A3BWZ6V34W8SXX","img_art/27.jpg","1","","","","","","","","","","","","","","","","","","","","","","","","",""
"1530","","image-button-response","105","2148064","0.0-104.0","A3BWZ6V34W8SXX","img_art/27.jpg","3","","","","","","","","","","","","","","","","","","","","","","","","",""
"1272","","image-button-response","106","2149339","0.0-105.0-0.0","A3BWZ6V34W8SXX","img_art/27.jpg","1","","","","","","","","","","","","","","","","","","","","","","","","",""
"2485","","image-button-response","107","2151827","0.0-106.0-0.0","A3BWZ6V34W8SXX","img_art/27.jpg","5","","","","","","","","","","","","","","","","","","","","","","","","",""
"null","","html-keyboard-response","108","2152841","0.0-107.0","A3BWZ6V34W8SXX","<p style=""font-size: 48px;"">+</p>","","","","","null","allTrialResponses","1000","1","9","img_art/27.jpg","-18","great colors but not sure about scribbles","Makayla,Diana,Mackenzie,Molly,Jordan,Amber","Calming sky , relaxing,23,80,20","I don't care for the green scribbles; not sure what they are. But I adore the colors in the background.,24,380,20","The color palette isn't my taste,-24,20,20","No clue what to say.,0,340,20","two warring cities, separated by a small desert,50,20,20","I like the colors.,6,200,20","Molly","No clue what to say.,0,340,20","Diana","I don't care for the green scribbles; not sure what they are. But I adore the colors in the background.,24,380,20","Amber","I like the colors.,6,200,20","2"
"14428","","survey-text","109","2167276","0.0-108.0-0.0","A3BWZ6V34W8SXX","","","","{""Q0"":""I love the colors and complex style""}","","","","","","","","","","","","","","","","","","","","","","",""
"3449","","image-slider-response","110","2170727","0.0-109.0","A3BWZ6V34W8SXX","","","","","36","","","","","","","","","","","","","","","","","","","","","",""
"2820","","image-button-response","111","2175730","0.0-110.0","A3BWZ6V34W8SXX","img_art/18.jpg","1","","","","","","","","","","","","","","","","","","","","","","","","",""
"1246","","image-button-response","112","2176978","0.0-111.0","A3BWZ6V34W8SXX","img_art/18.jpg","1","","","","","","","","","","","","","","","","","","","","","","","","",""
"2989","","image-button-response","113","2179970","0.0-112.0-0.0","A3BWZ6V34W8SXX","img_art/18.jpg","2","","","","","","","","","","","","","","","","","","","","","","","","",""
"3651","","image-button-response","114","2183626","0.0-113.0-0.0","A3BWZ6V34W8SXX","img_art/18.jpg","4","","","","","","","","","","","","","","","","","","","","","","","","",""
"null","","html-keyboard-response","115","2184629","0.0-114.0","A3BWZ6V34W8SXX","<p style=""font-size: 48px;"">+</p>","","","","","null","allTrialResponses","1000","1","10","img_art/18.jpg","36","I love the colors and complex style","Rachel,Diana,Alicia,Molly,Lindsey,Amber","This one seems rather ghoulish to me.,-41,80,20","This painting reminds me of the 4 horsemen of the apocalypse. It feels haunting.,31,380,20","Skeletons, death, bleak colors, still kinda like it.,16,120,20","White and yellow look awesome and the picture's dynamics are wonderful.,30,340,20","Interesting piece - gives you more the more you look at it. I like it but wouldn't buy it.,11,400,20","ugly and lots of movement,-6,200,20","Diana","This painting reminds me of the 4 horsemen of the apocalypse. It feels haunting.,31,380,20","Alicia","Skeletons, death, bleak colors, still kinda like it.,16,120,20","Lindsey","Interesting piece - gives you more the more you look at it. I like it but wouldn't buy it.,11,400,20","2"
"6858","","survey-text","116","2191497","0.0-115.0-0.0","A3BWZ6V34W8SXX","","","","{""Q0"":""our""}","","","","","","","","","","","","","","","","","","","","","","",""
"42249","","survey-text","117","2233748","0.0-116.0-0.0","A3BWZ6V34W8SXX","","","","{""Q0"":""I love all of these different objects they blend well""}","","","","","","","","","","","","","","","","","","","","","","",""
"3731.899999976158","","image-slider-response","118","2237482","0.0-117.0","A3BWZ6V34W8SXX","","","","","18","","","","","","","","","","","","","","","","","","","","","",""
"null","","image-button-response","119","2242486","0.0-118.0","A3BWZ6V34W8SXX","img_art/8.jpg","null","","","","","","","","","","","","","","","","","","","","","","","","",""
"332","","image-button-response","120","2242820","0.0-119.0","A3BWZ6V34W8SXX","img_art/8.jpg","2","","","","","","","","","","","","","","","","","","","","","","","","",""
"1188","","image-button-response","121","2244010","0.0-120.0-0.0","A3BWZ6V34W8SXX","img_art/8.jpg","1","","","","","","","","","","","","","","","","","","","","","","","","",""
"2559","","image-button-response","122","2246572","0.0-121.0-0.0","A3BWZ6V34W8SXX","img_art/8.jpg","4","","","","","","","","","","","","","","","","","","","","","","","","",""
"null","","html-keyboard-response","123","2248081","0.0-122.0","A3BWZ6V34W8SXX","<p style=""font-size: 48px;"">+</p>","","","","","null","allTrialResponses","1500","1","11","img_art/8.jpg","18","I love all of these different objects they blend well","Cassidy,Diana,Alicia,Allison,Lindsey,Destiny","I like the colors,10,140,20","I don't care for the piece, but I appreciate the talent that it took to create it.,22,380,20","wow. blocky, angled, neat colors. The faces are what makes it. love it.,45,120,20","Eclectic city with good mix of colors.,10,140,20","Pleasant colors, lots of interest. Not sure what's going on but I like it.,20,400,20","a cute little cute with some protectors,25,360,20","Alicia","wow. blocky, angled, neat colors. The faces are what makes it. love it.,45,120,20","Diana","I don't care for the piece, but I appreciate the talent that it took to create it.,22,380,20","Lindsey","Pleasant colors, lots of interest. Not sure what's going on but I like it.,20,400,20","2"
"20230","","survey-text","124","2268317","0.0-123.0-0.0","A3BWZ6V34W8SXX","","","","{""Q0"":""simple but with great colors and execution ""}","","","","","","","","","","","","","","","","","","","","","","",""
"5045.399999976158","","image-slider-response","125","2273365","0.0-124.0","A3BWZ6V34W8SXX","","","","","35","","","","","","","","","","","","","","","","","","","","","",""
"3203","","image-button-response","126","2278384","0.0-125.0","A3BWZ6V34W8SXX","img_art/6.jpg","1","","","","","","","","","","","","","","","","","","","","","","","","",""
"770","","image-button-response","127","2279157","0.0-126.0","A3BWZ6V34W8SXX","img_art/6.jpg","1","","","","","","","","","","","","","","","","","","","","","","","","",""
"3460","","image-button-response","128","2282620","0.0-127.0-0.0","A3BWZ6V34W8SXX","img_art/6.jpg","0","","","","","","","","","","","","","","","","","","","","","","","","",""
"2808","","image-button-response","129","2285431","0.0-128.0-0.0","A3BWZ6V34W8SXX","img_art/6.jpg","4","","","","","","","","","","","","","","","","","","","","","","","","",""
"null","","html-keyboard-response","130","2286933","0.0-129.0","A3BWZ6V34W8SXX","<p style=""font-size: 48px;"">+</p>","","","","","null","allTrialResponses","1500","1","12","img_art/6.jpg","35","simple but with great colors and execution ","Alexis,Diana,Alicia,Claire,Lindsey,Olivia","The feeling of isolation with so little objects. Great,20,100,20","I love it. It reminds me of a bird sitting on a wall.,26,380,20","kids book cover, uninteresting.,-10,120,20","very minimalistic,22,260,20","Simple, warm, hopeful.,12,400,20","surviving the dryness of life,30,40,20","Diana","I love it. It reminds me of a bird sitting on a wall.,26,380,20","Alexis","The feeling of isolation with so little objects. Great,20,100,20","Lindsey","Simple, warm, hopeful.,12,400,20","2"
"16629","","survey-text","131","2303568","0.0-130.0-0.0","A3BWZ6V34W8SXX","","","","{""Q0"":""weird but in a good way""}","","","","","","","","","","","","","","","","","","","","","","",""
"2653.4000000953674","","image-slider-response","132","2306224","0.0-131.0","A3BWZ6V34W8SXX","","","","","13","","","","","","","","","","","","","","","","","","","","","",""
"2306","","image-button-response","133","2311228","0.0-132.0","A3BWZ6V34W8SXX","img_art/23.jpg","1","","","","","","","","","","","","","","","","","","","","","","","","",""
"661","","image-button-response","134","2311892","0.0-133.0","A3BWZ6V34W8SXX","img_art/23.jpg","1","","","","","","","","","","","","","","","","","","","","","","","","",""
"6003","","image-button-response","135","2317897","0.0-134.0-0.0","A3BWZ6V34W8SXX","img_art/23.jpg","0","","","","","","","","","","","","","","","","","","","","","","","","",""
"2724","","image-button-response","136","2320625","0.0-135.0-0.0","A3BWZ6V34W8SXX","img_art/23.jpg","3","","","","","","","","","","","","","","","","","","","","","","","","",""
"null","","html-keyboard-response","137","2321638","0.0-136.0","A3BWZ6V34W8SXX","<p style=""font-size: 48px;"">+</p>","","","","","null","allTrialResponses","1000","1","13","img_art/23.jpg","13","weird but in a good way","Alexis,Diana,Jenna,Alyssa,Lindsey,Mikayla","Pretty cool. I love the white, reminds me of people lined up.,28,100,20","I thought this art was exciting and it reminded me of dancing people.,12,380,20","awesome colors. love the white drawing the eye to the center. oddly comforting.,50,360,20","Very bright and eye catching.The White silhouettes remind me of people celebrating.,31,160,20","Too much contrasting colors together. I hate it.,-50,400,20","So beautiful with the white accents.,50,300,20","Diana","I thought this art was exciting and it reminded me of dancing people.,12,380,20","Alexis","Pretty cool. I love the white, reminds me of people lined up.,28,100,20","Alyssa","Very bright and eye catching.The White silhouettes remind me of people celebrating.,31,160,20","2"
"30764","","survey-text","138","2352409","0.0-137.0-0.0","A3BWZ6V34W8SXX","","","","{""Q0"":""I love the delicate strokes and subtle colors ""}","","","","","","","","","","","","","","","","","","","","","","",""
"2619.2000000476837","","image-slider-response","139","2355031","0.0-138.0","A3BWZ6V34W8SXX","","","","","40","","","","","","","","","","","","","","","","","","","","","",""
"2278","","image-button-response","140","2360042","0.0-139.0","A3BWZ6V34W8SXX","img_art/11.jpg","4","","","","","","","","","","","","","","","","","","","","","","","","",""
"751","","image-button-response","141","2360796","0.0-140.0","A3BWZ6V34W8SXX","img_art/11.jpg","4","","","","","","","","","","","","","","","","","","","","","","","","",""
"1161","","image-button-response","142","2361960","0.0-141.0-0.0","A3BWZ6V34W8SXX","img_art/11.jpg","3","","","","","","","","","","","","","","","","","","","","","","","","",""
"3850","","image-button-response","143","2365813","0.0-142.0-0.0","A3BWZ6V34W8SXX","img_art/11.jpg","2","","","","","","","","","","","","","","","","","","","","","","","","",""
"null","","html-keyboard-response","144","2366327","0.0-143.0","A3BWZ6V34W8SXX","<p style=""font-size: 48px;"">+</p>","","","","","null","allTrialResponses","500","1","14","img_art/11.jpg","40","I love the delicate strokes and subtle colors ","Alexis,Diana,Katelyn,Alyssa,Madeline,Caitlin","Don't like cityscapes, which this picture reminds me of,-29,100,20","It makes my head feel dizzy. So I rated it lower.,-25,380,20","I like the dark lines and it interests me,13,100,20","Its interesting.,20,160,20","I like the vibe of the painting,-3,40,20","Busy, busy oceanside city.,-10,80,20","Madeline","I like the vibe of the painting,-3,40,20","Alyssa","Its interesting.,20,160,20","Katelyn","I like the dark lines and it interests me,13,100,20","2"
"8067","","survey-text","145","2374401","0.0-144.0-0.0","A3BWZ6V34W8SXX","","","","{""Q0"":""strange but okay""}","","","","","","","","","","","","","","","","","","","","","","",""
"3548.7000000476837","","image-slider-response","146","2377952","0.0-145.0","A3BWZ6V34W8SXX","","","","","-13","","","","","","","","","","","","","","","","","","","","","",""
"null","","image-button-response","147","2382956","0.0-146.0","A3BWZ6V34W8SXX","img_art/28.jpg","null","","","","","","","","","","","","","","","","","","","","","","","","",""
"1257","","image-button-response","148","2384216","0.0-147.0","A3BWZ6V34W8SXX","img_art/28.jpg","2","","","","","","","","","","","","","","","","","","","","","","","","",""
"2745","","image-button-response","149","2386964","0.0-148.0-0.0","A3BWZ6V34W8SXX","img_art/28.jpg","4","","","","","","","","","","","","","","","","","","","","","","","","",""
"1198","","image-button-response","150","2388166","0.0-149.0-0.0","A3BWZ6V34W8SXX","img_art/28.jpg","3","","","","","","","","","","","","","","","","","","","","","","","","",""
"null","","html-keyboard-response","151","2389169","0.0-150.0","A3BWZ6V34W8SXX","<p style=""font-size: 48px;"">+</p>","","","","","null","allTrialResponses","1000","1","15","img_art/28.jpg","-13","strange but okay","Lauren,Breanna,Katelyn,Alyssa,Madeline,Autumn","I feel that the image is invoking a sense of negativity.,-15,340,20","The colors are depressing,-5,380,20","Just all blurs together for me. No substance.,-23,100,20","Not a fan of the bleak and dreary colors,-10,160,20","It is a bit drab,-10,40,20","Looks yucky and poor.,-33,340,20","Katelyn","Just all blurs together for me. No substance.,-23,100,20","Madeline","It is a bit drab,-10,40,20","Alyssa","Not a fan of the bleak and dreary colors,-10,160,20","2"
"4469","","survey-text","152","2393649","0.0-151.0-0.0","A3BWZ6V34W8SXX","","","","{""Q0"":""course""}","","","","","","","","","","","","","","","","","","","","","","",""
"8620","","survey-text","153","2402272","0.0-152.0-0.0","A3BWZ6V34W8SXX","","","","{""Q0"":""strange but okay""}","","","","","","","","","","","","","","","","","","","","","","",""
"4956.5","","image-slider-response","154","2407231","0.0-153.0","A3BWZ6V34W8SXX","","","","","-7","","","","","","","","","","","","","","","","","","","","","",""
"3120","","image-button-response","155","2412235","0.0-154.0","A3BWZ6V34W8SXX","img_art/2.jpg","1","","","","","","","","","","","","","","","","","","","","","","","","",""
"792","","image-button-response","156","2413030","0.0-155.0","A3BWZ6V34W8SXX","img_art/2.jpg","1","","","","","","","","","","","","","","","","","","","","","","","","",""
"1643","","image-button-response","157","2414675","0.0-156.0-0.0","A3BWZ6V34W8SXX","img_art/2.jpg","0","","","","","","","","","","","","","","","","","","","","","","","","",""
"3283","","image-button-response","158","2417961","0.0-157.0-0.0","A3BWZ6V34W8SXX","img_art/2.jpg","4","","","","","","","","","","","","","","","","","","","","","","","","",""
"null","","html-keyboard-response","159","2418963","0.0-158.0","A3BWZ6V34W8SXX","<p style=""font-size: 48px;"">+</p>","","","","","null","allTrialResponses","1000","1","16","img_art/2.jpg","-7","strange but okay","Sarah,Kaitlin,Katelyn,Alyssa,Madeline,Kaylee","nope. just looks like a mess,-28,180,20","another confusing piece of art,-12,60,20","Looks childish and i dont like the texture,-25,100,20","Its meh. Doesnt illicit any strong feelings in me,1,160,20","I don't really like this style,-5,40,20","its ugly af to be honest,-50,200,20","Kaitlin","another confusing piece of art,-12,60,20","Sarah","nope. just looks like a mess,-28,180,20","Madeline","I don't really like this style,-5,40,20","2"
"17008","","survey-text","160","2435979","0.0-159.0-0.0","A3BWZ6V34W8SXX","","","","{""Q0"":""I love the execution and contrasting colors""}","","","","","","","","","","","","","","","","","","","","","","",""
"4071.100000023842","","image-slider-response","161","2440052","0.0-160.0","A3BWZ6V34W8SXX","","","","","38","","","","","","","","","","","","","","","","","","","","","",""
"null","","image-button-response","162","2445056","0.0-161.0","A3BWZ6V34W8SXX","img_art/20.jpg","null","","","","","","","","","","","","","","","","","","","","","","","","",""
"1032","","image-button-response","163","2446091","0.0-162.0","A3BWZ6V34W8SXX","img_art/20.jpg","1","","","","","","","","","","","","","","","","","","","","","","","","",""
"1671","","image-button-response","164","2447765","0.0-163.0-0.0","A3BWZ6V34W8SXX","img_art/20.jpg","0","","","","","","","","","","","","","","","","","","","","","","","","",""
"3072","","image-button-response","165","2450840","0.0-164.0-0.0","A3BWZ6V34W8SXX","img_art/20.jpg","5","","","","","","","","","","","","","","","","","","","","","","","","",""
"null","","html-keyboard-response","166","2451342","0.0-165.0","A3BWZ6V34W8SXX","<p style=""font-size: 48px;"">+</p>","","","","","null","allTrialResponses","500","1","17","img_art/20.jpg","38","I love the execution and contrasting colors","Sarah,Kaitlin,Jacqueline,Kimberly,Madeline,Cynthia","i ind of like this, it's saying something but not my style,6,180,20","i can feel the intensity in this,11,60,20","Looks like a refinery dumping shit into the water.,-40,300,20","Something bad has happened TO reality,-23,260,20","Looks somewhat dark and emotional,-10,40,20","Curious about what lies here,10,320,20","Kaitlin","i can feel the intensity in this,11,60,20","Sarah","i ind of like this, it's saying something but not my style,6,180,20","Cynthia","Curious about what lies here,10,320,20","2"
"9126","","survey-text","167","2460475","0.0-166.0-0.0","A3BWZ6V34W8SXX","","","","{""Q0"":""looks gruesome ""}","","","","","","","","","","","","","","","","","","","","","","",""
"4112.399999976158","","image-slider-response","168","2464589","0.0-167.0","A3BWZ6V34W8SXX","","","","","-26","","","","","","","","","","","","","","","","","","","","","",""
"2805","","image-button-response","169","2469593","0.0-168.0","A3BWZ6V34W8SXX","img_art/25.jpg","1","","","","","","","","","","","","","","","","","","","","","","","","",""
"776","","image-button-response","170","2470372","0.0-169.0","A3BWZ6V34W8SXX","img_art/25.jpg","1","","","","","","","","","","","","","","","","","","","","","","","","",""
"4672","","image-button-response","171","2475047","0.0-170.0-0.0","A3BWZ6V34W8SXX","img_art/25.jpg","4","","","","","","","","","","","","","","","","","","","","","","","","",""
"1370","","image-button-response","172","2476421","0.0-171.0-0.0","A3BWZ6V34W8SXX","img_art/25.jpg","3","","","","","","","","","","","","","","","","","","","","","","","","",""
"null","","html-keyboard-response","173","2477423","0.0-172.0","A3BWZ6V34W8SXX","<p style=""font-size: 48px;"">+</p>","","","","","null","allTrialResponses","1000","1","18","img_art/25.jpg","-26","looks gruesome ","Sarah,Kaitlin,Emily,Courtney,Sophia,Cynthia","green is really cool, and the pieces in black fit together and are interesting,20,180,20","i feel a bit dull, a bit scared,-20,60,20","Low skill not impressed.,-14,40,20","That on i find a bit creapy.,-19,280,20","This one just has a dark feeling to me.,-50,280,20","Somewhat feel protected by a messenger,33,320,20","Kaitlin","i feel a bit dull, a bit scared,-20,60,20","Sophia","This one just has a dark feeling to me.,-50,280,20","Courtney","That on i find a bit creapy.,-19,280,20","2"
"9159","","survey-text","174","2486590","0.0-173.0-0.0","A3BWZ6V34W8SXX","","","","{""Q0"":""strange but cool""}","","","","","","","","","","","","","","","","","","","","","","",""
"2663.100000023842","","image-slider-response","175","2489255","0.0-174.0","A3BWZ6V34W8SXX","","","","","24","","","","","","","","","","","","","","","","","","","","","",""
"3016","","image-button-response","176","2494264","0.0-175.0","A3BWZ6V34W8SXX","img_art/10.jpg","2","","","","","","","","","","","","","","","","","","","","","","","","",""
"747","","image-button-response","177","2495014","0.0-176.0","A3BWZ6V34W8SXX","img_art/10.jpg","2","","","","","","","","","","","","","","","","","","","","","","","","",""
"3831","","image-button-response","178","2498848","0.0-177.0-0.0","A3BWZ6V34W8SXX","img_art/10.jpg","4","","","","","","","","","","","","","","","","","","","","","","","","",""
"1562","","image-button-response","179","2500413","0.0-178.0-0.0","A3BWZ6V34W8SXX","img_art/10.jpg","5","","","","","","","","","","","","","","","","","","","","","","","","",""
"null","","html-keyboard-response","180","2501923","0.0-179.0","A3BWZ6V34W8SXX","<p style=""font-size: 48px;"">+</p>","","","","","null","allTrialResponses","1500","1","19","img_art/10.jpg","24","strange but cool","Briana,Kaitlin,Emma,Courtney,Sophia,Sydney","It confuses me. I dont know whats going on,14,400,20","awww... this looks very nice,32,60,20","Feels musical .....,40,60,20","Thats a horses head,10,280,20","This piece is very intriguing to me.,3,280,20","This piece is unusual in a way that makes me uncomfortable.,-5,320,20","Emma","Feels musical .....,40,60,20","Sophia","This piece is very intriguing to me.,3,280,20","Sydney","This piece is unusual in a way that makes me uncomfortable.,-5,320,20","2"
"16771","","survey-text","181","2518702","0.0-180.0-0.0","A3BWZ6V34W8SXX","","","","{""Q0"":""looks like a flowering thicket I love it""}","","","","","","","","","","","","","","","","","","","","","","",""
"2684.600000023842","","image-slider-response","182","2521389","0.0-181.0","A3BWZ6V34W8SXX","","","","","27","","","","","","","","","","","","","","","","","","","","","",""
"2839","","image-button-response","183","2526396","0.0-182.0","A3BWZ6V34W8SXX","img_art/15.jpg","1","","","","","","","","","","","","","","","","","","","","","","","","",""
"46595","","image-button-response","184","2572993","0.0-183.0","A3BWZ6V34W8SXX","img_art/15.jpg","2","","","","","","","","","","","","","","","","","","","","","","","","",""
"1204","","image-button-response","185","2574200","0.0-184.0-0.0","A3BWZ6V34W8SXX","img_art/15.jpg","1","","","","","","","","","","","","","","","","","","","","","","","","",""
"4814","","image-button-response","186","2579016","0.0-185.0-0.0","A3BWZ6V34W8SXX","img_art/15.jpg","0","","","","","","","","","","","","","","","","","","","","","","","","",""
"null","","html-keyboard-response","187","2579530","0.0-186.0","A3BWZ6V34W8SXX","<p style=""font-size: 48px;"">+</p>","","","","","null","allTrialResponses","500","1","20","img_art/15.jpg","27","looks like a flowering thicket I love it","Chloe,Crystal,Emma,Leslie,Sophia,Sydney","Like the composition and lines,26,220,20","The blotted black spots create a nice contrast between the brush strokes within the center and sides. I like it.,41,300,20","Don't love it but it's cute,16,60,20","This elicits no reaction in me.,0,380,20","I feel like there's ski jumping going on here.,2,280,20","This picture is too confusing for me. I wouldn't want to stare at it to figure it out.,-10,320,20","Emma","Don't love it but it's cute,16,60,20","Crystal","The blotted black spots create a nice contrast between the brush strokes within the center and sides. I like it.,41,300,20","Chloe","Like the composition and lines,26,220,20","2"
"4103","","survey-text","188","2583647","0.0-187.0-0.0","A3BWZ6V34W8SXX","","","","{""Q0"":""we""}","","","","","","","","","","","","","","","","","","","","","","",""
"18931","","survey-text","189","2602579","0.0-188.0-0.0","A3BWZ6V34W8SXX","","","","{""Q0"":""great brushstrokes and really interesting""}","","","","","","","","","","","","","","","","","","","","","","",""
"2595","","image-slider-response","190","2605177","0.0-189.0","A3BWZ6V34W8SXX","","","","","23","","","","","","","","","","","","","","","","","","","","","",""
"2885","","image-button-response","191","2610189","0.0-190.0","A3BWZ6V34W8SXX","img_art/19.jpg","4","","","","","","","","","","","","","","","","","","","","","","","","",""
"1737","","image-button-response","192","2611928","0.0-191.0","A3BWZ6V34W8SXX","img_art/19.jpg","4","","","","","","","","","","","","","","","","","","","","","","","","",""
"2001","","image-button-response","193","2613932","0.0-192.0-0.0","A3BWZ6V34W8SXX","img_art/19.jpg","1","","","","","","","","","","","","","","","","","","","","","","","","",""
"1397","","image-button-response","194","2615332","0.0-193.0-0.0","A3BWZ6V34W8SXX","img_art/19.jpg","2","","","","","","","","","","","","","","","","","","","","","","","","",""
"null","","html-keyboard-response","195","2616836","0.0-194.0","A3BWZ6V34W8SXX","<p style=""font-size: 48px;"">+</p>","","","","","null","allTrialResponses","1500","1","21","img_art/19.jpg","23","great brushstrokes and really interesting","Chloe,Crystal,Emma,Kelly,Jessica,Gabrielle","The use of space isn't my favorite.,-20,220,20","It is an interesting piece but there are too many muted tones,22,300,20","Interesting, leaves you wondering what it is,40,60,20","TOo much brown.,-24,220,20","Vibrant and colorful,13,400,20","not professional looking but not bad either,13,160,20","Jessica","Vibrant and colorful,13,400,20","Crystal","It is an interesting piece but there are too many muted tones,22,300,20","Emma","Interesting, leaves you wondering what it is,40,60,20","2"
"14644","","survey-text","196","2631488","0.0-195.0-0.0","A3BWZ6V34W8SXX","","","","{""Q0"":""beautiful colors very delicate""}","","","","","","","","","","","","","","","","","","","","","","",""
"2711.9000000953674","","image-slider-response","197","2634203","0.0-196.0","A3BWZ6V34W8SXX","","","","","38","","","","","","","","","","","","","","","","","","","","","",""
"null","","image-button-response","198","2639216","0.0-197.0","A3BWZ6V34W8SXX","img_art/14.jpg","null","","","","","","","","","","","","","","","","","","","","","","","","",""
"5575","","image-button-response","199","2644794","0.0-198.0","A3BWZ6V34W8SXX","img_art/14.jpg","4","","","","","","","","","","","","","","","","","","","","","","","","",""
"4229","","image-button-response","200","2649026","0.0-199.0-0.0","A3BWZ6V34W8SXX","img_art/14.jpg","1","","","","","","","","","","","","","","","","","","","","","","","","",""
"1047","","image-button-response","201","2650075","0.0-200.0-0.0","A3BWZ6V34W8SXX","img_art/14.jpg","0","","","","","","","","","","","","","","","","","","","","","","","","",""
"null","","html-keyboard-response","202","2651592","0.0-201.0","A3BWZ6V34W8SXX","<p style=""font-size: 48px;"">+</p>","","","","","null","allTrialResponses","1500","1","22","img_art/14.jpg","38","beautiful colors very delicate","Haley,Crystal,Emma,Danielle,Jessica,Laura","I like the colors in the background, but not the bottom/center. It almost looks sloppy.,-20,220,20","It looks like a tree but the bleeding water colors lack borders and makes it hard to appreciate the message.,-41,300,20","Don't love it.,-10,60,20","Too much yellow in this image, i'm not a fan of art that is overly-saturated with yellow,-30,340,20","I kind of like it!,6,400,20","feels incomplete, poorly planned/executed,-34,320,20","Jessica","I kind of like it!,6,400,20","Crystal","It looks like a tree but the bleeding water colors lack borders and makes it hard to appreciate the message.,-41,300,20","Haley","I like the colors in the background, but not the bottom/center. It almost looks sloppy.,-20,220,20","2"
"15105","","survey-text","203","2666706","0.0-202.0-0.0","A3BWZ6V34W8SXX","","","","{""Q0"":""interesting I wonder what it is""}","","","","","","","","","","","","","","","","","","","","","","",""
"3019.1999999284744","","image-slider-response","204","2669727","0.0-203.0","A3BWZ6V34W8SXX","","","","","10","","","","","","","","","","","","","","","","","","","","","",""
"2511","","image-button-response","205","2674746","0.0-204.0","A3BWZ6V34W8SXX","img_art/7.jpg","1","","","","","","","","","","","","","","","","","","","","","","","","",""
"1010","","image-button-response","206","2675759","0.0-205.0","A3BWZ6V34W8SXX","img_art/7.jpg","1","","","","","","","","","","","","","","","","","","","","","","","","",""
"2139","","image-button-response","207","2677900","0.0-206.0-0.0","A3BWZ6V34W8SXX","img_art/7.jpg","2","","","","","","","","","","","","","","","","","","","","","","","","",""
"1877","","image-button-response","208","2679780","0.0-207.0-0.0","A3BWZ6V34W8SXX","img_art/7.jpg","4","","","","","","","","","","","","","","","","","","","","","","","","",""
"null","","html-keyboard-response","209","2680795","0.0-208.0","A3BWZ6V34W8SXX","<p style=""font-size: 48px;"">+</p>","","","","","null","allTrialResponses","1000","1","23","img_art/7.jpg","10","interesting I wonder what it is","Haley,Crystal,Erika,Anna,Jessica,Julia","Confusion, mild aversion,-36,220,20","I thought I was looking at a satellite image of mars.,21,300,20","Detail oriented, like cracked paint wall,15,100,20","It's kind of ugly but I like the texture.,10,300,20","Looks like a natural texture, reminds me of rocks.,0,400,20","I would like this more if I could pretend it was the moon.,-26,40,20","Crystal","I thought I was looking at a satellite image of mars.,21,300,20","Erika","Detail oriented, like cracked paint wall,15,100,20","Jessica","Looks like a natural texture, reminds me of rocks.,0,400,20","2"
"19128","","survey-text","210","2699932","0.0-209.0-0.0","A3BWZ6V34W8SXX","","","","{""Q0"":""gorgeous love the colors and brushstrokes""}","","","","","","","","","","","","","","","","","","","","","","",""
"5284.300000071526","","image-slider-response","211","2705219","0.0-210.0","A3BWZ6V34W8SXX","","","","","50","","","","","","","","","","","","","","","","","","","","","",""
"2179","","image-button-response","212","2710225","0.0-211.0","A3BWZ6V34W8SXX","img_art/24.jpg","5","","","","","","","","","","","","","","","","","","","","","","","","",""
"663","","image-button-response","213","2710891","0.0-212.0","A3BWZ6V34W8SXX","img_art/24.jpg","5","","","","","","","","","","","","","","","","","","","","","","","","",""
"966","","image-button-response","214","2711861","0.0-213.0-0.0","A3BWZ6V34W8SXX","img_art/24.jpg","4","","","","","","","","","","","","","","","","","","","","","","","","",""
"2827","","image-button-response","215","2714691","0.0-214.0-0.0","A3BWZ6V34W8SXX","img_art/24.jpg","0","","","","","","","","","","","","","","","","","","","","","","","","",""
"null","","html-keyboard-response","216","2716200","0.0-215.0","A3BWZ6V34W8SXX","<p style=""font-size: 48px;"">+</p>","","","","","null","allTrialResponses","1500","1","24","img_art/24.jpg","50","gorgeous love the colors and brushstrokes","Natalie,Crystal,Erika,Ashley,Jessica,Amanda","I like the waterfall,22,400,20","I don't like this painting because of its blottedness. It lacks conviction, direction and purpose.,-31,300,20","Very nice textures and subject,38,100,20","NOt quite Bob Ross, but still good.,30,320,20","Vibrant, beautiful depiction.,50,400,20","Beautiful,  peaceful,50,180,20","Amanda","Beautiful,  peaceful,50,180,20","Jessica","Vibrant, beautiful depiction.,50,400,20","Natalie","I like the waterfall,22,400,20","2"
"234036","","survey-text","217","2950245","0.0-216.0-0.0","A3BWZ6V34W8SXX","","","","{""Q0"":""strange but kind of pretty""}","","","","","","","","","","","","","","","","","","","","","","",""
"3944.6999999284744","","image-slider-response","218","2954192","0.0-217.0","A3BWZ6V34W8SXX","","","","","8","","","","","","","","","","","","","","","","","","","","","",""
"null","","image-button-response","219","2959209","0.0-218.0","A3BWZ6V34W8SXX","img_art/12.jpg","null","","","","","","","","","","","","","","","","","","","","","","","","",""
"3058","","image-button-response","220","2962269","0.0-219.0","A3BWZ6V34W8SXX","img_art/12.jpg","0","","","","","","","","","","","","","","","","","","","","","","","","",""
"2335","","image-button-response","221","2964606","0.0-220.0-0.0","A3BWZ6V34W8SXX","img_art/12.jpg","1","","","","","","","","","","","","","","","","","","","","","","","","",""
"2463","","image-button-response","222","2967073","0.0-221.0-0.0","A3BWZ6V34W8SXX","img_art/12.jpg","4","","","","","","","","","","","","","","","","","","","","","","","","",""
"null","","html-keyboard-response","223","2968075","0.0-222.0","A3BWZ6V34W8SXX","<p style=""font-size: 48px;"">+</p>","","","","","null","allTrialResponses","1000","1","25","img_art/12.jpg","8","strange but kind of pretty","Natalie,Grace,Kelsey,Jennifer,Jessica,Amanda","my reaction is that the picture is wierd,-11,400,20","Love the colors & the abstractness.,31,180,20","dont like the squares,-16,240,20","This piece doesn't provoke any kind of reaction,0,380,20","I like this concept.,11,400,20","The colors are beautiful and it has great composition,50,180,20","Natalie","my reaction is that the picture is wierd,-11,400,20","Grace","Love the colors & the abstractness.,31,180,20","Jessica","I like this concept.,11,400,20","2"
"4379","","survey-text","224","2972471","0.0-223.0-0.0","A3BWZ6V34W8SXX","","","","{""Q0"":""table""}","","","","","","","","","","","","","","","","","","","","","","",""
"15820","","survey-text","225","2988293","0.0-224.0-0.0","A3BWZ6V34W8SXX","","","","{""Q0"":""I love this it reminds me of rain""}","","","","","","","","","","","","","","","","","","","","","","",""
"3986","","image-slider-response","226","2992282","0.0-225.0","A3BWZ6V34W8SXX","","","","","15","","","","","","","","","","","","","","","","","","","","","",""
"2221","","image-button-response","227","2997298","0.0-226.0","A3BWZ6V34W8SXX","img_art/13.jpg","1","","","","","","","","","","","","","","","","","","","","","","","","",""
"654","","image-button-response","228","2997955","0.0-227.0","A3BWZ6V34W8SXX","img_art/13.jpg","1","","","","","","","","","","","","","","","","","","","","","","","","",""
"1030","","image-button-response","229","2998988","0.0-228.0-0.0","A3BWZ6V34W8SXX","img_art/13.jpg","0","","","","","","","","","","","","","","","","","","","","","","","","",""
"2150","","image-button-response","230","3001141","0.0-229.0-0.0","A3BWZ6V34W8SXX","img_art/13.jpg","2","","","","","","","","","","","","","","","","","","","","","","","","",""
"null","","html-keyboard-response","231","3001655","0.0-230.0","A3BWZ6V34W8SXX","<p style=""font-size: 48px;"">+</p>","","","","","null","allTrialResponses","500","1","26","img_art/13.jpg","15","I love this it reminds me of rain","Natalie,Grace,Vanessa,Brianna,Jessica,Sabrina","I like the colors,7,400,20","Love the colors, love the abstractness, love this Jackson Pollock type painting.,48,180,20","I love the colors and the contrast between the different blues.,21,380,20","This is a very cool painting, something an art teacher or professor would own.,22,20,20","The paint splatter idea is kind of overused but I like how it brings the piece together,16,400,20","I love the edgy nature,50,120,20","Grace","Love the colors, love the abstractness, love this Jackson Pollock type painting.,48,180,20","Natalie","I like the colors,7,400,20","Vanessa","I love the colors and the contrast between the different blues.,21,380,20","2"
"10963","","survey-text","232","3012627","0.0-231.0-0.0","A3BWZ6V34W8SXX","","","","{""Q0"":""strange but quite interesting""}","","","","","","","","","","","","","","","","","","","","","","",""
"3408.600000023842","","image-slider-response","233","3016038","0.0-232.0","A3BWZ6V34W8SXX","","","","","22","","","","","","","","","","","","","","","","","","","","","",""
"null","","image-button-response","234","3021047","0.0-233.0","A3BWZ6V34W8SXX","img_art/4.jpg","null","","","","","","","","","","","","","","","","","","","","","","","","",""
"563","","image-button-response","235","3021613","0.0-234.0","A3BWZ6V34W8SXX","img_art/4.jpg","0","","","","","","","","","","","","","","","","","","","","","","","","",""
"1463","","image-button-response","236","3023079","0.0-235.0-0.0","A3BWZ6V34W8SXX","img_art/4.jpg","1","","","","","","","","","","","","","","","","","","","","","","","","",""
"1402","","image-button-response","237","3024484","0.0-236.0-0.0","A3BWZ6V34W8SXX","img_art/4.jpg","2","","","","","","","","","","","","","","","","","","","","","","","","",""
"null","","html-keyboard-response","238","3025000","0.0-237.0","A3BWZ6V34W8SXX","<p style=""font-size: 48px;"">+</p>","","","","","null","allTrialResponses","500","1","27","img_art/4.jpg","22","strange but quite interesting","Natalie,Grace,Vanessa,Cassandra,Madison,Cheyenne","dont know what im looking at,1,400,20","McDonald's golden arches on steroids.,-20,180,20","Again, this is too abstract and I really don't like the colors.,-21,380,20","I don't like this...a mustardy scibble.,-47,120,20","This is what makes suburban dads say, ""my 4-year-old can do that."",-49,60,20","Just doesn't look nice.,-40,200,20","Natalie","dont know what im looking at,1,400,20","Grace","McDonald's golden arches on steroids.,-20,180,20","Vanessa","Again, this is too abstract and I really don't like the colors.,-21,380,20","2"
"12890","","survey-text","239","3037898","0.0-238.0-0.0","A3BWZ6V34W8SXX","","","","{""Q0"":""lovely brushstrokes and colors""}","","","","","","","","","","","","","","","","","","","","","","",""
"3791.100000023842","","image-slider-response","240","3041692","0.0-239.0","A3BWZ6V34W8SXX","","","","","22","","","","","","","","","","","","","","","","","","","","","",""
"2841","","image-button-response","241","3046708","0.0-240.0","A3BWZ6V34W8SXX","img_art/30.jpg","0","","","","","","","","","","","","","","","","","","","","","","","","",""
"723","","image-button-response","242","3047434","0.0-241.0","A3BWZ6V34W8SXX","img_art/30.jpg","0","","","","","","","","","","","","","","","","","","","","","","","","",""
"2904","","image-button-response","243","3050341","0.0-242.0-0.0","A3BWZ6V34W8SXX","img_art/30.jpg","3","","","","","","","","","","","","","","","","","","","","","","","","",""
"1534","","image-button-response","244","3051878","0.0-243.0-0.0","A3BWZ6V34W8SXX","img_art/30.jpg","5","","","","","","","","","","","","","","","","","","","","","","","","",""
"null","","html-keyboard-response","245","3052390","0.0-244.0","A3BWZ6V34W8SXX","<p style=""font-size: 48px;"">+</p>","","","","","null","allTrialResponses","500","1","28","img_art/30.jpg","22","lovely brushstrokes and colors","Natalie,Grace,Vanessa,Heather,Angela,Shannon","the colors look nice,19,400,20","A little too dull. Would've liked brighter colors. Also looks washed out.,1,180,20","I like the red against the blue, but otherwise, it's not really my taste,4,380,20","beautiful paint brush strokes,1,260,20","Really don't like this piece. It feels very lazy to me.,-31,260,20","I feel like the colors are too repetitive and not very eyecatching.,-20,220,20","Natalie","the colors look nice,19,400,20","Heather","beautiful paint brush strokes,1,260,20","Shannon","I feel like the colors are too repetitive and not very eyecatching.,-20,220,20","2"
"10146","","survey-text","246","3062545","0.0-245.0-0.0","A3BWZ6V34W8SXX","","","","{""Q0"":""strange but great colors""}","","","","","","","","","","","","","","","","","","","","","","",""
"3189.899999976158","","image-slider-response","247","3065738","0.0-246.0","A3BWZ6V34W8SXX","","","","","21","","","","","","","","","","","","","","","","","","","","","",""
"2265","","image-button-response","248","3070744","0.0-247.0","A3BWZ6V34W8SXX","img_art/22.jpg","2","","","","","","","","","","","","","","","","","","","","","","","","",""
"1397","","image-button-response","249","3072144","0.0-248.0","A3BWZ6V34W8SXX","img_art/22.jpg","3","","","","","","","","","","","","","","","","","","","","","","","","",""
"1192","","image-button-response","250","3073338","0.0-249.0-0.0","A3BWZ6V34W8SXX","img_art/22.jpg","2","","","","","","","","","","","","","","","","","","","","","","","","",""
"2688","","image-button-response","251","3076029","0.0-250.0-0.0","A3BWZ6V34W8SXX","img_art/22.jpg","5","","","","","","","","","","","","","","","","","","","","","","","","",""
"null","","html-keyboard-response","252","3077545","0.0-251.0","A3BWZ6V34W8SXX","<p style=""font-size: 48px;"">+</p>","","","","","null","allTrialResponses","1500","1","29","img_art/22.jpg","21","strange but great colors","Natalie,Stephanie,Dominique,Heather,Sierra,Shannon","my reaction is that the picture is confusion,-9,400,20","I don't get much of a reaction.,11,300,20","Can fit with anyone. And in any home a great piece of art,35,400,20","i think its pretty but im not sure what i see,1,260,20","colorful. but not much happening,1,260,20","I think this picture looks interesting because of the way the colors work together.,20,220,20","Heather","i think its pretty but im not sure what i see,1,260,20","Dominique","Can fit with anyone. And in any home a great piece of art,35,400,20","Shannon","I think this picture looks interesting because of the way the colors work together.,20,220,20","2"
"11794","","survey-text","253","3089347","0.0-252.0-0.0","A3BWZ6V34W8SXX","","","","{""Q0"":""strange but worth looking at""}","","","","","","","","","","","","","","","","","","","","","","",""
"3719.100000023842","","image-slider-response","254","3093069","0.0-253.0","A3BWZ6V34W8SXX","","","","","6","","","","","","","","","","","","","","","","","","","","","",""
"3734","","image-button-response","255","3098072","0.0-254.0","A3BWZ6V34W8SXX","img_art/5.jpg","4","","","","","","","","","","","","","","","","","","","","","","","","",""
"1161","","image-button-response","256","3099236","0.0-255.0","A3BWZ6V34W8SXX","img_art/5.jpg","3","","","","","","","","","","","","","","","","","","","","","","","","",""
"994","","image-button-response","257","3100233","0.0-256.0-0.0","A3BWZ6V34W8SXX","img_art/5.jpg","4","","","","","","","","","","","","","","","","","","","","","","","","",""
"2171","","image-button-response","258","3102407","0.0-257.0-0.0","A3BWZ6V34W8SXX","img_art/5.jpg","1","","","","","","","","","","","","","","","","","","","","","","","","",""
"null","","html-keyboard-response","259","3103420","0.0-258.0","A3BWZ6V34W8SXX","<p style=""font-size: 48px;"">+</p>","","","","","null","allTrialResponses","1000","1","30","img_art/5.jpg","6","strange but worth looking at","Kylie,Chelsea,Dominique,Heather,Abigail,Shannon","It reminds me of a piece of lemon candy, which is one of my favorite flavors,20,300,20","I'm not sure what is going on here.,-46,180,20","It speaks volumes to some. It's also a conversational piece. And very different ideas,34,400,20","its something. i just dont know what it is.,1,260,20","Reminds me of a broken umbrella,-9,20,20","I don't know what it's supposed to be and it looks ugly the way the colors are on the yellow cube.,-50,220,20","Heather","its something. i just dont know what it is.,1,260,20","Abigail","Reminds me of a broken umbrella,-9,20,20","Chelsea","I'm not sure what is going on here.,-46,180,20","2"
"2070","","image-button-response_instructions","260","3105500","0.0-259.0","A3BWZ6V34W8SXX","","0","instructions","","","","","","","","","","","","","","","","","","","","","","","",""
"1475","","image-button-response","261","3106985","0.0-260.0","A3BWZ6V34W8SXX","","0","","","","","","","","","","","","","","","","","","","","","","","","",""
