"rt","url","trial_type","trial_index","time_elapsed","internal_node_id","participant_id","stimulus","button_pressed","Name","responses","response","key_press","variableName","fixationTime","condition","trial","photo","subjectRating","subjectResponse","agentsNames","agent_1_Response","agent_2_Response","agent_3_Response","agent_4_Response","agent_5_Response","agent_6_Response","kept_1_name","kept_1_response","kept_2_name","kept_2_response","kept_3_name","kept_3_response","errorCounter"
"31998","external_page_harvard.html","external-html","0","32092","0.0-0.0","A3D8ZG1VV5FO35","","","","","","","","","","","","","","","","","","","","","","","","","","",""
"4539","","image-button-response","1","36634","0.0-1.0","A3D8ZG1VV5FO35","","1","","","","","","","","","","","","","","","","","","","","","","","","",""
"3463","","image-button-response","2","40105","0.0-2.0-0.0","A3D8ZG1VV5FO35","","1","phone","","","","","","","","","","","","","","","","","","","","","","","",""
"4446","","survey-text","3","44553","0.0-3.0-0.0","A3D8ZG1VV5FO35","","","","{""Q0"":""A3D8ZG1VV5FO35""}","","","","","","","","","","","","","","","","","","","","","","",""
"5318","","image-button-response_instructions","4","49874","0.0-4.0","A3D8ZG1VV5FO35","","0","instructions","","","","","","","","","","","","","","","","","","","","","","","",""
"30069","","image-button-response_instructions","5","79945","0.0-5.0","A3D8ZG1VV5FO35","img_art/ins/popularity/ins1.png","0","instructions","","","","","","","","","","","","","","","","","","","","","","","",""
"6167","","image-button-response_instructions","6","86112","0.0-6.0","A3D8ZG1VV5FO35","img_art/ins/popularity/ins2.png","0","instructions","","","","","","","","","","","","","","","","","","","","","","","",""
"8183","","image-button-response_instructions","7","94297","0.0-7.0","A3D8ZG1VV5FO35","img_art/ins/popularity/ins2Extreme.png","0","instructions","","","","","","","","","","","","","","","","","","","","","","","",""
"6007","","image-button-response_instructions","8","100305","0.0-8.0","A3D8ZG1VV5FO35","img_art/ins/popularity/ins3KEEPpop.PNG","0","instructions","","","","","","","","","","","","","","","","","","","","","","","",""
"5615","","image-button-response_instructions","9","105921","0.0-9.0","A3D8ZG1VV5FO35","img_art/ins/popularity/ins3ANamepop.PNG","0","instructions","","","","","","","","","","","","","","","","","","","","","","","",""
"1135","","image-button-response_instructions","10","107057","0.0-10.0","A3D8ZG1VV5FO35","img_art/ins/popularity/ins3ARatingpop.png","0","instructions","","","","","","","","","","","","","","","","","","","","","","","",""
"1207","","image-button-response_instructions","11","108265","0.0-11.0","A3D8ZG1VV5FO35","img_art/ins/popularity/ins3ATextpop.png","0","instructions","","","","","","","","","","","","","","","","","","","","","","","",""
"10983","","image-button-response_instructions","12","119248","0.0-12.0","A3D8ZG1VV5FO35","img_art/ins/popularity/ins3ALikespop.png","0","instructions","","","","","","","","","","","","","","","","","","","","","","","",""
"15527","","image-button-response_instructions","13","134776","0.0-13.0","A3D8ZG1VV5FO35","img_art/ins/popularity/ins3KEEPpop.PNG","0","instructions","","","","","","","","","","","","","","","","","","","","","","","",""
"12839","","image-button-response_instructions","14","147616","0.0-14.0","A3D8ZG1VV5FO35","img_art/ins/popularity/ins3_5RED.png","0","instructions","","","","","","","","","","","","","","","","","","","","","","","",""
"4974","","image-button-response_instructions","15","152592","0.0-15.0","A3D8ZG1VV5FO35","img_art/ins/popularity/ins3KEEPpop.PNG","0","instructions","","","","","","","","","","","","","","","","","","","","","","","",""
"14623","","image-button-response_instructions","16","167216","0.0-16.0","A3D8ZG1VV5FO35","img_art/ins/popularity/ins4KEEPpop.PNG","0","instructions","","","","","","","","","","","","","","","","","","","","","","","",""
"7567","","image-button-response_instructions","17","174785","0.0-17.0","A3D8ZG1VV5FO35","img_art/ins/popularity/ins5KEEPpop.PNG","0","instructions","","","","","","","","","","","","","","","","","","","","","","","",""
"1750","","image-button-response_instructions","18","176536","0.0-18.0","A3D8ZG1VV5FO35","","0","instructions","","","","","","","","","","","","","","","","","","","","","","","",""
"9917","","survey-text","19","186488","0.0-19.0-0.0","A3D8ZG1VV5FO35","","","","{""Q0"":""but""}","","","","","","","","","","","","","","","","","","","","","","",""
"14950","","survey-text","20","201440","0.0-20.0-0.0","A3D8ZG1VV5FO35","","","","{""Q0"":""It is simple but pretty""}","","","","","","","","","","","","","","","","","","","","","","",""
"7123","","image-slider-response","21","208568","0.0-21.0","A3D8ZG1VV5FO35","","","","","20","","","","","","","","","","","","","","","","","","","","","",""
"null","","image-button-response","22","213585","0.0-22.0","A3D8ZG1VV5FO35","img_art/ins/1.jpg","null","","","","","","","","","","","","","","","","","","","","","","","","",""
"17446","","image-button-response","23","231033","0.0-23.0","A3D8ZG1VV5FO35","img_art/ins/1.jpg","4","","","","","","","","","","","","","","","","","","","","","","","","",""
"3157","","image-button-response","24","234193","0.0-24.0-0.0","A3D8ZG1VV5FO35","img_art/ins/1.jpg","5","","","","","","","","","","","","","","","","","","","","","","","","",""
"5941","","image-button-response","25","240137","0.0-25.0-0.0","A3D8ZG1VV5FO35","img_art/ins/1.jpg","1","","","","","","","","","","","","","","","","","","","","","","","","",""
"null","","html-keyboard-response","26","241640","0.0-26.0","A3D8ZG1VV5FO35","<p style=""font-size: 48px;"">+</p>","","","","","null","allTrialResponses","1500","1","-2","img_art/ins/1.jpg","20","It is simple but pretty","Allison,Ashley,Beth,Dora,Erika,Jen","looks like a lot of things going on in the mist,20,20,20","I just don't get why these type of art would be popular,-32,40,20","This color reminds me of poo,-46,60,20","looks like what my niece in 3rd grade did this afternoon,-50,80,20","I like the sophisticated brushwork,40,100,20","It reminds me of a candy land dream I had,36,120,20","Erika","I like the sophisticated brushwork,40,100,20","Jen","It reminds me of a candy land dream I had,36,120,20","Ashley","I just don't get why these type of art would be popular,-32,40,20","0"
"19587","","survey-text","27","261232","0.0-27.0-0.0","A3D8ZG1VV5FO35","","","","{""Q0"":""Sticky blocks of colors; uneventful""}","","","","","","","","","","","","","","","","","","","","","","",""
"7094","","image-slider-response","28","268328","0.0-28.0","A3D8ZG1VV5FO35","","","","","-6","","","","","","","","","","","","","","","","","","","","","",""
"null","","image-button-response","29","273334","0.0-29.0","A3D8ZG1VV5FO35","img_art/ins/2.jpg","null","","","","","","","","","","","","","","","","","","","","","","","","",""
"14553","","image-button-response","30","287889","0.0-30.0","A3D8ZG1VV5FO35","img_art/ins/2.jpg","5","","","","","","","","","","","","","","","","","","","","","","","","",""
"2533","","image-button-response","31","290425","0.0-31.0-0.0","A3D8ZG1VV5FO35","img_art/ins/2.jpg","3","","","","","","","","","","","","","","","","","","","","","","","","",""
"4182","","image-button-response","32","294609","0.0-32.0-0.0","A3D8ZG1VV5FO35","img_art/ins/2.jpg","2","","","","","","","","","","","","","","","","","","","","","","","","",""
"null","","html-keyboard-response","33","295111","0.0-33.0","A3D8ZG1VV5FO35","<p style=""font-size: 48px;"">+</p>","","","","","null","allTrialResponses","500","1","-1","img_art/ins/2.jpg","-6","Sticky blocks of colors; uneventful","Kara,Ashley,Katie,Jenna,Erika,Jen","I like the blocks of color arrangements,30,160,20","Idk, it is just annoying,-32,40,20","too much color!,-28,180,20","One of my pet peevs,-48,140,20","I would never be able to compose a sophisticated pallete like this,48,100,20","It reminds me of a fireplace,36,120,20","Jen","It reminds me of a fireplace,36,120,20","Jenna","One of my pet peevs,-48,140,20","Katie","too much color!,-28,180,20","0"
"28701","","survey-text","34","323816","0.0-34.0-0.0","A3D8ZG1VV5FO35","","","","{""Q0"":""Brilliant and bursting blues nice""}","","","","","","","","","","","","","","","","","","","","","","",""
"7701.900000035763","","image-slider-response","35","331520","0.0-35.0","A3D8ZG1VV5FO35","","","","","14","","","","","","","","","","","","","","","","","","","","","",""
"null","","image-button-response","36","336529","0.0-36.0","A3D8ZG1VV5FO35","img_art/ins/3.jpg","null","","","","","","","","","","","","","","","","","","","","","","","","",""
"2806","","image-button-response","37","339337","0.0-37.0","A3D8ZG1VV5FO35","img_art/ins/3.jpg","1","","","","","","","","","","","","","","","","","","","","","","","","",""
"4534","","image-button-response","38","343873","0.0-38.0-0.0","A3D8ZG1VV5FO35","img_art/ins/3.jpg","1","","","","","","","","","","","","","","","","","","","","","","","","",""
"7246","","image-button-response","39","356233","0.0-38.1-0.1","A3D8ZG1VV5FO35","img_art/ins/3.jpg","4","","","","","","","","","","","","","","","","","","","","","","","","",""
"1613","","image-button-response","40","357849","0.0-39.0-0.0","A3D8ZG1VV5FO35","img_art/ins/3.jpg","5","","","","","","","","","","","","","","","","","","","","","","","","",""
"null","","html-keyboard-response","41","358352","0.0-40.0","A3D8ZG1VV5FO35","<p style=""font-size: 48px;"">+</p>","","","","","null","allTrialResponses","500","1","0","img_art/ins/3.jpg","14","Brilliant and bursting blues nice","Rose,Leslie,Katie,Jenna,Mary,Jen","My daily routine, it's depressing,-20,240,20","It's an alright work,15,200,20","It looks depressing,-26,180,20","looks like a murder room,-35,140,20","I like the overlapping of brushes,41,220,20","I can feel a rainy day from this painting,18,120,20","Leslie","It's an alright work,15,200,20","Mary","I like the overlapping of brushes,41,220,20","Jen","I can feel a rainy day from this painting,18,120,20","2"
"10995","","image-button-response_instructions","42","369352","0.0-41.0","A3D8ZG1VV5FO35","","0","instructions","","","","","","","","","","","","","","","","","","","","","","","",""
"16078","","survey-likert","43","385433","0.0-42.0-0.0","A3D8ZG1VV5FO35","","","","{""Q0"":"""",""Q1"":0,""Q2"":1}","","","","","","","","","","","","","","","","","","","","","","",""
"5564","","survey-text","44","391008","0.0-43.0-0.0","A3D8ZG1VV5FO35","","","","{""Q0"":""rock""}","","","","","","","","","","","","","","","","","","","","","","",""
"29286","","survey-text","45","420296","0.0-44.0-0.0","A3D8ZG1VV5FO35","","","","{""Q0"":""Intricate and fascinating a city of geometric pieces""}","","","","","","","","","","","","","","","","","","","","","","",""
"7214.199999988079","","image-slider-response","46","427512","0.0-45.0","A3D8ZG1VV5FO35","","","","","7","","","","","","","","","","","","","","","","","","","","","",""
"null","","image-button-response","47","432570","0.0-46.0","A3D8ZG1VV5FO35","img_art/8.jpg","null","","","","","","","","","","","","","","","","","","","","","","","","",""
"3420","","image-button-response","48","435992","0.0-47.0","A3D8ZG1VV5FO35","img_art/8.jpg","1","","","","","","","","","","","","","","","","","","","","","","","","",""
"7214","","image-button-response","49","443209","0.0-48.0-0.0","A3D8ZG1VV5FO35","img_art/8.jpg","5","","","","","","","","","","","","","","","","","","","","","","","","",""
"2900","","image-button-response","50","446112","0.0-49.0-0.0","A3D8ZG1VV5FO35","img_art/8.jpg","4","","","","","","","","","","","","","","","","","","","","","","","","",""
"null","","html-keyboard-response","51","446616","0.0-50.0","A3D8ZG1VV5FO35","<p style=""font-size: 48px;"">+</p>","","","","","null","allTrialResponses","500","1","1","img_art/8.jpg","7","Intricate and fascinating a city of geometric pieces","Shelby,Alicia,Mackenzie,Elizabeth,Anna,Courtney","Too much going on, too many colors, makes me feel uneasy,-20,240,20","wow. blocky, angled, neat colors. The faces are what makes it. love it.,45,120,20","The different shapes are fun to look for.,30,20,20","Very unique and different,31,20,20","The shapes and colors work well together.,40,300,20","Now that one is wild. Looks like maybe mother nature isnt happy.,28,280,20","Alicia","wow. blocky, angled, neat colors. The faces are what makes it. love it.,45,120,20","Courtney","Now that one is wild. Looks like maybe mother nature isnt happy.,28,280,20","Anna","The shapes and colors work well together.,40,300,20","2"
"20667","","survey-text","52","467288","0.0-51.0-0.0","A3D8ZG1VV5FO35","","","","{""Q0"":""Take off the blinders and show me the picture""}","","","","","","","","","","","","","","","","","","","","","","",""
"5557.700000047684","","image-slider-response","53","472848","0.0-52.0","A3D8ZG1VV5FO35","","","","","-17","","","","","","","","","","","","","","","","","","","","","",""
"3005","","image-button-response","54","477851","0.0-53.0","A3D8ZG1VV5FO35","img_art/1.jpg","0","","","","","","","","","","","","","","","","","","","","","","","","",""
"1635","","image-button-response","55","479488","0.0-54.0","A3D8ZG1VV5FO35","img_art/1.jpg","0","","","","","","","","","","","","","","","","","","","","","","","","",""
"8613","","image-button-response","56","488104","0.0-55.0-0.0","A3D8ZG1VV5FO35","img_art/1.jpg","4","","","","","","","","","","","","","","","","","","","","","","","","",""
"5796","","image-button-response","57","493904","0.0-56.0-0.0","A3D8ZG1VV5FO35","img_art/1.jpg","5","","","","","","","","","","","","","","","","","","","","","","","","",""
"null","","html-keyboard-response","58","494407","0.0-57.0","A3D8ZG1VV5FO35","<p style=""font-size: 48px;"">+</p>","","","","","null","allTrialResponses","500","1","2","img_art/1.jpg","-17","Take off the blinders and show me the picture","Catherine,Alicia,Caitlin,Michelle,Anna,Courtney","confused,animal like brain fog,0,160,20","just colors mixed together. not interesting.,5,120,20","Deja vu. Haven't I seen this one before? Not bad for those living in the backwoods.,10,80,20","Random paint does not make art,-5,280,20","The colors are nice but that's all it is,21,300,20","I cant make anything of this one.,-7,280,20","Catherine","confused,animal like brain fog,0,160,20","Anna","The colors are nice but that's all it is,21,300,20","Courtney","I cant make anything of this one.,-7,280,20","2"
"25547","","survey-text","59","519960","0.0-58.0-0.0","A3D8ZG1VV5FO35","","","","{""Q0"":""undersea in octopus' garden""}","","","","","","","","","","","","","","","","","","","","","","",""
"5604.5","","image-slider-response","60","525568","0.0-59.0","A3D8ZG1VV5FO35","","","","","3","","","","","","","","","","","","","","","","","","","","","",""
"null","","image-button-response","61","530580","0.0-60.0","A3D8ZG1VV5FO35","img_art/9.jpg","null","","","","","","","","","","","","","","","","","","","","","","","","",""
"5634","","image-button-response","62","536216","0.0-61.0","A3D8ZG1VV5FO35","img_art/9.jpg","5","","","","","","","","","","","","","","","","","","","","","","","","",""
"5621","","image-button-response","63","541841","0.0-62.0-0.0","A3D8ZG1VV5FO35","img_art/9.jpg","2","","","","","","","","","","","","","","","","","","","","","","","","",""
"5699","","image-button-response","64","547544","0.0-63.0-0.0","A3D8ZG1VV5FO35","img_art/9.jpg","0","","","","","","","","","","","","","","","","","","","","","","","","",""
"null","","html-keyboard-response","65","548547","0.0-64.0","A3D8ZG1VV5FO35","<p style=""font-size: 48px;"">+</p>","","","","","null","allTrialResponses","1000","1","3","img_art/9.jpg","3","undersea in octopus' garden","Catherine,Hailey,Alexis,Kaitlin,Anna,Courtney","Cozy, In her own world. feminine .,30,160,20","looks like a woman in bed and its ok,8,200,20","I like the sense of forboding, the green creates a claustrophobic feeling,10,100,20","this looks to be a child nightmare,-10,60,20","It looks like a child's crayon drawing.,-10,300,20","This is a picture of a scary mans head sideways.,-24,280,20","Courtney","This is a picture of a scary mans head sideways.,-24,280,20","Alexis","I like the sense of forboding, the green creates a claustrophobic feeling,10,100,20","Catherine","Cozy, In her own world. feminine .,30,160,20","2"
"24760","","survey-text","66","573312","0.0-65.0-0.0","A3D8ZG1VV5FO35","","","","{""Q0"":""The abstract faint colors hint of a city""}","","","","","","","","","","","","","","","","","","","","","","",""
"5694.199999988079","","image-slider-response","67","579008","0.0-66.0","A3D8ZG1VV5FO35","","","","","-11","","","","","","","","","","","","","","","","","","","","","",""
"null","","image-button-response","68","584019","0.0-67.0","A3D8ZG1VV5FO35","img_art/26.jpg","null","","","","","","","","","","","","","","","","","","","","","","","","",""
"10506","","image-button-response","69","594528","0.0-68.0","A3D8ZG1VV5FO35","img_art/26.jpg","1","","","","","","","","","","","","","","","","","","","","","","","","",""
"1293","","image-button-response","70","595824","0.0-69.0-0.0","A3D8ZG1VV5FO35","img_art/26.jpg","2","","","","","","","","","","","","","","","","","","","","","","","","",""
"7685","","image-button-response","71","603512","0.0-70.0-0.0","A3D8ZG1VV5FO35","img_art/26.jpg","3","","","","","","","","","","","","","","","","","","","","","","","","",""
"null","","html-keyboard-response","72","604016","0.0-71.0","A3D8ZG1VV5FO35","<p style=""font-size: 48px;"">+</p>","","","","","null","allTrialResponses","500","1","4","img_art/26.jpg","-11","The abstract faint colors hint of a city","Catherine,Leslie,Alexis,Bailey,Emily,Courtney","Incomplete, The artist painted his impression of somthing he was thinking of,0,160,20","It's a cute city scene. I like the trees.,10,380,20","Much too simple and without color for my taste,-33,100,20","Too blocky and unfocused. It's like the inside of a house, and the outside.,-24,360,20","Not much skil went into this one either.,-41,40,20","Some trees in front of a house.,2,280,20","Leslie","It's a cute city scene. I like the trees.,10,380,20","Alexis","Much too simple and without color for my taste,-33,100,20","Bailey","Too blocky and unfocused. It's like the inside of a house, and the outside.,-24,360,20","2"
"22169","","survey-text","73","626192","0.0-72.0-0.0","A3D8ZG1VV5FO35","","","","{""Q0"":""Blood vessels and veins the inner workings of a body""}","","","","","","","","","","","","","","","","","","","","","","",""
"4621.899999976158","","image-slider-response","74","630816","0.0-73.0","A3D8ZG1VV5FO35","","","","","-17","","","","","","","","","","","","","","","","","","","","","",""
"null","","image-button-response","75","635821","0.0-74.0","A3D8ZG1VV5FO35","img_art/30.jpg","null","","","","","","","","","","","","","","","","","","","","","","","","",""
"9281","","image-button-response","76","645105","0.0-75.0","A3D8ZG1VV5FO35","img_art/30.jpg","5","","","","","","","","","","","","","","","","","","","","","","","","",""
"4668","","image-button-response","77","649777","0.0-76.0-0.0","A3D8ZG1VV5FO35","img_art/30.jpg","4","","","","","","","","","","","","","","","","","","","","","","","","",""
"1508","","image-button-response","78","651289","0.0-77.0-0.0","A3D8ZG1VV5FO35","img_art/30.jpg","2","","","","","","","","","","","","","","","","","","","","","","","","",""
"null","","html-keyboard-response","79","651791","0.0-78.0","A3D8ZG1VV5FO35","<p style=""font-size: 48px;"">+</p>","","","","","null","allTrialResponses","500","1","5","img_art/30.jpg","-17","Blood vessels and veins the inner workings of a body","Shannon,Leslie,Alexis,Bailey,Lindsey,Nicole","I feel like the colors are too repetitive and not very eyecatching.,-20,220,20","The brush strokes are appealing, and make me want to look at this longer.,11,380,20","Too abstract, looks like something I could paint,-50,100,20","No my favorite, but I do like the long strokes of color,11,360,20","Interesting. Not sure what I'm seeing but it makes me want to figure it out.,5,400,20","I like the softness of this but it doesn't make me feel that nice,5,20,20","Nicole","I like the softness of this but it doesn't make me feel that nice,5,20,20","Lindsey","Interesting. Not sure what I'm seeing but it makes me want to figure it out.,5,400,20","Alexis","Too abstract, looks like something I could paint,-50,100,20","2"
"5869","","survey-text","80","657672","0.0-79.0-0.0","A3D8ZG1VV5FO35","","","","{""Q0"":""sky""}","","","","","","","","","","","","","","","","","","","","","","",""
"15310","","survey-text","81","672983","0.0-80.0-0.0","A3D8ZG1VV5FO35","","","","{""Q0"":""blurred golden globe award""}","","","","","","","","","","","","","","","","","","","","","","",""
"4749.800000011921","","image-slider-response","82","677735","0.0-81.0","A3D8ZG1VV5FO35","","","","","-15","","","","","","","","","","","","","","","","","","","","","",""
"null","","image-button-response","83","682743","0.0-82.0","A3D8ZG1VV5FO35","img_art/4.jpg","null","","","","","","","","","","","","","","","","","","","","","","","","",""
"2951","","image-button-response","84","685696","0.0-83.0","A3D8ZG1VV5FO35","img_art/4.jpg","4","","","","","","","","","","","","","","","","","","","","","","","","",""
"2102","","image-button-response","85","687800","0.0-84.0-0.0","A3D8ZG1VV5FO35","img_art/4.jpg","5","","","","","","","","","","","","","","","","","","","","","","","","",""
"6869","","image-button-response","86","694672","0.0-85.0-0.0","A3D8ZG1VV5FO35","img_art/4.jpg","1","","","","","","","","","","","","","","","","","","","","","","","","",""
"null","","html-keyboard-response","87","695674","0.0-86.0","A3D8ZG1VV5FO35","<p style=""font-size: 48px;"">+</p>","","","","","null","allTrialResponses","1000","1","6","img_art/4.jpg","-15","blurred golden globe award","Leah,Amanda,Alexis,Meghan,Lindsey,Nicole","To me just looking at paint scrawls,-41,360,20","Looks like an abstract version of the Scream painting,-50,180,20","Really don't like this. Kindergarten art, sorry.,-50,100,20","feels free flowing and relaxed,21,220,20","Looks like feces smeared on the canvas. I hate it.,-50,400,20","Mcdonald's french fries :(,-40,20,20","Lindsey","Looks like feces smeared on the canvas. I hate it.,-50,400,20","Nicole","Mcdonald's french fries :(,-40,20,20","Amanda","Looks like an abstract version of the Scream painting,-50,180,20","2"
"15824","","survey-text","88","711503","0.0-87.0-0.0","A3D8ZG1VV5FO35","","","","{""Q0"":""a bouquet of simplicity""}","","","","","","","","","","","","","","","","","","","","","","",""
"3845.599999964237","","image-slider-response","89","715351","0.0-88.0","A3D8ZG1VV5FO35","","","","","-5","","","","","","","","","","","","","","","","","","","","","",""
"null","","image-button-response","90","720369","0.0-89.0","A3D8ZG1VV5FO35","img_art/14.jpg","null","","","","","","","","","","","","","","","","","","","","","","","","",""
"11293","","image-button-response","91","731664","0.0-90.0","A3D8ZG1VV5FO35","img_art/14.jpg","0","","","","","","","","","","","","","","","","","","","","","","","","",""
"8181","","image-button-response","92","739848","0.0-91.0-0.0","A3D8ZG1VV5FO35","img_art/14.jpg","2","","","","","","","","","","","","","","","","","","","","","","","","",""
"3181","","image-button-response","93","743032","0.0-92.0-0.0","A3D8ZG1VV5FO35","img_art/14.jpg","4","","","","","","","","","","","","","","","","","","","","","","","","",""
"null","","html-keyboard-response","94","743543","0.0-93.0","A3D8ZG1VV5FO35","<p style=""font-size: 48px;"">+</p>","","","","","null","allTrialResponses","500","1","7","img_art/14.jpg","-5","a bouquet of simplicity","Madeline,Amanda,Rebecca,Mary,Lindsey,Nicole","It looks nice colorwise but detail is lacking,18,40,20","Gorgeous use of water color,50,180,20","medium recalls back to an oriental style,16,100,20","I like the layers of color in this piece. The circles and lines are interesting.,29,180,20","Warm, positive, growth.,8,400,20","This reminds me of the Lion King somehow! Feels inspiring,30,20,20","Madeline","It looks nice colorwise but detail is lacking,18,40,20","Rebecca","medium recalls back to an oriental style,16,100,20","Lindsey","Warm, positive, growth.,8,400,20","2"
"39556","","survey-text","95","783104","0.0-94.0-0.0","A3D8ZG1VV5FO35","","","","{""Q0"":""a guitar showing the musical notes and highs of composing""}","","","","","","","","","","","","","","","","","","","","","","",""
"7365.800000011921","","image-slider-response","96","790472","0.0-95.0","A3D8ZG1VV5FO35","","","","","11","","","","","","","","","","","","","","","","","","","","","",""
"null","","image-button-response","97","795483","0.0-96.0","A3D8ZG1VV5FO35","img_art/10.jpg","null","","","","","","","","","","","","","","","","","","","","","","","","",""
"4315","","image-button-response","98","799800","0.0-97.0","A3D8ZG1VV5FO35","img_art/10.jpg","4","","","","","","","","","","","","","","","","","","","","","","","","",""
"2381","","image-button-response","99","802185","0.0-98.0-0.0","A3D8ZG1VV5FO35","img_art/10.jpg","5","","","","","","","","","","","","","","","","","","","","","","","","",""
"3781","","image-button-response","100","805968","0.0-99.0-0.0","A3D8ZG1VV5FO35","img_art/10.jpg","2","","","","","","","","","","","","","","","","","","","","","","","","",""
"null","","html-keyboard-response","101","806471","0.0-100.0","A3D8ZG1VV5FO35","<p style=""font-size: 48px;"">+</p>","","","","","null","allTrialResponses","500","1","8","img_art/10.jpg","11","a guitar showing the musical notes and highs of composing","Madeline,Allison,Rebecca,Jessica,Lindsey,Megan","Looks a bit as though someone ran over it?,-13,40,20","I like the contrast,10,140,20","gives a sense of a roller coaster unit splashed in water. it's not but i love it nevertheless,44,100,20","I feel like this has a cool concept behind it.,11,400,20","Looks like a violin. Not a fan of the smudges and smears, but my initial reaction was positive.,11,400,20","Music visualized with subtle color,17,200,20","Lindsey","Looks like a violin. Not a fan of the smudges and smears, but my initial reaction was positive.,11,400,20","Megan","Music visualized with subtle color,17,200,20","Rebecca","gives a sense of a roller coaster unit splashed in water. it's not but i love it nevertheless,44,100,20","2"
"17323","","survey-text","102","823800","0.0-101.0-0.0","A3D8ZG1VV5FO35","","","","{""Q0"":""sinister death and fright""}","","","","","","","","","","","","","","","","","","","","","","",""
"4029.800000011921","","image-slider-response","103","827832","0.0-102.0","A3D8ZG1VV5FO35","","","","","-26","","","","","","","","","","","","","","","","","","","","","",""
"null","","image-button-response","104","832836","0.0-103.0","A3D8ZG1VV5FO35","img_art/3.jpg","null","","","","","","","","","","","","","","","","","","","","","","","","",""
"4585","","image-button-response","105","837424","0.0-104.0","A3D8ZG1VV5FO35","img_art/3.jpg","4","","","","","","","","","","","","","","","","","","","","","","","","",""
"1622","","image-button-response","106","839049","0.0-105.0-0.0","A3D8ZG1VV5FO35","img_art/3.jpg","3","","","","","","","","","","","","","","","","","","","","","","","","",""
"1485","","image-button-response","107","840536","0.0-106.0-0.0","A3D8ZG1VV5FO35","img_art/3.jpg","5","","","","","","","","","","","","","","","","","","","","","","","","",""
"null","","html-keyboard-response","108","842039","0.0-107.0","A3D8ZG1VV5FO35","<p style=""font-size: 48px;"">+</p>","","","","","null","allTrialResponses","1500","1","9","img_art/3.jpg","-26","sinister death and fright","Michaela,Jordan,Rebecca,Jamie,Lindsey,Megan","It looks like someone took a red sharpie and just scribbled angrily,-20,260,20","i don't like this, just looks like scribbles,-50,20,20","sorry do not understand,-26,100,20","Looks like somebody squirted ketchup everywhere,-40,320,20","Angry red crayons, like a child throwing a tantrum. No thanks.,-10,400,20","5 min scribble by a 3 year old,-46,200,20","Lindsey","Angry red crayons, like a child throwing a tantrum. No thanks.,-10,400,20","Jamie","Looks like somebody squirted ketchup everywhere,-40,320,20","Megan","5 min scribble by a 3 year old,-46,200,20","2"
"19956","","survey-text","109","861999","0.0-108.0-0.0","A3D8ZG1VV5FO35","","","","{""Q0"":""A parade of color and fun people dancing""}","","","","","","","","","","","","","","","","","","","","","","",""
"3934.100000023842","","image-slider-response","110","865935","0.0-109.0","A3D8ZG1VV5FO35","","","","","11","","","","","","","","","","","","","","","","","","","","","",""
"null","","image-button-response","111","870952","0.0-110.0","A3D8ZG1VV5FO35","img_art/23.jpg","null","","","","","","","","","","","","","","","","","","","","","","","","",""
"1637","","image-button-response","112","872592","0.0-111.0","A3D8ZG1VV5FO35","img_art/23.jpg","1","","","","","","","","","","","","","","","","","","","","","","","","",""
"3494","","image-button-response","113","876088","0.0-112.0-0.0","A3D8ZG1VV5FO35","img_art/23.jpg","2","","","","","","","","","","","","","","","","","","","","","","","","",""
"3413","","image-button-response","114","879504","0.0-113.0-0.0","A3D8ZG1VV5FO35","img_art/23.jpg","3","","","","","","","","","","","","","","","","","","","","","","","","",""
"null","","html-keyboard-response","115","880007","0.0-114.0","A3D8ZG1VV5FO35","<p style=""font-size: 48px;"">+</p>","","","","","null","allTrialResponses","500","1","10","img_art/23.jpg","11","A parade of color and fun people dancing","Taylor,Julia,Katelyn,Jamie,Lindsey,Megan","The color contrast makes me happy,40,340,20","this looks like a pop rock album cover,-10,40,20","Makes me want to stare at it for hours. Like there is something deeper to find.,37,100,20","Reminds me of outer space and the stars,30,320,20","Too much contrasting colors together. I hate it.,-50,400,20","Too busy with color with warrior lineup,0,200,20","Julia","this looks like a pop rock album cover,-10,40,20","Katelyn","Makes me want to stare at it for hours. Like there is something deeper to find.,37,100,20","Jamie","Reminds me of outer space and the stars,30,320,20","2"
"5125","","survey-text","116","885143","0.0-115.0-0.0","A3D8ZG1VV5FO35","","","","{""Q0"":""our""}","","","","","","","","","","","","","","","","","","","","","","",""
"21815","","survey-text","117","906959","0.0-116.0-0.0","A3D8ZG1VV5FO35","","","","{""Q0"":""collage of child's play""}","","","","","","","","","","","","","","","","","","","","","","",""
"5173.699999988079","","image-slider-response","118","912136","0.0-117.0","A3D8ZG1VV5FO35","","","","","8","","","","","","","","","","","","","","","","","","","","","",""
"null","","image-button-response","119","917149","0.0-118.0","A3D8ZG1VV5FO35","img_art/16.jpg","null","","","","","","","","","","","","","","","","","","","","","","","","",""
"2930","","image-button-response","120","920081","0.0-119.0","A3D8ZG1VV5FO35","img_art/16.jpg","0","","","","","","","","","","","","","","","","","","","","","","","","",""
"781","","image-button-response","121","920864","0.0-120.0-0.0","A3D8ZG1VV5FO35","img_art/16.jpg","1","","","","","","","","","","","","","","","","","","","","","","","","",""
"4253","","image-button-response","122","925121","0.0-121.0-0.0","A3D8ZG1VV5FO35","img_art/16.jpg","5","","","","","","","","","","","","","","","","","","","","","","","","",""
"null","","html-keyboard-response","123","925623","0.0-122.0","A3D8ZG1VV5FO35","<p style=""font-size: 48px;"">+</p>","","","","","null","allTrialResponses","500","1","11","img_art/16.jpg","8","collage of child's play","Sophia,Julia,Katelyn,Jamie,Ashley,Dominique","This feels like there's some kind of pedofile thing going on here.,-50,280,20","I love the teddy bear,50,40,20","I dont feel any real response,5,100,20","Weird and funny,40,320,20","A lot fo these could abstract or childrens work.,23,320,20","Toys toys toys. Happy playful free spirit,30,400,20","Sophia","This feels like there's some kind of pedofile thing going on here.,-50,280,20","Julia","I love the teddy bear,50,40,20","Dominique","Toys toys toys. Happy playful free spirit,30,400,20","2"
"25436","","survey-text","124","951064","0.0-123.0-0.0","A3D8ZG1VV5FO35","","","","{""Q0"":""color and free flowing water falls and nature peaceful""}","","","","","","","","","","","","","","","","","","","","","","",""
"4573.600000023842","","image-slider-response","125","955640","0.0-124.0","A3D8ZG1VV5FO35","","","","","5","","","","","","","","","","","","","","","","","","","","","",""
"null","","image-button-response","126","960643","0.0-125.0","A3D8ZG1VV5FO35","img_art/24.jpg","null","","","","","","","","","","","","","","","","","","","","","","","","",""
"2611","","image-button-response","127","963256","0.0-126.0","A3D8ZG1VV5FO35","img_art/24.jpg","2","","","","","","","","","","","","","","","","","","","","","","","","",""
"1437","","image-button-response","128","964696","0.0-127.0-0.0","A3D8ZG1VV5FO35","img_art/24.jpg","5","","","","","","","","","","","","","","","","","","","","","","","","",""
"1541","","image-button-response","129","966240","0.0-128.0-0.0","A3D8ZG1VV5FO35","img_art/24.jpg","4","","","","","","","","","","","","","","","","","","","","","","","","",""
"null","","html-keyboard-response","130","967758","0.0-129.0","A3D8ZG1VV5FO35","<p style=""font-size: 48px;"">+</p>","","","","","null","allTrialResponses","1500","1","12","img_art/24.jpg","5","color and free flowing water falls and nature peaceful","Sophia,Julia,Cynthia,Jasmine,Alyssa,Dominique","Hmm. Don't know what to make of this one.,1,280,20","it's a nice stream, but I don't care for plain nature,-15,40,20","Interested in visiting this place,18,320,20","This one is nice because it reminds me of nature,18,340,20","Beautiful.Nice use of colors and invokes feelings of serene and peace,40,160,20","Spending a day in nature,21,400,20","Cynthia","Interested in visiting this place,18,320,20","Dominique","Spending a day in nature,21,400,20","Alyssa","Beautiful.Nice use of colors and invokes feelings of serene and peace,40,160,20","2"
"31324","","survey-text","131","999088","0.0-130.0-0.0","A3D8ZG1VV5FO35","","","","{""Q0"":""a city built on a dining table and quite messy""}","","","","","","","","","","","","","","","","","","","","","","",""
"3829.599999964237","","image-slider-response","132","1002919","0.0-131.0","A3D8ZG1VV5FO35","","","","","-13","","","","","","","","","","","","","","","","","","","","","",""
"null","","image-button-response","133","1007928","0.0-132.0","A3D8ZG1VV5FO35","img_art/19.jpg","null","","","","","","","","","","","","","","","","","","","","","","","","",""
"2750","","image-button-response","134","1010680","0.0-133.0","A3D8ZG1VV5FO35","img_art/19.jpg","3","","","","","","","","","","","","","","","","","","","","","","","","",""
"3781","","image-button-response","135","1014464","0.0-134.0-0.0","A3D8ZG1VV5FO35","img_art/19.jpg","2","","","","","","","","","","","","","","","","","","","","","","","","",""
"2341","","image-button-response","136","1016808","0.0-135.0-0.0","A3D8ZG1VV5FO35","img_art/19.jpg","4","","","","","","","","","","","","","","","","","","","","","","","","",""
"null","","html-keyboard-response","137","1017823","0.0-136.0","A3D8ZG1VV5FO35","<p style=""font-size: 48px;"">+</p>","","","","","null","allTrialResponses","1000","1","13","img_art/19.jpg","-13","a city built on a dining table and quite messy","Margaret,Brianna,Cynthia,Tiffany,Alyssa,Dominique","i think it is ugly and hate the colors,-35,100,20","I don't know what's going on, and I realise that I don't like it,-21,20,20","confused and emotional,-4,320,20","I feel a little anxious and happy. I'm about to walk into a market and any number of treasures could be found,14,360,20","There's alot of elements to it bordering on clutter and chaotic,-20,160,20","I really like the colors and feel of this one and alot of life,41,400,20","Tiffany","I feel a little anxious and happy. I'm about to walk into a market and any number of treasures could be found,14,360,20","Cynthia","confused and emotional,-4,320,20","Alyssa","There's alot of elements to it bordering on clutter and chaotic,-20,160,20","2"
"12530","","survey-text","138","1030359","0.0-137.0-0.0","A3D8ZG1VV5FO35","","","","{""Q0"":""The silver bullet""}","","","","","","","","","","","","","","","","","","","","","","",""
"4165.899999976158","","image-slider-response","139","1034528","0.0-138.0","A3D8ZG1VV5FO35","","","","","-10","","","","","","","","","","","","","","","","","","","","","",""
"null","","image-button-response","140","1039533","0.0-139.0","A3D8ZG1VV5FO35","img_art/13.jpg","null","","","","","","","","","","","","","","","","","","","","","","","","",""
"2969","","image-button-response","141","1042504","0.0-140.0","A3D8ZG1VV5FO35","img_art/13.jpg","4","","","","","","","","","","","","","","","","","","","","","","","","",""
"6669","","image-button-response","142","1049176","0.0-141.0-0.0","A3D8ZG1VV5FO35","img_art/13.jpg","2","","","","","","","","","","","","","","","","","","","","","","","","",""
"2045","","image-button-response","143","1051224","0.0-142.0-0.0","A3D8ZG1VV5FO35","img_art/13.jpg","1","","","","","","","","","","","","","","","","","","","","","","","","",""
"null","","html-keyboard-response","144","1052225","0.0-143.0","A3D8ZG1VV5FO35","<p style=""font-size: 48px;"">+</p>","","","","","null","allTrialResponses","1000","1","14","img_art/13.jpg","-10","The silver bullet","Savannah,Rachel,Cynthia,Tiffany,Alyssa,Christina","Lots of depth and character.,30,200,20","Peaceful colors.,20,80,20","It reminds me of rain,11,320,20","The painting makes me feel awe and like I am very little. Like I am alone at the bottom of the ocean.,41,360,20","Pretty and it reminds me of rain droplets running down a window on a rainy day.,40,160,20","i like the colors but it looks like something that would hang in a hotel,18,240,20","Alyssa","Pretty and it reminds me of rain droplets running down a window on a rainy day.,40,160,20","Cynthia","It reminds me of rain,11,320,20","Rachel","Peaceful colors.,20,80,20","2"
"24376","","survey-text","145","1076608","0.0-144.0-0.0","A3D8ZG1VV5FO35","","","","{""Q0"":""Stormy seascape""}","","","","","","","","","","","","","","","","","","","","","","",""
"4142.099999964237","","image-slider-response","146","1080752","0.0-145.0","A3D8ZG1VV5FO35","","","","","12","","","","","","","","","","","","","","","","","","","","","",""
"null","","image-button-response","147","1085755","0.0-146.0","A3D8ZG1VV5FO35","img_art/20.jpg","null","","","","","","","","","","","","","","","","","","","","","","","","",""
"1203","","image-button-response","148","1086960","0.0-147.0","A3D8ZG1VV5FO35","img_art/20.jpg","0","","","","","","","","","","","","","","","","","","","","","","","","",""
"11310","","image-button-response","149","1098272","0.0-148.0-0.0","A3D8ZG1VV5FO35","img_art/20.jpg","4","","","","","","","","","","","","","","","","","","","","","","","","",""
"1989","","image-button-response","150","1100264","0.0-149.0-0.0","A3D8ZG1VV5FO35","img_art/20.jpg","5","","","","","","","","","","","","","","","","","","","","","","","","",""
"null","","html-keyboard-response","151","1101770","0.0-150.0","A3D8ZG1VV5FO35","<p style=""font-size: 48px;"">+</p>","","","","","null","allTrialResponses","1500","1","15","img_art/20.jpg","12","Stormy seascape","Gabriela,Rachel,Cynthia,Briana,Alyssa,Makayla","it is a bit disturbing, like a monster or ghost floating away from a bleak building,-8,140,20","While interesting in technique.. It looks like a blurry car wreck. Does not evoke great emotions.,-20,80,20","Curious about what lies here,10,320,20","Someone trying to be dali,-15,400,20","Its interesting.It almost seems like a painting of a landscape,14,160,20","Little picturesque town that I would like to visit,19,80,20","Gabriela","it is a bit disturbing, like a monster or ghost floating away from a bleak building,-8,140,20","Alyssa","Its interesting.It almost seems like a painting of a landscape,14,160,20","Makayla","Little picturesque town that I would like to visit,19,80,20","2"
"5963","","survey-text","152","1107743","0.0-151.0-0.0","A3D8ZG1VV5FO35","","","","{""Q0"":""course""}","","","","","","","","","","","","","","","","","","","","","","",""
"16102","","survey-text","153","1123847","0.0-152.0-0.0","A3D8ZG1VV5FO35","","","","{""Q0"":""spooky rain bow breaths""}","","","","","","","","","","","","","","","","","","","","","","",""
"4517.800000011921","","image-slider-response","154","1128367","0.0-153.0","A3D8ZG1VV5FO35","","","","","16","","","","","","","","","","","","","","","","","","","","","",""
"null","","image-button-response","155","1133370","0.0-154.0","A3D8ZG1VV5FO35","img_art/17.jpg","null","","","","","","","","","","","","","","","","","","","","","","","","",""
"1483","","image-button-response","156","1134856","0.0-155.0","A3D8ZG1VV5FO35","img_art/17.jpg","5","","","","","","","","","","","","","","","","","","","","","","","","",""
"2517","","image-button-response","157","1137376","0.0-156.0-0.0","A3D8ZG1VV5FO35","img_art/17.jpg","3","","","","","","","","","","","","","","","","","","","","","","","","",""
"1142","","image-button-response","158","1138520","0.0-157.0-0.0","A3D8ZG1VV5FO35","img_art/17.jpg","1","","","","","","","","","","","","","","","","","","","","","","","","",""
"null","","html-keyboard-response","159","1139026","0.0-158.0","A3D8ZG1VV5FO35","<p style=""font-size: 48px;"">+</p>","","","","","null","allTrialResponses","500","1","16","img_art/17.jpg","16","spooky rain bow breaths","Gabriela,Gabrielle,Cheyenne,Chloe,Alyssa,Makayla","This makes me feel inspired and happy. I love everything about this portrait,45,140,20","nice composition and colors, fairy land,28,160,20","I like the colorfulness.,17,200,20","Pretty but a little cheesy,-10,220,20","It gorgeous and i love how the tree is almost 3 dimensional.So many elements to it.,50,160,20","I feel okay , it's like a tree,28,80,20","Makayla","I feel okay , it's like a tree,28,80,20","Chloe","Pretty but a little cheesy,-10,220,20","Gabrielle","nice composition and colors, fairy land,28,160,20","2"
"21368","","survey-text","160","1160399","0.0-159.0-0.0","A3D8ZG1VV5FO35","","","","{""Q0"":""stick people lost in turmoil ""}","","","","","","","","","","","","","","","","","","","","","","",""
"3694","","image-slider-response","161","1164096","0.0-160.0","A3D8ZG1VV5FO35","","","","","-9","","","","","","","","","","","","","","","","","","","","","",""
"null","","image-button-response","162","1169108","0.0-161.0","A3D8ZG1VV5FO35","img_art/27.jpg","null","","","","","","","","","","","","","","","","","","","","","","","","",""
"7562","","image-button-response","163","1176672","0.0-162.0","A3D8ZG1VV5FO35","img_art/27.jpg","4","","","","","","","","","","","","","","","","","","","","","","","","",""
"1813","","image-button-response","164","1178488","0.0-163.0-0.0","A3D8ZG1VV5FO35","img_art/27.jpg","3","","","","","","","","","","","","","","","","","","","","","","","","",""
"1333","","image-button-response","165","1179824","0.0-164.0-0.0","A3D8ZG1VV5FO35","img_art/27.jpg","0","","","","","","","","","","","","","","","","","","","","","","","","",""
"null","","html-keyboard-response","166","1180828","0.0-165.0","A3D8ZG1VV5FO35","<p style=""font-size: 48px;"">+</p>","","","","","null","allTrialResponses","1000","1","17","img_art/27.jpg","-9","stick people lost in turmoil ","Morgan,Gabrielle,Stephanie,Chloe,Mikayla,Makayla","Messy field of various plants.,-5,380,20","like the patterns and colors all but the orange blob on the right,32,160,20","The black sketchy over the colors doesn't fit.,-4,300,20","Like the movement of the lines and dripping paint.,30,220,20","It kinda reminds me of sushi.,16,300,20","Calming sky , relaxing,23,80,20","Mikayla","It kinda reminds me of sushi.,16,300,20","Chloe","Like the movement of the lines and dripping paint.,30,220,20","Morgan","Messy field of various plants.,-5,380,20","2"
"13190","","survey-text","167","1194024","0.0-166.0-0.0","A3D8ZG1VV5FO35","","","","{""Q0"":""dried out scab""}","","","","","","","","","","","","","","","","","","","","","","",""
"5868.900000035763","","image-slider-response","168","1199896","0.0-167.0","A3D8ZG1VV5FO35","","","","","-21","","","","","","","","","","","","","","","","","","","","","",""
"null","","image-button-response","169","1204899","0.0-168.0","A3D8ZG1VV5FO35","img_art/7.jpg","null","","","","","","","","","","","","","","","","","","","","","","","","",""
"1739","","image-button-response","170","1206640","0.0-169.0","A3D8ZG1VV5FO35","img_art/7.jpg","0","","","","","","","","","","","","","","","","","","","","","","","","",""
"4598","","image-button-response","171","1211240","0.0-170.0-0.0","A3D8ZG1VV5FO35","img_art/7.jpg","1","","","","","","","","","","","","","","","","","","","","","","","","",""
"1621","","image-button-response","172","1212864","0.0-171.0-0.0","A3D8ZG1VV5FO35","img_art/7.jpg","3","","","","","","","","","","","","","","","","","","","","","","","","",""
"null","","html-keyboard-response","173","1213366","0.0-172.0","A3D8ZG1VV5FO35","<p style=""font-size: 48px;"">+</p>","","","","","null","allTrialResponses","500","1","18","img_art/7.jpg","-21","dried out scab","Morgan,Miranda,Cassidy,Chloe,Mikayla,Abigail","Dead bugs on an insect battleground.,-10,380,20","This looks like a literal picture of the ground so I'm really not too sure about this one.,-42,320,20","I like the texture,12,140,20","Like the tactile quality,30,220,20","I love the texture.,20,300,20","Looks like a skin disease,-31,20,20","Morgan","Dead bugs on an insect battleground.,-10,380,20","Miranda","This looks like a literal picture of the ground so I'm really not too sure about this one.,-42,320,20","Chloe","Like the tactile quality,30,220,20","2"
"17402","","survey-text","174","1230775","0.0-173.0-0.0","A3D8ZG1VV5FO35","","","","{""Q0"":""A candle sprouting""}","","","","","","","","","","","","","","","","","","","","","","",""
"5053.800000011921","","image-slider-response","175","1235831","0.0-174.0","A3D8ZG1VV5FO35","","","","","-3","","","","","","","","","","","","","","","","","","","","","",""
"null","","image-button-response","176","1240848","0.0-175.0","A3D8ZG1VV5FO35","img_art/6.jpg","null","","","","","","","","","","","","","","","","","","","","","","","","",""
"1053","","image-button-response","177","1241903","0.0-176.0","A3D8ZG1VV5FO35","img_art/6.jpg","4","","","","","","","","","","","","","","","","","","","","","","","","",""
"1973","","image-button-response","178","1243879","0.0-177.0-0.0","A3D8ZG1VV5FO35","img_art/6.jpg","5","","","","","","","","","","","","","","","","","","","","","","","","",""
"4621","","image-button-response","179","1248503","0.0-178.0-0.0","A3D8ZG1VV5FO35","img_art/6.jpg","0","","","","","","","","","","","","","","","","","","","","","","","","",""
"null","","html-keyboard-response","180","1249005","0.0-179.0","A3D8ZG1VV5FO35","<p style=""font-size: 48px;"">+</p>","","","","","null","allTrialResponses","500","1","19","img_art/6.jpg","-3","A candle sprouting","Morgan,Miranda,Alexa,Chloe,Sydney,Laura","Desert that's too simple.,-15,380,20","It's slightly unnerving to look at, it looks a little creepy/eerie,-16,320,20","Too basic for me,-20,40,20","Cute and evocative,11,220,20","This piece reminds me of the lorax.,5,320,20","graceful and light,35,320,20","Sydney","This piece reminds me of the lorax.,5,320,20","Laura","graceful and light,35,320,20","Morgan","Desert that's too simple.,-15,380,20","2"
"26971","","survey-text","181","1275983","0.0-180.0-0.0","A3D8ZG1VV5FO35","","","","{""Q0"":""A haphazard market scene""}","","","","","","","","","","","","","","","","","","","","","","",""
"3742.100000023842","","image-slider-response","182","1279728","0.0-181.0","A3D8ZG1VV5FO35","","","","","8","","","","","","","","","","","","","","","","","","","","","",""
"null","","image-button-response","183","1284730","0.0-182.0","A3D8ZG1VV5FO35","img_art/2.jpg","null","","","","","","","","","","","","","","","","","","","","","","","","",""
"1467","","image-button-response","184","1286200","0.0-183.0","A3D8ZG1VV5FO35","img_art/2.jpg","4","","","","","","","","","","","","","","","","","","","","","","","","",""
"3822","","image-button-response","185","1290024","0.0-184.0-0.0","A3D8ZG1VV5FO35","img_art/2.jpg","2","","","","","","","","","","","","","","","","","","","","","","","","",""
"4637","","image-button-response","186","1294664","0.0-185.0-0.0","A3D8ZG1VV5FO35","img_art/2.jpg","5","","","","","","","","","","","","","","","","","","","","","","","","",""
"null","","html-keyboard-response","187","1296166","0.0-186.0","A3D8ZG1VV5FO35","<p style=""font-size: 48px;"">+</p>","","","","","null","allTrialResponses","1500","1","20","img_art/2.jpg","8","A haphazard market scene","Morgan,Cassandra,Kathryn,Sabrina,Sydney,Laura","Old, dull, messy.,-10,380,20","I didn't like this it looked like a kindergardner painted it and the green was out of place.,-46,120,20","I think I'm put off by the clashing colors here. It feels discombobulated and sick.,-10,140,20","I dont like the expression of this,-19,120,20","I like the color, but I feel like I see a creepy face which I dislike.,-5,320,20","active and kinetic- simplified,14,320,20","Sydney","I like the color, but I feel like I see a creepy face which I dislike.,-5,320,20","Kathryn","I think I'm put off by the clashing colors here. It feels discombobulated and sick.,-10,140,20","Laura","active and kinetic- simplified,14,320,20","2"
"4837","","survey-text","188","1301015","0.0-187.0-0.0","A3D8ZG1VV5FO35","","","","{""Q0"":""we""}","","","","","","","","","","","","","","","","","","","","","","",""
"16590","","survey-text","189","1317607","0.0-188.0-0.0","A3D8ZG1VV5FO35","","","","{""Q0"":""A key to the earth""}","","","","","","","","","","","","","","","","","","","","","","",""
"3820.899999976158","","image-slider-response","190","1321431","0.0-189.0","A3D8ZG1VV5FO35","","","","","6","","","","","","","","","","","","","","","","","","","","","",""
"null","","image-button-response","191","1326446","0.0-190.0","A3D8ZG1VV5FO35","img_art/22.jpg","null","","","","","","","","","","","","","","","","","","","","","","","","",""
"4215","","image-button-response","192","1330664","0.0-191.0","A3D8ZG1VV5FO35","img_art/22.jpg","2","","","","","","","","","","","","","","","","","","","","","","","","",""
"1766","","image-button-response","193","1332432","0.0-192.0-0.0","A3D8ZG1VV5FO35","img_art/22.jpg","3","","","","","","","","","","","","","","","","","","","","","","","","",""
"4925","","image-button-response","194","1337360","0.0-193.0-0.0","A3D8ZG1VV5FO35","img_art/22.jpg","0","","","","","","","","","","","","","","","","","","","","","","","","",""
"null","","html-keyboard-response","195","1338862","0.0-194.0","A3D8ZG1VV5FO35","<p style=""font-size: 48px;"">+</p>","","","","","null","allTrialResponses","1500","1","21","img_art/22.jpg","6","A key to the earth","Madison,Autumn,Kathryn,Olivia,Sydney,Laura","Like the colors, and the even blur. The more I look, the more a story forms. A very narrative image.,18,60,20","Same az the last one?,-49,340,20","This piece gives off a cool vibe. Reminds me of being out in the city at night.,20,140,20","ball of light in 90s,8,40,20","I don't normally like bright colors, but I like them in this. Don't like the random black paint.,30,320,20","muddy and rough,14,320,20","Kathryn","This piece gives off a cool vibe. Reminds me of being out in the city at night.,20,140,20","Olivia","ball of light in 90s,8,40,20","Madison","Like the colors, and the even blur. The more I look, the more a story forms. A very narrative image.,18,60,20","2"
"20457","","survey-text","196","1359327","0.0-195.0-0.0","A3D8ZG1VV5FO35","","","","{""Q0"":""The day graffiti died""}","","","","","","","","","","","","","","","","","","","","","","",""
"4925","","image-slider-response","197","1364255","0.0-196.0","A3D8ZG1VV5FO35","","","","","-3","","","","","","","","","","","","","","","","","","","","","",""
"null","","image-button-response","198","1369260","0.0-197.0","A3D8ZG1VV5FO35","img_art/29.jpg","null","","","","","","","","","","","","","","","","","","","","","","","","",""
"6978","","image-button-response","199","1376240","0.0-198.0","A3D8ZG1VV5FO35","img_art/29.jpg","5","","","","","","","","","","","","","","","","","","","","","","","","",""
"3557","","image-button-response","200","1379800","0.0-199.0-0.0","A3D8ZG1VV5FO35","img_art/29.jpg","2","","","","","","","","","","","","","","","","","","","","","","","","",""
"2437","","image-button-response","201","1382240","0.0-200.0-0.0","A3D8ZG1VV5FO35","img_art/29.jpg","1","","","","","","","","","","","","","","","","","","","","","","","","",""
"null","","html-keyboard-response","202","1383746","0.0-201.0","A3D8ZG1VV5FO35","<p style=""font-size: 48px;"">+</p>","","","","","null","allTrialResponses","1500","1","22","img_art/29.jpg","-3","The day graffiti died","Madison,Mariah,Kathryn,Olivia,Brittany,Erin","Well if the artist themself is crossing it out, why should I pay any mind?,-30,60,20","It feels like looking through layers of frustration.,19,140,20","This piece feels gross. Makes me think of pollution/litter strewn across a dirty street.,-20,140,20","too challenging to comprehend,-28,40,20","It looks likes there's a lot going on, but they don't fit together.,2,40,20","Red X is scary, like the bricks,7,120,20","Erin","Red X is scary, like the bricks,7,120,20","Kathryn","This piece feels gross. Makes me think of pollution/litter strewn across a dirty street.,-20,140,20","Mariah","It feels like looking through layers of frustration.,19,140,20","2"
"14773","","survey-text","203","1398526","0.0-202.0-0.0","A3D8ZG1VV5FO35","","","","{""Q0"":""ink blot test""}","","","","","","","","","","","","","","","","","","","","","","",""
"3966.199999988079","","image-slider-response","204","1402494","0.0-203.0","A3D8ZG1VV5FO35","","","","","-30","","","","","","","","","","","","","","","","","","","","","",""
"null","","image-button-response","205","1407504","0.0-204.0","A3D8ZG1VV5FO35","img_art/15.jpg","null","","","","","","","","","","","","","","","","","","","","","","","","",""
"2893","","image-button-response","206","1410399","0.0-205.0","A3D8ZG1VV5FO35","img_art/15.jpg","3","","","","","","","","","","","","","","","","","","","","","","","","",""
"974","","image-button-response","207","1411375","0.0-206.0-0.0","A3D8ZG1VV5FO35","img_art/15.jpg","4","","","","","","","","","","","","","","","","","","","","","","","","",""
"5301","","image-button-response","208","1416679","0.0-207.0-0.0","A3D8ZG1VV5FO35","img_art/15.jpg","2","","","","","","","","","","","","","","","","","","","","","","","","",""
"null","","html-keyboard-response","209","1417183","0.0-208.0","A3D8ZG1VV5FO35","<p style=""font-size: 48px;"">+</p>","","","","","null","allTrialResponses","500","1","23","img_art/15.jpg","-30","ink blot test","Angela,Mariah,Kathryn,Danielle,Katie,Erin","Interesting, but don't really like it. Gloomy.,-10,260,20","It is visually appealing, stark and simple but natural.,41,140,20","This is looking at a forest from above. I can see water and some pathways throughout. Nature.,20,140,20","This is pretty nice, reminds me of dark peacock feathers, or perhaps a bush with berries in it?,15,340,20","Too much black. I see weeds or dead/dying flowers.,-40,160,20","Neat to explore meaning, blue is interesting,11,120,20","Danielle","This is pretty nice, reminds me of dark peacock feathers, or perhaps a bush with berries in it?,15,340,20","Katie","Too much black. I see weeds or dead/dying flowers.,-40,160,20","Kathryn","This is looking at a forest from above. I can see water and some pathways throughout. Nature.,20,140,20","2"
"18984","","survey-text","210","1436174","0.0-209.0-0.0","A3D8ZG1VV5FO35","","","","{""Q0"":""A yellow dunce cap on a stick""}","","","","","","","","","","","","","","","","","","","","","","",""
"4565.899999976158","","image-slider-response","211","1440743","0.0-210.0","A3D8ZG1VV5FO35","","","","","-11","","","","","","","","","","","","","","","","","","","","","",""
"null","","image-button-response","212","1445756","0.0-211.0","A3D8ZG1VV5FO35","img_art/5.jpg","null","","","","","","","","","","","","","","","","","","","","","","","","",""
"1481","","image-button-response","213","1447239","0.0-212.0","A3D8ZG1VV5FO35","img_art/5.jpg","4","","","","","","","","","","","","","","","","","","","","","","","","",""
"2038","","image-button-response","214","1449279","0.0-213.0-0.0","A3D8ZG1VV5FO35","img_art/5.jpg","5","","","","","","","","","","","","","","","","","","","","","","","","",""
"6877","","image-button-response","215","1456159","0.0-214.0-0.0","A3D8ZG1VV5FO35","img_art/5.jpg","0","","","","","","","","","","","","","","","","","","","","","","","","",""
"null","","html-keyboard-response","216","1457662","0.0-215.0","A3D8ZG1VV5FO35","<p style=""font-size: 48px;"">+</p>","","","","","null","allTrialResponses","1500","1","24","img_art/5.jpg","-11","A yellow dunce cap on a stick","Kelsey,Heather,Kathryn,Danielle,Katie,Andrea","too abstract, looks like a pyramid,-22,240,20","its something. i just dont know what it is.,1,260,20","I see a sign advising me to be cautious.,-20,140,20","Not a fan of the themes,-30,340,20","I don't get it at all. But, maybe it is the top portion of a piece of fruit.,-50,160,20","Perfume bottle, reminds of fancy nights out.,11,240,20","Katie","I don't get it at all. But, maybe it is the top portion of a piece of fruit.,-50,160,20","Andrea","Perfume bottle, reminds of fancy nights out.,11,240,20","Kelsey","too abstract, looks like a pyramid,-22,240,20","2"
"26153","","survey-text","217","1483823","0.0-216.0-0.0","A3D8ZG1VV5FO35","","","","{""Q0"":""A distorted goblin riding a bike""}","","","","","","","","","","","","","","","","","","","","","","",""
"6110.200000047684","","image-slider-response","218","1489935","0.0-217.0","A3D8ZG1VV5FO35","","","","","-7","","","","","","","","","","","","","","","","","","","","","",""
"null","","image-button-response","219","1494941","0.0-218.0","A3D8ZG1VV5FO35","img_art/28.jpg","null","","","","","","","","","","","","","","","","","","","","","","","","",""
"3048","","image-button-response","220","1497991","0.0-219.0","A3D8ZG1VV5FO35","img_art/28.jpg","5","","","","","","","","","","","","","","","","","","","","","","","","",""
"2109","","image-button-response","221","1500103","0.0-220.0-0.0","A3D8ZG1VV5FO35","img_art/28.jpg","1","","","","","","","","","","","","","","","","","","","","","","","","",""
"3421","","image-button-response","222","1503527","0.0-221.0-0.0","A3D8ZG1VV5FO35","img_art/28.jpg","3","","","","","","","","","","","","","","","","","","","","","","","","",""
"null","","html-keyboard-response","223","1504530","0.0-222.0","A3D8ZG1VV5FO35","<p style=""font-size: 48px;"">+</p>","","","","","null","allTrialResponses","1000","1","25","img_art/28.jpg","-7","A distorted goblin riding a bike","Kelsey,Sara,Amber,Kaylee,Katie,Andrea","this one is rather disturbing,-22,240,20","This swirly drawing i snot my type I get confused and dizzy,-20,160,20","Colors are too dull.,-30,200,20","i dont understand it,-34,200,20","Like the muted pink colors. However, the mood is sad because of the blurriness,22,160,20","It reminds me of the cantina in Star Wars.,37,240,20","Andrea","It reminds me of the cantina in Star Wars.,37,240,20","Sara","This swirly drawing i snot my type I get confused and dizzy,-20,160,20","Kaylee","i dont understand it,-34,200,20","2"
"5909","","survey-text","224","1510463","0.0-223.0-0.0","A3D8ZG1VV5FO35","","","","{""Q0"":""table""}","","","","","","","","","","","","","","","","","","","","","","",""
"23581","","survey-text","225","1534047","0.0-224.0-0.0","A3D8ZG1VV5FO35","","","","{""Q0"":""a boat that might capsized and throw off its color""}","","","","","","","","","","","","","","","","","","","","","","",""
"4037.899999976158","","image-slider-response","226","1538087","0.0-225.0","A3D8ZG1VV5FO35","","","","","7","","","","","","","","","","","","","","","","","","","","","",""
"null","","image-button-response","227","1543099","0.0-226.0","A3D8ZG1VV5FO35","img_art/18.jpg","null","","","","","","","","","","","","","","","","","","","","","","","","",""
"2058","","image-button-response","228","1545159","0.0-227.0","A3D8ZG1VV5FO35","img_art/18.jpg","0","","","","","","","","","","","","","","","","","","","","","","","","",""
"6221","","image-button-response","229","1551383","0.0-228.0-0.0","A3D8ZG1VV5FO35","img_art/18.jpg","4","","","","","","","","","","","","","","","","","","","","","","","","",""
"2060","","image-button-response","230","1553447","0.0-229.0-0.0","A3D8ZG1VV5FO35","img_art/18.jpg","5","","","","","","","","","","","","","","","","","","","","","","","","",""
"null","","html-keyboard-response","231","1554950","0.0-230.0","A3D8ZG1VV5FO35","<p style=""font-size: 48px;"">+</p>","","","","","null","allTrialResponses","1500","1","26","img_art/18.jpg","7","a boat that might capsized and throw off its color","Caroline,Sara,Natalie,Kaylee,Hannah,Andrea","I think of the ocean and a boat tossed about on the waves. In the upper left is a figure. It is pleasant,30,100,20","Too abstract and swirly,-21,160,20","my response to the picture is a little bit of anxiety but I like the detail,16,400,20","looks like a war,22,200,20","Looks like ghost figures on a boat. It's okay.,7,240,20","I see an artistic representation of the riding of last of the four horseman. Its stunning.,45,240,20","Caroline","I think of the ocean and a boat tossed about on the waves. In the upper left is a figure. It is pleasant,30,100,20","Hannah","Looks like ghost figures on a boat. It's okay.,7,240,20","Andrea","I see an artistic representation of the riding of last of the four horseman. Its stunning.,45,240,20","2"
"21186","","survey-text","232","1576143","0.0-231.0-0.0","A3D8ZG1VV5FO35","","","","{""Q0"":""connecting roads of color""}","","","","","","","","","","","","","","","","","","","","","","",""
"4078.100000023842","","image-slider-response","233","1580223","0.0-232.0","A3D8ZG1VV5FO35","","","","","-5","","","","","","","","","","","","","","","","","","","","","",""
"null","","image-button-response","234","1585227","0.0-233.0","A3D8ZG1VV5FO35","img_art/11.jpg","null","","","","","","","","","","","","","","","","","","","","","","","","",""
"4106","","image-button-response","235","1589335","0.0-234.0","A3D8ZG1VV5FO35","img_art/11.jpg","0","","","","","","","","","","","","","","","","","","","","","","","","",""
"2005","","image-button-response","236","1591343","0.0-235.0-0.0","A3D8ZG1VV5FO35","img_art/11.jpg","3","","","","","","","","","","","","","","","","","","","","","","","","",""
"5206","","image-button-response","237","1596552","0.0-236.0-0.0","A3D8ZG1VV5FO35","img_art/11.jpg","5","","","","","","","","","","","","","","","","","","","","","","","","",""
"null","","html-keyboard-response","238","1597554","0.0-237.0","A3D8ZG1VV5FO35","<p style=""font-size: 48px;"">+</p>","","","","","null","allTrialResponses","1000","1","27","img_art/11.jpg","-5","connecting roads of color","Caroline,Jacqueline,Jennifer,Isabella,Hannah,Andrea","Makes me think of far away places and traveling. Makes me feel like wandering,20,100,20","It's too dark and dingy.,-30,300,20","The narrow groups of lines in the center make me feel uneasy for some reason,-31,380,20","City on a hill, tranquility,42,280,20","Is interesting. Wouldn't bother me to have this hanging where I'd see it every day.,11,240,20","My initial thought was roller coasters but I see ship masts on a cloudy day too.,35,240,20","Caroline","Makes me think of far away places and traveling. Makes me feel like wandering,20,100,20","Isabella","City on a hill, tranquility,42,280,20","Andrea","My initial thought was roller coasters but I see ship masts on a cloudy day too.,35,240,20","2"
"18245","","survey-text","239","1615807","0.0-238.0-0.0","A3D8ZG1VV5FO35","","","","{""Q0"":""The Master of Our fate""}","","","","","","","","","","","","","","","","","","","","","","",""
"5037.800000011921","","image-slider-response","240","1620847","0.0-239.0","A3D8ZG1VV5FO35","","","","","16","","","","","","","","","","","","","","","","","","","","","",""
"null","","image-button-response","241","1625862","0.0-240.0","A3D8ZG1VV5FO35","img_art/25.jpg","null","","","","","","","","","","","","","","","","","","","","","","","","",""
"7167","","image-button-response","242","1633032","0.0-241.0","A3D8ZG1VV5FO35","img_art/25.jpg","5","","","","","","","","","","","","","","","","","","","","","","","","",""
"1613","","image-button-response","243","1634647","0.0-242.0-0.0","A3D8ZG1VV5FO35","img_art/25.jpg","2","","","","","","","","","","","","","","","","","","","","","","","","",""
"2517","","image-button-response","244","1637168","0.0-243.0-0.0","A3D8ZG1VV5FO35","img_art/25.jpg","1","","","","","","","","","","","","","","","","","","","","","","","","",""
"null","","html-keyboard-response","245","1638179","0.0-244.0","A3D8ZG1VV5FO35","<p style=""font-size: 48px;"">+</p>","","","","","null","allTrialResponses","1000","1","28","img_art/25.jpg","16","The Master of Our fate","Caroline,Grace,Jenna,Isabella,Marissa,Andrea","Makes me think of Baphomet, As above so below and is scary,-50,100,20","Scary. Something out of a Stephen King book/movie.,-31,180,20","beautiful in a primitive way,10,360,20","I love the green and the figure is black but the green makes it pop,29,280,20","I really like the green and the fact that it is tattered on the edges,23,160,20","Looks like Burning Man, dont care for the colors.,-5,240,20","Andrea","Looks like Burning Man, dont care for the colors.,-5,240,20","Jenna","beautiful in a primitive way,10,360,20","Grace","Scary. Something out of a Stephen King book/movie.,-31,180,20","2"
"19379","","survey-text","246","1657567","0.0-245.0-0.0","A3D8ZG1VV5FO35","","","","{""Q0"":""colors that don't mean anything""}","","","","","","","","","","","","","","","","","","","","","","",""
"4693.700000047684","","image-slider-response","247","1662263","0.0-246.0","A3D8ZG1VV5FO35","","","","","-9","","","","","","","","","","","","","","","","","","","","","",""
"null","","image-button-response","248","1667266","0.0-247.0","A3D8ZG1VV5FO35","img_art/12.jpg","null","","","","","","","","","","","","","","","","","","","","","","","","",""
"300","","image-button-response","249","1667568","0.0-248.0","A3D8ZG1VV5FO35","img_art/12.jpg","3","","","","","","","","","","","","","","","","","","","","","","","","",""
"3109","","image-button-response","250","1670680","0.0-249.0-0.0","A3D8ZG1VV5FO35","img_art/12.jpg","5","","","","","","","","","","","","","","","","","","","","","","","","",""
"3317","","image-button-response","251","1673999","0.0-250.0-0.0","A3D8ZG1VV5FO35","img_art/12.jpg","2","","","","","","","","","","","","","","","","","","","","","","","","",""
"null","","html-keyboard-response","252","1675506","0.0-251.0","A3D8ZG1VV5FO35","<p style=""font-size: 48px;"">+</p>","","","","","null","allTrialResponses","1500","1","29","img_art/12.jpg","-9","colors that don't mean anything","Amy,Grace,Jenna,Samantha,Kylie,Andrea","Quite lovely with depth and possibility.,21,220,20","Love the colors & the abstractness.,31,180,20","interesting, but feels like someone cut up a picture and pasted it together wrong. want to see the original,15,360,20","It is interesting but seems like some cheap painting from like walmart,24,140,20","Night and day, light and dark,35,300,20","It just feels like a jigsaw puzzle,-4,240,20","Samantha","It is interesting but seems like some cheap painting from like walmart,24,140,20","Andrea","It just feels like a jigsaw puzzle,-4,240,20","Jenna","interesting, but feels like someone cut up a picture and pasted it together wrong. want to see the original,15,360,20","2"
"16341","","survey-text","253","1691855","0.0-252.0-0.0","A3D8ZG1VV5FO35","","","","{""Q0"":""explosion of mystic colors""}","","","","","","","","","","","","","","","","","","","","","","",""
"7286","","image-slider-response","254","1699143","0.0-253.0","A3D8ZG1VV5FO35","","","","","7","","","","","","","","","","","","","","","","","","","","","",""
"null","","image-button-response","255","1704149","0.0-254.0","A3D8ZG1VV5FO35","img_art/21.jpg","null","","","","","","","","","","","","","","","","","","","","","","","","",""
"2224","","image-button-response","256","1706376","0.0-255.0","A3D8ZG1VV5FO35","img_art/21.jpg","5","","","","","","","","","","","","","","","","","","","","","","","","",""
"2197","","image-button-response","257","1708576","0.0-256.0-0.0","A3D8ZG1VV5FO35","img_art/21.jpg","2","","","","","","","","","","","","","","","","","","","","","","","","",""
"4301","","image-button-response","258","1712880","0.0-257.0-0.0","A3D8ZG1VV5FO35","img_art/21.jpg","3","","","","","","","","","","","","","","","","","","","","","","","","",""
"null","","html-keyboard-response","259","1714389","0.0-258.0","A3D8ZG1VV5FO35","<p style=""font-size: 48px;"">+</p>","","","","","null","allTrialResponses","1500","1","30","img_art/21.jpg","7","explosion of mystic colors","Sierra,Vanessa,Jenna,Samantha,Kimberly,Andrea","i like the way the colors divide the canvas.,16,260,20","The colors and softness work together to make something that's lovely.,42,380,20","beautiful. reminds me of a storm brewing over sea. i love the white dots.,45,360,20","Love the colors and the relationship between the light and storm,50,140,20","Another swathe of ocean,31,260,20","It feels like a day at sea but the pink is slightly jarring and holding my eye.,26,240,20","Andrea","It feels like a day at sea but the pink is slightly jarring and holding my eye.,26,240,20","Jenna","beautiful. reminds me of a storm brewing over sea. i love the white dots.,45,360,20","Samantha","Love the colors and the relationship between the light and storm,50,140,20","2"
"5786","","image-button-response_instructions","260","1720183","0.0-259.0","A3D8ZG1VV5FO35","","0","instructions","","","","","","","","","","","","","","","","","","","","","","","",""
"1888","","image-button-response","261","1722079","0.0-260.0","A3D8ZG1VV5FO35","","0","","","","","","","","","","","","","","","","","","","","","","","","",""
