"rt","url","trial_type","trial_index","time_elapsed","internal_node_id","participant_id","stimulus","button_pressed","Name","responses","response","key_press","variableName","fixationTime","condition","trial","photo","subjectRating","subjectResponse","agentsNames","agent_1_Response","agent_2_Response","agent_3_Response","agent_4_Response","agent_5_Response","agent_6_Response","kept_1_name","kept_1_response","kept_2_name","kept_2_response","kept_3_name","kept_3_response","errorCounter"
"9639","external_page_harvard.html","external-html","0","9764","0.0-0.0","A3DIISD224GRPL","","","","","","","","","","","","","","","","","","","","","","","","","","",""
"1809","","image-button-response","1","11582","0.0-1.0","A3DIISD224GRPL","","0","","","","","","","","","","","","","","","","","","","","","","","","",""
"3305","","image-button-response","2","14900","0.0-2.0-0.0","A3DIISD224GRPL","","1","phone","","","","","","","","","","","","","","","","","","","","","","","",""
"8635","","survey-text","3","23543","0.0-3.0-0.0","A3DIISD224GRPL","","","","{""Q0"":""A3DIISD224GRPL""}","","","","","","","","","","","","","","","","","","","","","","",""
"7159","","image-button-response_instructions","4","30707","0.0-4.0","A3DIISD224GRPL","","0","instructions","","","","","","","","","","","","","","","","","","","","","","","",""
"14518","","image-button-response_instructions","5","45231","0.0-5.0","A3DIISD224GRPL","img_art/ins/popularity/ins1.png","0","instructions","","","","","","","","","","","","","","","","","","","","","","","",""
"8449","","image-button-response_instructions","6","53688","0.0-6.0","A3DIISD224GRPL","img_art/ins/popularity/ins2.png","0","instructions","","","","","","","","","","","","","","","","","","","","","","","",""
"7724","","image-button-response_instructions","7","61419","0.0-7.0","A3DIISD224GRPL","img_art/ins/popularity/ins2Extreme.png","0","instructions","","","","","","","","","","","","","","","","","","","","","","","",""
"11298","","image-button-response_instructions","8","72726","0.0-8.0","A3DIISD224GRPL","img_art/ins/popularity/ins3KEEPpop.PNG","0","instructions","","","","","","","","","","","","","","","","","","","","","","","",""
"4357","","image-button-response_instructions","9","77091","0.0-9.0","A3DIISD224GRPL","img_art/ins/popularity/ins3ANamepop.PNG","0","instructions","","","","","","","","","","","","","","","","","","","","","","","",""
"9188","","image-button-response_instructions","10","86288","0.0-10.0","A3DIISD224GRPL","img_art/ins/popularity/ins3ARatingpop.png","0","instructions","","","","","","","","","","","","","","","","","","","","","","","",""
"5476","","image-button-response_instructions","11","91775","0.0-11.0","A3DIISD224GRPL","img_art/ins/popularity/ins3ATextpop.png","0","instructions","","","","","","","","","","","","","","","","","","","","","","","",""
"11275","","image-button-response_instructions","12","103054","0.0-12.0","A3DIISD224GRPL","img_art/ins/popularity/ins3ALikespop.png","0","instructions","","","","","","","","","","","","","","","","","","","","","","","",""
"13161","","image-button-response_instructions","13","116220","0.0-13.0","A3DIISD224GRPL","img_art/ins/popularity/ins3KEEPpop.PNG","0","instructions","","","","","","","","","","","","","","","","","","","","","","","",""
"12551","","image-button-response_instructions","14","128777","0.0-14.0","A3DIISD224GRPL","img_art/ins/popularity/ins3_5RED.png","0","instructions","","","","","","","","","","","","","","","","","","","","","","","",""
"8374","","image-button-response_instructions","15","137156","0.0-15.0","A3DIISD224GRPL","img_art/ins/popularity/ins3KEEPpop.PNG","0","instructions","","","","","","","","","","","","","","","","","","","","","","","",""
"6560","","image-button-response_instructions","16","143726","0.0-16.0","A3DIISD224GRPL","img_art/ins/popularity/ins4KEEPpop.PNG","0","instructions","","","","","","","","","","","","","","","","","","","","","","","",""
"6021","","image-button-response_instructions","17","149756","0.0-17.0","A3DIISD224GRPL","img_art/ins/popularity/ins5KEEPpop.PNG","0","instructions","","","","","","","","","","","","","","","","","","","","","","","",""
"12496","","image-button-response_instructions","18","162256","0.0-18.0","A3DIISD224GRPL","","0","instructions","","","","","","","","","","","","","","","","","","","","","","","",""
"9497","","survey-text","19","171794","0.0-19.0-0.0","A3DIISD224GRPL","","","","{""Q0"":""but""}","","","","","","","","","","","","","","","","","","","","","","",""
"35791","","survey-text","20","207592","0.0-20.0-0.0","A3DIISD224GRPL","","","","{""Q0"":""This looks like something i could do and I am not very artistic""}","","","","","","","","","","","","","","","","","","","","","","",""
"8134","","image-slider-response","21","215742","0.0-21.0","A3DIISD224GRPL","","","","","-20","","","","","","","","","","","","","","","","","","","","","",""
"null","","image-button-response","22","220754","0.0-22.0","A3DIISD224GRPL","img_art/ins/1.jpg","null","","","","","","","","","","","","","","","","","","","","","","","","",""
"267","","image-button-response","23","221024","0.0-23.0","A3DIISD224GRPL","img_art/ins/1.jpg","0","","","","","","","","","","","","","","","","","","","","","","","","",""
"4410","","image-button-response","24","225442","0.0-24.0-0.0","A3DIISD224GRPL","img_art/ins/1.jpg","4","","","","","","","","","","","","","","","","","","","","","","","","",""
"3259","","image-button-response","25","228711","0.0-25.0-0.0","A3DIISD224GRPL","img_art/ins/1.jpg","0","","","","","","","","","","","","","","","","","","","","","","","","",""
"10983","","image-button-response","26","244858","0.0-25.1-0.1","A3DIISD224GRPL","img_art/ins/1.jpg","2","","","","","","","","","","","","","","","","","","","","","","","","",""
"null","","html-keyboard-response","27","245868","0.0-26.0","A3DIISD224GRPL","<p style=""font-size: 48px;"">+</p>","","","","","null","allTrialResponses","1000","1","-2","img_art/ins/1.jpg","-20","This looks like something i could do and I am not very artistic","Adam,Alex,Ben,Carl,Daniel,Jack","Seems like doodles,-20,20,20","very creative work.,36,40,20","This color reminds me of poo,-46,60,20","very calming artwork,42,80,20","It looks like a murder scene.,-48,100,20","I like the sophisticated brushwork,40,120,20","Adam","Seems like doodles,-20,20,20","Daniel","It looks like a murder scene.,-48,100,20","Ben","This color reminds me of poo,-46,60,20","2"
"18585","","survey-text","28","264470","0.0-27.0-0.0","A3DIISD224GRPL","","","","{""Q0"":""This abstract does not work for me""}","","","","","","","","","","","","","","","","","","","","","","",""
"5284","","image-slider-response","29","269761","0.0-28.0","A3DIISD224GRPL","","","","","-39","","","","","","","","","","","","","","","","","","","","","",""
"null","","image-button-response","30","274769","0.0-29.0","A3DIISD224GRPL","img_art/ins/2.jpg","null","","","","","","","","","","","","","","","","","","","","","","","","",""
"842","","image-button-response","31","275613","0.0-30.0","A3DIISD224GRPL","img_art/ins/2.jpg","2","","","","","","","","","","","","","","","","","","","","","","","","",""
"1806","","image-button-response","32","277426","0.0-31.0-0.0","A3DIISD224GRPL","img_art/ins/2.jpg","5","","","","","","","","","","","","","","","","","","","","","","","","",""
"3790","","image-button-response","33","281222","0.0-32.0-0.0","A3DIISD224GRPL","img_art/ins/2.jpg","4","","","","","","","","","","","","","","","","","","","","","","","","",""
"null","","html-keyboard-response","34","282229","0.0-33.0","A3DIISD224GRPL","<p style=""font-size: 48px;"">+</p>","","","","","null","allTrialResponses","1000","1","-1","img_art/ins/2.jpg","-39","This abstract does not work for me","Adam,John,Ben,James,Daniel,Kyle","too much color,-18,20,20","love the texture of paint,48,160,20","meaningless painting,-45,60,20","looks too angry,-50,140,20","One of my pet peevs,-48,100,20","Idk, it is just annoying,-32,180,20","Ben","meaningless painting,-45,60,20","Kyle","Idk, it is just annoying,-32,180,20","Daniel","One of my pet peevs,-48,100,20","2"
"18218","","survey-text","35","300460","0.0-34.0-0.0","A3DIISD224GRPL","","","","{""Q0"":""This reminds me of winter and I love it""}","","","","","","","","","","","","","","","","","","","","","","",""
"8361","","image-slider-response","36","308830","0.0-35.0","A3DIISD224GRPL","","","","","50","","","","","","","","","","","","","","","","","","","","","",""
"null","","image-button-response","37","313836","0.0-36.0","A3DIISD224GRPL","img_art/ins/3.jpg","null","","","","","","","","","","","","","","","","","","","","","","","","",""
"3678","","image-button-response","38","317518","0.0-37.0","A3DIISD224GRPL","img_art/ins/3.jpg","0","","","","","","","","","","","","","","","","","","","","","","","","",""
"1747","","image-button-response","39","319270","0.0-38.0-0.0","A3DIISD224GRPL","img_art/ins/3.jpg","3","","","","","","","","","","","","","","","","","","","","","","","","",""
"9325","","image-button-response","40","328603","0.0-39.0-0.0","A3DIISD224GRPL","img_art/ins/3.jpg","1","","","","","","","","","","","","","","","","","","","","","","","","",""
"null","","html-keyboard-response","41","330108","0.0-40.0","A3DIISD224GRPL","<p style=""font-size: 48px;"">+</p>","","","","","null","allTrialResponses","1500","1","0","img_art/ins/3.jpg","50","This reminds me of winter and I love it","Sam,Ron,Ben,Mike,Daniel,Kyle","I can feel a rainy day from this painting,18,240,20","It looks depressing,-26,220,20","This thing gives me anxiety,-41,60,20","enjoy the different shades of blue,22,200,20","looks like a murder room,-35,100,20","It looks like a playground for bats,-36,180,20","Sam","I can feel a rainy day from this painting,18,240,20","Mike","enjoy the different shades of blue,22,200,20","Ron","It looks depressing,-26,220,20","2"
"6627","","image-button-response_instructions","42","336749","0.0-41.0","A3DIISD224GRPL","","0","instructions","","","","","","","","","","","","","","","","","","","","","","","",""
"23025","","survey-likert","43","359782","0.0-42.0-0.0","A3DIISD224GRPL","","","","{""Q0"":"""",""Q1"":0,""Q2"":1}","","","","","","","","","","","","","","","","","","","","","","",""
"5511","","survey-text","44","365304","0.0-43.0-0.0","A3DIISD224GRPL","","","","{""Q0"":""rock""}","","","","","","","","","","","","","","","","","","","","","","",""
"27869","","survey-text","45","393176","0.0-44.0-0.0","A3DIISD224GRPL","","","","{""Q0"":""This looks like either a city or roads I like it""}","","","","","","","","","","","","","","","","","","","","","","",""
"5858","","image-slider-response","46","399038","0.0-45.0","A3DIISD224GRPL","","","","","22","","","","","","","","","","","","","","","","","","","","","",""
"null","","image-button-response","47","404073","0.0-46.0","A3DIISD224GRPL","img_art/11.jpg","null","","","","","","","","","","","","","","","","","","","","","","","","",""
"553","","image-button-response","48","404630","0.0-47.0","A3DIISD224GRPL","img_art/11.jpg","3","","","","","","","","","","","","","","","","","","","","","","","","",""
"6301","","image-button-response","49","410938","0.0-48.0-0.0","A3DIISD224GRPL","img_art/11.jpg","2","","","","","","","","","","","","","","","","","","","","","","","","",""
"8122","","image-button-response","50","419067","0.0-49.0-0.0","A3DIISD224GRPL","img_art/11.jpg","5","","","","","","","","","","","","","","","","","","","","","","","","",""
"null","","html-keyboard-response","51","420577","0.0-50.0","A3DIISD224GRPL","<p style=""font-size: 48px;"">+</p>","","","","","null","allTrialResponses","1500","1","1","img_art/11.jpg","22","This looks like either a city or roads I like it","Miguel,Jeremy,Richard,Gregory,Seth,Kenneth","Good but not eye catching,14,160,20","gave me a sense of gloom,-21,60,20","I like this one mostly a good combination of colors and light and dark,12,340,20","Looks like a cityscape,25,220,20","It makes my head feel dizzy. So I rated it lower.,-25,60,20","Its a little psychedelic.,10,300,20","Gregory","Looks like a cityscape,25,220,20","Richard","I like this one mostly a good combination of colors and light and dark,12,340,20","Kenneth","Its a little psychedelic.,10,300,20","2"
"22696","","survey-text","52","443287","0.0-51.0-0.0","A3DIISD224GRPL","","","","{""Q0"":""This looks like a floor tile not a painting""}","","","","","","","","","","","","","","","","","","","","","","",""
"5207","","image-slider-response","53","448506","0.0-52.0","A3DIISD224GRPL","","","","","-22","","","","","","","","","","","","","","","","","","","","","",""
"null","","image-button-response","54","453512","0.0-53.0","A3DIISD224GRPL","img_art/7.jpg","null","","","","","","","","","","","","","","","","","","","","","","","","",""
"3075","","image-button-response","55","456590","0.0-54.0","A3DIISD224GRPL","img_art/7.jpg","2","","","","","","","","","","","","","","","","","","","","","","","","",""
"3741","","image-button-response","56","460337","0.0-55.0-0.0","A3DIISD224GRPL","img_art/7.jpg","5","","","","","","","","","","","","","","","","","","","","","","","","",""
"2100","","image-button-response","57","462444","0.0-56.0-0.0","A3DIISD224GRPL","img_art/7.jpg","4","","","","","","","","","","","","","","","","","","","","","","","","",""
"null","","html-keyboard-response","58","463454","0.0-57.0","A3DIISD224GRPL","<p style=""font-size: 48px;"">+</p>","","","","","null","allTrialResponses","1000","1","2","img_art/7.jpg","-22","This looks like a floor tile not a painting","Malik,Jesus,Richard,Gregory,Connor,Kenneth","Detail oriented, like cracked paint wall,15,40,20","Is simple in color and texture,11,100,20","looks like wallpaper,-6,340,20","Looks like a battle raging on,20,220,20","Color is bland and looks damaged,-37,240,20","My firs thought was ""gross""...not sure what this is and I dont think i want to know.,-19,300,20","Richard","looks like wallpaper,-6,340,20","Kenneth","My firs thought was ""gross""...not sure what this is and I dont think i want to know.,-19,300,20","Connor","Color is bland and looks damaged,-37,240,20","2"
"20108","","survey-text","59","483576","0.0-58.0-0.0","A3DIISD224GRPL","","","","{""Q0"":""Looks like a bag and I am afraid of what might be in it""}","","","","","","","","","","","","","","","","","","","","","","",""
"11168","","image-slider-response","60","494757","0.0-59.0","A3DIISD224GRPL","","","","","-41","","","","","","","","","","","","","","","","","","","","","",""
"2468","","image-button-response","61","499765","0.0-60.0","A3DIISD224GRPL","img_art/5.jpg","1","","","","","","","","","","","","","","","","","","","","","","","","",""
"5572","","image-button-response","62","505342","0.0-61.0","A3DIISD224GRPL","img_art/5.jpg","3","","","","","","","","","","","","","","","","","","","","","","","","",""
"3497","","image-button-response","63","508846","0.0-62.0-0.0","A3DIISD224GRPL","img_art/5.jpg","5","","","","","","","","","","","","","","","","","","","","","","","","",""
"2312","","image-button-response","64","511169","0.0-63.0-0.0","A3DIISD224GRPL","img_art/5.jpg","2","","","","","","","","","","","","","","","","","","","","","","","","",""
"null","","html-keyboard-response","65","512677","0.0-64.0","A3DIISD224GRPL","<p style=""font-size: 48px;"">+</p>","","","","","null","allTrialResponses","1500","1","3","img_art/5.jpg","-41","Looks like a bag and I am afraid of what might be in it","Carlos,Nathan,Richard,Mitchell,Connor,Kenneth","It feels very strong and open.,31,80,20","Not a fan of the themes,-30,200,20","looks like a 2nd grader did it,-50,340,20","Building remnants in the sand.,1,180,20","Flame, candle, wind,30,240,20","It looks like daffy duck's leg with a random trail of pink.,-22,300,20","Mitchell","Building remnants in the sand.,1,180,20","Kenneth","It looks like daffy duck's leg with a random trail of pink.,-22,300,20","Richard","looks like a 2nd grader did it,-50,340,20","2"
"16345","","survey-text","66","529044","0.0-65.0-0.0","A3DIISD224GRPL","","","","{""Q0"":""The colors are nice and it looks good""}","","","","","","","","","","","","","","","","","","","","","","",""
"5720","","image-slider-response","67","534775","0.0-66.0","A3DIISD224GRPL","","","","","20","","","","","","","","","","","","","","","","","","","","","",""
"2921","","image-button-response","68","539778","0.0-67.0","A3DIISD224GRPL","img_art/14.jpg","1","","","","","","","","","","","","","","","","","","","","","","","","",""
"2884","","image-button-response","69","542668","0.0-68.0","A3DIISD224GRPL","img_art/14.jpg","0","","","","","","","","","","","","","","","","","","","","","","","","",""
"1483","","image-button-response","70","544157","0.0-69.0-0.0","A3DIISD224GRPL","img_art/14.jpg","3","","","","","","","","","","","","","","","","","","","","","","","","",""
"773","","image-button-response","71","544936","0.0-70.0-0.0","A3DIISD224GRPL","img_art/14.jpg","4","","","","","","","","","","","","","","","","","","","","","","","","",""
"null","","html-keyboard-response","72","546444","0.0-71.0","A3DIISD224GRPL","<p style=""font-size: 48px;"">+</p>","","","","","null","allTrialResponses","1500","1","4","img_art/14.jpg","20","The colors are nice and it looks good","Anthony,Peter,Richard,Mitchell,Caleb,Kenneth","This piece is average compared to the others.,1,200,20","I like that it's like a snippet of a field in the desert,21,320,20","the colors are peaceful and nature colors, soft,37,340,20","Tornado, nature. trees falling and displaced creatures. Love the colors though.,1,180,20","Again. This is pretty neutral, leaning dislike.,-18,40,20","Its cute, but not my favorite.,8,300,20","Anthony","This piece is average compared to the others.,1,200,20","Mitchell","Tornado, nature. trees falling and displaced creatures. Love the colors though.,1,180,20","Caleb","Again. This is pretty neutral, leaning dislike.,-18,40,20","2"
"20192","","survey-text","73","566642","0.0-72.0-0.0","A3DIISD224GRPL","","","","{""Q0"":""Looks like someone sat on the painting again""}","","","","","","","","","","","","","","","","","","","","","","",""
"5657","","image-slider-response","74","572309","0.0-73.0","A3DIISD224GRPL","","","","","-33","","","","","","","","","","","","","","","","","","","","","",""
"4238","","image-button-response","75","577316","0.0-74.0","A3DIISD224GRPL","img_art/1.jpg","3","","","","","","","","","","","","","","","","","","","","","","","","",""
"5470","","image-button-response","76","582791","0.0-75.0","A3DIISD224GRPL","img_art/1.jpg","2","","","","","","","","","","","","","","","","","","","","","","","","",""
"5367","","image-button-response","77","588163","0.0-76.0-0.0","A3DIISD224GRPL","img_art/1.jpg","5","","","","","","","","","","","","","","","","","","","","","","","","",""
"820","","image-button-response","78","588996","0.0-77.0-0.0","A3DIISD224GRPL","img_art/1.jpg","4","","","","","","","","","","","","","","","","","","","","","","","","",""
"null","","html-keyboard-response","79","589503","0.0-78.0","A3DIISD224GRPL","<p style=""font-size: 48px;"">+</p>","","","","","null","allTrialResponses","500","1","5","img_art/1.jpg","-33","Looks like someone sat on the painting again","Anthony,Dalton,Adrian,Mitchell,Caleb,Ethan","Bright and colorful without being overpowering,32,200,20","the colors are vibrant and beautiful,1,300,20","Not a fan of the colors. Makes me think of the Australian bush fires.,-5,60,20","confused,animal like brain fog,0,180,20","Its simply okay.,3,40,20","This piece feels soft and romantic to me. I do not care for so much orange though.,3,120,20","Adrian","Not a fan of the colors. Makes me think of the Australian bush fires.,-5,60,20","Ethan","This piece feels soft and romantic to me. I do not care for so much orange though.,3,120,20","Caleb","Its simply okay.,3,40,20","2"
"5169","","survey-text","80","594699","0.0-79.0-0.0","A3DIISD224GRPL","","","","{""Q0"":""sky""}","","","","","","","","","","","","","","","","","","","","","","",""
"17273","","survey-text","81","611977","0.0-80.0-0.0","A3DIISD224GRPL","","","","{""Q0"":""drop the lipstick and clean that wall""}","","","","","","","","","","","","","","","","","","","","","","",""
"6494","","image-slider-response","82","618473","0.0-81.0","A3DIISD224GRPL","","","","","-50","","","","","","","","","","","","","","","","","","","","","",""
"4379","","image-button-response","83","623478","0.0-82.0","A3DIISD224GRPL","img_art/3.jpg","0","","","","","","","","","","","","","","","","","","","","","","","","",""
"4692","","image-button-response","84","628176","0.0-83.0","A3DIISD224GRPL","img_art/3.jpg","1","","","","","","","","","","","","","","","","","","","","","","","","",""
"1152","","image-button-response","85","629335","0.0-84.0-0.0","A3DIISD224GRPL","img_art/3.jpg","2","","","","","","","","","","","","","","","","","","","","","","","","",""
"3277","","image-button-response","86","632620","0.0-85.0-0.0","A3DIISD224GRPL","img_art/3.jpg","4","","","","","","","","","","","","","","","","","","","","","","","","",""
"null","","html-keyboard-response","87","633125","0.0-86.0","A3DIISD224GRPL","<p style=""font-size: 48px;"">+</p>","","","","","null","allTrialResponses","500","1","6","img_art/3.jpg","-50","drop the lipstick and clean that wall","Garrett,Christopher,Adrian,Tyler,Caleb,Ethan","I can't tell what this image is supposed to be it looks extremely ugly and color variety is boring.,-50,180,20","the red is impactful but the work overall doesn't say anything to me,-8,160,20","Angry red crayons, like a child throwing a tantrum. No thanks.,-10,60,20","This doesn't grab me. Perhaps the red is meant to be provocative; I find it gimmicky.,-9,320,20","Completely incomprehensible.,-33,40,20","I usually don't like red. Red in this angry piece is very fitting.,19,120,20","Christopher","the red is impactful but the work overall doesn't say anything to me,-8,160,20","Adrian","Angry red crayons, like a child throwing a tantrum. No thanks.,-10,60,20","Caleb","Completely incomprehensible.,-33,40,20","2"
"29560","","survey-text","88","662691","0.0-87.0-0.0","A3DIISD224GRPL","","","","{""Q0"":""This looks kind of interesting but that red line is dumb""}","","","","","","","","","","","","","","","","","","","","","","",""
"5190","","image-slider-response","89","667884","0.0-88.0","A3DIISD224GRPL","","","","","-11","","","","","","","","","","","","","","","","","","","","","",""
"2127","","image-button-response","90","672897","0.0-89.0","A3DIISD224GRPL","img_art/29.jpg","1","","","","","","","","","","","","","","","","","","","","","","","","",""
"600","","image-button-response","91","673502","0.0-90.0","A3DIISD224GRPL","img_art/29.jpg","1","","","","","","","","","","","","","","","","","","","","","","","","",""
"2443","","image-button-response","92","675952","0.0-91.0-0.0","A3DIISD224GRPL","img_art/29.jpg","2","","","","","","","","","","","","","","","","","","","","","","","","",""
"3933","","image-button-response","93","679893","0.0-92.0-0.0","A3DIISD224GRPL","img_art/29.jpg","4","","","","","","","","","","","","","","","","","","","","","","","","",""
"null","","html-keyboard-response","94","680401","0.0-93.0","A3DIISD224GRPL","<p style=""font-size: 48px;"">+</p>","","","","","null","allTrialResponses","500","1","7","img_art/29.jpg","-11","This looks kind of interesting but that red line is dumb","Tanner,Christopher,Adrian,John,Caleb,Devon","danger, crime scene,,10,180,20","it's interesting but not my style,9,160,20","Again, ugly colors and I'm not a fan of abstract. This looks like the view into a garbage dump.,-50,60,20","Its interesting although doesnt illicit any strong emotions from me,10,120,20","Looks wrong. Like a real painting was vandalized.,-50,40,20","seems fun, looks like a battle zone,22,400,20","Christopher","it's interesting but not my style,9,160,20","Adrian","Again, ugly colors and I'm not a fan of abstract. This looks like the view into a garbage dump.,-50,60,20","Caleb","Looks wrong. Like a real painting was vandalized.,-50,40,20","2"
"19898","","survey-text","95","700318","0.0-94.0-0.0","A3DIISD224GRPL","","","","{""Q0"":""Now this is nice looks like a real artist did this""}","","","","","","","","","","","","","","","","","","","","","","",""
"5271","","image-slider-response","96","705597","0.0-95.0","A3DIISD224GRPL","","","","","50","","","","","","","","","","","","","","","","","","","","","",""
"3498","","image-button-response","97","710602","0.0-96.0","A3DIISD224GRPL","img_art/8.jpg","0","","","","","","","","","","","","","","","","","","","","","","","","",""
"829","","image-button-response","98","711441","0.0-97.0","A3DIISD224GRPL","img_art/8.jpg","0","","","","","","","","","","","","","","","","","","","","","","","","",""
"6035","","image-button-response","99","717488","0.0-98.0-0.0","A3DIISD224GRPL","img_art/8.jpg","2","","","","","","","","","","","","","","","","","","","","","","","","",""
"1998","","image-button-response","100","719494","0.0-99.0-0.0","A3DIISD224GRPL","img_art/8.jpg","5","","","","","","","","","","","","","","","","","","","","","","","","",""
"null","","html-keyboard-response","101","720001","0.0-100.0","A3DIISD224GRPL","<p style=""font-size: 48px;"">+</p>","","","","","null","allTrialResponses","500","1","8","img_art/8.jpg","50","Now this is nice looks like a real artist did this","Gabriel,Christopher,Adrian,Joshua,Caleb,Cole","i like all the different faces,19,160,20","it's interesting but i don't enjoy the style,-5,160,20","Pleasant colors, lots of interest. Not sure what's going on but I like it.,20,60,20","I don't understand it. Makes no sense to me.,5,240,20","Despite the detail, this picture is very abstract!,31,40,20","Its abstract and interesting,24,200,20","Gabriel","i like all the different faces,19,160,20","Adrian","Pleasant colors, lots of interest. Not sure what's going on but I like it.,20,60,20","Cole","Its abstract and interesting,24,200,20","2"
"27431","","survey-text","102","747450","0.0-101.0-0.0","A3DIISD224GRPL","","","","{""Q0"":""somewhat interesting but those silly circles ruin it all""}","","","","","","","","","","","","","","","","","","","","","","",""
"5834","","image-slider-response","103","753292","0.0-102.0","A3DIISD224GRPL","","","","","-3","","","","","","","","","","","","","","","","","","","","","",""
"2181","","image-button-response","104","758301","0.0-103.0","A3DIISD224GRPL","img_art/27.jpg","0","","","","","","","","","","","","","","","","","","","","","","","","",""
"503","","image-button-response","105","758812","0.0-104.0","A3DIISD224GRPL","img_art/27.jpg","0","","","","","","","","","","","","","","","","","","","","","","","","",""
"2281","","image-button-response","106","761099","0.0-105.0-0.0","A3DIISD224GRPL","img_art/27.jpg","3","","","","","","","","","","","","","","","","","","","","","","","","",""
"3422","","image-button-response","107","764530","0.0-106.0-0.0","A3DIISD224GRPL","img_art/27.jpg","4","","","","","","","","","","","","","","","","","","","","","","","","",""
"null","","html-keyboard-response","108","765536","0.0-107.0","A3DIISD224GRPL","<p style=""font-size: 48px;"">+</p>","","","","","null","allTrialResponses","1000","1","9","img_art/27.jpg","-3","somewhat interesting but those silly circles ruin it all","Gabriel,Antonio,Adrian,Stephen,Jesse,Cole","too messy dont like the color choices either,-17,160,20","Didnt actually make me feel anything, sort of bland,3,220,20","Looks like my niece's doodles.,-50,60,20","This one does nothing for me.,2,140,20","Doesnt look like anything to me. Doesnt capture my attention.,-25,80,20","Unfinished something?,-30,200,20","Gabriel","too messy dont like the color choices either,-17,160,20","Stephen","This one does nothing for me.,2,140,20","Jesse","Doesnt look like anything to me. Doesnt capture my attention.,-25,80,20","2"
"20196","","survey-text","109","785746","0.0-108.0-0.0","A3DIISD224GRPL","","","","{""Q0"":""seems like a child did this so this is pretty good for a child""}","","","","","","","","","","","","","","","","","","","","","","",""
"8280","","image-slider-response","110","794032","0.0-109.0","A3DIISD224GRPL","","","","","11","","","","","","","","","","","","","","","","","","","","","",""
"null","","image-button-response","111","799036","0.0-110.0","A3DIISD224GRPL","img_art/26.jpg","null","","","","","","","","","","","","","","","","","","","","","","","","",""
"2221","","image-button-response","112","801259","0.0-111.0","A3DIISD224GRPL","img_art/26.jpg","3","","","","","","","","","","","","","","","","","","","","","","","","",""
"1717","","image-button-response","113","802983","0.0-112.0-0.0","A3DIISD224GRPL","img_art/26.jpg","4","","","","","","","","","","","","","","","","","","","","","","","","",""
"5640","","image-button-response","114","808630","0.0-113.0-0.0","A3DIISD224GRPL","img_art/26.jpg","5","","","","","","","","","","","","","","","","","","","","","","","","",""
"null","","html-keyboard-response","115","809138","0.0-114.0","A3DIISD224GRPL","<p style=""font-size: 48px;"">+</p>","","","","","null","allTrialResponses","500","1","10","img_art/26.jpg","11","seems like a child did this so this is pretty good for a child","Gabriel,Spencer,Scott,Stephen,Jesse,Bryan","this is nice!! i like the muted colors,34,160,20","Really like it, a very nice neighborhood scene to me,42,120,20","nothing really special, quite bland,1,20,20","No strong reaction but the color scheme is nice,10,140,20","Looks bland and boring,-5,80,20","Like the muted colors & the scene which seems to be serene.,14,400,20","Stephen","No strong reaction but the color scheme is nice,10,140,20","Jesse","Looks bland and boring,-5,80,20","Bryan","Like the muted colors & the scene which seems to be serene.,14,400,20","2"
"4468","","survey-text","116","813628","0.0-115.0-0.0","A3DIISD224GRPL","","","","{""Q0"":""our""}","","","","","","","","","","","","","","","","","","","","","","",""
"23959","","survey-text","117","837591","0.0-116.0-0.0","A3DIISD224GRPL","","","","{""Q0"":""I have no idea what this represents but I like it""}","","","","","","","","","","","","","","","","","","","","","","",""
"5792","","image-slider-response","118","843387","0.0-117.0","A3DIISD224GRPL","","","","","28","","","","","","","","","","","","","","","","","","","","","",""
"null","","image-button-response","119","848393","0.0-118.0","A3DIISD224GRPL","img_art/28.jpg","null","","","","","","","","","","","","","","","","","","","","","","","","",""
"1514","","image-button-response","120","849909","0.0-119.0","A3DIISD224GRPL","img_art/28.jpg","3","","","","","","","","","","","","","","","","","","","","","","","","",""
"1434","","image-button-response","121","851350","0.0-120.0-0.0","A3DIISD224GRPL","img_art/28.jpg","4","","","","","","","","","","","","","","","","","","","","","","","","",""
"1623","","image-button-response","122","852982","0.0-121.0-0.0","A3DIISD224GRPL","img_art/28.jpg","2","","","","","","","","","","","","","","","","","","","","","","","","",""
"null","","html-keyboard-response","123","854488","0.0-122.0","A3DIISD224GRPL","<p style=""font-size: 48px;"">+</p>","","","","","null","allTrialResponses","1500","1","11","img_art/28.jpg","28","I have no idea what this represents but I like it","Luis,Jordan,William,Stephen,Jesse,Bryan","Self-hate and abuse at home, unsafe and torturing,-30,400,20","A messy bed room,-7,160,20","drab and dreary,-21,380,20","Good use of shapes.,7,140,20","Just all blurs together for me. No substance.,-23,80,20","A meeting in Old Jerusalem.,11,400,20","Stephen","Good use of shapes.,7,140,20","Jesse","Just all blurs together for me. No substance.,-23,80,20","William","drab and dreary,-21,380,20","2"
"19018","","survey-text","124","873527","0.0-123.0-0.0","A3DIISD224GRPL","","","","{""Q0"":""Looks like a man waiting for a train""}","","","","","","","","","","","","","","","","","","","","","","",""
"5807","","image-slider-response","125","879344","0.0-124.0","A3DIISD224GRPL","","","","","21","","","","","","","","","","","","","","","","","","","","","",""
"2489","","image-button-response","126","884350","0.0-125.0","A3DIISD224GRPL","img_art/19.jpg","0","","","","","","","","","","","","","","","","","","","","","","","","",""
"459","","image-button-response","127","884815","0.0-126.0","A3DIISD224GRPL","img_art/19.jpg","0","","","","","","","","","","","","","","","","","","","","","","","","",""
"6747","","image-button-response","128","891565","0.0-127.0-0.0","A3DIISD224GRPL","img_art/19.jpg","3","","","","","","","","","","","","","","","","","","","","","","","","",""
"1139","","image-button-response","129","892715","0.0-128.0-0.0","A3DIISD224GRPL","img_art/19.jpg","4","","","","","","","","","","","","","","","","","","","","","","","","",""
"null","","html-keyboard-response","130","893719","0.0-129.0","A3DIISD224GRPL","<p style=""font-size: 48px;"">+</p>","","","","","null","allTrialResponses","1000","1","12","img_art/19.jpg","21","Looks like a man waiting for a train","Derek,Justin,William,Stephen,Jesse,Daniel","It has a chaotic energy about it that draws me in,40,360,20","It looks too much of a rough sketch. Don't really enjoy looking at it.,-9,280,20","to much going on,-22,380,20","Solid use of colors but wished it looked more realistic.,12,140,20","I dont like the smudge effect,-7,80,20","Simple, scratchy lack of negative space.,-10,320,20","Derek","It has a chaotic energy about it that draws me in,40,360,20","Stephen","Solid use of colors but wished it looked more realistic.,12,140,20","Jesse","I dont like the smudge effect,-7,80,20","2"
"11275","","survey-text","131","905018","0.0-130.0-0.0","A3DIISD224GRPL","","","","{""Q0"":""too square""}","","","","","","","","","","","","","","","","","","","","","","",""
"5683","","image-slider-response","132","910710","0.0-131.0","A3DIISD224GRPL","","","","","-5","","","","","","","","","","","","","","","","","","","","","",""
"1525","","image-button-response","133","915715","0.0-132.0","A3DIISD224GRPL","img_art/12.jpg","1","","","","","","","","","","","","","","","","","","","","","","","","",""
"1235","","image-button-response","134","916955","0.0-133.0","A3DIISD224GRPL","img_art/12.jpg","3","","","","","","","","","","","","","","","","","","","","","","","","",""
"961","","image-button-response","135","917924","0.0-134.0-0.0","A3DIISD224GRPL","img_art/12.jpg","4","","","","","","","","","","","","","","","","","","","","","","","","",""
"1234","","image-button-response","136","919165","0.0-135.0-0.0","A3DIISD224GRPL","img_art/12.jpg","5","","","","","","","","","","","","","","","","","","","","","","","","",""
"null","","html-keyboard-response","137","920670","0.0-136.0","A3DIISD224GRPL","<p style=""font-size: 48px;"">+</p>","","","","","null","allTrialResponses","1500","1","13","img_art/12.jpg","-5","too square","Derek,Victor,Brandon,Stephen,Jesse,Dylan","I love the pattern and this looks like it took a good deal of effort,35,360,20","I like the colors and pattern,21,340,20","I like the cubic feel.,11,320,20","Comes off as a bit boring.,-11,140,20","Just confuses me overall,-11,80,20","I like the pattern of this picture, but the colors could be nicer,11,40,20","Stephen","Comes off as a bit boring.,-11,140,20","Jesse","Just confuses me overall,-11,80,20","Dylan","I like the pattern of this picture, but the colors could be nicer,11,40,20","2"
"20486","","survey-text","138","941172","0.0-137.0-0.0","A3DIISD224GRPL","","","","{""Q0"":""very interesting reminds me of rain""}","","","","","","","","","","","","","","","","","","","","","","",""
"6275","","image-slider-response","139","947450","0.0-138.0","A3DIISD224GRPL","","","","","45","","","","","","","","","","","","","","","","","","","","","",""
"4479","","image-button-response","140","952453","0.0-139.0","A3DIISD224GRPL","img_art/13.jpg","0","","","","","","","","","","","","","","","","","","","","","","","","",""
"780","","image-button-response","141","953238","0.0-140.0","A3DIISD224GRPL","img_art/13.jpg","0","","","","","","","","","","","","","","","","","","","","","","","","",""
"3692","","image-button-response","142","956934","0.0-141.0-0.0","A3DIISD224GRPL","img_art/13.jpg","2","","","","","","","","","","","","","","","","","","","","","","","","",""
"1552","","image-button-response","143","958495","0.0-142.0-0.0","A3DIISD224GRPL","img_art/13.jpg","5","","","","","","","","","","","","","","","","","","","","","","","","",""
"null","","html-keyboard-response","144","959001","0.0-143.0","A3DIISD224GRPL","<p style=""font-size: 48px;"">+</p>","","","","","null","allTrialResponses","500","1","14","img_art/13.jpg","45","very interesting reminds me of rain","Ryan,Brian,Colton,Stephen,Jesse,Dylan","Feels calm and could be placed in anyones house,43,380,20","I don't really care for splatter paintings; the spectral colors underneath are nice.,-18,380,20","love the colors and splatters,44,220,20","Like how realistic it looks.,33,140,20","Really like this. Its like looking out a window into a beautiful storm,39,80,20","I do like the blue colors in this.,12,40,20","Ryan","Feels calm and could be placed in anyones house,43,380,20","Colton","love the colors and splatters,44,220,20","Dylan","I do like the blue colors in this.,12,40,20","2"
"20508","","survey-text","145","979531","0.0-144.0-0.0","A3DIISD224GRPL","","","","{""Q0"":""is this a headless bird on Mars?""}","","","","","","","","","","","","","","","","","","","","","","",""
"6487","","image-slider-response","146","986021","0.0-145.0","A3DIISD224GRPL","","","","","-46","","","","","","","","","","","","","","","","","","","","","",""
"2887","","image-button-response","147","991031","0.0-146.0","A3DIISD224GRPL","img_art/6.jpg","0","","","","","","","","","","","","","","","","","","","","","","","","",""
"1607","","image-button-response","148","992643","0.0-147.0","A3DIISD224GRPL","img_art/6.jpg","0","","","","","","","","","","","","","","","","","","","","","","","","",""
"2546","","image-button-response","149","995195","0.0-148.0-0.0","A3DIISD224GRPL","img_art/6.jpg","2","","","","","","","","","","","","","","","","","","","","","","","","",""
"2480","","image-button-response","150","997682","0.0-149.0-0.0","A3DIISD224GRPL","img_art/6.jpg","4","","","","","","","","","","","","","","","","","","","","","","","","",""
"null","","html-keyboard-response","151","998188","0.0-150.0","A3DIISD224GRPL","<p style=""font-size: 48px;"">+</p>","","","","","null","allTrialResponses","500","1","15","img_art/6.jpg","-46","is this a headless bird on Mars?","Ryan,Shawn,Colton,Jorge,Patrick,Dylan","Makes me feel lonely,-22,380,20","Cute and evocative,11,100,20","very minimalistic,22,220,20","seeds of change,11,180,20","It looks sad and scary at the same time,11,280,20","this is interesting and unique,11,40,20","Ryan","Makes me feel lonely,-22,380,20","Colton","very minimalistic,22,220,20","Patrick","It looks sad and scary at the same time,11,280,20","2"
"5681","","survey-text","152","1003897","0.0-151.0-0.0","A3DIISD224GRPL","","","","{""Q0"":""course""}","","","","","","","","","","","","","","","","","","","","","","",""
"23807","","survey-text","153","1027711","0.0-152.0-0.0","A3DIISD224GRPL","","","","{""Q0"":""looks like a peacock that got hit by a beer truck""}","","","","","","","","","","","","","","","","","","","","","","",""
"5338","","image-slider-response","154","1033058","0.0-153.0","A3DIISD224GRPL","","","","","-23","","","","","","","","","","","","","","","","","","","","","",""
"2740","","image-button-response","155","1038064","0.0-154.0","A3DIISD224GRPL","img_art/15.jpg","0","","","","","","","","","","","","","","","","","","","","","","","","",""
"744","","image-button-response","156","1038813","0.0-155.0","A3DIISD224GRPL","img_art/15.jpg","0","","","","","","","","","","","","","","","","","","","","","","","","",""
"1792","","image-button-response","157","1040613","0.0-156.0-0.0","A3DIISD224GRPL","img_art/15.jpg","4","","","","","","","","","","","","","","","","","","","","","","","","",""
"8896","","image-button-response","158","1049520","0.0-157.0-0.0","A3DIISD224GRPL","img_art/15.jpg","5","","","","","","","","","","","","","","","","","","","","","","","","",""
"null","","html-keyboard-response","159","1050027","0.0-158.0","A3DIISD224GRPL","<p style=""font-size: 48px;"">+</p>","","","","","null","allTrialResponses","500","1","16","img_art/15.jpg","-23","looks like a peacock that got hit by a beer truck","Ryan,Angel,Colton,Benjamin,Patrick,Bradley","It triggers my tripophobia,-50,380,20","This is looking at a forest from above. I can see water and some pathways throughout. Nature.,20,180,20","it's alright but a little cluttered,14,220,20","Reminds me of blueberry bushes.,7,260,20","I don't like the black dots,-19,280,20","I feel like there's ski jumping going on here.,2,300,20","Ryan","It triggers my tripophobia,-50,380,20","Patrick","I don't like the black dots,-19,280,20","Bradley","I feel like there's ski jumping going on here.,2,300,20","2"
"21924","","survey-text","160","1071960","0.0-159.0-0.0","A3DIISD224GRPL","","","","{""Q0"":""looks like a car crash kind of depressing""}","","","","","","","","","","","","","","","","","","","","","","",""
"4730","","image-slider-response","161","1076703","0.0-160.0","A3DIISD224GRPL","","","","","-4","","","","","","","","","","","","","","","","","","","","","",""
"null","","image-button-response","162","1081711","0.0-161.0","A3DIISD224GRPL","img_art/20.jpg","null","","","","","","","","","","","","","","","","","","","","","","","","",""
"1141","","image-button-response","163","1082858","0.0-162.0","A3DIISD224GRPL","img_art/20.jpg","0","","","","","","","","","","","","","","","","","","","","","","","","",""
"7895","","image-button-response","164","1090759","0.0-163.0-0.0","A3DIISD224GRPL","img_art/20.jpg","2","","","","","","","","","","","","","","","","","","","","","","","","",""
"1210","","image-button-response","165","1091975","0.0-164.0-0.0","A3DIISD224GRPL","img_art/20.jpg","5","","","","","","","","","","","","","","","","","","","","","","","","",""
"null","","html-keyboard-response","166","1092480","0.0-165.0","A3DIISD224GRPL","<p style=""font-size: 48px;"">+</p>","","","","","null","allTrialResponses","500","1","17","img_art/20.jpg","-4","looks like a car crash kind of depressing","Ryan,Cameron,Charles,Kevin,Patrick,Bradley","Too negative looks like a car and plane crash,-50,380,20","Dinosaur skill and some dark shadow above,-30,60,20","Something bad has happened TO reality,-23,100,20","The beast is running after you.,33,320,20","Looks calm but a bit dark,21,280,20","A truck rolled over?  I do like the pictures and the technique though.,25,300,20","Ryan","Too negative looks like a car and plane crash,-50,380,20","Charles","Something bad has happened TO reality,-23,100,20","Bradley","A truck rolled over?  I do like the pictures and the technique though.,25,300,20","2"
"27246","","survey-text","167","1119749","0.0-166.0-0.0","A3DIISD224GRPL","","","","{""Q0"":""I could do this so that is saying something""}","","","","","","","","","","","","","","","","","","","","","","",""
"7770","","image-slider-response","168","1127528","0.0-167.0","A3DIISD224GRPL","","","","","-12","","","","","","","","","","","","","","","","","","","","","",""
"null","","image-button-response","169","1132534","0.0-168.0","A3DIISD224GRPL","img_art/30.jpg","null","","","","","","","","","","","","","","","","","","","","","","","","",""
"616","","image-button-response","170","1133155","0.0-169.0","A3DIISD224GRPL","img_art/30.jpg","3","","","","","","","","","","","","","","","","","","","","","","","","",""
"557","","image-button-response","171","1133719","0.0-170.0-0.0","A3DIISD224GRPL","img_art/30.jpg","4","","","","","","","","","","","","","","","","","","","","","","","","",""
"831","","image-button-response","172","1134559","0.0-171.0-0.0","A3DIISD224GRPL","img_art/30.jpg","1","","","","","","","","","","","","","","","","","","","","","","","","",""
"null","","html-keyboard-response","173","1136064","0.0-172.0","A3DIISD224GRPL","<p style=""font-size: 48px;"">+</p>","","","","","null","allTrialResponses","1500","1","18","img_art/30.jpg","-12","I could do this so that is saying something","Ryan,Corey,Charles,Jason,Elijah,Bradley","Love how the red stands out,20,380,20","I dont like the colors whatsoever,-15,260,20","looks like eels,-20,100,20","Do not like the streaks,-14,20,20","Paint scribbled on canvas,-25,80,20","Hmmm. I think the artist is trying to direct me to a spreadsheet?  (s/s),-10,300,20","Jason","Do not like the streaks,-14,20,20","Elijah","Paint scribbled on canvas,-25,80,20","Corey","I dont like the colors whatsoever,-15,260,20","2"
"14617","","survey-text","174","1150702","0.0-173.0-0.0","A3DIISD224GRPL","","","","{""Q0"":""Very pretty and this does it for me""}","","","","","","","","","","","","","","","","","","","","","","",""
"6036","","image-slider-response","175","1156747","0.0-174.0","A3DIISD224GRPL","","","","","50","","","","","","","","","","","","","","","","","","","","","",""
"1091","","image-button-response","176","1161751","0.0-175.0","A3DIISD224GRPL","img_art/24.jpg","4","","","","","","","","","","","","","","","","","","","","","","","","",""
"840","","image-button-response","177","1162598","0.0-176.0","A3DIISD224GRPL","img_art/24.jpg","3","","","","","","","","","","","","","","","","","","","","","","","","",""
"722","","image-button-response","178","1163330","0.0-177.0-0.0","A3DIISD224GRPL","img_art/24.jpg","0","","","","","","","","","","","","","","","","","","","","","","","","",""
"568","","image-button-response","179","1163908","0.0-178.0-0.0","A3DIISD224GRPL","img_art/24.jpg","1","","","","","","","","","","","","","","","","","","","","","","","","",""
"null","","html-keyboard-response","180","1164414","0.0-179.0","A3DIISD224GRPL","<p style=""font-size: 48px;"">+</p>","","","","","null","allTrialResponses","500","1","19","img_art/24.jpg","50","Very pretty and this does it for me","Jose,Corey,Brett,Jason,Elijah,Mark","The combination of nature / realism with abstract colors is unique.,39,200,20","peaceful and serene but Im not the biggest landscape fan,4,260,20","Forest waterfall,40,360,20","I like the bright colors,16,20,20","Like it, nice attention to details,31,80,20","Waterfall, and I love the coloring.,48,80,20","Jason","I like the bright colors,16,20,20","Jose","The combination of nature / realism with abstract colors is unique.,39,200,20","Corey","peaceful and serene but Im not the biggest landscape fan,4,260,20","2"
"11887","","survey-text","181","1176323","0.0-180.0-0.0","A3DIISD224GRPL","","","","{""Q0"":""very interesting""}","","","","","","","","","","","","","","","","","","","","","","",""
"35492","","image-slider-response","182","1211825","0.0-181.0","A3DIISD224GRPL","","","","","16","","","","","","","","","","","","","","","","","","","","","",""
"null","","image-button-response","183","1216831","0.0-182.0","A3DIISD224GRPL","img_art/10.jpg","null","","","","","","","","","","","","","","","","","","","","","","","","",""
"455","","image-button-response","184","1217287","0.0-183.0","A3DIISD224GRPL","img_art/10.jpg","1","","","","","","","","","","","","","","","","","","","","","","","","",""
"1124","","image-button-response","185","1218416","0.0-184.0-0.0","A3DIISD224GRPL","img_art/10.jpg","0","","","","","","","","","","","","","","","","","","","","","","","","",""
"1787","","image-button-response","186","1220209","0.0-185.0-0.0","A3DIISD224GRPL","img_art/10.jpg","4","","","","","","","","","","","","","","","","","","","","","","","","",""
"null","","html-keyboard-response","187","1220716","0.0-186.0","A3DIISD224GRPL","<p style=""font-size: 48px;"">+</p>","","","","","null","allTrialResponses","500","1","20","img_art/10.jpg","16","very interesting","Jose,Corey,Jake,Jason,Edward,Jonathan","This is pretty rad. The outline looks like a music staff,15,200,20","I think this was going to be a guitar but then the artist got mad and gave up,-4,260,20","This is odd and ugly.,-9,360,20","Picture looks smudged,-7,20,20","It looks like it's sinking but it could also be a view from above,40,60,20","Too much negative space makes it feel unfinished,-25,140,20","Corey","I think this was going to be a guitar but then the artist got mad and gave up,-4,260,20","Jose","This is pretty rad. The outline looks like a music staff,15,200,20","Edward","It looks like it's sinking but it could also be a view from above,40,60,20","2"
"3658","","survey-text","188","1224410","0.0-187.0-0.0","A3DIISD224GRPL","","","","{""Q0"":""we""}","","","","","","","","","","","","","","","","","","","","","","",""
"21450","","survey-text","189","1245866","0.0-188.0-0.0","A3DIISD224GRPL","","","","{""Q0"":""looks like dancing girls in a heavy wind storm""}","","","","","","","","","","","","","","","","","","","","","","",""
"5430","","image-slider-response","190","1251304","0.0-189.0","A3DIISD224GRPL","","","","","-3","","","","","","","","","","","","","","","","","","","","","",""
"null","","image-button-response","191","1256310","0.0-190.0","A3DIISD224GRPL","img_art/23.jpg","null","","","","","","","","","","","","","","","","","","","","","","","","",""
"1554","","image-button-response","192","1257868","0.0-191.0","A3DIISD224GRPL","img_art/23.jpg","3","","","","","","","","","","","","","","","","","","","","","","","","",""
"1839","","image-button-response","193","1259715","0.0-192.0-0.0","A3DIISD224GRPL","img_art/23.jpg","4","","","","","","","","","","","","","","","","","","","","","","","","",""
"832","","image-button-response","194","1260559","0.0-193.0-0.0","A3DIISD224GRPL","img_art/23.jpg","5","","","","","","","","","","","","","","","","","","","","","","","","",""
"null","","html-keyboard-response","195","1261569","0.0-194.0","A3DIISD224GRPL","<p style=""font-size: 48px;"">+</p>","","","","","null","allTrialResponses","1000","1","21","img_art/23.jpg","-3","looks like dancing girls in a heavy wind storm","Jose,Corey,Kyle,Isaiah,Edward,Marcus","This one is awesome, kinda looks like a cake with sprinkles but in a different universe,50,200,20","white reminds me of screamo music band tshirts when they have their name in the unreadable lettering,-9,260,20","Mostly neutral but a bit too guady with the brash colors,-6,340,20","I feel happy and a little excited. Like watching fireworks with family.,26,300,20","This would make a great mural,37,60,20","Like the background colors and the energy, but the white bits ruin it for me,-7,60,20","Isaiah","I feel happy and a little excited. Like watching fireworks with family.,26,300,20","Edward","This would make a great mural,37,60,20","Marcus","Like the background colors and the energy, but the white bits ruin it for me,-7,60,20","2"
"25529","","survey-text","196","1287124","0.0-195.0-0.0","A3DIISD224GRPL","","","","{""Q0"":""looks like a demonic freak of hell coming to get me obviously I love it""}","","","","","","","","","","","","","","","","","","","","","","",""
"6011","","image-slider-response","197","1293138","0.0-196.0","A3DIISD224GRPL","","","","","41","","","","","","","","","","","","","","","","","","","","","",""
"4154","","image-button-response","198","1298145","0.0-197.0","A3DIISD224GRPL","img_art/25.jpg","0","","","","","","","","","","","","","","","","","","","","","","","","",""
"756","","image-button-response","199","1298906","0.0-198.0","A3DIISD224GRPL","img_art/25.jpg","0","","","","","","","","","","","","","","","","","","","","","","","","",""
"903","","image-button-response","200","1299813","0.0-199.0-0.0","A3DIISD224GRPL","img_art/25.jpg","1","","","","","","","","","","","","","","","","","","","","","","","","",""
"797","","image-button-response","201","1300616","0.0-200.0-0.0","A3DIISD224GRPL","img_art/25.jpg","2","","","","","","","","","","","","","","","","","","","","","","","","",""
"null","","html-keyboard-response","202","1301624","0.0-201.0","A3DIISD224GRPL","<p style=""font-size: 48px;"">+</p>","","","","","null","allTrialResponses","1000","1","22","img_art/25.jpg","41","looks like a demonic freak of hell coming to get me obviously I love it","Dustin,Vincent,Sean,Isaiah,Edward,Marcus","Reminds me of ancient civilization art. I like the aqua color; soothing to me.,1,20,20","Iike this picture; it speaks to me on a personal level. But seems to scare the ones around me.,7,360,20","my response to the picture its weird,-9,40,20","I feel little to no emotion looking at this painting.,0,300,20","It looks like people worshipping a statue,33,60,20","Ugly green color and don't like it at all,-30,60,20","Dustin","Reminds me of ancient civilization art. I like the aqua color; soothing to me.,1,20,20","Vincent","Iike this picture; it speaks to me on a personal level. But seems to scare the ones around me.,7,360,20","Sean","my response to the picture its weird,-9,40,20","2"
"35729","","survey-text","203","1337375","0.0-202.0-0.0","A3DIISD224GRPL","","","","{""Q0"":""I make this type of art every time I drop peanut butter and jelly on the floor""}","","","","","","","","","","","","","","","","","","","","","","",""
"5115","","image-slider-response","204","1342494","0.0-203.0","A3DIISD224GRPL","","","","","-12","","","","","","","","","","","","","","","","","","","","","",""
"null","","image-button-response","205","1347501","0.0-204.0","A3DIISD224GRPL","img_art/2.jpg","null","","","","","","","","","","","","","","","","","","","","","","","","",""
"5918","","image-button-response","206","1353422","0.0-205.0","A3DIISD224GRPL","img_art/2.jpg","0","","","","","","","","","","","","","","","","","","","","","","","","",""
"857","","image-button-response","207","1354283","0.0-206.0-0.0","A3DIISD224GRPL","img_art/2.jpg","1","","","","","","","","","","","","","","","","","","","","","","","","",""
"677","","image-button-response","208","1354968","0.0-207.0-0.0","A3DIISD224GRPL","img_art/2.jpg","2","","","","","","","","","","","","","","","","","","","","","","","","",""
"null","","html-keyboard-response","209","1355973","0.0-208.0","A3DIISD224GRPL","<p style=""font-size: 48px;"">+</p>","","","","","null","allTrialResponses","1000","1","23","img_art/2.jpg","-12","I make this type of art every time I drop peanut butter and jelly on the floor","Dustin,Vincent,Sean,Alexis,Logan,Christian","Doesn't look like anything. Just a blob of colors.,1,20,20","This reminds me of a peaceful day out alone shopping and spending some me time,41,360,20","looks like a bunch of gibberish,-39,40,20","The people look blurred together,-21,140,20","omg she's so cute look at that little smile those eyelashes ugh love it,30,360,20","do not understand,-21,140,20","Dustin","Doesn't look like anything. Just a blob of colors.,1,20,20","Vincent","This reminds me of a peaceful day out alone shopping and spending some me time,41,360,20","Sean","looks like a bunch of gibberish,-39,40,20","2"
"10775","","survey-text","210","1366770","0.0-209.0-0.0","A3DIISD224GRPL","","","","{""Q0"":""very mysterious""}","","","","","","","","","","","","","","","","","","","","","","",""
"4329","","image-slider-response","211","1371102","0.0-210.0","A3DIISD224GRPL","","","","","43","","","","","","","","","","","","","","","","","","","","","",""
"null","","image-button-response","212","1376107","0.0-211.0","A3DIISD224GRPL","img_art/17.jpg","null","","","","","","","","","","","","","","","","","","","","","","","","",""
"2746","","image-button-response","213","1378857","0.0-212.0","A3DIISD224GRPL","img_art/17.jpg","3","","","","","","","","","","","","","","","","","","","","","","","","",""
"684","","image-button-response","214","1379547","0.0-213.0-0.0","A3DIISD224GRPL","img_art/17.jpg","4","","","","","","","","","","","","","","","","","","","","","","","","",""
"649","","image-button-response","215","1380206","0.0-214.0-0.0","A3DIISD224GRPL","img_art/17.jpg","5","","","","","","","","","","","","","","","","","","","","","","","","",""
"null","","html-keyboard-response","216","1381212","0.0-215.0","A3DIISD224GRPL","<p style=""font-size: 48px;"">+</p>","","","","","null","allTrialResponses","1000","1","24","img_art/17.jpg","43","very mysterious","Dustin,Vincent,Sean,Eric,Evan,Robert","Is it a tree/plant of some sort?  Or, I see hair?  I don't get it. But, the colors are pleasing to me.,1,20,20","Another favorite a relaxing day with nature a day to take it all In,34,360,20","my response to the picture is that it looks beautiful,27,40,20","This picture is calming to me, and I love the colors.,45,100,20","This reminds me of spring,24,140,20","The wispy trees caught my eye.,42,360,20","Eric","This picture is calming to me, and I love the colors.,45,100,20","Evan","This reminds me of spring,24,140,20","Robert","The wispy trees caught my eye.,42,360,20","2"
"11360","","survey-text","217","1392594","0.0-216.0-0.0","A3DIISD224GRPL","","","","{""Q0"":""Looks like a cloudy day""}","","","","","","","","","","","","","","","","","","","","","","",""
"4603","","image-slider-response","218","1397200","0.0-217.0","A3DIISD224GRPL","","","","","50","","","","","","","","","","","","","","","","","","","","","",""
"2064","","image-button-response","219","1402204","0.0-218.0","A3DIISD224GRPL","img_art/21.jpg","3","","","","","","","","","","","","","","","","","","","","","","","","",""
"701","","image-button-response","220","1402912","0.0-219.0","A3DIISD224GRPL","img_art/21.jpg","3","","","","","","","","","","","","","","","","","","","","","","","","",""
"847","","image-button-response","221","1403767","0.0-220.0-0.0","A3DIISD224GRPL","img_art/21.jpg","0","","","","","","","","","","","","","","","","","","","","","","","","",""
"931","","image-button-response","222","1404704","0.0-221.0-0.0","A3DIISD224GRPL","img_art/21.jpg","1","","","","","","","","","","","","","","","","","","","","","","","","",""
"null","","html-keyboard-response","223","1406212","0.0-222.0","A3DIISD224GRPL","<p style=""font-size: 48px;"">+</p>","","","","","null","allTrialResponses","1500","1","25","img_art/21.jpg","50","Looks like a cloudy day","Juan,Samuel,Zachary,Eric,Evan,Robert","The colors and softness work together to make something that's lovely.,42,260,20","feels like a wave coming into light,9,400,20","Looks like a body of water during a sunset. I like this piece.,21,400,20","I love everything about this piece.,50,100,20","I feel confused,-18,140,20","A battle at sea, the red is a bomb exploding.,-31,360,20","Eric","I love everything about this piece.,50,100,20","Juan","The colors and softness work together to make something that's lovely.,42,260,20","Samuel","feels like a wave coming into light,9,400,20","2"
"4495","","survey-text","224","1410739","0.0-223.0-0.0","A3DIISD224GRPL","","","","{""Q0"":""table""}","","","","","","","","","","","","","","","","","","","","","","",""
"12478","","survey-text","225","1423222","0.0-224.0-0.0","A3DIISD224GRPL","","","","{""Q0"":""This is too boring for me""}","","","","","","","","","","","","","","","","","","","","","","",""
"4773","","image-slider-response","226","1428001","0.0-225.0","A3DIISD224GRPL","","","","","-45","","","","","","","","","","","","","","","","","","","","","",""
"4356","","image-button-response","227","1433005","0.0-226.0","A3DIISD224GRPL","img_art/22.jpg","0","","","","","","","","","","","","","","","","","","","","","","","","",""
"642","","image-button-response","228","1433653","0.0-227.0","A3DIISD224GRPL","img_art/22.jpg","0","","","","","","","","","","","","","","","","","","","","","","","","",""
"862","","image-button-response","229","1434522","0.0-228.0-0.0","A3DIISD224GRPL","img_art/22.jpg","1","","","","","","","","","","","","","","","","","","","","","","","","",""
"1687","","image-button-response","230","1436213","0.0-229.0-0.0","A3DIISD224GRPL","img_art/22.jpg","4","","","","","","","","","","","","","","","","","","","","","","","","",""
"null","","html-keyboard-response","231","1437720","0.0-230.0","A3DIISD224GRPL","<p style=""font-size: 48px;"">+</p>","","","","","null","allTrialResponses","1500","1","26","img_art/22.jpg","-45","This is too boring for me","Juan,Samuel,Chase,Eric,Tristan,Noah","I don't like the colors or the way they've been arranged.,-20,260,20","ball of light in 90s,8,400,20","I feel like I've seen this one already.,-9,120,20","I don't normally like bright colors, but I like them in this. Don't like the random black paint.,30,100,20","I appreciate the shapes but the abundance of primary colors make it seem garrish.,-10,300,20","displeasure - not a fan of the colour or the shapes,-18,260,20","Juan","I don't like the colors or the way they've been arranged.,-20,260,20","Samuel","ball of light in 90s,8,400,20","Tristan","I appreciate the shapes but the abundance of primary colors make it seem garrish.,-10,300,20","2"
"10762","","survey-text","232","1448508","0.0-231.0-0.0","A3DIISD224GRPL","","","","{""Q0"":""This looks like scribbles""}","","","","","","","","","","","","","","","","","","","","","","",""
"5814","","image-slider-response","233","1454328","0.0-232.0","A3DIISD224GRPL","","","","","-25","","","","","","","","","","","","","","","","","","","","","",""
"2835","","image-button-response","234","1459331","0.0-233.0","A3DIISD224GRPL","img_art/9.jpg","3","","","","","","","","","","","","","","","","","","","","","","","","",""
"516","","image-button-response","235","1459851","0.0-234.0","A3DIISD224GRPL","img_art/9.jpg","3","","","","","","","","","","","","","","","","","","","","","","","","",""
"723","","image-button-response","236","1460581","0.0-235.0-0.0","A3DIISD224GRPL","img_art/9.jpg","4","","","","","","","","","","","","","","","","","","","","","","","","",""
"821","","image-button-response","237","1461409","0.0-236.0-0.0","A3DIISD224GRPL","img_art/9.jpg","5","","","","","","","","","","","","","","","","","","","","","","","","",""
"null","","html-keyboard-response","238","1462914","0.0-237.0","A3DIISD224GRPL","<p style=""font-size: 48px;"">+</p>","","","","","null","allTrialResponses","1500","1","27","img_art/9.jpg","-25","This looks like scribbles","Juan,Samuel,Brendan,Timothy,Tristan,Luke","It's too abstract for my taste. I wish there were more definition.,-9,260,20","what a wild ride,11,400,20","not my type of art,-33,340,20","A little too weird for me,-30,240,20","The busyness and harsh nature of the lines in this painting  mute my emotional response.,-10,300,20","it makes me feel excited and draws my eye around,24,20,20","Timothy","A little too weird for me,-30,240,20","Tristan","The busyness and harsh nature of the lines in this painting  mute my emotional response.,-10,300,20","Luke","it makes me feel excited and draws my eye around,24,20,20","2"
"16933","","survey-text","239","1479872","0.0-238.0-0.0","A3DIISD224GRPL","","","","{""Q0"":""someone forgot to trim their fingernails""}","","","","","","","","","","","","","","","","","","","","","","",""
"4922","","image-slider-response","240","1484802","0.0-239.0","A3DIISD224GRPL","","","","","-50","","","","","","","","","","","","","","","","","","","","","",""
"null","","image-button-response","241","1489809","0.0-240.0","A3DIISD224GRPL","img_art/4.jpg","null","","","","","","","","","","","","","","","","","","","","","","","","",""
"4484","","image-button-response","242","1494297","0.0-241.0","A3DIISD224GRPL","img_art/4.jpg","5","","","","","","","","","","","","","","","","","","","","","","","","",""
"1895","","image-button-response","243","1496197","0.0-242.0-0.0","A3DIISD224GRPL","img_art/4.jpg","3","","","","","","","","","","","","","","","","","","","","","","","","",""
"488","","image-button-response","244","1496698","0.0-243.0-0.0","A3DIISD224GRPL","img_art/4.jpg","4","","","","","","","","","","","","","","","","","","","","","","","","",""
"null","","html-keyboard-response","245","1497207","0.0-244.0","A3DIISD224GRPL","<p style=""font-size: 48px;"">+</p>","","","","","null","allTrialResponses","500","1","28","img_art/4.jpg","-50","someone forgot to trim their fingernails","Andrew,Joseph,Dakota,Timothy,Tristan,Luke","Reminds me of a first place trophy,30,160,20","It's okay, I guess. Nothing much either way.,5,220,20","spontaneous, without hesitation,22,280,20","The colors feel a bit off to me,-10,240,20","disturbing and uncomfortable.,10,300,20","it looks like a simple finger painting, yet i liked the color choices,-12,20,20","Luke","it looks like a simple finger painting, yet i liked the color choices,-12,20,20","Timothy","The colors feel a bit off to me,-10,240,20","Tristan","disturbing and uncomfortable.,10,300,20","2"
"12426","","survey-text","246","1509650","0.0-245.0-0.0","A3DIISD224GRPL","","","","{""Q0"":""too creepy for me thanks""}","","","","","","","","","","","","","","","","","","","","","","",""
"4590","","image-slider-response","247","1514251","0.0-246.0","A3DIISD224GRPL","","","","","-50","","","","","","","","","","","","","","","","","","","","","",""
"null","","image-button-response","248","1519258","0.0-247.0","A3DIISD224GRPL","img_art/16.jpg","null","","","","","","","","","","","","","","","","","","","","","","","","",""
"1082","","image-button-response","249","1520343","0.0-248.0","A3DIISD224GRPL","img_art/16.jpg","0","","","","","","","","","","","","","","","","","","","","","","","","",""
"2094","","image-button-response","250","1522443","0.0-249.0-0.0","A3DIISD224GRPL","img_art/16.jpg","3","","","","","","","","","","","","","","","","","","","","","","","","",""
"770","","image-button-response","251","1523222","0.0-250.0-0.0","A3DIISD224GRPL","img_art/16.jpg","4","","","","","","","","","","","","","","","","","","","","","","","","",""
"null","","html-keyboard-response","252","1524230","0.0-251.0","A3DIISD224GRPL","<p style=""font-size: 48px;"">+</p>","","","","","null","allTrialResponses","1000","1","29","img_art/16.jpg","-50","too creepy for me thanks","Nicholas,Hunter,Alejandro,Timothy,Tristan,Luke","Creepy teddybear,-50,240,20","so close to feeling intentional,-4,240,20","Garble and nonsense,-50,80,20","This feels like images of a painful childhood,-50,240,20","visceral and a little disturbing.,10,300,20","while simple, it seems to have a deeper meaning on childhood,33,20,20","Nicholas","Creepy teddybear,-50,240,20","Timothy","This feels like images of a painful childhood,-50,240,20","Tristan","visceral and a little disturbing.,10,300,20","2"
"16332","","survey-text","253","1540592","0.0-252.0-0.0","A3DIISD224GRPL","","","","{""Q0"":""Very pretty winter scene with birds""}","","","","","","","","","","","","","","","","","","","","","","",""
"4018","","image-slider-response","254","1544618","0.0-253.0","A3DIISD224GRPL","","","","","50","","","","","","","","","","","","","","","","","","","","","",""
"null","","image-button-response","255","1549621","0.0-254.0","A3DIISD224GRPL","img_art/18.jpg","null","","","","","","","","","","","","","","","","","","","","","","","","",""
"1126","","image-button-response","256","1550750","0.0-255.0","A3DIISD224GRPL","img_art/18.jpg","0","","","","","","","","","","","","","","","","","","","","","","","","",""
"2663","","image-button-response","257","1553420","0.0-256.0-0.0","A3DIISD224GRPL","img_art/18.jpg","4","","","","","","","","","","","","","","","","","","","","","","","","",""
"1102","","image-button-response","258","1554529","0.0-257.0-0.0","A3DIISD224GRPL","img_art/18.jpg","2","","","","","","","","","","","","","","","","","","","","","","","","",""
"null","","html-keyboard-response","259","1555533","0.0-258.0","A3DIISD224GRPL","<p style=""font-size: 48px;"">+</p>","","","","","null","allTrialResponses","1000","1","30","img_art/18.jpg","50","Very pretty winter scene with birds","Nicholas,Taylor,Lucas,Timothy,Tristan,Thomas","Id love to see this piece closer. So much extra details hidden it it.,50,240,20","Bad guys are after the good guy.,-10,200,20","White and yellow look awesome and the picture's dynamics are wonderful.,30,380,20","This gives a very ominous feeling,-30,240,20","So much going on. Frightening and tumultous, brave and inspiring. I'd like to spend the rest of my life interpreting it.,30,300,20","I could stare at this for long stretches of time and still find new details. I love it.,40,220,20","Nicholas","Id love to see this piece closer. So much extra details hidden it it.,50,240,20","Tristan","So much going on. Frightening and tumultous, brave and inspiring. I'd like to spend the rest of my life interpreting it.,30,300,20","Lucas","White and yellow look awesome and the picture's dynamics are wonderful.,30,380,20","2"
"8014","","image-button-response_instructions","260","1563572","0.0-259.0","A3DIISD224GRPL","","0","instructions","","","","","","","","","","","","","","","","","","","","","","","",""
