"rt","url","trial_type","trial_index","time_elapsed","internal_node_id","participant_id","stimulus","button_pressed","Name","responses","response","key_press","variableName","fixationTime","condition","trial","photo","subjectRating","subjectResponse","agentsNames","agent_1_Response","agent_2_Response","agent_3_Response","agent_4_Response","agent_5_Response","agent_6_Response","kept_1_name","kept_1_response","kept_2_name","kept_2_response","kept_3_name","kept_3_response","errorCounter"
"16757","external_page_harvard.html","external-html","0","16953","0.0-0.0","A3DZVN0RJGJ8XM","","","","","","","","","","","","","","","","","","","","","","","","","","",""
"1491","","image-button-response","1","18448","0.0-1.0","A3DZVN0RJGJ8XM","","1","","","","","","","","","","","","","","","","","","","","","","","","",""
"1515","","image-button-response","2","19974","0.0-2.0-0.0","A3DZVN0RJGJ8XM","","1","phone","","","","","","","","","","","","","","","","","","","","","","","",""
"7605","","survey-text","3","27582","0.0-3.0-0.0","A3DZVN0RJGJ8XM","","","","{""Q0"":""A3DZVN0RJGJ8XM""}","","","","","","","","","","","","","","","","","","","","","","",""
"181507","","image-button-response_instructions","4","209093","0.0-4.0","A3DZVN0RJGJ8XM","","0","instructions","","","","","","","","","","","","","","","","","","","","","","","",""
"19972","","image-button-response_instructions","5","229068","0.0-5.0","A3DZVN0RJGJ8XM","img_art/ins/popularity/ins1.png","0","instructions","","","","","","","","","","","","","","","","","","","","","","","",""
"3614","","image-button-response_instructions","6","232684","0.0-6.0","A3DZVN0RJGJ8XM","img_art/ins/popularity/ins2.png","0","instructions","","","","","","","","","","","","","","","","","","","","","","","",""
"7814","","image-button-response_instructions","7","240500","0.0-7.0","A3DZVN0RJGJ8XM","img_art/ins/popularity/ins2Extreme.png","0","instructions","","","","","","","","","","","","","","","","","","","","","","","",""
"8542","","image-button-response_instructions","8","249044","0.0-8.0","A3DZVN0RJGJ8XM","img_art/ins/popularity/ins3KEEPpop.PNG","0","instructions","","","","","","","","","","","","","","","","","","","","","","","",""
"5294","","image-button-response_instructions","9","254340","0.0-9.0","A3DZVN0RJGJ8XM","img_art/ins/popularity/ins3ANamepop.PNG","0","instructions","","","","","","","","","","","","","","","","","","","","","","","",""
"4350","","image-button-response_instructions","10","258692","0.0-10.0","A3DZVN0RJGJ8XM","img_art/ins/popularity/ins3ARatingpop.png","0","instructions","","","","","","","","","","","","","","","","","","","","","","","",""
"3254","","image-button-response_instructions","11","261948","0.0-11.0","A3DZVN0RJGJ8XM","img_art/ins/popularity/ins3ATextpop.png","0","instructions","","","","","","","","","","","","","","","","","","","","","","","",""
"4566","","image-button-response_instructions","12","266516","0.0-12.0","A3DZVN0RJGJ8XM","img_art/ins/popularity/ins3ALikespop.png","0","instructions","","","","","","","","","","","","","","","","","","","","","","","",""
"20805","","image-button-response_instructions","13","287324","0.0-13.0","A3DZVN0RJGJ8XM","img_art/ins/popularity/ins3KEEPpop.PNG","0","instructions","","","","","","","","","","","","","","","","","","","","","","","",""
"10678","","image-button-response_instructions","14","298004","0.0-14.0","A3DZVN0RJGJ8XM","img_art/ins/popularity/ins3_5RED.png","0","instructions","","","","","","","","","","","","","","","","","","","","","","","",""
"2869","","image-button-response_instructions","15","300875","0.0-15.0","A3DZVN0RJGJ8XM","img_art/ins/popularity/ins3KEEPpop.PNG","0","instructions","","","","","","","","","","","","","","","","","","","","","","","",""
"18367","","image-button-response_instructions","16","319244","0.0-16.0","A3DZVN0RJGJ8XM","img_art/ins/popularity/ins4KEEPpop.PNG","0","instructions","","","","","","","","","","","","","","","","","","","","","","","",""
"4478","","image-button-response_instructions","17","323724","0.0-17.0","A3DZVN0RJGJ8XM","img_art/ins/popularity/ins5KEEPpop.PNG","0","instructions","","","","","","","","","","","","","","","","","","","","","","","",""
"3518","","image-button-response_instructions","18","327244","0.0-18.0","A3DZVN0RJGJ8XM","","0","instructions","","","","","","","","","","","","","","","","","","","","","","","",""
"4992","","survey-text","19","332308","0.0-19.0-0.0","A3DZVN0RJGJ8XM","","","","{""Q0"":""but""}","","","","","","","","","","","","","","","","","","","","","","",""
"58237","","survey-text","20","390548","0.0-20.0-0.0","A3DZVN0RJGJ8XM","","","","{""Q0"":""Reminds me of springtime, early when there is muddy slush and blooming blossoms.""}","","","","","","","","","","","","","","","","","","","","","","",""
"6827.799999952316","","image-slider-response","21","397379","0.0-21.0","A3DZVN0RJGJ8XM","","","","","34","","","","","","","","","","","","","","","","","","","","","",""
"null","","image-button-response","22","402387","0.0-22.0","A3DZVN0RJGJ8XM","img_art/ins/1.jpg","null","","","","","","","","","","","","","","","","","","","","","","","","",""
"4044","","image-button-response","23","406439","0.0-23.0","A3DZVN0RJGJ8XM","img_art/ins/1.jpg","5","","","","","","","","","","","","","","","","","","","","","","","","",""
"5802","","image-button-response","24","412244","0.0-24.0-0.0","A3DZVN0RJGJ8XM","img_art/ins/1.jpg","0","","","","","","","","","","","","","","","","","","","","","","","","",""
"8051","","image-button-response","25","420301","0.0-25.0-0.0","A3DZVN0RJGJ8XM","img_art/ins/1.jpg","4","","","","","","","","","","","","","","","","","","","","","","","","",""
"null","","html-keyboard-response","26","421307","0.0-26.0","A3DZVN0RJGJ8XM","<p style=""font-size: 48px;"">+</p>","","","","","null","allTrialResponses","1000","1","-2","img_art/ins/1.jpg","34","Reminds me of springtime, early when there is muddy slush and blooming blossoms.","Allison,Ashley,Beth,Dora,Erika,Jen","looks like a lot of things going on in the mist,20,20,20","I just don't get why these type of art would be popular,-32,40,20","This color reminds me of poo,-46,60,20","looks like what my niece in 3rd grade did this afternoon,-50,80,20","I like the sophisticated brushwork,40,100,20","It reminds me of a candy land dream I had,36,120,20","Jen","It reminds me of a candy land dream I had,36,120,20","Allison","looks like a lot of things going on in the mist,20,20,20","Erika","I like the sophisticated brushwork,40,100,20","0"
"59243","","survey-text","27","480570","0.0-27.0-0.0","A3DZVN0RJGJ8XM","","","","{""Q0"":""there is a heaviness in the layers a feeling of boxed in hopes for warmth""}","","","","","","","","","","","","","","","","","","","","","","",""
"4765.299999952316","","image-slider-response","28","485338","0.0-28.0","A3DZVN0RJGJ8XM","","","","","38","","","","","","","","","","","","","","","","","","","","","",""
"4932","","image-button-response","29","490343","0.0-29.0","A3DZVN0RJGJ8XM","img_art/ins/2.jpg","0","","","","","","","","","","","","","","","","","","","","","","","","",""
"768","","image-button-response","30","491115","0.0-30.0","A3DZVN0RJGJ8XM","img_art/ins/2.jpg","4","","","","","","","","","","","","","","","","","","","","","","","","",""
"1692","","image-button-response","31","492811","0.0-31.0-0.0","A3DZVN0RJGJ8XM","img_art/ins/2.jpg","5","","","","","","","","","","","","","","","","","","","","","","","","",""
"1860","","image-button-response","32","494675","0.0-32.0-0.0","A3DZVN0RJGJ8XM","img_art/ins/2.jpg","1","","","","","","","","","","","","","","","","","","","","","","","","",""
"null","","html-keyboard-response","33","496178","0.0-33.0","A3DZVN0RJGJ8XM","<p style=""font-size: 48px;"">+</p>","","","","","null","allTrialResponses","1500","1","-1","img_art/ins/2.jpg","38","there is a heaviness in the layers a feeling of boxed in hopes for warmth","Allison,Kara,Katie,Jenna,Erika,Jen","I don't have strong feelings about this,10,20,20","I like the blocks of color arrangements,30,160,20","too much color!,-28,180,20","One of my pet peevs,-48,140,20","I would never be able to compose a sophisticated pallete like this,48,100,20","It reminds me of a fireplace,36,120,20","Erika","I would never be able to compose a sophisticated pallete like this,48,100,20","Jen","It reminds me of a fireplace,36,120,20","Kara","I like the blocks of color arrangements,30,160,20","0"
"76865","","survey-text","34","573059","0.0-34.0-0.0","A3DZVN0RJGJ8XM","","","","{""Q0"":""Icy yet bold, like nighttime icicles.""}","","","","","","","","","","","","","","","","","","","","","","",""
"6099.699999928474","","image-slider-response","35","579162","0.0-35.0","A3DZVN0RJGJ8XM","","","","","27","","","","","","","","","","","","","","","","","","","","","",""
"null","","image-button-response","36","584166","0.0-36.0","A3DZVN0RJGJ8XM","img_art/ins/3.jpg","null","","","","","","","","","","","","","","","","","","","","","","","","",""
"511","","image-button-response","37","584683","0.0-37.0","A3DZVN0RJGJ8XM","img_art/ins/3.jpg","5","","","","","","","","","","","","","","","","","","","","","","","","",""
"1485","","image-button-response","38","586170","0.0-38.0-0.0","A3DZVN0RJGJ8XM","img_art/ins/3.jpg","1","","","","","","","","","","","","","","","","","","","","","","","","",""
"8796","","image-button-response","39","594971","0.0-39.0-0.0","A3DZVN0RJGJ8XM","img_art/ins/3.jpg","3","","","","","","","","","","","","","","","","","","","","","","","","",""
"null","","html-keyboard-response","40","595973","0.0-40.0","A3DZVN0RJGJ8XM","<p style=""font-size: 48px;"">+</p>","","","","","null","allTrialResponses","1000","1","0","img_art/ins/3.jpg","27","Icy yet bold, like nighttime icicles.","Mary,Kara,Rose,Leslie,Erika,Jen","I like the overlapping of brushes,41,220,20","calming blue is very nice,36,160,20","My daily routine, it's depressing,-20,240,20","It's an alright work,15,200,20","I feel connected to the artist,40,100,20","I can feel a rainy day from this painting,18,120,20","Jen","I can feel a rainy day from this painting,18,120,20","Kara","calming blue is very nice,36,160,20","Leslie","It's an alright work,15,200,20","0"
"8405","","image-button-response_instructions","41","604386","0.0-41.0","A3DZVN0RJGJ8XM","","0","instructions","","","","","","","","","","","","","","","","","","","","","","","",""
"13245","","survey-likert","42","617634","0.0-42.0-0.0","A3DZVN0RJGJ8XM","","","","{""Q0"":"""",""Q1"":0,""Q2"":1}","","","","","","","","","","","","","","","","","","","","","","",""
"4647","","survey-text","43","622289","0.0-43.0-0.0","A3DZVN0RJGJ8XM","","","","{""Q0"":""rock""}","","","","","","","","","","","","","","","","","","","","","","",""
"62581","","survey-text","44","684873","0.0-44.0-0.0","A3DZVN0RJGJ8XM","","","","{""Q0"":""reminiscent of a depression nest on a weekday ""}","","","","","","","","","","","","","","","","","","","","","","",""
"8076.699999928474","","image-slider-response","45","692952","0.0-45.0","A3DZVN0RJGJ8XM","","","","","41","","","","","","","","","","","","","","","","","","","","","",""
"null","","image-button-response","46","697994","0.0-46.0","A3DZVN0RJGJ8XM","img_art/28.jpg","null","","","","","","","","","","","","","","","","","","","","","","","","",""
"15412","","image-button-response","47","713410","0.0-47.0","A3DZVN0RJGJ8XM","img_art/28.jpg","3","","","","","","","","","","","","","","","","","","","","","","","","",""
"724","","image-button-response","48","714138","0.0-48.0-0.0","A3DZVN0RJGJ8XM","img_art/28.jpg","4","","","","","","","","","","","","","","","","","","","","","","","","",""
"546","","image-button-response","49","714690","0.0-49.0-0.0","A3DZVN0RJGJ8XM","img_art/28.jpg","5","","","","","","","","","","","","","","","","","","","","","","","","",""
"null","","html-keyboard-response","50","716193","0.0-50.0","A3DZVN0RJGJ8XM","<p style=""font-size: 48px;"">+</p>","","","","","null","allTrialResponses","1500","1","1","img_art/28.jpg","41","reminiscent of a depression nest on a weekday ","Maria,Sierra,Jessica,Laura,Caroline,Molly","I want to like it, but I'm not really sure what to make of it,2,120,20","i like the colors and the shapes look like people,20,260,20","I can't tell what's going on but it looks a little bit more lively at least,7,400,20","musical, animated and happy with somber undertones,7,320,20","Colors are pleasing. Made me think of two people kneeling and talking. A curious feeling.,15,100,20","This painting is mysterious, it makes me curious.,5,340,20","Laura","musical, animated and happy with somber undertones,7,320,20","Caroline","Colors are pleasing. Made me think of two people kneeling and talking. A curious feeling.,15,100,20","Molly","This painting is mysterious, it makes me curious.,5,340,20","0"
"49234","","survey-text","51","765432","0.0-51.0-0.0","A3DZVN0RJGJ8XM","","","","{""Q0"":""splatters over a solid work, playful within boundaries""}","","","","","","","","","","","","","","","","","","","","","","",""
"5651.800000071526","","image-slider-response","52","771088","0.0-52.0","A3DZVN0RJGJ8XM","","","","","6","","","","","","","","","","","","","","","","","","","","","",""
"4325","","image-button-response","53","776092","0.0-53.0","A3DZVN0RJGJ8XM","img_art/13.jpg","0","","","","","","","","","","","","","","","","","","","","","","","","",""
"3977","","image-button-response","54","780073","0.0-54.0","A3DZVN0RJGJ8XM","img_art/13.jpg","3","","","","","","","","","","","","","","","","","","","","","","","","",""
"4901","","image-button-response","55","784977","0.0-55.0-0.0","A3DZVN0RJGJ8XM","img_art/13.jpg","2","","","","","","","","","","","","","","","","","","","","","","","","",""
"5787","","image-button-response","56","790769","0.0-56.0-0.0","A3DZVN0RJGJ8XM","img_art/13.jpg","0","","","","","","","","","","","","","","","","","","","","","","","","",""
"null","","html-keyboard-response","57","791772","0.0-57.0","A3DZVN0RJGJ8XM","<p style=""font-size: 48px;"">+</p>","","","","","null","allTrialResponses","1000","1","2","img_art/13.jpg","6","splatters over a solid work, playful within boundaries","Alexandria,Madeline,Sara,Laura,Caroline,Molly","the monochrome of blue with splatters makes me excited and happy,36,80,20","Really love the colors,11,40,20","I love the different blue shades,31,160,20","water on my shower curtain - I feel refreshed, renewed,9,320,20","Pretty but didnt cause a reaction,33,100,20","Incredible, curious.,20,340,20","Laura","water on my shower curtain - I feel refreshed, renewed,9,320,20","Sara","I love the different blue shades,31,160,20","Alexandria","the monochrome of blue with splatters makes me excited and happy,36,80,20","0"
"50716","","survey-text","58","842504","0.0-58.0-0.0","A3DZVN0RJGJ8XM","","","","{""Q0"":""makes me think of blue jays hiding in the autumn bushes""}","","","","","","","","","","","","","","","","","","","","","","",""
"5676.5","","image-slider-response","59","848184","0.0-59.0","A3DZVN0RJGJ8XM","","","","","46","","","","","","","","","","","","","","","","","","","","","",""
"null","","image-button-response","60","853189","0.0-60.0","A3DZVN0RJGJ8XM","img_art/15.jpg","null","","","","","","","","","","","","","","","","","","","","","","","","",""
"1984","","image-button-response","61","855176","0.0-61.0","A3DZVN0RJGJ8XM","img_art/15.jpg","0","","","","","","","","","","","","","","","","","","","","","","","","",""
"1693","","image-button-response","62","856872","0.0-62.0-0.0","A3DZVN0RJGJ8XM","img_art/15.jpg","4","","","","","","","","","","","","","","","","","","","","","","","","",""
"2767","","image-button-response","63","859643","0.0-63.0-0.0","A3DZVN0RJGJ8XM","img_art/15.jpg","5","","","","","","","","","","","","","","","","","","","","","","","","",""
"null","","html-keyboard-response","64","860647","0.0-64.0","A3DZVN0RJGJ8XM","<p style=""font-size: 48px;"">+</p>","","","","","null","allTrialResponses","1000","1","3","img_art/15.jpg","46","makes me think of blue jays hiding in the autumn bushes","Alexandria,Elizabeth,Sara,Laura,Jenna,Mariah","it looks like trees but they are up to interpretation,16,80,20","Perfect Abstract painting,50,20,20","I don't like the black dots,-19,160,20","abrasive, rough, uneven,-31,320,20","interesting technique. the blue is very pretty,18,360,20","It is visually appealing, stark and simple but natural.,41,140,20","Alexandria","it looks like trees but they are up to interpretation,16,80,20","Jenna","interesting technique. the blue is very pretty,18,360,20","Mariah","It is visually appealing, stark and simple but natural.,41,140,20","0"
"32403","","survey-text","65","893064","0.0-65.0-0.0","A3DZVN0RJGJ8XM","","","","{""Q0"":""feels like arriving home after school ""}","","","","","","","","","","","","","","","","","","","","","","",""
"4309","","image-slider-response","66","897376","0.0-66.0","A3DZVN0RJGJ8XM","","","","","29","","","","","","","","","","","","","","","","","","","","","",""
"3597","","image-button-response","67","902380","0.0-67.0","A3DZVN0RJGJ8XM","img_art/26.jpg","0","","","","","","","","","","","","","","","","","","","","","","","","",""
"3262","","image-button-response","68","905648","0.0-68.0","A3DZVN0RJGJ8XM","img_art/26.jpg","4","","","","","","","","","","","","","","","","","","","","","","","","",""
"2004","","image-button-response","69","907656","0.0-69.0-0.0","A3DZVN0RJGJ8XM","img_art/26.jpg","3","","","","","","","","","","","","","","","","","","","","","","","","",""
"8348","","image-button-response","70","916008","0.0-70.0-0.0","A3DZVN0RJGJ8XM","img_art/26.jpg","0","","","","","","","","","","","","","","","","","","","","","","","","",""
"null","","html-keyboard-response","71","916511","0.0-71.0","A3DZVN0RJGJ8XM","<p style=""font-size: 48px;"">+</p>","","","","","null","allTrialResponses","500","1","4","img_art/26.jpg","29","feels like arriving home after school ","Alexandria,Margaret,Christina,Alyssa,Jenna,Mariah","makes me happy and reminds me of a paris courtyard,29,80,20","its boring and i dont like the color palette,3,100,20","looks like a little kids painting,-17,240,20","Its pretty.And a nice use of water colors.,25,160,20","soft colors & brush work. very easy to look at. makes me happy.,50,360,20","Pleasant but bland.,10,140,20","Jenna","soft colors & brush work. very easy to look at. makes me happy.,50,360,20","Alyssa","Its pretty.And a nice use of water colors.,25,160,20","Alexandria","makes me happy and reminds me of a paris courtyard,29,80,20","0"
"52639","","survey-text","72","969159","0.0-72.0-0.0","A3DZVN0RJGJ8XM","","","","{""Q0"":""feels frustrated and restrained""}","","","","","","","","","","","","","","","","","","","","","","",""
"3108.5","","image-slider-response","73","972271","0.0-73.0","A3DZVN0RJGJ8XM","","","","","15","","","","","","","","","","","","","","","","","","","","","",""
"3309","","image-button-response","74","977275","0.0-74.0","A3DZVN0RJGJ8XM","img_art/3.jpg","0","","","","","","","","","","","","","","","","","","","","","","","","",""
"1208","","image-button-response","75","978487","0.0-75.0","A3DZVN0RJGJ8XM","img_art/3.jpg","2","","","","","","","","","","","","","","","","","","","","","","","","",""
"5253","","image-button-response","76","983743","0.0-76.0-0.0","A3DZVN0RJGJ8XM","img_art/3.jpg","4","","","","","","","","","","","","","","","","","","","","","","","","",""
"4204","","image-button-response","77","987951","0.0-77.0-0.0","A3DZVN0RJGJ8XM","img_art/3.jpg","0","","","","","","","","","","","","","","","","","","","","","","","","",""
"null","","html-keyboard-response","78","988455","0.0-78.0","A3DZVN0RJGJ8XM","<p style=""font-size: 48px;"">+</p>","","","","","null","allTrialResponses","500","1","5","img_art/3.jpg","15","feels frustrated and restrained","Alexandria,Kelsey,Rachel,Alyssa,Jenna,Chelsea","it makes me feel really angry,-20,80,20","just scribbles, not pleasing,-30,240,20","Too red and chaotic. Not calming.,-41,80,20","Looks like someone spilled ketchup and forgot to clean it up,-30,160,20","unique & stylized. interesting. another one I could keep staring at.,50,360,20","It looks like scribbles.,-40,180,20","Rachel","Too red and chaotic. Not calming.,-41,80,20","Jenna","unique & stylized. interesting. another one I could keep staring at.,50,360,20","Alexandria","it makes me feel really angry,-20,80,20","0"
"6067","","survey-text","79","994535","0.0-79.0-0.0","A3DZVN0RJGJ8XM","","","","{""Q0"":""sky""}","","","","","","","","","","","","","","","","","","","","","","",""
"48308","","survey-text","80","1042846","0.0-80.0-0.0","A3DZVN0RJGJ8XM","","","","{""Q0"":""like a dreary day driving through the countryside""}","","","","","","","","","","","","","","","","","","","","","","",""
"3852.600000023842","","image-slider-response","81","1046702","0.0-81.0","A3DZVN0RJGJ8XM","","","","","26","","","","","","","","","","","","","","","","","","","","","",""
"null","","image-button-response","82","1051706","0.0-82.0","A3DZVN0RJGJ8XM","img_art/27.jpg","null","","","","","","","","","","","","","","","","","","","","","","","","",""
"4920","","image-button-response","83","1056631","0.0-83.0","A3DZVN0RJGJ8XM","img_art/27.jpg","4","","","","","","","","","","","","","","","","","","","","","","","","",""
"3572","","image-button-response","84","1060207","0.0-84.0-0.0","A3DZVN0RJGJ8XM","img_art/27.jpg","5","","","","","","","","","","","","","","","","","","","","","","","","",""
"1987","","image-button-response","85","1062199","0.0-85.0-0.0","A3DZVN0RJGJ8XM","img_art/27.jpg","1","","","","","","","","","","","","","","","","","","","","","","","","",""
"null","","html-keyboard-response","86","1063703","0.0-86.0","A3DZVN0RJGJ8XM","<p style=""font-size: 48px;"">+</p>","","","","","null","allTrialResponses","1500","1","6","img_art/27.jpg","26","like a dreary day driving through the countryside","Alexandria,Marissa,Rachel,Olivia,Jenna,Grace","it looks very simple and childlike,-31,80,20","I am bothered by the green doodles,-20,160,20","Color story is boring in nature, and I feel nothing but boredom from this piece.,-20,80,20","city at sunset brings happyness,10,40,20","the green & white scribbles feel childlike. perhaps the quality of the photo, but the colors are gloomy.,-13,360,20","Not fond of the bad pencil drawing mixed with the drab colors.,-21,180,20","Jenna","the green & white scribbles feel childlike. perhaps the quality of the photo, but the colors are gloomy.,-13,360,20","Grace","Not fond of the bad pencil drawing mixed with the drab colors.,-21,180,20","Marissa","I am bothered by the green doodles,-20,160,20","0"
"272079","","survey-text","87","1335796","0.0-87.0-0.0","A3DZVN0RJGJ8XM","","","","{""Q0"":""a sorrow full childhood""}","","","","","","","","","","","","","","","","","","","","","","",""
"4293.100000023842","","image-slider-response","88","1340092","0.0-88.0","A3DZVN0RJGJ8XM","","","","","22","","","","","","","","","","","","","","","","","","","","","",""
"null","","image-button-response","89","1345097","0.0-89.0","A3DZVN0RJGJ8XM","img_art/16.jpg","null","","","","","","","","","","","","","","","","","","","","","","","","",""
"68055","","image-button-response","90","1413157","0.0-90.0","A3DZVN0RJGJ8XM","img_art/16.jpg","3","","","","","","","","","","","","","","","","","","","","","","","","",""
"1771","","image-button-response","91","1414933","0.0-91.0-0.0","A3DZVN0RJGJ8XM","img_art/16.jpg","4","","","","","","","","","","","","","","","","","","","","","","","","",""
"2372","","image-button-response","92","1417309","0.0-92.0-0.0","A3DZVN0RJGJ8XM","img_art/16.jpg","5","","","","","","","","","","","","","","","","","","","","","","","","",""
"null","","html-keyboard-response","93","1418311","0.0-93.0","A3DZVN0RJGJ8XM","<p style=""font-size: 48px;"">+</p>","","","","","null","allTrialResponses","1000","1","7","img_art/16.jpg","22","a sorrow full childhood","Bailey,Marissa,Paige,Angelica,Jenna,Grace","Creeps me out. Like..really creeps me out.,-48,360,20","I do not like this dark and twisted portrayal of childhood,-42,160,20","very disturbed seening a gun in the same picture as a teddy bear,-50,60,20","This is creepy and puerile.,-45,280,20","very bizarre and confusing, but that feels purposeful, so i don't completely hate it.,-25,360,20","Something terrible happened. Either the figure on the right is the victim or another shredded toy.,-49,180,20","Angelica","This is creepy and puerile.,-45,280,20","Jenna","very bizarre and confusing, but that feels purposeful, so i don't completely hate it.,-25,360,20","Grace","Something terrible happened. Either the figure on the right is the victim or another shredded toy.,-49,180,20","0"
"46653","","survey-text","94","1464972","0.0-94.0-0.0","A3DZVN0RJGJ8XM","","","","{""Q0"":""This feels industrial and reminds me of an oil rig in the ocean""}","","","","","","","","","","","","","","","","","","","","","","",""
"4100.899999976158","","image-slider-response","95","1469075","0.0-95.0","A3DZVN0RJGJ8XM","","","","","18","","","","","","","","","","","","","","","","","","","","","",""
"null","","image-button-response","96","1474081","0.0-96.0","A3DZVN0RJGJ8XM","img_art/20.jpg","null","","","","","","","","","","","","","","","","","","","","","","","","",""
"59133","","image-button-response","97","1533219","0.0-97.0","A3DZVN0RJGJ8XM","img_art/20.jpg","0","","","","","","","","","","","","","","","","","","","","","","","","",""
"14461","","image-button-response","98","1547683","0.0-98.0-0.0","A3DZVN0RJGJ8XM","img_art/20.jpg","4","","","","","","","","","","","","","","","","","","","","","","","","",""
"1011","","image-button-response","99","1548699","0.0-99.0-0.0","A3DZVN0RJGJ8XM","img_art/20.jpg","2","","","","","","","","","","","","","","","","","","","","","","","","",""
"null","","html-keyboard-response","100","1549701","0.0-100.0","A3DZVN0RJGJ8XM","<p style=""font-size: 48px;"">+</p>","","","","","null","allTrialResponses","1000","1","8","img_art/20.jpg","18","This feels industrial and reminds me of an oil rig in the ocean","Diana,Gabriela,Jennifer,Angelica,Jenna,Grace","I'm not sure why this reminds me of surrealism. It might be the colors used.,16,380,20","it is a bit disturbing, like a monster or ghost floating away from a bleak building,-8,140,20","Neutral, this piece doesn't strike me as particularly bad or good,0,380,20","It's too brash and loud and ugly.,-21,280,20","could look for hours. love the brush work. color choices look like a desert.,50,360,20","Reminds me of Georgia O'Keefe.,11,180,20","Diana","I'm not sure why this reminds me of surrealism. It might be the colors used.,16,380,20","Jenna","could look for hours. love the brush work. color choices look like a desert.,50,360,20","Jennifer","Neutral, this piece doesn't strike me as particularly bad or good,0,380,20","0"
"43731","","survey-text","101","1593450","0.0-101.0-0.0","A3DZVN0RJGJ8XM","","","","{""Q0"":""delicate and destructive, like an unnerving compromise""}","","","","","","","","","","","","","","","","","","","","","","",""
"3748.7999999523163","","image-slider-response","102","1597202","0.0-102.0","A3DZVN0RJGJ8XM","","","","","34","","","","","","","","","","","","","","","","","","","","","",""
"null","","image-button-response","103","1602206","0.0-103.0","A3DZVN0RJGJ8XM","img_art/21.jpg","null","","","","","","","","","","","","","","","","","","","","","","","","",""
"2703","","image-button-response","104","1604914","0.0-104.0","A3DZVN0RJGJ8XM","img_art/21.jpg","1","","","","","","","","","","","","","","","","","","","","","","","","",""
"3069","","image-button-response","105","1607987","0.0-105.0-0.0","A3DZVN0RJGJ8XM","img_art/21.jpg","4","","","","","","","","","","","","","","","","","","","","","","","","",""
"2035","","image-button-response","106","1610026","0.0-106.0-0.0","A3DZVN0RJGJ8XM","img_art/21.jpg","0","","","","","","","","","","","","","","","","","","","","","","","","",""
"null","","html-keyboard-response","107","1611530","0.0-107.0","A3DZVN0RJGJ8XM","<p style=""font-size: 48px;"">+</p>","","","","","null","allTrialResponses","1500","1","9","img_art/21.jpg","34","delicate and destructive, like an unnerving compromise","Diana,Katie,Jennifer,Autumn,Jenna,Emily","Makes me feel light and airy. Like I've gone back in time to 1700th century France.,43,380,20","Immediately a positive response! I like the muted colors. the blurriness calms me. It's serene,40,160,20","Bland, this painting is my least favorite,-20,380,20","Amazing colors.,34,340,20","beautiful. reminds me of a storm brewing over sea. i love the white dots.,45,360,20","What's the point?,-30,40,20","Katie","Immediately a positive response! I like the muted colors. the blurriness calms me. It's serene,40,160,20","Jenna","beautiful. reminds me of a storm brewing over sea. i love the white dots.,45,360,20","Diana","Makes me feel light and airy. Like I've gone back in time to 1700th century France.,43,380,20","0"
"44954","","survey-text","108","1656497","0.0-108.0-0.0","A3DZVN0RJGJ8XM","","","","{""Q0"":""colors of a forest in autumn with a calm brook flowing through""}","","","","","","","","","","","","","","","","","","","","","","",""
"4765.699999928474","","image-slider-response","109","1661266","0.0-109.0","A3DZVN0RJGJ8XM","","","","","8","","","","","","","","","","","","","","","","","","","","","",""
"4068","","image-button-response","110","1666271","0.0-110.0","A3DZVN0RJGJ8XM","img_art/1.jpg","0","","","","","","","","","","","","","","","","","","","","","","","","",""
"2757","","image-button-response","111","1669034","0.0-111.0","A3DZVN0RJGJ8XM","img_art/1.jpg","2","","","","","","","","","","","","","","","","","","","","","","","","",""
"1492","","image-button-response","112","1670531","0.0-112.0-0.0","A3DZVN0RJGJ8XM","img_art/1.jpg","4","","","","","","","","","","","","","","","","","","","","","","","","",""
"932","","image-button-response","113","1671467","0.0-113.0-0.0","A3DZVN0RJGJ8XM","img_art/1.jpg","5","","","","","","","","","","","","","","","","","","","","","","","","",""
"null","","html-keyboard-response","114","1672969","0.0-114.0","A3DZVN0RJGJ8XM","<p style=""font-size: 48px;"">+</p>","","","","","null","allTrialResponses","1500","1","10","img_art/1.jpg","8","colors of a forest in autumn with a calm brook flowing through","Diana,Katie,Megan,Alicia,Jenna,Monica","Might be a person rowing their boat across the lake. Not sure if the background is trees or not.,12,380,20","Too messy. Just looks like a mess of dark colors.,-20,160,20","Nice colors with some 3D effects,15,200,20","just colors mixed together. not interesting.,5,120,20","beautiful colors and brush strokes,47,360,20","I like the yellow and purple but the large red spot reminds me of blood and isn't great,6,360,20","Megan","Nice colors with some 3D effects,15,200,20","Jenna","beautiful colors and brush strokes,47,360,20","Monica","I like the yellow and purple but the large red spot reminds me of blood and isn't great,6,360,20","0"
"4286","","survey-text","115","1677274","0.0-115.0-0.0","A3DZVN0RJGJ8XM","","","","{""Q0"":""our""}","","","","","","","","","","","","","","","","","","","","","","",""
"43804","","survey-text","116","1721081","0.0-116.0-0.0","A3DZVN0RJGJ8XM","","","","{""Q0"":""reminds me of the man with the incredibly long fingernails""}","","","","","","","","","","","","","","","","","","","","","","",""
"13725.099999904633","","image-slider-response","117","1734809","0.0-117.0","A3DZVN0RJGJ8XM","","","","","13","","","","","","","","","","","","","","","","","","","","","",""
"3653","","image-button-response","118","1739813","0.0-118.0","A3DZVN0RJGJ8XM","img_art/4.jpg","3","","","","","","","","","","","","","","","","","","","","","","","","",""
"121","","image-button-response","119","1739938","0.0-119.0","A3DZVN0RJGJ8XM","img_art/4.jpg","4","","","","","","","","","","","","","","","","","","","","","","","","",""
"1293","","image-button-response","120","1741233","0.0-120.0-0.0","A3DZVN0RJGJ8XM","img_art/4.jpg","3","","","","","","","","","","","","","","","","","","","","","","","","",""
"3916","","image-button-response","121","1745155","0.0-121.0-0.0","A3DZVN0RJGJ8XM","img_art/4.jpg","5","","","","","","","","","","","","","","","","","","","","","","","","",""
"null","","html-keyboard-response","122","1746657","0.0-122.0","A3DZVN0RJGJ8XM","<p style=""font-size: 48px;"">+</p>","","","","","null","allTrialResponses","1500","1","11","img_art/4.jpg","13","reminds me of the man with the incredibly long fingernails","Heather,Kylie,Megan,Natalie,Jenna,Monica","looks like an award from an award show.,22,260,20","I just have no clue,26,300,20","Better version of a 7 year old who got lucky,-23,200,20","dont know what im looking at,1,400,20","creepy, looks like a deformed hand, but the background is pretty,5,360,20","The dark yellow color makes me think of mustard, which I dislike,-27,360,20","Jenna","creepy, looks like a deformed hand, but the background is pretty,5,360,20","Natalie","dont know what im looking at,1,400,20","Monica","The dark yellow color makes me think of mustard, which I dislike,-27,360,20","0"
"61893","","survey-text","123","1808561","0.0-123.0-0.0","A3DZVN0RJGJ8XM","","","","{""Q0"":""reminiscent of a rainy cityscape, or a sprawling village""}","","","","","","","","","","","","","","","","","","","","","","",""
"3716.2999999523163","","image-slider-response","124","1812281","0.0-124.0","A3DZVN0RJGJ8XM","","","","","28","","","","","","","","","","","","","","","","","","","","","",""
"4188","","image-button-response","125","1817287","0.0-125.0","A3DZVN0RJGJ8XM","img_art/19.jpg","0","","","","","","","","","","","","","","","","","","","","","","","","",""
"1189","","image-button-response","126","1818482","0.0-126.0","A3DZVN0RJGJ8XM","img_art/19.jpg","3","","","","","","","","","","","","","","","","","","","","","","","","",""
"1228","","image-button-response","127","1819713","0.0-127.0-0.0","A3DZVN0RJGJ8XM","img_art/19.jpg","0","","","","","","","","","","","","","","","","","","","","","","","","",""
"4165","","image-button-response","128","1823882","0.0-128.0-0.0","A3DZVN0RJGJ8XM","img_art/19.jpg","5","","","","","","","","","","","","","","","","","","","","","","","","",""
"null","","html-keyboard-response","129","1824885","0.0-129.0","A3DZVN0RJGJ8XM","<p style=""font-size: 48px;"">+</p>","","","","","null","allTrialResponses","1000","1","12","img_art/19.jpg","28","reminiscent of a rainy cityscape, or a sprawling village","Destiny,Brooke,Kristen,Natalie,Jenna,Monica","this flow I just really like how everything blends but also doesn't,45,360,20","Snowy winter scene,25,60,20","city, stress of urbanism, slightly panicked,2,280,20","the picture gave me anxiety,-38,400,20","love the muted colors and added sketchy lines. calming without being boring.,50,360,20","The shapes make me recall a city scene but it looks dirty,-22,360,20","Natalie","the picture gave me anxiety,-38,400,20","Destiny","this flow I just really like how everything blends but also doesn't,45,360,20","Monica","The shapes make me recall a city scene but it looks dirty,-22,360,20","0"
"45291","","survey-text","130","1870192","0.0-130.0-0.0","A3DZVN0RJGJ8XM","","","","{""Q0"":""the feeling of finding a dried flower pressed between the pages of a classic novel""}","","","","","","","","","","","","","","","","","","","","","","",""
"14292.899999976158","","image-slider-response","131","1884488","0.0-131.0","A3DZVN0RJGJ8XM","","","","","42","","","","","","","","","","","","","","","","","","","","","",""
"null","","image-button-response","132","1889493","0.0-132.0","A3DZVN0RJGJ8XM","img_art/14.jpg","null","","","","","","","","","","","","","","","","","","","","","","","","",""
"8902","","image-button-response","133","1898400","0.0-133.0","A3DZVN0RJGJ8XM","img_art/14.jpg","2","","","","","","","","","","","","","","","","","","","","","","","","",""
"693","","image-button-response","134","1899096","0.0-134.0-0.0","A3DZVN0RJGJ8XM","img_art/14.jpg","1","","","","","","","","","","","","","","","","","","","","","","","","",""
"684","","image-button-response","135","1899784","0.0-135.0-0.0","A3DZVN0RJGJ8XM","img_art/14.jpg","0","","","","","","","","","","","","","","","","","","","","","","","","",""
"null","","html-keyboard-response","136","1901286","0.0-136.0","A3DZVN0RJGJ8XM","<p style=""font-size: 48px;"">+</p>","","","","","null","allTrialResponses","1500","1","13","img_art/14.jpg","42","the feeling of finding a dried flower pressed between the pages of a classic novel","Destiny,Amber,Brianna,Natalie,Alexis,Monica","I dont really vibe with the grayish color palette,-7,360,20","Reminds me of the outdoors.,12,200,20","It uses interesting techniques on this picture, but I have no feelings for or against.,1,20,20","my reaction is that the picture is wierd,-14,400,20","Don't like the colors on this. Too simple,-20,100,20","Just don't like it, maybe it's the bleeding colors on the left of the tree-looking thing in the center or the faded background,-10,360,20","Brianna","It uses interesting techniques on this picture, but I have no feelings for or against.,1,20,20","Amber","Reminds me of the outdoors.,12,200,20","Destiny","I dont really vibe with the grayish color palette,-7,360,20","0"
"37560","","survey-text","137","1938863","0.0-137.0-0.0","A3DZVN0RJGJ8XM","","","","{""Q0"":""reminds me of a city schools blacktop playground""}","","","","","","","","","","","","","","","","","","","","","","",""
"3212.100000023842","","image-slider-response","138","1942079","0.0-138.0","A3DZVN0RJGJ8XM","","","","","30","","","","","","","","","","","","","","","","","","","","","",""
"4764","","image-button-response","139","1947084","0.0-139.0","A3DZVN0RJGJ8XM","img_art/29.jpg","4","","","","","","","","","","","","","","","","","","","","","","","","",""
"1008","","image-button-response","140","1948096","0.0-140.0","A3DZVN0RJGJ8XM","img_art/29.jpg","4","","","","","","","","","","","","","","","","","","","","","","","","",""
"7724","","image-button-response","141","1955824","0.0-141.0-0.0","A3DZVN0RJGJ8XM","img_art/29.jpg","2","","","","","","","","","","","","","","","","","","","","","","","","",""
"2940","","image-button-response","142","1958769","0.0-142.0-0.0","A3DZVN0RJGJ8XM","img_art/29.jpg","5","","","","","","","","","","","","","","","","","","","","","","","","",""
"null","","html-keyboard-response","143","1960271","0.0-143.0","A3DZVN0RJGJ8XM","<p style=""font-size: 48px;"">+</p>","","","","","null","allTrialResponses","1500","1","14","img_art/29.jpg","30","reminds me of a city schools blacktop playground","Destiny,Amber,Brianna,Anna,Kaitlin,Makayla","is this supposed to be edgy,-21,360,20","Don't like the red X across the painting.,-15,200,20","It has a red X on there, and x's mean bad in my perspective,-29,20,20","I like the texture and colors and how it makes me feel. I like how it's different from other abstract art.,45,300,20","seems fun, looks like a battle zone,22,60,20","Looks like a jail cell,-15,80,20","Kaitlin","seems fun, looks like a battle zone,22,60,20","Brianna","It has a red X on there, and x's mean bad in my perspective,-29,20,20","Makayla","Looks like a jail cell,-15,80,20","0"
"41117","","survey-text","144","2001399","0.0-144.0-0.0","A3DZVN0RJGJ8XM","","","","{""Q0"":""I see a woman lounging in a garden surrounded by a sunny day""}","","","","","","","","","","","","","","","","","","","","","","",""
"3413.8000000715256","","image-slider-response","145","2004816","0.0-145.0","A3DZVN0RJGJ8XM","","","","","27","","","","","","","","","","","","","","","","","","","","","",""
"null","","image-button-response","146","2009819","0.0-146.0","A3DZVN0RJGJ8XM","img_art/9.jpg","null","","","","","","","","","","","","","","","","","","","","","","","","",""
"1746","","image-button-response","147","2011568","0.0-147.0","A3DZVN0RJGJ8XM","img_art/9.jpg","3","","","","","","","","","","","","","","","","","","","","","","","","",""
"7756","","image-button-response","148","2019328","0.0-148.0-0.0","A3DZVN0RJGJ8XM","img_art/9.jpg","2","","","","","","","","","","","","","","","","","","","","","","","","",""
"1779","","image-button-response","149","2021111","0.0-149.0-0.0","A3DZVN0RJGJ8XM","img_art/9.jpg","0","","","","","","","","","","","","","","","","","","","","","","","","",""
"null","","html-keyboard-response","150","2022614","0.0-150.0","A3DZVN0RJGJ8XM","<p style=""font-size: 48px;"">+</p>","","","","","null","allTrialResponses","1500","1","15","img_art/9.jpg","27","I see a woman lounging in a garden surrounded by a sunny day","Mackenzie,Morgan,Brianna,Michelle,Kaitlin,Makayla","I enjoy the design, but the colors look waxy,-7,20,20","The mouth of an ugly beast.,-25,380,20","This has some of my favorite colors, and I like it,21,20,20","Alright, I can see a reclining lady, I'm just glad to be able to tell what's in the picture,5,280,20","this looks to be a child nightmare,-10,60,20","Looks like a monster's teeth , unsettling,-18,80,20","Michelle","Alright, I can see a reclining lady, I'm just glad to be able to tell what's in the picture,5,280,20","Brianna","This has some of my favorite colors, and I like it,21,20,20","Mackenzie","I enjoy the design, but the colors look waxy,-7,20,20","0"
"9511","","survey-text","151","2032159","0.0-151.0-0.0","A3DZVN0RJGJ8XM","","","","{""Q0"":""course""}","","","","","","","","","","","","","","","","","","","","","","",""
"77572","","survey-text","152","2109734","0.0-152.0-0.0","A3DZVN0RJGJ8XM","","","","{""Q0"":""the feeling of intrusive thoughts while working on a task""}","","","","","","","","","","","","","","","","","","","","","","",""
"4077.3000000715256","","image-slider-response","153","2113814","0.0-153.0","A3DZVN0RJGJ8XM","","","","","47","","","","","","","","","","","","","","","","","","","","","",""
"3435","","image-button-response","154","2118820","0.0-154.0","A3DZVN0RJGJ8XM","img_art/18.jpg","1","","","","","","","","","","","","","","","","","","","","","","","","",""
"800","","image-button-response","155","2119623","0.0-155.0","A3DZVN0RJGJ8XM","img_art/18.jpg","2","","","","","","","","","","","","","","","","","","","","","","","","",""
"5060","","image-button-response","156","2124687","0.0-156.0-0.0","A3DZVN0RJGJ8XM","img_art/18.jpg","5","","","","","","","","","","","","","","","","","","","","","","","","",""
"1107","","image-button-response","157","2125799","0.0-157.0-0.0","A3DZVN0RJGJ8XM","img_art/18.jpg","3","","","","","","","","","","","","","","","","","","","","","","","","",""
"null","","html-keyboard-response","158","2126302","0.0-158.0","A3DZVN0RJGJ8XM","<p style=""font-size: 48px;"">+</p>","","","","","null","allTrialResponses","500","1","16","img_art/18.jpg","47","the feeling of intrusive thoughts while working on a task","Mackenzie,Julia,Brianna,Michelle,Cheyenne,Gabrielle","The shapes are very fun to interpret,30,20,20","Very classy, I feel like it's the apocalypse.,25,40,20","Very eerie and it's spooky,11,20,20","The small lines elicit a very nauseating response for some reason, too Dali like for me,-19,280,20","Too abstract to me,-30,200,20","interesting piece, I like the horse and people inserted in spots,22,160,20","Brianna","Very eerie and it's spooky,11,20,20","Gabrielle","interesting piece, I like the horse and people inserted in spots,22,160,20","Michelle","The small lines elicit a very nauseating response for some reason, too Dali like for me,-19,280,20","0"
"22382","","survey-text","159","2148702","0.0-159.0-0.0","A3DZVN0RJGJ8XM","","","","{""Q0"":""shoots and ladders in an abstract land""}","","","","","","","","","","","","","","","","","","","","","","",""
"3516.899999976158","","image-slider-response","160","2152222","0.0-160.0","A3DZVN0RJGJ8XM","","","","","11","","","","","","","","","","","","","","","","","","","","","",""
"null","","image-button-response","161","2157226","0.0-161.0","A3DZVN0RJGJ8XM","img_art/30.jpg","null","","","","","","","","","","","","","","","","","","","","","","","","",""
"1467","","image-button-response","162","2158695","0.0-162.0","A3DZVN0RJGJ8XM","img_art/30.jpg","1","","","","","","","","","","","","","","","","","","","","","","","","",""
"2653","","image-button-response","163","2161351","0.0-163.0-0.0","A3DZVN0RJGJ8XM","img_art/30.jpg","2","","","","","","","","","","","","","","","","","","","","","","","","",""
"732","","image-button-response","164","2162087","0.0-164.0-0.0","A3DZVN0RJGJ8XM","img_art/30.jpg","5","","","","","","","","","","","","","","","","","","","","","","","","",""
"null","","html-keyboard-response","165","2163090","0.0-165.0","A3DZVN0RJGJ8XM","<p style=""font-size: 48px;"">+</p>","","","","","null","allTrialResponses","1000","1","17","img_art/30.jpg","11","shoots and ladders in an abstract land","Dominique,Alexa,Brianna,Michelle,Brittany,Gabrielle","Personal , calming conservative signature business ideal.,32,400,20","Looks quite basic but the colors are nice and there is a wildness about it that I love,0,40,20","I like the fact that it's a painting.,21,20,20","Don't like it at all, looks like a someone smeared paint with their fingers,-25,280,20","The colors and the brushstrokes are interesting enough.,17,40,20","looks very childish, like your kid did it,-33,160,20","Alexa","Looks quite basic but the colors are nice and there is a wildness about it that I love,0,40,20","Brianna","I like the fact that it's a painting.,21,20,20","Gabrielle","looks very childish, like your kid did it,-33,160,20","0"
"61008","","survey-text","166","2224118","0.0-166.0-0.0","A3DZVN0RJGJ8XM","","","","{""Q0"":""I see an impressionist waterfall within a blooming forest landscape, lovely to behold""}","","","","","","","","","","","","","","","","","","","","","","",""
"3172.399999976158","","image-slider-response","167","2227293","0.0-167.0","A3DZVN0RJGJ8XM","","","","","50","","","","","","","","","","","","","","","","","","","","","",""
"1934","","image-button-response","168","2232297","0.0-168.0","A3DZVN0RJGJ8XM","img_art/24.jpg","3","","","","","","","","","","","","","","","","","","","","","","","","",""
"4119","","image-button-response","169","2236422","0.0-169.0","A3DZVN0RJGJ8XM","img_art/24.jpg","1","","","","","","","","","","","","","","","","","","","","","","","","",""
"1196","","image-button-response","170","2237622","0.0-170.0-0.0","A3DZVN0RJGJ8XM","img_art/24.jpg","2","","","","","","","","","","","","","","","","","","","","","","","","",""
"1468","","image-button-response","171","2239094","0.0-171.0-0.0","A3DZVN0RJGJ8XM","img_art/24.jpg","3","","","","","","","","","","","","","","","","","","","","","","","","",""
"null","","html-keyboard-response","172","2239597","0.0-172.0","A3DZVN0RJGJ8XM","<p style=""font-size: 48px;"">+</p>","","","","","null","allTrialResponses","500","1","18","img_art/24.jpg","50","I see an impressionist waterfall within a blooming forest landscape, lovely to behold","Chloe,Alexa,Brianna,Cassandra,Vanessa,Gabrielle","Pretty but cheesy,-15,220,20","I absolutely adore this painting. The colors, designs, everything. It's phenomenal,50,40,20","The waterfall looks peaceful,11,20,20","I like it...looks like a waterfall.,11,120,20","I love the colors, but I wish the water was less abstract.,17,380,20","flowing water part is good, some of the rest is ok but dark,14,160,20","Alexa","I absolutely adore this painting. The colors, designs, everything. It's phenomenal,50,40,20","Brianna","The waterfall looks peaceful,11,20,20","Cassandra","I like it...looks like a waterfall.,11,120,20","0"
"148411","","survey-text","173","2388028","0.0-173.0-0.0","A3DZVN0RJGJ8XM","","","","{""Q0"":""each block turning more bland and dark, like losing yourself in the rigidity of adulthood""}","","","","","","","","","","","","","","","","","","","","","","",""
"4900.600000023842","","image-slider-response","174","2392932","0.0-174.0","A3DZVN0RJGJ8XM","","","","","50","","","","","","","","","","","","","","","","","","","","","",""
"3573","","image-button-response","175","2397937","0.0-175.0","A3DZVN0RJGJ8XM","img_art/12.jpg","0","","","","","","","","","","","","","","","","","","","","","","","","",""
"1037","","image-button-response","176","2398980","0.0-176.0","A3DZVN0RJGJ8XM","img_art/12.jpg","0","","","","","","","","","","","","","","","","","","","","","","","","",""
"3717","","image-button-response","177","2402701","0.0-177.0-0.0","A3DZVN0RJGJ8XM","img_art/12.jpg","1","","","","","","","","","","","","","","","","","","","","","","","","",""
"2084","","image-button-response","178","2404789","0.0-178.0-0.0","A3DZVN0RJGJ8XM","img_art/12.jpg","4","","","","","","","","","","","","","","","","","","","","","","","","",""
"null","","html-keyboard-response","179","2406293","0.0-179.0","A3DZVN0RJGJ8XM","<p style=""font-size: 48px;"">+</p>","","","","","null","allTrialResponses","1500","1","19","img_art/12.jpg","50","each block turning more bland and dark, like losing yourself in the rigidity of adulthood","Danielle,Alexa,Brianna,Cassandra,Sabrina,Lauren","Kind of interesting, seems almost nostalgic in a way to me.,10,340,20","I love the pattern and this looks like it took a good deal of effort,35,40,20","Don't like it or despise it,1,20,20","Neutral...just blocks.,3,120,20","I like the fact it shares both light and edgy,32,120,20","This doesn't invoke anything. Just a mosaic of random images.,0,340,20","Danielle","Kind of interesting, seems almost nostalgic in a way to me.,10,340,20","Alexa","I love the pattern and this looks like it took a good deal of effort,35,40,20","Sabrina","I like the fact it shares both light and edgy,32,120,20","0"
"37812","","survey-text","180","2444124","0.0-180.0-0.0","A3DZVN0RJGJ8XM","","","","{""Q0"":""reminds me of a 90's cartoon kitchen""}","","","","","","","","","","","","","","","","","","","","","","",""
"4036.600000023842","","image-slider-response","181","2448164","0.0-181.0","A3DZVN0RJGJ8XM","","","","","35","","","","","","","","","","","","","","","","","","","","","",""
"null","","image-button-response","182","2453169","0.0-182.0","A3DZVN0RJGJ8XM","img_art/2.jpg","null","","","","","","","","","","","","","","","","","","","","","","","","",""
"3849","","image-button-response","183","2457021","0.0-183.0","A3DZVN0RJGJ8XM","img_art/2.jpg","2","","","","","","","","","","","","","","","","","","","","","","","","",""
"3597","","image-button-response","184","2460621","0.0-184.0-0.0","A3DZVN0RJGJ8XM","img_art/2.jpg","1","","","","","","","","","","","","","","","","","","","","","","","","",""
"829","","image-button-response","185","2461453","0.0-185.0-0.0","A3DZVN0RJGJ8XM","img_art/2.jpg","3","","","","","","","","","","","","","","","","","","","","","","","","",""
"null","","html-keyboard-response","186","2462457","0.0-186.0","A3DZVN0RJGJ8XM","<p style=""font-size: 48px;"">+</p>","","","","","null","allTrialResponses","1000","1","20","img_art/2.jpg","35","reminds me of a 90's cartoon kitchen","Danielle,Alexa,Miranda,Amy,Sabrina,Kimberly","Not a fan of this style,-30,340,20","Not my favorite but I can see this being hung in a art museum,25,40,20","I don't really like this but at the same time it's cute. It looks like a little monster kid.,-9,320,20","The color palette of this painting is for me displeasing and immature.,-30,220,20","I dont like the expression of this,-19,120,20","I like the green,13,260,20","Miranda","I don't really like this but at the same time it's cute. It looks like a little monster kid.,-9,320,20","Alexa","Not my favorite but I can see this being hung in a art museum,25,40,20","Amy","The color palette of this painting is for me displeasing and immature.,-30,220,20","0"
"5895","","survey-text","187","2468389","0.0-187.0-0.0","A3DZVN0RJGJ8XM","","","","{""Q0"":""we""}","","","","","","","","","","","","","","","","","","","","","","",""
"47730","","survey-text","188","2516123","0.0-188.0-0.0","A3DZVN0RJGJ8XM","","","","{""Q0"":""this feels bleak and uncertain""}","","","","","","","","","","","","","","","","","","","","","","",""
"4237.100000023842","","image-slider-response","189","2520363","0.0-189.0","A3DZVN0RJGJ8XM","","","","","6","","","","","","","","","","","","","","","","","","","","","",""
"null","","image-button-response","190","2525369","0.0-190.0","A3DZVN0RJGJ8XM","img_art/10.jpg","null","","","","","","","","","","","","","","","","","","","","","","","","",""
"3141","","image-button-response","191","2528516","0.0-191.0","A3DZVN0RJGJ8XM","img_art/10.jpg","5","","","","","","","","","","","","","","","","","","","","","","","","",""
"2516","","image-button-response","192","2531035","0.0-192.0-0.0","A3DZVN0RJGJ8XM","img_art/10.jpg","0","","","","","","","","","","","","","","","","","","","","","","","","",""
"5156","","image-button-response","193","2536195","0.0-193.0-0.0","A3DZVN0RJGJ8XM","img_art/10.jpg","1","","","","","","","","","","","","","","","","","","","","","","","","",""
"null","","html-keyboard-response","194","2537199","0.0-194.0","A3DZVN0RJGJ8XM","<p style=""font-size: 48px;"">+</p>","","","","","null","allTrialResponses","1000","1","21","img_art/10.jpg","6","this feels bleak and uncertain","Sydney,Alexa,Miranda,Amy,Mikayla,Katherine","This piece is unusual in a way that makes me uncomfortable.,-5,320,20","Cute and has a vintage feel to it,45,40,20","It reminds me of how my dog has to run all over the place just to poop in one specific location.,-20,320,20","Highly abstract and yet the shapes and colors provide an emotional accessibility for me.,20,220,20","Kinda creepy not my favorite,-26,300,20","This is pretty rad. The outline looks like a music staff,15,120,20","Katherine","This is pretty rad. The outline looks like a music staff,15,120,20","Sydney","This piece is unusual in a way that makes me uncomfortable.,-5,320,20","Alexa","Cute and has a vintage feel to it,45,40,20","0"
"83142","","survey-text","195","2620363","0.0-195.0-0.0","A3DZVN0RJGJ8XM","","","","{""Q0"":""I feel dreariness, like poverty crying outside the castle walls""}","","","","","","","","","","","","","","","","","","","","","","",""
"5500.100000023842","","image-slider-response","196","2625866","0.0-196.0","A3DZVN0RJGJ8XM","","","","","48","","","","","","","","","","","","","","","","","","","","","",""
"2755","","image-button-response","197","2630872","0.0-197.0","A3DZVN0RJGJ8XM","img_art/8.jpg","5","","","","","","","","","","","","","","","","","","","","","","","","",""
"4318","","image-button-response","198","2635195","0.0-198.0","A3DZVN0RJGJ8XM","img_art/8.jpg","5","","","","","","","","","","","","","","","","","","","","","","","","",""
"1460","","image-button-response","199","2636658","0.0-199.0-0.0","A3DZVN0RJGJ8XM","img_art/8.jpg","0","","","","","","","","","","","","","","","","","","","","","","","","",""
"893","","image-button-response","200","2637555","0.0-200.0-0.0","A3DZVN0RJGJ8XM","img_art/8.jpg","1","","","","","","","","","","","","","","","","","","","","","","","","",""
"null","","html-keyboard-response","201","2638057","0.0-201.0","A3DZVN0RJGJ8XM","<p style=""font-size: 48px;"">+</p>","","","","","null","allTrialResponses","500","1","22","img_art/8.jpg","48","I feel dreariness, like poverty crying outside the castle walls","Sydney,Alexa,Shelby,Kaylee,Michaela,Katherine","I love the colors in this piece.,25,320,20","It's simply gorgeous. This artist is very talented,50,40,20","Too much going on, too many colors, makes me feel uneasy,-20,240,20","beautiful buildings,32,200,20","It's too boxy for my taste,-10,260,20","This is really cool, I love the fragments of faces,38,120,20","Katherine","This is really cool, I love the fragments of faces,38,120,20","Sydney","I love the colors in this piece.,25,320,20","Alexa","It's simply gorgeous. This artist is very talented,50,40,20","0"
"28458","","survey-text","202","2666538","0.0-202.0-0.0","A3DZVN0RJGJ8XM","","","","{""Q0"":""reminiscent of a parade orchestra""}","","","","","","","","","","","","","","","","","","","","","","",""
"4597.199999928474","","image-slider-response","203","2671138","0.0-203.0","A3DZVN0RJGJ8XM","","","","","29","","","","","","","","","","","","","","","","","","","","","",""
"2125","","image-button-response","204","2676143","0.0-204.0","A3DZVN0RJGJ8XM","img_art/23.jpg","3","","","","","","","","","","","","","","","","","","","","","","","","",""
"1006","","image-button-response","205","2677155","0.0-205.0","A3DZVN0RJGJ8XM","img_art/23.jpg","3","","","","","","","","","","","","","","","","","","","","","","","","",""
"3628","","image-button-response","206","2680786","0.0-206.0-0.0","A3DZVN0RJGJ8XM","img_art/23.jpg","1","","","","","","","","","","","","","","","","","","","","","","","","",""
"8852","","image-button-response","207","2689643","0.0-207.0-0.0","A3DZVN0RJGJ8XM","img_art/23.jpg","5","","","","","","","","","","","","","","","","","","","","","","","","",""
"null","","html-keyboard-response","208","2691147","0.0-208.0","A3DZVN0RJGJ8XM","<p style=""font-size: 48px;"">+</p>","","","","","null","allTrialResponses","1500","1","23","img_art/23.jpg","29","reminiscent of a parade orchestra","Sydney,Alexa,Kayla,Cynthia,Rebecca,Katherine","The piece seems chaotic, and I dislike the random pop of white within so many colors.,-10,320,20","Very colorful and wild. It's cool and I like it,32,40,20","Like a wound that has been sutured. Pain, but also healing.,5,180,20","puzzled with curiosity,31,320,20","love the contrast (was this painted by a left-handed artist?),7,100,20","This one is awesome, kinda looks like a cake with sprinkles but in a different universe,50,120,20","Cynthia","puzzled with curiosity,31,320,20","Alexa","Very colorful and wild. It's cool and I like it,32,40,20","Katherine","This one is awesome, kinda looks like a cake with sprinkles but in a different universe,50,120,20","0"
"51153","","survey-text","209","2742330","0.0-209.0-0.0","A3DZVN0RJGJ8XM","","","","{""Q0"":""I see leaves in the mud with prints of the animals that have passed through""}","","","","","","","","","","","","","","","","","","","","","","",""
"4109.899999976158","","image-slider-response","210","2746445","0.0-210.0","A3DZVN0RJGJ8XM","","","","","12","","","","","","","","","","","","","","","","","","","","","",""
"3409","","image-button-response","211","2751449","0.0-211.0","A3DZVN0RJGJ8XM","img_art/7.jpg","4","","","","","","","","","","","","","","","","","","","","","","","","",""
"2259","","image-button-response","212","2753714","0.0-212.0","A3DZVN0RJGJ8XM","img_art/7.jpg","0","","","","","","","","","","","","","","","","","","","","","","","","",""
"2533","","image-button-response","213","2756251","0.0-213.0-0.0","A3DZVN0RJGJ8XM","img_art/7.jpg","3","","","","","","","","","","","","","","","","","","","","","","","","",""
"1084","","image-button-response","214","2757339","0.0-214.0-0.0","A3DZVN0RJGJ8XM","img_art/7.jpg","4","","","","","","","","","","","","","","","","","","","","","","","","",""
"null","","html-keyboard-response","215","2758342","0.0-215.0","A3DZVN0RJGJ8XM","<p style=""font-size: 48px;"">+</p>","","","","","null","allTrialResponses","1000","1","24","img_art/7.jpg","12","I see leaves in the mud with prints of the animals that have passed through","Leah,Alexa,Erica,Cynthia,Tiffany,Katherine","I love it, it looks like a landscape photograph in desert or rocky mountain,50,360,20","Not a fan of the pattern or colors,-40,40,20","No not cause many emotions,1,80,20","time and change,1,320,20","I feel relaxed and a little nostalgic, like I'm exploring the wall of a very old building.,18,360,20","Reminds me of bugs, I hate bugs,-7,120,20","Leah","I love it, it looks like a landscape photograph in desert or rocky mountain,50,360,20","Cynthia","time and change,1,320,20","Tiffany","I feel relaxed and a little nostalgic, like I'm exploring the wall of a very old building.,18,360,20","0"
"90181","","survey-text","216","2848544","0.0-216.0-0.0","A3DZVN0RJGJ8XM","","","","{""Q0"":""the colors invoke calmness but the shapes are curious, natural and flowing, but geometric and intentional as well.""}","","","","","","","","","","","","","","","","","","","","","","",""
"4301.100000023842","","image-slider-response","217","2852849","0.0-217.0","A3DZVN0RJGJ8XM","","","","","50","","","","","","","","","","","","","","","","","","","","","",""
"3925","","image-button-response","218","2857854","0.0-218.0","A3DZVN0RJGJ8XM","img_art/17.jpg","0","","","","","","","","","","","","","","","","","","","","","","","","",""
"1557","","image-button-response","219","2859417","0.0-219.0","A3DZVN0RJGJ8XM","img_art/17.jpg","3","","","","","","","","","","","","","","","","","","","","","","","","",""
"2404","","image-button-response","220","2861826","0.0-220.0-0.0","A3DZVN0RJGJ8XM","img_art/17.jpg","4","","","","","","","","","","","","","","","","","","","","","","","","",""
"3059","","image-button-response","221","2864890","0.0-221.0-0.0","A3DZVN0RJGJ8XM","img_art/17.jpg","2","","","","","","","","","","","","","","","","","","","","","","","","",""
"null","","html-keyboard-response","222","2865893","0.0-222.0","A3DZVN0RJGJ8XM","<p style=""font-size: 48px;"">+</p>","","","","","null","allTrialResponses","1000","1","25","img_art/17.jpg","50","the colors invoke calmness but the shapes are curious, natural and flowing, but geometric and intentional as well.","Leah,Isabella,Erika,Cynthia,Tiffany,Angela","Love the colors, the flow, like a strange storm or tree off the balcony,50,360,20","Pleasant fall to winter day,22,280,20","I love vague, dreamlike styles,50,100,20","battle between nature and man,31,320,20","The painting makes me feel relaxed, and a bit lonely, like I'm sitting at a park waiting for someone.,30,360,20","I like this, but it's a bit bland.,10,260,20","Cynthia","battle between nature and man,31,320,20","Tiffany","The painting makes me feel relaxed, and a bit lonely, like I'm sitting at a park waiting for someone.,30,360,20","Erika","I love vague, dreamlike styles,50,100,20","0"
"5388","","survey-text","223","2871321","0.0-223.0-0.0","A3DZVN0RJGJ8XM","","","","{""Q0"":""table""}","","","","","","","","","","","","","","","","","","","","","","",""
"61892","","survey-text","224","2933216","0.0-224.0-0.0","A3DZVN0RJGJ8XM","","","","{""Q0"":""pointed yet childlike""}","","","","","","","","","","","","","","","","","","","","","","",""
"8876.800000071526","","image-slider-response","225","2942096","0.0-225.0","A3DZVN0RJGJ8XM","","","","","0","","","","","","","","","","","","","","","","","","","","","",""
"4565","","image-button-response","226","2947101","0.0-226.0","A3DZVN0RJGJ8XM","img_art/5.jpg","5","","","","","","","","","","","","","","","","","","","","","","","","",""
"1981","","image-button-response","227","2949089","0.0-227.0","A3DZVN0RJGJ8XM","img_art/5.jpg","2","","","","","","","","","","","","","","","","","","","","","","","","",""
"1204","","image-button-response","228","2950296","0.0-228.0-0.0","A3DZVN0RJGJ8XM","img_art/5.jpg","1","","","","","","","","","","","","","","","","","","","","","","","","",""
"1683","","image-button-response","229","2951984","0.0-229.0-0.0","A3DZVN0RJGJ8XM","img_art/5.jpg","0","","","","","","","","","","","","","","","","","","","","","","","","",""
"null","","html-keyboard-response","230","2952988","0.0-230.0","A3DZVN0RJGJ8XM","<p style=""font-size: 48px;"">+</p>","","","","","null","allTrialResponses","1000","1","26","img_art/5.jpg","0","pointed yet childlike","Sarah,Stephanie,Erika,Cynthia,Tiffany,Breanna","looks very childish,-35,180,20","This did not do a thing for me.,-50,300,20","Not sure what I'm looking at,-16,100,20","boring and unsure,-25,320,20","I feel nothing looking at this.,-5,360,20","Makes me feel weird,-16,380,20","Erika","Not sure what I'm looking at,-16,100,20","Stephanie","This did not do a thing for me.,-50,300,20","Sarah","looks very childish,-35,180,20","0"
"33110","","survey-text","231","2986119","0.0-231.0-0.0","A3DZVN0RJGJ8XM","","","","{""Q0"":""quote the lorax, nevermore""}","","","","","","","","","","","","","","","","","","","","","","",""
"5101","","image-slider-response","232","2991224","0.0-232.0","A3DZVN0RJGJ8XM","","","","","31","","","","","","","","","","","","","","","","","","","","","",""
"3149","","image-button-response","233","2996228","0.0-233.0","A3DZVN0RJGJ8XM","img_art/6.jpg","3","","","","","","","","","","","","","","","","","","","","","","","","",""
"2878","","image-button-response","234","2999112","0.0-234.0","A3DZVN0RJGJ8XM","img_art/6.jpg","1","","","","","","","","","","","","","","","","","","","","","","","","",""
"2061","","image-button-response","235","3001176","0.0-235.0-0.0","A3DZVN0RJGJ8XM","img_art/6.jpg","2","","","","","","","","","","","","","","","","","","","","","","","","",""
"6812","","image-button-response","236","3007992","0.0-236.0-0.0","A3DZVN0RJGJ8XM","img_art/6.jpg","3","","","","","","","","","","","","","","","","","","","","","","","","",""
"null","","html-keyboard-response","237","3008495","0.0-237.0","A3DZVN0RJGJ8XM","<p style=""font-size: 48px;"">+</p>","","","","","null","allTrialResponses","500","1","27","img_art/6.jpg","31","quote the lorax, nevermore","Sarah,Stephanie,Erika,Claire,Briana,Lindsey","it's interesting but I don't love it,10,180,20","Nevermore!  A black raven sitting on a pumpkin. Halloween,-35,300,20","Lonesome in nature,13,100,20","very minimalistic,22,260,20","Close up peach? Hate it,-16,400,20","Simple, warm, hopeful.,12,400,20","Stephanie","Nevermore!  A black raven sitting on a pumpkin. Halloween,-35,300,20","Erika","Lonesome in nature,13,100,20","Claire","very minimalistic,22,260,20","0"
"32609","","survey-text","238","3041127","0.0-238.0-0.0","A3DZVN0RJGJ8XM","","","","{""Q0"":""a portal within a stack of shipping containers""}","","","","","","","","","","","","","","","","","","","","","","",""
"3276.7999999523163","","image-slider-response","239","3044407","0.0-239.0","A3DZVN0RJGJ8XM","","","","","27","","","","","","","","","","","","","","","","","","","","","",""
"1469","","image-button-response","240","3049411","0.0-240.0","A3DZVN0RJGJ8XM","img_art/22.jpg","0","","","","","","","","","","","","","","","","","","","","","","","","",""
"2408","","image-button-response","241","3051824","0.0-241.0","A3DZVN0RJGJ8XM","img_art/22.jpg","2","","","","","","","","","","","","","","","","","","","","","","","","",""
"1749","","image-button-response","242","3053577","0.0-242.0-0.0","A3DZVN0RJGJ8XM","img_art/22.jpg","4","","","","","","","","","","","","","","","","","","","","","","","","",""
"780","","image-button-response","243","3054360","0.0-243.0-0.0","A3DZVN0RJGJ8XM","img_art/22.jpg","0","","","","","","","","","","","","","","","","","","","","","","","","",""
"null","","html-keyboard-response","244","3055863","0.0-244.0","A3DZVN0RJGJ8XM","<p style=""font-size: 48px;"">+</p>","","","","","null","allTrialResponses","1500","1","28","img_art/22.jpg","27","a portal within a stack of shipping containers","Kelly,Stephanie,Erika,Claire,Haley,Courtney","I really enjoy the blended colors.,20,220,20","I don't get much of a reaction.,11,300,20","Beautiful forms, using color to define shape,14,100,20","I enjoy the colors used,24,260,20","Beautiful. I love the color contrast and gradients.,50,220,20","Looks hot where ever that is.,-8,280,20","Erika","Beautiful forms, using color to define shape,14,100,20","Haley","Beautiful. I love the color contrast and gradients.,50,220,20","Kelly","I really enjoy the blended colors.,20,220,20","0"
"54045","","survey-text","245","3109935","0.0-245.0-0.0","A3DZVN0RJGJ8XM","","","","{""Q0"":""Reminds me of guy fawkes that never fully burned""}","","","","","","","","","","","","","","","","","","","","","","",""
"3532.899999976158","","image-slider-response","246","3113471","0.0-246.0","A3DZVN0RJGJ8XM","","","","","17","","","","","","","","","","","","","","","","","","","","","",""
"4796","","image-button-response","247","3118475","0.0-247.0","A3DZVN0RJGJ8XM","img_art/25.jpg","1","","","","","","","","","","","","","","","","","","","","","","","","",""
"511","","image-button-response","248","3118991","0.0-248.0","A3DZVN0RJGJ8XM","img_art/25.jpg","1","","","","","","","","","","","","","","","","","","","","","","","","",""
"1205","","image-button-response","249","3120200","0.0-249.0-0.0","A3DZVN0RJGJ8XM","img_art/25.jpg","2","","","","","","","","","","","","","","","","","","","","","","","","",""
"2444","","image-button-response","250","3122648","0.0-250.0-0.0","A3DZVN0RJGJ8XM","img_art/25.jpg","5","","","","","","","","","","","","","","","","","","","","","","","","",""
"null","","html-keyboard-response","251","3124151","0.0-251.0","A3DZVN0RJGJ8XM","<p style=""font-size: 48px;"">+</p>","","","","","null","allTrialResponses","1500","1","29","img_art/25.jpg","17","Reminds me of guy fawkes that never fully burned","Kelly,Katelyn,Erika,Emma,Haley,Nicole","I love the color. I don't know what exactly is going on but I like it.,24,220,20","Creates a bit of fear in me for some reason,-26,100,20","Very cryptic and ancient,36,100,20","Like the colors and the figure,30,60,20","I like the design but the brightness of the color feels almost blinding to me.,-3,220,20","This painting is cool but it gives off an evil vibe,-10,20,20","Katelyn","Creates a bit of fear in me for some reason,-26,100,20","Erika","Very cryptic and ancient,36,100,20","Nicole","This painting is cool but it gives off an evil vibe,-10,20,20","0"
"55737","","survey-text","252","3179910","0.0-252.0-0.0","A3DZVN0RJGJ8XM","","","","{""Q0"":""The masts of ships and speed of trains, the commute that never ends""}","","","","","","","","","","","","","","","","","","","","","","",""
"3933","","image-slider-response","253","3183846","0.0-253.0","A3DZVN0RJGJ8XM","","","","","11","","","","","","","","","","","","","","","","","","","","","",""
"4317","","image-button-response","254","3188850","0.0-254.0","A3DZVN0RJGJ8XM","img_art/11.jpg","0","","","","","","","","","","","","","","","","","","","","","","","","",""
"544","","image-button-response","255","3189398","0.0-255.0","A3DZVN0RJGJ8XM","img_art/11.jpg","0","","","","","","","","","","","","","","","","","","","","","","","","",""
"2501","","image-button-response","256","3191903","0.0-256.0-0.0","A3DZVN0RJGJ8XM","img_art/11.jpg","2","","","","","","","","","","","","","","","","","","","","","","","","",""
"1749","","image-button-response","257","3193655","0.0-257.0-0.0","A3DZVN0RJGJ8XM","img_art/11.jpg","1","","","","","","","","","","","","","","","","","","","","","","","","",""
"null","","html-keyboard-response","258","3194159","0.0-258.0","A3DZVN0RJGJ8XM","<p style=""font-size: 48px;"">+</p>","","","","","null","allTrialResponses","500","1","30","img_art/11.jpg","11","The masts of ships and speed of trains, the commute that never ends","Kathryn,Katelyn,Erika,Leslie,Abigail,Nicole","This is disorienting, like motion sickness.,-20,140,20","I like the dark lines and it interests me,13,100,20","I want to know which skyline the artist is depicting,26,100,20","This elicits no reaction in me.,0,380,20","Rainy highways in RI,20,20,20","Those vertical strokes are to die for and I love these colors !!!,50,20,20","Kathryn","This is disorienting, like motion sickness.,-20,140,20","Erika","I want to know which skyline the artist is depicting,26,100,20","Katelyn","I like the dark lines and it interests me,13,100,20","0"
"8392","","image-button-response_instructions","259","3202574","0.0-259.0","A3DZVN0RJGJ8XM","","0","instructions","","","","","","","","","","","","","","","","","","","","","","","",""
"1310","","image-button-response","260","3203894","0.0-260.0","A3DZVN0RJGJ8XM","","0","","","","","","","","","","","","","","","","","","","","","","","","",""
