"rt","url","trial_type","trial_index","time_elapsed","internal_node_id","participant_id","stimulus","button_pressed","Name","responses","response","key_press","variableName","fixationTime","condition","trial","photo","subjectRating","subjectResponse","agentsNames","agent_1_Response","agent_2_Response","agent_3_Response","agent_4_Response","agent_5_Response","agent_6_Response","kept_1_name","kept_1_response","kept_2_name","kept_2_response","kept_3_name","kept_3_response","errorCounter"
"4818","external_page_harvard.html","external-html","0","4884","0.0-0.0","A3E65QA8DZX26T","","","","","","","","","","","","","","","","","","","","","","","","","","",""
"1222","","image-button-response","1","6108","0.0-1.0","A3E65QA8DZX26T","","0","","","","","","","","","","","","","","","","","","","","","","","","",""
"2260","","image-button-response","2","8372","0.0-2.0-0.0","A3E65QA8DZX26T","","1","phone","","","","","","","","","","","","","","","","","","","","","","","",""
"4038","","survey-text","3","12411","0.0-3.0-0.0","A3E65QA8DZX26T","","","","{""Q0"":""A3E65QA8DZX26T""}","","","","","","","","","","","","","","","","","","","","","","",""
"1919","","image-button-response_instructions","4","14331","0.0-4.0","A3E65QA8DZX26T","","0","instructions","","","","","","","","","","","","","","","","","","","","","","","",""
"3406","","image-button-response_instructions","5","17739","0.0-5.0","A3E65QA8DZX26T","img_art/ins/popularity/ins1.png","0","instructions","","","","","","","","","","","","","","","","","","","","","","","",""
"1782","","image-button-response_instructions","6","19523","0.0-6.0","A3E65QA8DZX26T","img_art/ins/popularity/ins2.png","0","instructions","","","","","","","","","","","","","","","","","","","","","","","",""
"1318","","image-button-response_instructions","7","20843","0.0-7.0","A3E65QA8DZX26T","img_art/ins/popularity/ins2Extreme.png","0","instructions","","","","","","","","","","","","","","","","","","","","","","","",""
"3561","","image-button-response_instructions","8","24405","0.0-8.0","A3E65QA8DZX26T","img_art/ins/popularity/ins3KEEPpop.PNG","0","instructions","","","","","","","","","","","","","","","","","","","","","","","",""
"1486","","image-button-response_instructions","9","25891","0.0-9.0","A3E65QA8DZX26T","img_art/ins/popularity/ins3ANamepop.PNG","0","instructions","","","","","","","","","","","","","","","","","","","","","","","",""
"1423","","image-button-response_instructions","10","27315","0.0-10.0","A3E65QA8DZX26T","img_art/ins/popularity/ins3ARatingpop.png","0","instructions","","","","","","","","","","","","","","","","","","","","","","","",""
"1294","","image-button-response_instructions","11","28611","0.0-11.0","A3E65QA8DZX26T","img_art/ins/popularity/ins3ATextpop.png","0","instructions","","","","","","","","","","","","","","","","","","","","","","","",""
"2224","","image-button-response_instructions","12","30836","0.0-12.0","A3E65QA8DZX26T","img_art/ins/popularity/ins3ALikespop.png","0","instructions","","","","","","","","","","","","","","","","","","","","","","","",""
"4415","","image-button-response_instructions","13","35252","0.0-13.0","A3E65QA8DZX26T","img_art/ins/popularity/ins3KEEPpop.PNG","0","instructions","","","","","","","","","","","","","","","","","","","","","","","",""
"1152","","image-button-response_instructions","14","36404","0.0-14.0","A3E65QA8DZX26T","img_art/ins/popularity/ins3_5RED.png","0","instructions","","","","","","","","","","","","","","","","","","","","","","","",""
"710","","image-button-response_instructions","15","37116","0.0-15.0","A3E65QA8DZX26T","img_art/ins/popularity/ins3KEEPpop.PNG","0","instructions","","","","","","","","","","","","","","","","","","","","","","","",""
"2455","","image-button-response_instructions","16","39572","0.0-16.0","A3E65QA8DZX26T","img_art/ins/popularity/ins4KEEPpop.PNG","0","instructions","","","","","","","","","","","","","","","","","","","","","","","",""
"823","","image-button-response_instructions","17","40396","0.0-17.0","A3E65QA8DZX26T","img_art/ins/popularity/ins5KEEPpop.PNG","0","instructions","","","","","","","","","","","","","","","","","","","","","","","",""
"630","","image-button-response_instructions","18","41027","0.0-18.0","A3E65QA8DZX26T","","0","instructions","","","","","","","","","","","","","","","","","","","","","","","",""
"2981","","survey-text","19","44027","0.0-19.0-0.0","A3E65QA8DZX26T","","","","{""Q0"":""but""}","","","","","","","","","","","","","","","","","","","","","","",""
"18111","","survey-text","20","62140","0.0-20.0-0.0","A3E65QA8DZX26T","","","","{""Q0"":""Looks like an ice cream truck melted""}","","","","","","","","","","","","","","","","","","","","","","",""
"1846.699999988079","","image-slider-response","21","63988","0.0-21.0","A3E65QA8DZX26T","","","","","-18","","","","","","","","","","","","","","","","","","","","","",""
"null","","image-button-response","22","68992","0.0-22.0","A3E65QA8DZX26T","img_art/ins/1.jpg","null","","","","","","","","","","","","","","","","","","","","","","","","",""
"500","","image-button-response","23","69493","0.0-23.0","A3E65QA8DZX26T","img_art/ins/1.jpg","2","","","","","","","","","","","","","","","","","","","","","","","","",""
"2653","","image-button-response","24","72148","0.0-24.0-0.0","A3E65QA8DZX26T","img_art/ins/1.jpg","4","","","","","","","","","","","","","","","","","","","","","","","","",""
"1782","","image-button-response","25","73932","0.0-25.0-0.0","A3E65QA8DZX26T","img_art/ins/1.jpg","0","","","","","","","","","","","","","","","","","","","","","","","","",""
"null","","html-keyboard-response","26","75435","0.0-26.0","A3E65QA8DZX26T","<p style=""font-size: 48px;"">+</p>","","","","","null","allTrialResponses","1500","1","-2","img_art/ins/1.jpg","-18","Looks like an ice cream truck melted","Adam,Alex,Ben,Carl,Daniel,Jack","Seems like doodles,-20,20,20","very creative work.,36,40,20","This color reminds me of poo,-46,60,20","very calming artwork,42,80,20","It looks like a murder scene.,-48,100,20","I like the sophisticated brushwork,40,120,20","Ben","This color reminds me of poo,-46,60,20","Daniel","It looks like a murder scene.,-48,100,20","Adam","Seems like doodles,-20,20,20","0"
"12605","","survey-text","27","88043","0.0-27.0-0.0","A3E65QA8DZX26T","","","","{""Q0"":""Looks like rusted industrial equipment""}","","","","","","","","","","","","","","","","","","","","","","",""
"3151.5","","image-slider-response","28","91196","0.0-28.0","A3E65QA8DZX26T","","","","","7","","","","","","","","","","","","","","","","","","","","","",""
"3445","","image-button-response","29","96199","0.0-29.0","A3E65QA8DZX26T","img_art/ins/2.jpg","3","","","","","","","","","","","","","","","","","","","","","","","","",""
"1834","","image-button-response","30","98036","0.0-30.0","A3E65QA8DZX26T","img_art/ins/2.jpg","3","","","","","","","","","","","","","","","","","","","","","","","","",""
"2814","","image-button-response","31","100852","0.0-31.0-0.0","A3E65QA8DZX26T","img_art/ins/2.jpg","1","","","","","","","","","","","","","","","","","","","","","","","","",""
"1814","","image-button-response","32","102668","0.0-32.0-0.0","A3E65QA8DZX26T","img_art/ins/2.jpg","0","","","","","","","","","","","","","","","","","","","","","","","","",""
"null","","html-keyboard-response","33","104171","0.0-33.0","A3E65QA8DZX26T","<p style=""font-size: 48px;"">+</p>","","","","","null","allTrialResponses","1500","1","-1","img_art/ins/2.jpg","7","Looks like rusted industrial equipment","Adam,John,Ben,James,Daniel,Kyle","too much color,-18,20,20","love the texture of paint,48,160,20","meaningless painting,-45,60,20","looks too angry,-50,140,20","One of my pet peevs,-48,100,20","Idk, it is just annoying,-32,180,20","James","looks too angry,-50,140,20","John","love the texture of paint,48,160,20","Adam","too much color,-18,20,20","0"
"15300","","survey-text","34","119475","0.0-34.0-0.0","A3E65QA8DZX26T","","","","{""Q0"":""This piece is rather melancholy""}","","","","","","","","","","","","","","","","","","","","","","",""
"3022.7000000476837","","image-slider-response","35","122499","0.0-35.0","A3E65QA8DZX26T","","","","","31","","","","","","","","","","","","","","","","","","","","","",""
"4904","","image-button-response","36","127502","0.0-36.0","A3E65QA8DZX26T","img_art/ins/3.jpg","2","","","","","","","","","","","","","","","","","","","","","","","","",""
"620","","image-button-response","37","128124","0.0-37.0","A3E65QA8DZX26T","img_art/ins/3.jpg","1","","","","","","","","","","","","","","","","","","","","","","","","",""
"349","","image-button-response","38","128475","0.0-38.0-0.0","A3E65QA8DZX26T","img_art/ins/3.jpg","2","","","","","","","","","","","","","","","","","","","","","","","","",""
"981","","image-button-response","39","129459","0.0-39.0-0.0","A3E65QA8DZX26T","img_art/ins/3.jpg","5","","","","","","","","","","","","","","","","","","","","","","","","",""
"null","","html-keyboard-response","40","129961","0.0-40.0","A3E65QA8DZX26T","<p style=""font-size: 48px;"">+</p>","","","","","null","allTrialResponses","500","1","0","img_art/ins/3.jpg","31","This piece is rather melancholy","Adam,John,Mike,James,Ron,Sam","My daily routine, it's depressing,-20,20,20","I like the overlapping of brushes,41,160,20","enjoy the different shades of blue,22,200,20","My worst nightmare,-42,140,20","It looks depressing,-26,220,20","I can feel a rainy day from this painting,18,240,20","John","I like the overlapping of brushes,41,160,20","Mike","enjoy the different shades of blue,22,200,20","Sam","I can feel a rainy day from this painting,18,240,20","0"
"4934","","image-button-response_instructions","41","134899","0.0-41.0","A3E65QA8DZX26T","","0","instructions","","","","","","","","","","","","","","","","","","","","","","","",""
"6088","","survey-likert","42","140988","0.0-42.0-0.0","A3E65QA8DZX26T","","","","{""Q0"":"""",""Q1"":0,""Q2"":0}","","","","","","","","","","","","","","","","","","","","","","",""
"2816","","survey-likert","43","145387","0.0-42.1-0.1","A3E65QA8DZX26T","","","","{""Q0"":"""",""Q1"":0,""Q2"":1}","","","","","","","","","","","","","","","","","","","","","","",""
"3157","","survey-text","44","148547","0.0-43.0-0.0","A3E65QA8DZX26T","","","","{""Q0"":""rock""}","","","","","","","","","","","","","","","","","","","","","","",""
"15935","","survey-text","45","164483","0.0-44.0-0.0","A3E65QA8DZX26T","","","","{""Q0"":""Looks like a highway on a rain day""}","","","","","","","","","","","","","","","","","","","","","","",""
"2533.800000011921","","image-slider-response","46","167019","0.0-45.0","A3E65QA8DZX26T","","","","","24","","","","","","","","","","","","","","","","","","","","","",""
"2043","","image-button-response","47","172034","0.0-46.0","A3E65QA8DZX26T","img_art/11.jpg","0","","","","","","","","","","","","","","","","","","","","","","","","",""
"1288","","image-button-response","48","173324","0.0-47.0","A3E65QA8DZX26T","img_art/11.jpg","5","","","","","","","","","","","","","","","","","","","","","","","","",""
"1358","","image-button-response","49","174684","0.0-48.0-0.0","A3E65QA8DZX26T","img_art/11.jpg","4","","","","","","","","","","","","","","","","","","","","","","","","",""
"3302","","image-button-response","50","177988","0.0-49.0-0.0","A3E65QA8DZX26T","img_art/11.jpg","2","","","","","","","","","","","","","","","","","","","","","","","","",""
"null","","html-keyboard-response","51","179491","0.0-50.0","A3E65QA8DZX26T","<p style=""font-size: 48px;"">+</p>","","","","","null","allTrialResponses","1500","1","1","img_art/11.jpg","24","Looks like a highway on a rain day","Taylor,Mason,Robert,Marcus,Luke,Isaiah","Busy, busy oceanside city.,-10,200,20","dna, odd but nice.,25,100,20","Rainy dreary day in a town.,7,360,20","I like this one very much, especially the shades of gray.,30,60,20","it reminds me of music,43,20,20","I feel excited, like I'm in the middle of a bustling city.,26,300,20","Isaiah","I feel excited, like I'm in the middle of a bustling city.,26,300,20","Luke","it reminds me of music,43,20,20","Robert","Rainy dreary day in a town.,7,360,20","1"
"14630","","survey-text","52","194124","0.0-51.0-0.0","A3E65QA8DZX26T","","","","{""Q0"":""Don't know why, but I think this is something sexual""}","","","","","","","","","","","","","","","","","","","","","","",""
"2134","","image-slider-response","53","196260","0.0-52.0","A3E65QA8DZX26T","","","","","-24","","","","","","","","","","","","","","","","","","","","","",""
"null","","image-button-response","54","201263","0.0-53.0","A3E65QA8DZX26T","img_art/4.jpg","null","","","","","","","","","","","","","","","","","","","","","","","","",""
"1115","","image-button-response","55","202380","0.0-54.0","A3E65QA8DZX26T","img_art/4.jpg","3","","","","","","","","","","","","","","","","","","","","","","","","",""
"950","","image-button-response","56","203332","0.0-55.0-0.0","A3E65QA8DZX26T","img_art/4.jpg","0","","","","","","","","","","","","","","","","","","","","","","","","",""
"1046","","image-button-response","57","204380","0.0-56.0-0.0","A3E65QA8DZX26T","img_art/4.jpg","1","","","","","","","","","","","","","","","","","","","","","","","","",""
"null","","html-keyboard-response","58","205881","0.0-57.0","A3E65QA8DZX26T","<p style=""font-size: 48px;"">+</p>","","","","","null","allTrialResponses","1500","1","2","img_art/4.jpg","-24","Don't know why, but I think this is something sexual","Ian,Victor,Robert,Elijah,Luke,Isaiah","I just don't understand this one at all, I do not like it,-43,260,20","Hate the color, and just do not get the point.,-13,340,20","It looks like a hand someone scribbled over,-30,360,20","Looks like a hand, not very impressed,-22,80,20","it looks like a simple finger painting, yet i liked the color choices,-12,20,20","The sickly looking colors make me feel very uncomfortable.,-35,300,20","Elijah","Looks like a hand, not very impressed,-22,80,20","Ian","I just don't understand this one at all, I do not like it,-43,260,20","Victor","Hate the color, and just do not get the point.,-13,340,20","1"
"15745","","survey-text","59","221628","0.0-58.0-0.0","A3E65QA8DZX26T","","","","{""Q0"":""Looks like a god looming over an ancient city""}","","","","","","","","","","","","","","","","","","","","","","",""
"2430.300000011921","","image-slider-response","60","224060","0.0-59.0","A3E65QA8DZX26T","","","","","23","","","","","","","","","","","","","","","","","","","","","",""
"null","","image-button-response","61","229062","0.0-60.0","A3E65QA8DZX26T","img_art/8.jpg","null","","","","","","","","","","","","","","","","","","","","","","","","",""
"388","","image-button-response","62","229452","0.0-61.0","A3E65QA8DZX26T","img_art/8.jpg","5","","","","","","","","","","","","","","","","","","","","","","","","",""
"1534","","image-button-response","63","230988","0.0-62.0-0.0","A3E65QA8DZX26T","img_art/8.jpg","1","","","","","","","","","","","","","","","","","","","","","","","","",""
"798","","image-button-response","64","231788","0.0-63.0-0.0","A3E65QA8DZX26T","img_art/8.jpg","0","","","","","","","","","","","","","","","","","","","","","","","","",""
"null","","html-keyboard-response","65","232290","0.0-64.0","A3E65QA8DZX26T","<p style=""font-size: 48px;"">+</p>","","","","","null","allTrialResponses","500","1","3","img_art/8.jpg","23","Looks like a god looming over an ancient city","Ian,Victor,Miguel,Elijah,Benjamin,Caleb","I like this, the longer I look at in the more details I see.,41,260,20","I like the colors,10,340,20","Well painted. Not my style.,27,160,20","Makes me feel nice,23,80,20","Very colorful. Looks like the hustle and bustle of a city.,11,260,20","Despite the detail, this picture is very abstract!,31,40,20","Caleb","Despite the detail, this picture is very abstract!,31,40,20","Victor","I like the colors,10,340,20","Ian","I like this, the longer I look at in the more details I see.,41,260,20","1"
"17886","","survey-text","66","250180","0.0-65.0-0.0","A3E65QA8DZX26T","","","","{""Q0"":""Looks like a photograph of the ground in some desert city""}","","","","","","","","","","","","","","","","","","","","","","",""
"3038.2999999523163","","image-slider-response","67","253219","0.0-66.0","A3E65QA8DZX26T","","","","","-3","","","","","","","","","","","","","","","","","","","","","",""
"null","","image-button-response","68","258222","0.0-67.0","A3E65QA8DZX26T","img_art/7.jpg","null","","","","","","","","","","","","","","","","","","","","","","","","",""
"586","","image-button-response","69","258811","0.0-68.0","A3E65QA8DZX26T","img_art/7.jpg","0","","","","","","","","","","","","","","","","","","","","","","","","",""
"1743","","image-button-response","70","260556","0.0-69.0-0.0","A3E65QA8DZX26T","img_art/7.jpg","0","","","","","","","","","","","","","","","","","","","","","","","","",""
"736","","image-button-response","71","263788","0.0-69.1-0.1","A3E65QA8DZX26T","img_art/7.jpg","2","","","","","","","","","","","","","","","","","","","","","","","","",""
"797","","image-button-response","72","264587","0.0-70.0-0.0","A3E65QA8DZX26T","img_art/7.jpg","1","","","","","","","","","","","","","","","","","","","","","","","","",""
"null","","html-keyboard-response","73","266089","0.0-71.0","A3E65QA8DZX26T","<p style=""font-size: 48px;"">+</p>","","","","","null","allTrialResponses","1500","1","4","img_art/7.jpg","-3","Looks like a photograph of the ground in some desert city","Ian,Victor,Evan,Kenneth,Noah,Caleb","This looks like a literal picture of the ground so I'm really not too sure about this one.,-42,260,20","I like the texture,12,340,20","I feel confused, am I looking at a painting or a close up picture of some sort of fly stone?,-19,140,20","My firs thought was ""gross""...not sure what this is and I dont think i want to know.,-19,300,20","elicits no real response,0,260,20","More saturated color, even more interpretations to have.,44,40,20","Ian","This looks like a literal picture of the ground so I'm really not too sure about this one.,-42,260,20","Evan","I feel confused, am I looking at a painting or a close up picture of some sort of fly stone?,-19,140,20","Victor","I like the texture,12,340,20","3"
"22255","","survey-text","74","288348","0.0-72.0-0.0","A3E65QA8DZX26T","","","","{""Q0"":""I think of gnats and flies, makes me feel itchy""}","","","","","","","","","","","","","","","","","","","","","","",""
"2253.300000011921","","image-slider-response","75","290603","0.0-73.0","A3E65QA8DZX26T","","","","","-49","","","","","","","","","","","","","","","","","","","","","",""
"null","","image-button-response","76","295607","0.0-74.0","A3E65QA8DZX26T","img_art/15.jpg","null","","","","","","","","","","","","","","","","","","","","","","","","",""
"611","","image-button-response","77","296220","0.0-75.0","A3E65QA8DZX26T","img_art/15.jpg","0","","","","","","","","","","","","","","","","","","","","","","","","",""
"1639","","image-button-response","78","297861","0.0-76.0-0.0","A3E65QA8DZX26T","img_art/15.jpg","5","","","","","","","","","","","","","","","","","","","","","","","","",""
"756","","image-button-response","79","298619","0.0-77.0-0.0","A3E65QA8DZX26T","img_art/15.jpg","4","","","","","","","","","","","","","","","","","","","","","","","","",""
"null","","html-keyboard-response","80","299620","0.0-78.0","A3E65QA8DZX26T","<p style=""font-size: 48px;"">+</p>","","","","","null","allTrialResponses","1000","1","5","img_art/15.jpg","-49","I think of gnats and flies, makes me feel itchy","Ian,Victor,Evan,Devin,Kevin,Richard","This gives a skin crawling feeling. Like something that you could see under a mircoscope,10,260,20","I like the random blue dabs to break up the black, but it looks unfinished.,4,340,20","I am reminded of spring flowers swaying in the dark night's breeze,9,140,20","Simple but needs some more detail somehow,-3,380,20","Weird fuzzball bush.,22,320,20","dark and provoking,-50,340,20","Ian","This gives a skin crawling feeling. Like something that you could see under a mircoscope,10,260,20","Richard","dark and provoking,-50,340,20","Kevin","Weird fuzzball bush.,22,320,20","3"
"4514","","survey-text","81","304139","0.0-79.0-0.0","A3E65QA8DZX26T","","","","{""Q0"":""sky""}","","","","","","","","","","","","","","","","","","","","","","",""
"7879","","survey-text","82","312020","0.0-80.0-0.0","A3E65QA8DZX26T","","","","{""Q0"":""A serene waterfall""}","","","","","","","","","","","","","","","","","","","","","","",""
"2670.100000023842","","image-slider-response","83","314691","0.0-81.0","A3E65QA8DZX26T","","","","","18","","","","","","","","","","","","","","","","","","","","","",""
"null","","image-button-response","84","319694","0.0-82.0","A3E65QA8DZX26T","img_art/24.jpg","null","","","","","","","","","","","","","","","","","","","","","","","","",""
"868","","image-button-response","85","320564","0.0-83.0","A3E65QA8DZX26T","img_art/24.jpg","2","","","","","","","","","","","","","","","","","","","","","","","","",""
"1350","","image-button-response","86","321916","0.0-84.0-0.0","A3E65QA8DZX26T","img_art/24.jpg","4","","","","","","","","","","","","","","","","","","","","","","","","",""
"1198","","image-button-response","87","323116","0.0-85.0-0.0","A3E65QA8DZX26T","img_art/24.jpg","5","","","","","","","","","","","","","","","","","","","","","","","","",""
"null","","html-keyboard-response","88","323618","0.0-86.0","A3E65QA8DZX26T","<p style=""font-size: 48px;"">+</p>","","","","","null","allTrialResponses","500","1","6","img_art/24.jpg","18","A serene waterfall","Ian,Logan,Bryan,Jeremy,Kevin,Richard","I find the colors work really well. It's very pretty but I have no idea as what it is.,34,260,20","brick wall waterfall girl you think you got it all,50,360,20","Abstract falls & nature.,41,400,20","somewhat happy. I like the colors,38,60,20","What a nice refreshing waterfall.,39,320,20","flowing water part is good, some of the rest is ok but dark,14,340,20","Bryan","Abstract falls & nature.,41,400,20","Kevin","What a nice refreshing waterfall.,39,320,20","Richard","flowing water part is good, some of the rest is ok but dark,14,340,20","3"
"8950","","survey-text","89","332572","0.0-87.0-0.0","A3E65QA8DZX26T","","","","{""Q0"":""Another dreary day in a city""}","","","","","","","","","","","","","","","","","","","","","","",""
"1703","","image-slider-response","90","334276","0.0-88.0","A3E65QA8DZX26T","","","","","19","","","","","","","","","","","","","","","","","","","","","",""
"null","","image-button-response","91","339279","0.0-89.0","A3E65QA8DZX26T","img_art/19.jpg","null","","","","","","","","","","","","","","","","","","","","","","","","",""
"580","","image-button-response","92","339860","0.0-90.0","A3E65QA8DZX26T","img_art/19.jpg","2","","","","","","","","","","","","","","","","","","","","","","","","",""
"1262","","image-button-response","93","341124","0.0-91.0-0.0","A3E65QA8DZX26T","img_art/19.jpg","0","","","","","","","","","","","","","","","","","","","","","","","","",""
"1078","","image-button-response","94","342204","0.0-92.0-0.0","A3E65QA8DZX26T","img_art/19.jpg","5","","","","","","","","","","","","","","","","","","","","","","","","",""
"null","","html-keyboard-response","95","343707","0.0-93.0","A3E65QA8DZX26T","<p style=""font-size: 48px;"">+</p>","","","","","null","allTrialResponses","1500","1","7","img_art/19.jpg","19","Another dreary day in a city","Cody,Brandon,Bryan,Dylan,Kevin,Richard","Interesting, leaves you wondering what it is,40,180,20","Not a fan of the blobbiness,-22,320,20","Looks like a child's rendering of a city street but not too sure.,0,400,20","This photo has too much going on.,-19,40,20","Thats a lazy town,-8,320,20","not professional looking but not bad either,13,340,20","Bryan","Looks like a child's rendering of a city street but not too sure.,0,400,20","Cody","Interesting, leaves you wondering what it is,40,180,20","Richard","not professional looking but not bad either,13,340,20","3"
"15582","","survey-text","96","359291","0.0-94.0-0.0","A3E65QA8DZX26T","","","","{""Q0"":""A lone sprout in a formless desert""}","","","","","","","","","","","","","","","","","","","","","","",""
"2134.300000011921","","image-slider-response","97","361427","0.0-95.0","A3E65QA8DZX26T","","","","","19","","","","","","","","","","","","","","","","","","","","","",""
"null","","image-button-response","98","366429","0.0-96.0","A3E65QA8DZX26T","img_art/6.jpg","null","","","","","","","","","","","","","","","","","","","","","","","","",""
"1276","","image-button-response","99","367707","0.0-97.0","A3E65QA8DZX26T","img_art/6.jpg","4","","","","","","","","","","","","","","","","","","","","","","","","",""
"1775","","image-button-response","100","369484","0.0-98.0-0.0","A3E65QA8DZX26T","img_art/6.jpg","1","","","","","","","","","","","","","","","","","","","","","","","","",""
"2421","","image-button-response","101","371907","0.0-99.0-0.0","A3E65QA8DZX26T","img_art/6.jpg","5","","","","","","","","","","","","","","","","","","","","","","","","",""
"null","","html-keyboard-response","102","372408","0.0-100.0","A3E65QA8DZX26T","<p style=""font-size: 48px;"">+</p>","","","","","null","allTrialResponses","500","1","8","img_art/6.jpg","19","A lone sprout in a formless desert","Cody,Adam,Bryan,John,Grant,Richard","Birds are cool but I don't love it,10,180,20","Simple desert scene.,5,40,20","Growth in the desert?  Don't care for it very much.,-26,400,20","It makes me stop and think about what the artist is trying to say.It creates a feeling of solitude and tranqulity,30,120,20","The limited colors make me feel lonely.,36,200,20","simplistic but reminds me of a crow in a field,-10,340,20","Grant","The limited colors make me feel lonely.,36,200,20","Adam","Simple desert scene.,5,40,20","Richard","simplistic but reminds me of a crow in a field,-10,340,20","3"
"13056","","survey-text","103","385467","0.0-101.0-0.0","A3E65QA8DZX26T","","","","{""Q0"":""Looks like puke""}","","","","","","","","","","","","","","","","","","","","","","",""
"1974.2000000476837","","image-slider-response","104","387443","0.0-102.0","A3E65QA8DZX26T","","","","","-28","","","","","","","","","","","","","","","","","","","","","",""
"null","","image-button-response","105","392445","0.0-103.0","A3E65QA8DZX26T","img_art/27.jpg","null","","","","","","","","","","","","","","","","","","","","","","","","",""
"1693","","image-button-response","106","394140","0.0-104.0","A3E65QA8DZX26T","img_art/27.jpg","4","","","","","","","","","","","","","","","","","","","","","","","","",""
"1950","","image-button-response","107","396091","0.0-105.0-0.0","A3E65QA8DZX26T","img_art/27.jpg","2","","","","","","","","","","","","","","","","","","","","","","","","",""
"910","","image-button-response","108","397003","0.0-106.0-0.0","A3E65QA8DZX26T","img_art/27.jpg","1","","","","","","","","","","","","","","","","","","","","","","","","",""
"null","","html-keyboard-response","109","398006","0.0-107.0","A3E65QA8DZX26T","<p style=""font-size: 48px;"">+</p>","","","","","null","allTrialResponses","1000","1","9","img_art/27.jpg","-28","Looks like puke","Matthew,Adam,Garrett,Tyler,Grant,Richard","Lots of activity, layers, imagination at work here.,29,120,20","Warn colors are pretty, but too blotchy for me.,3,40,20","This image could do a better job of showing what is going on and it could use more colors.,-42,180,20","The photographing is horribly distracting. I would feel more favorable toward the original colors/ brightness,1,320,20","This feels like I'm looking at a child's scribbles.,-27,200,20","like the patterns and colors all but the orange blob on the right,32,340,20","Grant","This feels like I'm looking at a child's scribbles.,-27,200,20","Garrett","This image could do a better job of showing what is going on and it could use more colors.,-42,180,20","Adam","Warn colors are pretty, but too blotchy for me.,3,40,20","3"
"10530","","survey-text","110","408539","0.0-108.0-0.0","A3E65QA8DZX26T","","","","{""Q0"":""This is just puke""}","","","","","","","","","","","","","","","","","","","","","","",""
"1710.8999999761581","","image-slider-response","111","410251","0.0-109.0","A3E65QA8DZX26T","","","","","-50","","","","","","","","","","","","","","","","","","","","","",""
"null","","image-button-response","112","415254","0.0-110.0","A3E65QA8DZX26T","img_art/18.jpg","null","","","","","","","","","","","","","","","","","","","","","","","","",""
"1748","","image-button-response","113","417004","0.0-111.0","A3E65QA8DZX26T","img_art/18.jpg","1","","","","","","","","","","","","","","","","","","","","","","","","",""
"4335","","image-button-response","114","421340","0.0-112.0-0.0","A3E65QA8DZX26T","img_art/18.jpg","4","","","","","","","","","","","","","","","","","","","","","","","","",""
"638","","image-button-response","115","421980","0.0-113.0-0.0","A3E65QA8DZX26T","img_art/18.jpg","2","","","","","","","","","","","","","","","","","","","","","","","","",""
"null","","html-keyboard-response","116","422982","0.0-114.0","A3E65QA8DZX26T","<p style=""font-size: 48px;"">+</p>","","","","","null","allTrialResponses","1000","1","10","img_art/18.jpg","-50","This is just puke","Connor,Adam,Garrett,Adrian,Grant,Devon","See a weird horse,-22,240,20","Colors are okay. Reminds me of cavalry.,10,40,20","I think its supposed to be a boat and the boat looks kind of interesting to me.,10,180,20","Interesting piece - gives you more the more you look at it. I like it but wouldn't buy it.,11,60,20","This is a very energetic painting, and brings to mind scenes of battle.,50,200,20","I really like this one - there seems to be a story behind it,32,400,20","Adam","Colors are okay. Reminds me of cavalry.,10,40,20","Grant","This is a very energetic painting, and brings to mind scenes of battle.,50,200,20","Garrett","I think its supposed to be a boat and the boat looks kind of interesting to me.,10,180,20","3"
"2808","","survey-text","117","425796","0.0-115.0-0.0","A3E65QA8DZX26T","","","","{""Q0"":""our""}","","","","","","","","","","","","","","","","","","","","","","",""
"14254","","survey-text","118","440052","0.0-116.0-0.0","A3E65QA8DZX26T","","","","{""Q0"":""Reminds a little of that piece with the melting clock""}","","","","","","","","","","","","","","","","","","","","","","",""
"1886.699999988079","","image-slider-response","119","441940","0.0-117.0","A3E65QA8DZX26T","","","","","11","","","","","","","","","","","","","","","","","","","","","",""
"null","","image-button-response","120","446942","0.0-118.0","A3E65QA8DZX26T","img_art/20.jpg","null","","","","","","","","","","","","","","","","","","","","","","","","",""
"477","","image-button-response","121","447420","0.0-119.0","A3E65QA8DZX26T","img_art/20.jpg","1","","","","","","","","","","","","","","","","","","","","","","","","",""
"3321","","image-button-response","122","450743","0.0-120.0-0.0","A3E65QA8DZX26T","img_art/20.jpg","2","","","","","","","","","","","","","","","","","","","","","","","","",""
"555","","image-button-response","123","451300","0.0-121.0-0.0","A3E65QA8DZX26T","img_art/20.jpg","0","","","","","","","","","","","","","","","","","","","","","","","","",""
"null","","html-keyboard-response","124","452802","0.0-122.0","A3E65QA8DZX26T","<p style=""font-size: 48px;"">+</p>","","","","","null","allTrialResponses","1500","1","11","img_art/20.jpg","11","Reminds a little of that piece with the melting clock","Jorge,Adam,Garrett,Daniel,Grant,Christopher","Curious about what lies here,10,180,20","Melty picture. Reminiscent of Dali.,10,40,20","I really like this. There are lots of objects the artist wanted to show and the colors are good.,38,180,20","Fails to capture what similar styles do,-12,320,20","This elicits no reaction in me.,0,200,20","i ind of like this, it's saying something but not my style,6,160,20","Adam","Melty picture. Reminiscent of Dali.,10,40,20","Garrett","I really like this. There are lots of objects the artist wanted to show and the colors are good.,38,180,20","Jorge","Curious about what lies here,10,180,20","3"
"32055","","survey-text","125","484860","0.0-123.0-0.0","A3E65QA8DZX26T","","","","{""Q0"":""A storm in another planet or dimension""}","","","","","","","","","","","","","","","","","","","","","","",""
"4726.699999988079","","image-slider-response","126","489588","0.0-124.0","A3E65QA8DZX26T","","","","","22","","","","","","","","","","","","","","","","","","","","","",""
"null","","image-button-response","127","494591","0.0-125.0","A3E65QA8DZX26T","img_art/21.jpg","null","","","","","","","","","","","","","","","","","","","","","","","","",""
"490","","image-button-response","128","495084","0.0-126.0","A3E65QA8DZX26T","img_art/21.jpg","4","","","","","","","","","","","","","","","","","","","","","","","","",""
"1150","","image-button-response","129","496236","0.0-127.0-0.0","A3E65QA8DZX26T","img_art/21.jpg","5","","","","","","","","","","","","","","","","","","","","","","","","",""
"1046","","image-button-response","130","497284","0.0-128.0-0.0","A3E65QA8DZX26T","img_art/21.jpg","2","","","","","","","","","","","","","","","","","","","","","","","","",""
"null","","html-keyboard-response","131","498786","0.0-129.0","A3E65QA8DZX26T","<p style=""font-size: 48px;"">+</p>","","","","","null","allTrialResponses","1500","1","12","img_art/21.jpg","22","A storm in another planet or dimension","Jorge,Adam,Garrett,Dalton,Chase,Juan","mythical between good and evil,16,180,20","I like color mix here,15,40,20","I like the sky a little bit the way the colors look for the sky, the cliff side looks a little weird though.,10,180,20","The color spectrum is just beautiful.,32,300,20","Kind of looks like a sky with a storm or tornado.,10,120,20","The colors and softness work together to make something that's lovely.,42,260,20","Chase","Kind of looks like a sky with a storm or tornado.,10,120,20","Juan","The colors and softness work together to make something that's lovely.,42,260,20","Garrett","I like the sky a little bit the way the colors look for the sky, the cliff side looks a little weird though.,10,180,20","3"
"24055","","survey-text","132","522844","0.0-130.0-0.0","A3E65QA8DZX26T","","","","{""Q0"":""Skyscrapers maybe? Looks like puke.""}","","","","","","","","","","","","","","","","","","","","","","",""
"1966.199999988079","","image-slider-response","133","524812","0.0-131.0","A3E65QA8DZX26T","","","","","-7","","","","","","","","","","","","","","","","","","","","","",""
"null","","image-button-response","134","529814","0.0-132.0","A3E65QA8DZX26T","img_art/30.jpg","null","","","","","","","","","","","","","","","","","","","","","","","","",""
"492","","image-button-response","135","530308","0.0-133.0","A3E65QA8DZX26T","img_art/30.jpg","3","","","","","","","","","","","","","","","","","","","","","","","","",""
"391","","image-button-response","136","530701","0.0-134.0-0.0","A3E65QA8DZX26T","img_art/30.jpg","4","","","","","","","","","","","","","","","","","","","","","","","","",""
"1557","","image-button-response","137","532260","0.0-135.0-0.0","A3E65QA8DZX26T","img_art/30.jpg","1","","","","","","","","","","","","","","","","","","","","","","","","",""
"null","","html-keyboard-response","138","532761","0.0-136.0","A3E65QA8DZX26T","<p style=""font-size: 48px;"">+</p>","","","","","null","allTrialResponses","500","1","13","img_art/30.jpg","-7","Skyscrapers maybe? Looks like puke.","Jonathan,Alexis,Garrett,Steven,Chase,Juan","I like the softness of this but it doesn't make me feel that nice,5,140,20","I like the strong lines or brush strokes. It looks modern and bold,21,140,20","I feel like the colors are too repetitive and not very eyecatching.,-20,180,20","cant see the meaning behind it,-20,160,20","Too dark and ugly with all the black smears,-20,120,20","I like the red against the blue, but otherwise, it's not really my taste,4,260,20","Steven","cant see the meaning behind it,-20,160,20","Chase","Too dark and ugly with all the black smears,-20,120,20","Alexis","I like the strong lines or brush strokes. It looks modern and bold,21,140,20","3"
"16966","","survey-text","139","549732","0.0-137.0-0.0","A3E65QA8DZX26T","","","","{""Q0"":""Some kid scribbling with a red crayola""}","","","","","","","","","","","","","","","","","","","","","","",""
"2230.899999976158","","image-slider-response","140","551964","0.0-138.0","A3E65QA8DZX26T","","","","","-10","","","","","","","","","","","","","","","","","","","","","",""
"null","","image-button-response","141","556965","0.0-139.0","A3E65QA8DZX26T","img_art/3.jpg","null","","","","","","","","","","","","","","","","","","","","","","","","",""
"597","","image-button-response","142","557564","0.0-140.0","A3E65QA8DZX26T","img_art/3.jpg","1","","","","","","","","","","","","","","","","","","","","","","","","",""
"1190","","image-button-response","143","558755","0.0-141.0-0.0","A3E65QA8DZX26T","img_art/3.jpg","3","","","","","","","","","","","","","","","","","","","","","","","","",""
"279","","image-button-response","144","559036","0.0-142.0-0.0","A3E65QA8DZX26T","img_art/3.jpg","4","","","","","","","","","","","","","","","","","","","","","","","","",""
"null","","html-keyboard-response","145","560037","0.0-143.0","A3E65QA8DZX26T","<p style=""font-size: 48px;"">+</p>","","","","","null","allTrialResponses","1000","1","14","img_art/3.jpg","-10","Some kid scribbling with a red crayola","Dakota,Alexis,Travis,Steven,Chase,Spencer","wild scribbling, freedom, expression,40,280,20","It looks like a child drawing,-29,140,20","I hate this...just a scribble of red.,-50,260,20","i don't like this, just looks like scribbles,-50,160,20","Looks like a bloody head with teeth.,-16,120,20","Scratchy scrawly all one color, looks like a mistake,-28,120,20","Alexis","It looks like a child drawing,-29,140,20","Steven","i don't like this, just looks like scribbles,-50,160,20","Chase","Looks like a bloody head with teeth.,-16,120,20","3"
"20114","","survey-text","146","580155","0.0-144.0-0.0","A3E65QA8DZX26T","","","","{""Q0"":""Good and evil spewing out a desert hill""}","","","","","","","","","","","","","","","","","","","","","","",""
"3949.899999976158","","image-slider-response","147","584107","0.0-145.0","A3E65QA8DZX26T","","","","","24","","","","","","","","","","","","","","","","","","","","","",""
"null","","image-button-response","148","589110","0.0-146.0","A3E65QA8DZX26T","img_art/5.jpg","null","","","","","","","","","","","","","","","","","","","","","","","","",""
"419","","image-button-response","149","589531","0.0-147.0","A3E65QA8DZX26T","img_art/5.jpg","5","","","","","","","","","","","","","","","","","","","","","","","","",""
"2496","","image-button-response","150","592028","0.0-148.0-0.0","A3E65QA8DZX26T","img_art/5.jpg","1","","","","","","","","","","","","","","","","","","","","","","","","",""
"966","","image-button-response","151","592996","0.0-149.0-0.0","A3E65QA8DZX26T","img_art/5.jpg","3","","","","","","","","","","","","","","","","","","","","","","","","",""
"null","","html-keyboard-response","152","593997","0.0-150.0","A3E65QA8DZX26T","<p style=""font-size: 48px;"">+</p>","","","","","null","allTrialResponses","1000","1","15","img_art/5.jpg","24","Good and evil spewing out a desert hill","Gabriel,Alexis,Gregory,Steven,Chase,Charles","too abstract, looks like a pyramid,-22,160,20","I am confused as to what this is supposed to be,6,140,20","Don't really see it and yellow/pink don't go well together,-35,220,20","I dont really get anything from this,-25,160,20","Seems very basic and uninteresting.,-15,120,20","It feels positive and kind of uplifting,24,100,20","Charles","It feels positive and kind of uplifting,24,100,20","Alexis","I am confused as to what this is supposed to be,6,140,20","Steven","I dont really get anything from this,-25,160,20","3"
"3983","","survey-text","153","597987","0.0-151.0-0.0","A3E65QA8DZX26T","","","","{""Q0"":""course""}","","","","","","","","","","","","","","","","","","","","","","",""
"21768","","survey-text","154","619756","0.0-152.0-0.0","A3E65QA8DZX26T","","","","{""Q0"":""Glitter bomb from the 80s""}","","","","","","","","","","","","","","","","","","","","","","",""
"1693.8999999761581","","image-slider-response","155","621452","0.0-153.0","A3E65QA8DZX26T","","","","","18","","","","","","","","","","","","","","","","","","","","","",""
"null","","image-button-response","156","626454","0.0-154.0","A3E65QA8DZX26T","img_art/23.jpg","null","","","","","","","","","","","","","","","","","","","","","","","","",""
"733","","image-button-response","157","627188","0.0-155.0","A3E65QA8DZX26T","img_art/23.jpg","1","","","","","","","","","","","","","","","","","","","","","","","","",""
"951","","image-button-response","158","628141","0.0-156.0-0.0","A3E65QA8DZX26T","img_art/23.jpg","5","","","","","","","","","","","","","","","","","","","","","","","","",""
"5333","","image-button-response","159","633476","0.0-157.0-0.0","A3E65QA8DZX26T","img_art/23.jpg","2","","","","","","","","","","","","","","","","","","","","","","","","",""
"null","","html-keyboard-response","160","634478","0.0-158.0","A3E65QA8DZX26T","<p style=""font-size: 48px;"">+</p>","","","","","null","allTrialResponses","1000","1","16","img_art/23.jpg","18","Glitter bomb from the 80s","Nicholas,Alexis,Patrick,Steven,Jack,Charles","The more i look at it the more i like it  the dots of color and very interesting,50,240,20","It looks like a parade of musicians full of excitement. Makes me feel upbeat,33,140,20","Beautiful color scheme,21,280,20","NO, I don't get it,-50,160,20","awesome colors. love the white drawing the eye to the center. oddly comforting.,50,320,20","Look at all the dancers,26,100,20","Alexis","It looks like a parade of musicians full of excitement. Makes me feel upbeat,33,140,20","Charles","Look at all the dancers,26,100,20","Patrick","Beautiful color scheme,21,280,20","3"
"23562","","survey-text","161","658044","0.0-159.0-0.0","A3E65QA8DZX26T","","","","{""Q0"":""Looks like flooring from an old mom and pop supermarket""}","","","","","","","","","","","","","","","","","","","","","","",""
"2046.800000011921","","image-slider-response","162","660092","0.0-160.0","A3E65QA8DZX26T","","","","","25","","","","","","","","","","","","","","","","","","","","","",""
"null","","image-button-response","163","665094","0.0-161.0","A3E65QA8DZX26T","img_art/12.jpg","null","","","","","","","","","","","","","","","","","","","","","","","","",""
"860","","image-button-response","164","665956","0.0-162.0","A3E65QA8DZX26T","img_art/12.jpg","1","","","","","","","","","","","","","","","","","","","","","","","","",""
"2462","","image-button-response","165","668420","0.0-163.0-0.0","A3E65QA8DZX26T","img_art/12.jpg","4","","","","","","","","","","","","","","","","","","","","","","","","",""
"2543","","image-button-response","166","670966","0.0-164.0-0.0","A3E65QA8DZX26T","img_art/12.jpg","3","","","","","","","","","","","","","","","","","","","","","","","","",""
"null","","html-keyboard-response","167","671467","0.0-165.0","A3E65QA8DZX26T","<p style=""font-size: 48px;"">+</p>","","","","","null","allTrialResponses","500","1","17","img_art/12.jpg","25","Looks like flooring from an old mom and pop supermarket","Aaron,Alexis,Patrick,Sean,Shawn,Charles","Therapist wall art.,10,20,20","In my opinion, this photo has an old school vibe,22,140,20","I don't like the blocking,-20,280,20","my reaction is that the picture is wierd,-11,40,20","Nice hallway art for a hotel.,21,100,20","Just not a fan, I can't figure out why,-17,100,20","Alexis","In my opinion, this photo has an old school vibe,22,140,20","Shawn","Nice hallway art for a hotel.,21,100,20","Sean","my reaction is that the picture is wierd,-11,40,20","3"
"20461","","survey-text","168","691932","0.0-166.0-0.0","A3E65QA8DZX26T","","","","{""Q0"":""Looks like an open wound on a zombie""}","","","","","","","","","","","","","","","","","","","","","","",""
"2326.100000023842","","image-slider-response","169","694260","0.0-167.0","A3E65QA8DZX26T","","","","","15","","","","","","","","","","","","","","","","","","","","","",""
"null","","image-button-response","170","699262","0.0-168.0","A3E65QA8DZX26T","img_art/9.jpg","null","","","","","","","","","","","","","","","","","","","","","","","","",""
"3133","","image-button-response","171","702397","0.0-169.0","A3E65QA8DZX26T","img_art/9.jpg","3","","","","","","","","","","","","","","","","","","","","","","","","",""
"717","","image-button-response","172","703116","0.0-170.0-0.0","A3E65QA8DZX26T","img_art/9.jpg","0","","","","","","","","","","","","","","","","","","","","","","","","",""
"1734","","image-button-response","173","704852","0.0-171.0-0.0","A3E65QA8DZX26T","img_art/9.jpg","1","","","","","","","","","","","","","","","","","","","","","","","","",""
"null","","html-keyboard-response","174","705354","0.0-172.0","A3E65QA8DZX26T","<p style=""font-size: 48px;"">+</p>","","","","","null","allTrialResponses","500","1","18","img_art/9.jpg","15","Looks like an open wound on a zombie","Vincent,Alexis,Shane,Sean,Shawn,Joseph","This speaks to me like a personalities and sides and not all are nice,19,360,20","This photo make me feel peaceful. It looks like a woman sleeping in a garden,42,140,20","Angry beast mouth,-37,80,20","Gives me anxiety,-23,40,20","Cheesy. Looks unprofessional,-20,100,20","It's nice. Peaceful. Calming.,11,220,20","Sean","Gives me anxiety,-23,40,20","Vincent","This speaks to me like a personalities and sides and not all are nice,19,360,20","Alexis","This photo make me feel peaceful. It looks like a woman sleeping in a garden,42,140,20","3"
"15999","","survey-text","175","721356","0.0-173.0-0.0","A3E65QA8DZX26T","","","","{""Q0"":""Its kinda like rain on a windowsil""}","","","","","","","","","","","","","","","","","","","","","","",""
"2047","","image-slider-response","176","723405","0.0-174.0","A3E65QA8DZX26T","","","","","15","","","","","","","","","","","","","","","","","","","","","",""
"null","","image-button-response","177","728407","0.0-175.0","A3E65QA8DZX26T","img_art/13.jpg","null","","","","","","","","","","","","","","","","","","","","","","","","",""
"915","","image-button-response","178","729324","0.0-176.0","A3E65QA8DZX26T","img_art/13.jpg","0","","","","","","","","","","","","","","","","","","","","","","","","",""
"862","","image-button-response","179","730188","0.0-177.0-0.0","A3E65QA8DZX26T","img_art/13.jpg","4","","","","","","","","","","","","","","","","","","","","","","","","",""
"469","","image-button-response","180","730660","0.0-178.0-0.0","A3E65QA8DZX26T","img_art/13.jpg","5","","","","","","","","","","","","","","","","","","","","","","","","",""
"null","","html-keyboard-response","181","731162","0.0-179.0","A3E65QA8DZX26T","<p style=""font-size: 48px;"">+</p>","","","","","null","allTrialResponses","500","1","19","img_art/13.jpg","15","Its kinda like rain on a windowsil","Vincent,Alexis,Malik,Sean,Nathaniel,Colton","I love the colors reminds me of a rainy day..it's calm and relaxing,32,360,20","It looks too common, is a bit boring,-41,140,20","Gorgeous contrast and color choice, very pleasing,50,40,20","I like the colors,7,40,20","Looks like an upclose dried set of water droplets. Boring.,-25,220,20","love the colors and splatters,44,220,20","Vincent","I love the colors reminds me of a rainy day..it's calm and relaxing,32,360,20","Nathaniel","Looks like an upclose dried set of water droplets. Boring.,-25,220,20","Colton","love the colors and splatters,44,220,20","3"
"13022","","survey-text","182","744187","0.0-180.0-0.0","A3E65QA8DZX26T","","","","{""Q0"":""Memories of someone's youth""}","","","","","","","","","","","","","","","","","","","","","","",""
"1735.1000000238419","","image-slider-response","183","745924","0.0-181.0","A3E65QA8DZX26T","","","","","17","","","","","","","","","","","","","","","","","","","","","",""
"null","","image-button-response","184","750926","0.0-182.0","A3E65QA8DZX26T","img_art/16.jpg","null","","","","","","","","","","","","","","","","","","","","","","","","",""
"1725","","image-button-response","185","752653","0.0-183.0","A3E65QA8DZX26T","img_art/16.jpg","1","","","","","","","","","","","","","","","","","","","","","","","","",""
"3343","","image-button-response","186","755996","0.0-184.0-0.0","A3E65QA8DZX26T","img_art/16.jpg","3","","","","","","","","","","","","","","","","","","","","","","","","",""
"533","","image-button-response","187","756532","0.0-185.0-0.0","A3E65QA8DZX26T","img_art/16.jpg","2","","","","","","","","","","","","","","","","","","","","","","","","",""
"null","","html-keyboard-response","188","757035","0.0-186.0","A3E65QA8DZX26T","<p style=""font-size: 48px;"">+</p>","","","","","null","allTrialResponses","500","1","20","img_art/16.jpg","17","Memories of someone's youth","Vincent,Mark,Jacob,Jose,Nathaniel,Colton","Toys toys toys. Happy playful free spirit,30,360,20","I think it's about child abuse. The teddy bear represents innocence and the dark shape is approaching it.,40,80,20","Cool but the bear creeps me out?,8,340,20","Super weird. Id like to know more about it,24,200,20","Creeps me out. Like..really creeps me out.,-48,220,20","the materials used are interesting,30,220,20","Mark","I think it's about child abuse. The teddy bear represents innocence and the dark shape is approaching it.,40,80,20","Jose","Super weird. Id like to know more about it,24,200,20","Jacob","Cool but the bear creeps me out?,8,340,20","3"
"2355","","survey-text","189","759396","0.0-187.0-0.0","A3E65QA8DZX26T","","","","{""Q0"":""we""}","","","","","","","","","","","","","","","","","","","","","","",""
"28293","","survey-text","190","787691","0.0-188.0-0.0","A3E65QA8DZX26T","","","","{""Q0"":""Paint puke""}","","","","","","","","","","","","","","","","","","","","","","",""
"1479.300000011921","","image-slider-response","191","789172","0.0-189.0","A3E65QA8DZX26T","","","","","12","","","","","","","","","","","","","","","","","","","","","",""
"null","","image-button-response","192","794175","0.0-190.0","A3E65QA8DZX26T","img_art/1.jpg","null","","","","","","","","","","","","","","","","","","","","","","","","",""
"3803","","image-button-response","193","797980","0.0-191.0","A3E65QA8DZX26T","img_art/1.jpg","4","","","","","","","","","","","","","","","","","","","","","","","","",""
"814","","image-button-response","194","798795","0.0-192.0-0.0","A3E65QA8DZX26T","img_art/1.jpg","2","","","","","","","","","","","","","","","","","","","","","","","","",""
"366","","image-button-response","195","799164","0.0-193.0-0.0","A3E65QA8DZX26T","img_art/1.jpg","1","","","","","","","","","","","","","","","","","","","","","","","","",""
"null","","html-keyboard-response","196","799665","0.0-194.0","A3E65QA8DZX26T","<p style=""font-size: 48px;"">+</p>","","","","","null","allTrialResponses","500","1","21","img_art/1.jpg","12","Paint puke","Thomas,Mark,Jacob,Jose,Hunter,James","Pleasant, but a tad too monochromatic in some areas for my taste,7,220,20","It just doesn't speak to me.,0,80,20","Looks like the same thing as the last piece shown to me,10,340,20","Blurry but that's how emotions are a lot of the time.,27,200,20","muddy and uninteresting,-16,240,20","It's very colorful, and I like it,11,380,20","Hunter","muddy and uninteresting,-16,240,20","Jacob","Looks like the same thing as the last piece shown to me,10,340,20","Mark","It just doesn't speak to me.,0,80,20","3"
"8965","","survey-text","197","808635","0.0-195.0-0.0","A3E65QA8DZX26T","","","","{""Q0"":""Some kind of sinking ship""}","","","","","","","","","","","","","","","","","","","","","","",""
"4335.399999976158","","image-slider-response","198","812972","0.0-196.0","A3E65QA8DZX26T","","","","","16","","","","","","","","","","","","","","","","","","","","","",""
"null","","image-button-response","199","817973","0.0-197.0","A3E65QA8DZX26T","img_art/10.jpg","null","","","","","","","","","","","","","","","","","","","","","","","","",""
"181","","image-button-response","200","818156","0.0-198.0","A3E65QA8DZX26T","img_art/10.jpg","1","","","","","","","","","","","","","","","","","","","","","","","","",""
"431","","image-button-response","201","818587","0.0-199.0-0.0","A3E65QA8DZX26T","img_art/10.jpg","2","","","","","","","","","","","","","","","","","","","","","","","","",""
"942","","image-button-response","202","819532","0.0-200.0-0.0","A3E65QA8DZX26T","img_art/10.jpg","3","","","","","","","","","","","","","","","","","","","","","","","","",""
"null","","html-keyboard-response","203","820033","0.0-201.0","A3E65QA8DZX26T","<p style=""font-size: 48px;"">+</p>","","","","","null","allTrialResponses","500","1","22","img_art/10.jpg","16","Some kind of sinking ship","Samuel,Mark,Jacob,Jesus,Hunter,Alejandro","feeling the turmoil and ride,12,400,20","Kraken, and I love it.,39,80,20","I feel like this has a cool concept behind it.,11,340,20","The design is very fluid and fun to interpret,35,100,20","shapes are appealing/relationship between the beige square and the black lines,24,240,20","The contrast between the messy dots/dabs vs the straight affluent lines is unappealing,-20,80,20","Mark","Kraken, and I love it.,39,80,20","Jacob","I feel like this has a cool concept behind it.,11,340,20","Jesus","The design is very fluid and fun to interpret,35,100,20","3"
"14318","","survey-text","204","834356","0.0-202.0-0.0","A3E65QA8DZX26T","","","","{""Q0"":""A distant memory of a street in springtime""}","","","","","","","","","","","","","","","","","","","","","","",""
"1590.0999999642372","","image-slider-response","205","835948","0.0-203.0","A3E65QA8DZX26T","","","","","23","","","","","","","","","","","","","","","","","","","","","",""
"null","","image-button-response","206","840950","0.0-204.0","A3E65QA8DZX26T","img_art/26.jpg","null","","","","","","","","","","","","","","","","","","","","","","","","",""
"813","","image-button-response","207","841764","0.0-205.0","A3E65QA8DZX26T","img_art/26.jpg","1","","","","","","","","","","","","","","","","","","","","","","","","",""
"1047","","image-button-response","208","842813","0.0-206.0-0.0","A3E65QA8DZX26T","img_art/26.jpg","4","","","","","","","","","","","","","","","","","","","","","","","","",""
"982","","image-button-response","209","843797","0.0-207.0-0.0","A3E65QA8DZX26T","img_art/26.jpg","3","","","","","","","","","","","","","","","","","","","","","","","","",""
"null","","html-keyboard-response","210","844798","0.0-208.0","A3E65QA8DZX26T","<p style=""font-size: 48px;"">+</p>","","","","","null","allTrialResponses","1000","1","23","img_art/26.jpg","23","A distant memory of a street in springtime","Anthony,Mark,Jacob,Jesus,Isaac,Carlos","This picture doesn't really stand out.,0,200,20","I get the feeling of a small old world street.,24,80,20","It doesn't look so vibrant, I'm not sure what feelings they were trying to capture,-41,340,20","Very interesting to look at, I like the shapes, textures and colors.,30,100,20","I wish it were more pastel but I think it is relaxing to look at.,30,280,20","Pleasant but bland.,10,80,20","Mark","I get the feeling of a small old world street.,24,80,20","Isaac","I wish it were more pastel but I think it is relaxing to look at.,30,280,20","Jesus","Very interesting to look at, I like the shapes, textures and colors.,30,100,20","3"
"10937","","survey-text","211","855740","0.0-209.0-0.0","A3E65QA8DZX26T","","","","{""Q0"":""Ancient goddess rising out of the ashes""}","","","","","","","","","","","","","","","","","","","","","","",""
"1454.7000000476837","","image-slider-response","212","857196","0.0-210.0","A3E65QA8DZX26T","","","","","30","","","","","","","","","","","","","","","","","","","","","",""
"null","","image-button-response","213","862198","0.0-211.0","A3E65QA8DZX26T","img_art/25.jpg","null","","","","","","","","","","","","","","","","","","","","","","","","",""
"684","","image-button-response","214","862884","0.0-212.0","A3E65QA8DZX26T","img_art/25.jpg","5","","","","","","","","","","","","","","","","","","","","","","","","",""
"559","","image-button-response","215","863444","0.0-213.0-0.0","A3E65QA8DZX26T","img_art/25.jpg","0","","","","","","","","","","","","","","","","","","","","","","","","",""
"782","","image-button-response","216","864229","0.0-214.0-0.0","A3E65QA8DZX26T","img_art/25.jpg","3","","","","","","","","","","","","","","","","","","","","","","","","",""
"null","","html-keyboard-response","217","865230","0.0-215.0","A3E65QA8DZX26T","<p style=""font-size: 48px;"">+</p>","","","","","null","allTrialResponses","1000","1","24","img_art/25.jpg","30","Ancient goddess rising out of the ashes","Dustin,Mark,Bradley,Jesus,Isaac,Jesse","Reminds me of ancient civilization art. I like the aqua color; soothing to me.,1,20,20","Looks like Burning Man, dont care for the colors.,-5,80,20","This one just has a dark feeling to me.,-50,300,20","Very nice color contrast and design.,40,100,20","The color and image are unsettling.,-29,280,20","Creates a bit of fear in me for some reason,-26,80,20","Jesse","Creates a bit of fear in me for some reason,-26,80,20","Dustin","Reminds me of ancient civilization art. I like the aqua color; soothing to me.,1,20,20","Jesus","Very nice color contrast and design.,40,100,20","3"
"16370","","survey-text","218","881604","0.0-216.0-0.0","A3E65QA8DZX26T","","","","{""Q0"":""A distant memory of a tree in wintertime from another world""}","","","","","","","","","","","","","","","","","","","","","","",""
"1998.1000000238419","","image-slider-response","219","883603","0.0-217.0","A3E65QA8DZX26T","","","","","5","","","","","","","","","","","","","","","","","","","","","",""
"null","","image-button-response","220","888605","0.0-218.0","A3E65QA8DZX26T","img_art/14.jpg","null","","","","","","","","","","","","","","","","","","","","","","","","",""
"1557","","image-button-response","221","890164","0.0-219.0","A3E65QA8DZX26T","img_art/14.jpg","5","","","","","","","","","","","","","","","","","","","","","","","","",""
"759","","image-button-response","222","890925","0.0-220.0-0.0","A3E65QA8DZX26T","img_art/14.jpg","0","","","","","","","","","","","","","","","","","","","","","","","","",""
"294","","image-button-response","223","891221","0.0-221.0-0.0","A3E65QA8DZX26T","img_art/14.jpg","1","","","","","","","","","","","","","","","","","","","","","","","","",""
"null","","html-keyboard-response","224","892223","0.0-222.0","A3E65QA8DZX26T","<p style=""font-size: 48px;"">+</p>","","","","","null","allTrialResponses","1000","1","25","img_art/14.jpg","5","A distant memory of a tree in wintertime from another world","Dustin,Lucas,Cole,Jesus,Joshua,Jesse","It represents growth. I see a plant/tree growing out of the ground. I like the rainbow of color in the painting.,31,20,20","In my opinion it's spectacular.,35,380,20","Simplistic. Looks like a child did it,14,200,20","I like the combination of colors and textures.,35,100,20","This doesn't speak to me on an emotional level,-6,240,20","Its cute. Not striking but i would keep it in my home.,10,80,20","Jesse","Its cute. Not striking but i would keep it in my home.,10,80,20","Dustin","It represents growth. I see a plant/tree growing out of the ground. I like the rainbow of color in the painting.,31,20,20","Lucas","In my opinion it's spectacular.,35,380,20","3"
"4143","","survey-text","225","896372","0.0-223.0-0.0","A3E65QA8DZX26T","","","","{""Q0"":""table""}","","","","","","","","","","","","","","","","","","","","","","",""
"29573","","survey-text","226","925947","0.0-224.0-0.0","A3E65QA8DZX26T","","","","{""Q0"":""I like the red and gold ""}","","","","","","","","","","","","","","","","","","","","","","",""
"1735.5","","image-slider-response","227","927683","0.0-225.0","A3E65QA8DZX26T","","","","","15","","","","","","","","","","","","","","","","","","","","","",""
"null","","image-button-response","228","932687","0.0-226.0","A3E65QA8DZX26T","img_art/2.jpg","null","","","","","","","","","","","","","","","","","","","","","","","","",""
"1922","","image-button-response","229","934611","0.0-227.0","A3E65QA8DZX26T","img_art/2.jpg","1","","","","","","","","","","","","","","","","","","","","","","","","",""
"1727","","image-button-response","230","936340","0.0-228.0-0.0","A3E65QA8DZX26T","img_art/2.jpg","4","","","","","","","","","","","","","","","","","","","","","","","","",""
"2558","","image-button-response","231","938899","0.0-229.0-0.0","A3E65QA8DZX26T","img_art/2.jpg","0","","","","","","","","","","","","","","","","","","","","","","","","",""
"null","","html-keyboard-response","232","940402","0.0-230.0","A3E65QA8DZX26T","<p style=""font-size: 48px;"">+</p>","","","","","null","allTrialResponses","1500","1","26","img_art/2.jpg","15","I like the red and gold ","Dustin,Lucas,Nathan,Jake,Corey,Jesse","Doesn't look like anything. Just a blob of colors.,1,20,20","Colorful, curious.,20,380,20","Not a fan of this style,-30,200,20","These colors are ugly.,-40,360,20","doesn't do anything for me,-7,260,20","Looks childish and i dont like the texture,-25,80,20","Lucas","Colorful, curious.,20,380,20","Corey","doesn't do anything for me,-7,260,20","Dustin","Doesn't look like anything. Just a blob of colors.,1,20,20","3"
"23285","","survey-text","233","963692","0.0-231.0-0.0","A3E65QA8DZX26T","","","","{""Q0"":""Memory of relatives chatting at a dinner table""}","","","","","","","","","","","","","","","","","","","","","","",""
"4398.300000011921","","image-slider-response","234","968092","0.0-232.0","A3E65QA8DZX26T","","","","","17","","","","","","","","","","","","","","","","","","","","","",""
"null","","image-button-response","235","973094","0.0-233.0","A3E65QA8DZX26T","img_art/28.jpg","null","","","","","","","","","","","","","","","","","","","","","","","","",""
"4541","","image-button-response","236","977636","0.0-234.0","A3E65QA8DZX26T","img_art/28.jpg","0","","","","","","","","","","","","","","","","","","","","","","","","",""
"990","","image-button-response","237","978628","0.0-235.0-0.0","A3E65QA8DZX26T","img_art/28.jpg","1","","","","","","","","","","","","","","","","","","","","","","","","",""
"4750","","image-button-response","238","983380","0.0-236.0-0.0","A3E65QA8DZX26T","img_art/28.jpg","3","","","","","","","","","","","","","","","","","","","","","","","","",""
"null","","html-keyboard-response","239","984382","0.0-237.0","A3E65QA8DZX26T","<p style=""font-size: 48px;"">+</p>","","","","","null","allTrialResponses","1000","1","27","img_art/28.jpg","17","Memory of relatives chatting at a dinner table","Dustin,Lucas,Brendan,Edward,Corey,Jordan","Like the muted pink colors. However, the mood is sad because of the blurriness,22,20,20","This painting is mysterious, it makes me curious.,5,380,20","i dont understand it,-34,340,20","Salvador Dali called and he thinks this looks pretty good,27,60,20","i like the neutral color pallette but i dont know what i am looking at,26,260,20","A messy bed room,-7,160,20","Dustin","Like the muted pink colors. However, the mood is sad because of the blurriness,22,20,20","Lucas","This painting is mysterious, it makes me curious.,5,380,20","Edward","Salvador Dali called and he thinks this looks pretty good,27,60,20","3"
"12263","","survey-text","240","996650","0.0-238.0-0.0","A3E65QA8DZX26T","","","","{""Q0"":""Destroyed school playground""}","","","","","","","","","","","","","","","","","","","","","","",""
"1606.5999999642372","","image-slider-response","241","998258","0.0-239.0","A3E65QA8DZX26T","","","","","13","","","","","","","","","","","","","","","","","","","","","",""
"null","","image-button-response","242","1003261","0.0-240.0","A3E65QA8DZX26T","img_art/29.jpg","null","","","","","","","","","","","","","","","","","","","","","","","","",""
"1085","","image-button-response","243","1004348","0.0-241.0","A3E65QA8DZX26T","img_art/29.jpg","3","","","","","","","","","","","","","","","","","","","","","","","","",""
"743","","image-button-response","244","1005092","0.0-242.0-0.0","A3E65QA8DZX26T","img_art/29.jpg","2","","","","","","","","","","","","","","","","","","","","","","","","",""
"701","","image-button-response","245","1005796","0.0-243.0-0.0","A3E65QA8DZX26T","img_art/29.jpg","1","","","","","","","","","","","","","","","","","","","","","","","","",""
"null","","html-keyboard-response","246","1006297","0.0-244.0","A3E65QA8DZX26T","<p style=""font-size: 48px;"">+</p>","","","","","null","allTrialResponses","500","1","28","img_art/29.jpg","13","Destroyed school playground","Dustin,Lucas,Jeffrey,Edward,Paul,Blake","Don't get it! Too dark and random. Perhaps it was the start of something but the artist stopped and cancelled out the work.,-50,20,20","Looks kinda scary.,25,380,20","Looks like an accident more than an art to me,-26,40,20","Like a crime scene. It's neat and different,30,60,20","There's too much black and it looks sloppy,-35,300,20","a hot fireplace with things to burn. warm,12,280,20","Edward","Like a crime scene. It's neat and different,30,60,20","Jeffrey","Looks like an accident more than an art to me,-26,40,20","Lucas","Looks kinda scary.,25,380,20","3"
"12534","","survey-text","247","1018835","0.0-245.0-0.0","A3E65QA8DZX26T","","","","{""Q0"":""A tree at a national park in wintertime""}","","","","","","","","","","","","","","","","","","","","","","",""
"1967.1000000238419","","image-slider-response","248","1020804","0.0-246.0","A3E65QA8DZX26T","","","","","21","","","","","","","","","","","","","","","","","","","","","",""
"null","","image-button-response","249","1025807","0.0-247.0","A3E65QA8DZX26T","img_art/17.jpg","null","","","","","","","","","","","","","","","","","","","","","","","","",""
"931","","image-button-response","250","1026740","0.0-248.0","A3E65QA8DZX26T","img_art/17.jpg","3","","","","","","","","","","","","","","","","","","","","","","","","",""
"631","","image-button-response","251","1027373","0.0-249.0-0.0","A3E65QA8DZX26T","img_art/17.jpg","1","","","","","","","","","","","","","","","","","","","","","","","","",""
"309","","image-button-response","252","1027685","0.0-250.0-0.0","A3E65QA8DZX26T","img_art/17.jpg","2","","","","","","","","","","","","","","","","","","","","","","","","",""
"null","","html-keyboard-response","253","1029187","0.0-251.0","A3E65QA8DZX26T","<p style=""font-size: 48px;"">+</p>","","","","","null","allTrialResponses","1500","1","29","img_art/17.jpg","21","A tree at a national park in wintertime","Antonio,Lucas,Jeffrey,Edward,Bryce,Justin","Beautiful colors. Made me feel soft and feminine,50,220,20","Wow, I haven't seen anything better than this.,40,380,20","Makes me warm and cozy just by looking at it,29,40,20","I love how soft it is,35,60,20","Doesnt really do anythingb for me.,4,20,20","I like the colors and the design.,20,280,20","Edward","I love how soft it is,35,60,20","Lucas","Wow, I haven't seen anything better than this.,40,380,20","Jeffrey","Makes me warm and cozy just by looking at it,29,40,20","3"
"16595","","survey-text","254","1045788","0.0-252.0-0.0","A3E65QA8DZX26T","","","","{""Q0"":""Someone ate too much mcdonalds and puked all over the place""}","","","","","","","","","","","","","","","","","","","","","","",""
"1639","","image-slider-response","255","1047428","0.0-253.0","A3E65QA8DZX26T","","","","","-16","","","","","","","","","","","","","","","","","","","","","",""
"3983","","image-button-response","256","1052431","0.0-254.0","A3E65QA8DZX26T","img_art/22.jpg","1","","","","","","","","","","","","","","","","","","","","","","","","",""
"493","","image-button-response","257","1052925","0.0-255.0","A3E65QA8DZX26T","img_art/22.jpg","1","","","","","","","","","","","","","","","","","","","","","","","","",""
"679","","image-button-response","258","1053605","0.0-256.0-0.0","A3E65QA8DZX26T","img_art/22.jpg","5","","","","","","","","","","","","","","","","","","","","","","","","",""
"478","","image-button-response","259","1054085","0.0-257.0-0.0","A3E65QA8DZX26T","img_art/22.jpg","4","","","","","","","","","","","","","","","","","","","","","","","","",""
"null","","html-keyboard-response","260","1055087","0.0-258.0","A3E65QA8DZX26T","<p style=""font-size: 48px;"">+</p>","","","","","null","allTrialResponses","1000","1","30","img_art/22.jpg","-16","Someone ate too much mcdonalds and puked all over the place","Cameron,Lucas,Jeffrey,Edward,Timothy,Kyle","Like this one, like a sunset,30,60,20","Unfortunately, I can't see anything special in this painting.,-20,380,20","Picture is very relaxing,32,40,20","I like the use of primary colors in an interesting way,29,60,20","This painting has a very nostalgic feel,20,240,20","I appreciate the artistic effort but it's not for me,0,340,20","Lucas","Unfortunately, I can't see anything special in this painting.,-20,380,20","Kyle","I appreciate the artistic effort but it's not for me,0,340,20","Timothy","This painting has a very nostalgic feel,20,240,20","3"
"1673","","image-button-response_instructions","261","1056764","0.0-259.0","A3E65QA8DZX26T","","0","instructions","","","","","","","","","","","","","","","","","","","","","","","",""
"1252","","image-button-response","262","1058021","0.0-260.0","A3E65QA8DZX26T","","0","","","","","","","","","","","","","","","","","","","","","","","","",""
