"rt","url","trial_type","trial_index","time_elapsed","internal_node_id","participant_id","stimulus","button_pressed","Name","responses","response","key_press","variableName","fixationTime","condition","trial","photo","subjectRating","subjectResponse","agentsNames","agent_1_Response","agent_2_Response","agent_3_Response","agent_4_Response","agent_5_Response","agent_6_Response","kept_1_name","kept_1_response","kept_2_name","kept_2_response","kept_3_name","kept_3_response","errorCounter"
"5735","external_page_harvard.html","external-html","0","5861","0.0-0.0","A3E76V59BKGKCQ","","","","","","","","","","","","","","","","","","","","","","","","","","",""
"1618","","image-button-response","1","7484","0.0-1.0","A3E76V59BKGKCQ","","0","","","","","","","","","","","","","","","","","","","","","","","","",""
"3051","","image-button-response","2","10555","0.0-2.0-0.0","A3E76V59BKGKCQ","","1","phone","","","","","","","","","","","","","","","","","","","","","","","",""
"7761","","survey-text","3","18318","0.0-3.0-0.0","A3E76V59BKGKCQ","","","","{""Q0"":""A3E76V59BKGKCQ""}","","","","","","","","","","","","","","","","","","","","","","",""
"43982","","image-button-response_instructions","4","62304","0.0-4.0","A3E76V59BKGKCQ","","0","instructions","","","","","","","","","","","","","","","","","","","","","","","",""
"9400","","image-button-response_instructions","5","71707","0.0-5.0","A3E76V59BKGKCQ","img_art/ins/popularity/ins1.png","0","instructions","","","","","","","","","","","","","","","","","","","","","","","",""
"5183","","image-button-response_instructions","6","76892","0.0-6.0","A3E76V59BKGKCQ","img_art/ins/popularity/ins2.png","0","instructions","","","","","","","","","","","","","","","","","","","","","","","",""
"3862","","image-button-response_instructions","7","80755","0.0-7.0","A3E76V59BKGKCQ","img_art/ins/popularity/ins2Extreme.png","0","instructions","","","","","","","","","","","","","","","","","","","","","","","",""
"9061","","image-button-response_instructions","8","89823","0.0-8.0","A3E76V59BKGKCQ","img_art/ins/popularity/ins3KEEPpop.PNG","0","instructions","","","","","","","","","","","","","","","","","","","","","","","",""
"3453","","image-button-response_instructions","9","93283","0.0-9.0","A3E76V59BKGKCQ","img_art/ins/popularity/ins3ANamepop.PNG","0","instructions","","","","","","","","","","","","","","","","","","","","","","","",""
"3813","","image-button-response_instructions","10","97099","0.0-10.0","A3E76V59BKGKCQ","img_art/ins/popularity/ins3ARatingpop.png","0","instructions","","","","","","","","","","","","","","","","","","","","","","","",""
"10032","","image-button-response_instructions","11","107134","0.0-11.0","A3E76V59BKGKCQ","img_art/ins/popularity/ins3ATextpop.png","0","instructions","","","","","","","","","","","","","","","","","","","","","","","",""
"5405","","image-button-response_instructions","12","112543","0.0-12.0","A3E76V59BKGKCQ","img_art/ins/popularity/ins3ALikespop.png","0","instructions","","","","","","","","","","","","","","","","","","","","","","","",""
"14032","","image-button-response_instructions","13","126579","0.0-13.0","A3E76V59BKGKCQ","img_art/ins/popularity/ins3KEEPpop.PNG","0","instructions","","","","","","","","","","","","","","","","","","","","","","","",""
"10753","","image-button-response_instructions","14","137333","0.0-14.0","A3E76V59BKGKCQ","img_art/ins/popularity/ins3_5RED.png","0","instructions","","","","","","","","","","","","","","","","","","","","","","","",""
"3150","","image-button-response_instructions","15","140484","0.0-15.0","A3E76V59BKGKCQ","img_art/ins/popularity/ins3KEEPpop.PNG","0","instructions","","","","","","","","","","","","","","","","","","","","","","","",""
"40269","","image-button-response_instructions","16","180755","0.0-16.0","A3E76V59BKGKCQ","img_art/ins/popularity/ins4KEEPpop.PNG","0","instructions","","","","","","","","","","","","","","","","","","","","","","","",""
"3828","","image-button-response_instructions","17","184595","0.0-17.0","A3E76V59BKGKCQ","img_art/ins/popularity/ins5KEEPpop.PNG","0","instructions","","","","","","","","","","","","","","","","","","","","","","","",""
"1362","","image-button-response_instructions","18","185957","0.0-18.0","A3E76V59BKGKCQ","","0","instructions","","","","","","","","","","","","","","","","","","","","","","","",""
"4353","","survey-text","19","190386","0.0-19.0-0.0","A3E76V59BKGKCQ","","","","{""Q0"":""but""}","","","","","","","","","","","","","","","","","","","","","","",""
"27794","","survey-text","20","218181","0.0-20.0-0.0","A3E76V59BKGKCQ","","","","{""Q0"":""It is colorful with not much I can make sense of""}","","","","","","","","","","","","","","","","","","","","","","",""
"3298","","image-slider-response","21","221482","0.0-21.0","A3E76V59BKGKCQ","","","","","-17","","","","","","","","","","","","","","","","","","","","","",""
"null","","image-button-response","22","226486","0.0-22.0","A3E76V59BKGKCQ","img_art/ins/1.jpg","null","","","","","","","","","","","","","","","","","","","","","","","","",""
"197","","image-button-response","23","226683","0.0-23.0","A3E76V59BKGKCQ","img_art/ins/1.jpg","0","","","","","","","","","","","","","","","","","","","","","","","","",""
"7760","","image-button-response","24","234445","0.0-24.0-0.0","A3E76V59BKGKCQ","img_art/ins/1.jpg","4","","","","","","","","","","","","","","","","","","","","","","","","",""
"4651","","image-button-response","25","239097","0.0-25.0-0.0","A3E76V59BKGKCQ","img_art/ins/1.jpg","2","","","","","","","","","","","","","","","","","","","","","","","","",""
"null","","html-keyboard-response","26","240102","0.0-26.0","A3E76V59BKGKCQ","<p style=""font-size: 48px;"">+</p>","","","","","null","allTrialResponses","1000","1","-2","img_art/ins/1.jpg","-17","It is colorful with not much I can make sense of","Adam,Alex,Ben,Carl,Daniel,Jack","Seems like doodles,-20,20,20","very creative work.,36,40,20","This color reminds me of poo,-46,60,20","very calming artwork,42,80,20","It looks like a murder scene.,-48,100,20","I like the sophisticated brushwork,40,120,20","Adam","Seems like doodles,-20,20,20","Daniel","It looks like a murder scene.,-48,100,20","Ben","This color reminds me of poo,-46,60,20","0"
"27654","","survey-text","27","267784","0.0-27.0-0.0","A3E76V59BKGKCQ","","","","{""Q0"":""The top kind of looks like a train but not good""}","","","","","","","","","","","","","","","","","","","","","","",""
"3017","","image-slider-response","28","270802","0.0-28.0","A3E76V59BKGKCQ","","","","","-33","","","","","","","","","","","","","","","","","","","","","",""
"null","","image-button-response","29","275806","0.0-29.0","A3E76V59BKGKCQ","img_art/ins/2.jpg","null","","","","","","","","","","","","","","","","","","","","","","","","",""
"2822","","image-button-response","30","278629","0.0-30.0","A3E76V59BKGKCQ","img_art/ins/2.jpg","5","","","","","","","","","","","","","","","","","","","","","","","","",""
"3413","","image-button-response","31","282042","0.0-31.0-0.0","A3E76V59BKGKCQ","img_art/ins/2.jpg","2","","","","","","","","","","","","","","","","","","","","","","","","",""
"2564","","image-button-response","32","284608","0.0-32.0-0.0","A3E76V59BKGKCQ","img_art/ins/2.jpg","4","","","","","","","","","","","","","","","","","","","","","","","","",""
"null","","html-keyboard-response","33","285110","0.0-33.0","A3E76V59BKGKCQ","<p style=""font-size: 48px;"">+</p>","","","","","null","allTrialResponses","500","1","-1","img_art/ins/2.jpg","-33","The top kind of looks like a train but not good","Adam,John,Ben,James,Daniel,Kyle","too much color,-18,20,20","love the texture of paint,48,160,20","meaningless painting,-45,60,20","looks too angry,-50,140,20","One of my pet peevs,-48,100,20","Idk, it is just annoying,-32,180,20","Kyle","Idk, it is just annoying,-32,180,20","Ben","meaningless painting,-45,60,20","Daniel","One of my pet peevs,-48,100,20","0"
"19184","","survey-text","34","304299","0.0-34.0-0.0","A3E76V59BKGKCQ","","","","{""Q0"":""Cool color combination""}","","","","","","","","","","","","","","","","","","","","","","",""
"3291","","image-slider-response","35","307592","0.0-35.0","A3E76V59BKGKCQ","","","","","10","","","","","","","","","","","","","","","","","","","","","",""
"4183","","image-button-response","36","312594","0.0-36.0","A3E76V59BKGKCQ","img_art/ins/3.jpg","0","","","","","","","","","","","","","","","","","","","","","","","","",""
"1572","","image-button-response","37","314168","0.0-37.0","A3E76V59BKGKCQ","img_art/ins/3.jpg","3","","","","","","","","","","","","","","","","","","","","","","","","",""
"6521","","image-button-response","38","320691","0.0-38.0-0.0","A3E76V59BKGKCQ","img_art/ins/3.jpg","5","","","","","","","","","","","","","","","","","","","","","","","","",""
"22994","","image-button-response","39","343688","0.0-39.0-0.0","A3E76V59BKGKCQ","img_art/ins/3.jpg","0","","","","","","","","","","","","","","","","","","","","","","","","",""
"null","","html-keyboard-response","40","344691","0.0-40.0","A3E76V59BKGKCQ","<p style=""font-size: 48px;"">+</p>","","","","","null","allTrialResponses","1000","1","0","img_art/ins/3.jpg","10","Cool color combination","Sam,Ron,Ben,Mike,Daniel,Kyle","I can feel a rainy day from this painting,18,240,20","It looks depressing,-26,220,20","This thing gives me anxiety,-41,60,20","enjoy the different shades of blue,22,200,20","looks like a murder room,-35,100,20","It looks like a playground for bats,-36,180,20","Mike","enjoy the different shades of blue,22,200,20","Kyle","It looks like a playground for bats,-36,180,20","Sam","I can feel a rainy day from this painting,18,240,20","0"
"6104","","image-button-response_instructions","41","350799","0.0-41.0","A3E76V59BKGKCQ","","0","instructions","","","","","","","","","","","","","","","","","","","","","","","",""
"10927","","survey-likert","42","361728","0.0-42.0-0.0","A3E76V59BKGKCQ","","","","{""Q0"":"""",""Q1"":0,""Q2"":1}","","","","","","","","","","","","","","","","","","","","","","",""
"3435","","survey-text","43","365170","0.0-43.0-0.0","A3E76V59BKGKCQ","","","","{""Q0"":""rock""}","","","","","","","","","","","","","","","","","","","","","","",""
"12580","","survey-text","44","377751","0.0-44.0-0.0","A3E76V59BKGKCQ","","","","{""Q0"":""looks like a mess""}","","","","","","","","","","","","","","","","","","","","","","",""
"5840","","image-slider-response","45","383603","0.0-45.0","A3E76V59BKGKCQ","","","","","-44","","","","","","","","","","","","","","","","","","","","","",""
"null","","image-button-response","46","388677","0.0-46.0","A3E76V59BKGKCQ","img_art/29.jpg","null","","","","","","","","","","","","","","","","","","","","","","","","",""
"2741","","image-button-response","47","391420","0.0-47.0","A3E76V59BKGKCQ","img_art/29.jpg","3","","","","","","","","","","","","","","","","","","","","","","","","",""
"3436","","image-button-response","48","394856","0.0-48.0-0.0","A3E76V59BKGKCQ","img_art/29.jpg","2","","","","","","","","","","","","","","","","","","","","","","","","",""
"5684","","image-button-response","49","400542","0.0-49.0-0.0","A3E76V59BKGKCQ","img_art/29.jpg","1","","","","","","","","","","","","","","","","","","","","","","","","",""
"null","","html-keyboard-response","50","401544","0.0-50.0","A3E76V59BKGKCQ","<p style=""font-size: 48px;"">+</p>","","","","","null","allTrialResponses","1000","1","1","img_art/29.jpg","-44","looks like a mess","Shane,Alexander,Jake,Brett,Austin,David","Darkness and torment,-50,80,20","Tested and failed a lot of ideas.,-20,120,20","This is very gross and odd looking.,-8,360,20","Reminds me of graffitti gone wrong,15,360,20","Has a haunting feel to it,22,240,20","Don't really like the red x. It gives the impression that this a discarded piece.,-10,340,20","Brett","Reminds me of graffitti gone wrong,15,360,20","Jake","This is very gross and odd looking.,-8,360,20","Alexander","Tested and failed a lot of ideas.,-20,120,20","0"
"20229","","survey-text","51","421779","0.0-51.0-0.0","A3E76V59BKGKCQ","","","","{""Q0"":""Colorful but not meaningful""}","","","","","","","","","","","","","","","","","","","","","","",""
"2862","","image-slider-response","52","424644","0.0-52.0","A3E76V59BKGKCQ","","","","","-7","","","","","","","","","","","","","","","","","","","","","",""
"null","","image-button-response","53","429647","0.0-53.0","A3E76V59BKGKCQ","img_art/2.jpg","null","","","","","","","","","","","","","","","","","","","","","","","","",""
"14875","","image-button-response","54","444522","0.0-54.0","A3E76V59BKGKCQ","img_art/2.jpg","3","","","","","","","","","","","","","","","","","","","","","","","","",""
"1607","","image-button-response","55","446130","0.0-55.0-0.0","A3E76V59BKGKCQ","img_art/2.jpg","5","","","","","","","","","","","","","","","","","","","","","","","","",""
"218112","","image-button-response","56","664246","0.0-56.0-0.0","A3E76V59BKGKCQ","img_art/2.jpg","2","","","","","","","","","","","","","","","","","","","","","","","","",""
"null","","html-keyboard-response","57","665249","0.0-57.0","A3E76V59BKGKCQ","<p style=""font-size: 48px;"">+</p>","","","","","null","allTrialResponses","1000","1","2","img_art/2.jpg","-7","Colorful but not meaningful","Mason,Alexander,Jake,Brett,James,Joshua","retro, amateurish, not a fan of the colors together.,-10,100,20","Old, dull, messy.,-10,120,20","These colors are ugly.,-40,360,20","Not very appealing,-5,360,20","The only parts I like is the light blue, red and black. The green color isn't very flattering.,11,380,20","Looks like child's art.,-19,240,20","Brett","Not very appealing,-5,360,20","Joshua","Looks like child's art.,-19,240,20","Jake","These colors are ugly.,-40,360,20","0"
"11082","","survey-text","58","676340","0.0-58.0-0.0","A3E76V59BKGKCQ","","","","{""Q0"":""looks like a murder scene""}","","","","","","","","","","","","","","","","","","","","","","",""
"3684.0000000001164","","image-slider-response","59","680027","0.0-59.0","A3E76V59BKGKCQ","","","","","-31","","","","","","","","","","","","","","","","","","","","","",""
"null","","image-button-response","60","685032","0.0-60.0","A3E76V59BKGKCQ","img_art/3.jpg","null","","","","","","","","","","","","","","","","","","","","","","","","",""
"4077","","image-button-response","61","689111","0.0-61.0","A3E76V59BKGKCQ","img_art/3.jpg","3","","","","","","","","","","","","","","","","","","","","","","","","",""
"1460","","image-button-response","62","690573","0.0-62.0-0.0","A3E76V59BKGKCQ","img_art/3.jpg","4","","","","","","","","","","","","","","","","","","","","","","","","",""
"1404","","image-button-response","63","691980","0.0-63.0-0.0","A3E76V59BKGKCQ","img_art/3.jpg","4","","","","","","","","","","","","","","","","","","","","","","","","",""
"2178","","image-button-response","64","698542","0.0-63.1-0.1","A3E76V59BKGKCQ","img_art/3.jpg","2","","","","","","","","","","","","","","","","","","","","","","","","",""
"null","","html-keyboard-response","65","699546","0.0-64.0","A3E76V59BKGKCQ","<p style=""font-size: 48px;"">+</p>","","","","","null","allTrialResponses","1000","1","3","img_art/3.jpg","-31","looks like a murder scene","Kenneth,John,Jake,Brett,Gabriel,Joshua","Reminds me of blood.,-28,300,20","Looks like someone spilled ketchup and forgot to clean it up,-30,120,20","This is angry and childish looking.,-49,360,20","Confusion and mayhem,-10,360,20","just scribbles, not pleasing,-30,160,20","Looks like a Basquiat but just not my cup of tea.,-29,240,20","Brett","Confusion and mayhem,-10,360,20","Gabriel","just scribbles, not pleasing,-30,160,20","Jake","This is angry and childish looking.,-49,360,20","2"
"20307","","survey-text","66","719859","0.0-65.0-0.0","A3E76V59BKGKCQ","","","","{""Q0"":""It looks like a bird or tree in a desert""}","","","","","","","","","","","","","","","","","","","","","","",""
"5055","","image-slider-response","67","724916","0.0-66.0","A3E76V59BKGKCQ","","","","","1","","","","","","","","","","","","","","","","","","","","","",""
"3483","","image-button-response","68","729918","0.0-67.0","A3E76V59BKGKCQ","img_art/6.jpg","3","","","","","","","","","","","","","","","","","","","","","","","","",""
"983","","image-button-response","69","730904","0.0-68.0","A3E76V59BKGKCQ","img_art/6.jpg","3","","","","","","","","","","","","","","","","","","","","","","","","",""
"6091","","image-button-response","70","736996","0.0-69.0-0.0","A3E76V59BKGKCQ","img_art/6.jpg","2","","","","","","","","","","","","","","","","","","","","","","","","",""
"4073","","image-button-response","71","741072","0.0-70.0-0.0","A3E76V59BKGKCQ","img_art/6.jpg","1","","","","","","","","","","","","","","","","","","","","","","","","",""
"null","","html-keyboard-response","72","741574","0.0-71.0","A3E76V59BKGKCQ","<p style=""font-size: 48px;"">+</p>","","","","","null","allTrialResponses","500","1","4","img_art/6.jpg","1","It looks like a bird or tree in a desert","Nathan,Gregory,Jake,Brett,Gabriel,Tanner","Not a fan of anything in this,-43,200,20","Tree growing in a desert. Gives me feelings of hope,5,220,20","It feels sad but it's nice to look at.,4,360,20","Reminds me of feeling incomplete,1,360,20","its like a jalapeno,-28,160,20","loneliness, fragile, forever alone, a girl who's been there for eternity, only think tracking time is the length of her hair,9,180,20","Brett","Reminds me of feeling incomplete,1,360,20","Jake","It feels sad but it's nice to look at.,4,360,20","Gregory","Tree growing in a desert. Gives me feelings of hope,5,220,20","2"
"14133","","survey-text","73","755712","0.0-72.0-0.0","A3E76V59BKGKCQ","","","","{""Q0"":""Looks like a beach with shells or rocks""}","","","","","","","","","","","","","","","","","","","","","","",""
"3420","","image-slider-response","74","759135","0.0-73.0","A3E76V59BKGKCQ","","","","","-2","","","","","","","","","","","","","","","","","","","","","",""
"null","","image-button-response","75","764138","0.0-74.0","A3E76V59BKGKCQ","img_art/7.jpg","null","","","","","","","","","","","","","","","","","","","","","","","","",""
"633","","image-button-response","76","764772","0.0-75.0","A3E76V59BKGKCQ","img_art/7.jpg","5","","","","","","","","","","","","","","","","","","","","","","","","",""
"2531","","image-button-response","77","767304","0.0-76.0-0.0","A3E76V59BKGKCQ","img_art/7.jpg","3","","","","","","","","","","","","","","","","","","","","","","","","",""
"7550","","image-button-response","78","774857","0.0-77.0-0.0","A3E76V59BKGKCQ","img_art/7.jpg","0","","","","","","","","","","","","","","","","","","","","","","","","",""
"null","","html-keyboard-response","79","776359","0.0-78.0","A3E76V59BKGKCQ","<p style=""font-size: 48px;"">+</p>","","","","","null","allTrialResponses","1500","1","5","img_art/7.jpg","-2","Looks like a beach with shells or rocks","Bradley,Gregory,Jake,Brett,Kevin,Adrian","Is this cookie dough?  Yum!,-10,300,20","Looks like a battle raging on,20,220,20","This is vague and ugly.,-3,360,20","No particular reaction to this,10,360,20","That a desert floor,16,320,20","It's dirty. I don't mind the colors so much as the way they are put together in this dirty-looking pattern.,-41,60,20","Adrian","It's dirty. I don't mind the colors so much as the way they are put together in this dirty-looking pattern.,-41,60,20","Brett","No particular reaction to this,10,360,20","Bradley","Is this cookie dough?  Yum!,-10,300,20","2"
"3359","","survey-text","80","779727","0.0-79.0-0.0","A3E76V59BKGKCQ","","","","{""Q0"":""sky""}","","","","","","","","","","","","","","","","","","","","","","",""
"9466","","survey-text","81","789195","0.0-80.0-0.0","A3E76V59BKGKCQ","","","","{""Q0"":""bad colors and looks like a mess""}","","","","","","","","","","","","","","","","","","","","","","",""
"2737","","image-slider-response","82","791936","0.0-81.0","A3E76V59BKGKCQ","","","","","-43","","","","","","","","","","","","","","","","","","","","","",""
"null","","image-button-response","83","796942","0.0-82.0","A3E76V59BKGKCQ","img_art/1.jpg","null","","","","","","","","","","","","","","","","","","","","","","","","",""
"2320","","image-button-response","84","799264","0.0-83.0","A3E76V59BKGKCQ","img_art/1.jpg","3","","","","","","","","","","","","","","","","","","","","","","","","",""
"3194","","image-button-response","85","802460","0.0-84.0-0.0","A3E76V59BKGKCQ","img_art/1.jpg","1","","","","","","","","","","","","","","","","","","","","","","","","",""
"1504","","image-button-response","86","803968","0.0-85.0-0.0","A3E76V59BKGKCQ","img_art/1.jpg","4","","","","","","","","","","","","","","","","","","","","","","","","",""
"null","","html-keyboard-response","87","804472","0.0-86.0","A3E76V59BKGKCQ","<p style=""font-size: 48px;"">+</p>","","","","","null","allTrialResponses","500","1","6","img_art/1.jpg","-43","bad colors and looks like a mess","Bradley,Kyle,Timothy,Brett,Mitchell,Adrian","This is a great piece that has a lot more going on the longer you look at it. I like it!,30,300,20","Too similar to some of the other pieces,-18,340,20","This one has a pleasent energy,15,240,20","I don't know how I feel about this,1,360,20","confused,animal like brain fog,0,180,20","Not a fan of the colors. Makes me think of the Australian bush fires.,-5,60,20","Brett","I don't know how I feel about this,1,360,20","Kyle","Too similar to some of the other pieces,-18,340,20","Mitchell","confused,animal like brain fog,0,180,20","2"
"29989","","survey-text","88","834469","0.0-87.0-0.0","A3E76V59BKGKCQ","","","","{""Q0"":""looks very interesting like an album cover""}","","","","","","","","","","","","","","","","","","","","","","",""
"3137","","image-slider-response","89","837607","0.0-88.0","A3E76V59BKGKCQ","","","","","12","","","","","","","","","","","","","","","","","","","","","",""
"2693","","image-button-response","90","842611","0.0-89.0","A3E76V59BKGKCQ","img_art/23.jpg","4","","","","","","","","","","","","","","","","","","","","","","","","",""
"1707","","image-button-response","91","844320","0.0-90.0","A3E76V59BKGKCQ","img_art/23.jpg","4","","","","","","","","","","","","","","","","","","","","","","","","",""
"602","","image-button-response","92","844924","0.0-91.0-0.0","A3E76V59BKGKCQ","img_art/23.jpg","5","","","","","","","","","","","","","","","","","","","","","","","","",""
"7579","","image-button-response","93","852504","0.0-92.0-0.0","A3E76V59BKGKCQ","img_art/23.jpg","0","","","","","","","","","","","","","","","","","","","","","","","","",""
"null","","html-keyboard-response","94","853511","0.0-93.0","A3E76V59BKGKCQ","<p style=""font-size: 48px;"">+</p>","","","","","null","allTrialResponses","1000","1","7","img_art/23.jpg","12","looks very interesting like an album cover","Jacob,Kyle,Dalton,Brett,Mitchell,Trevor","This is very cool!,24,340,20","Mostly neutral but a bit too guady with the brash colors,-6,340,20","illegible wording with a graffiti background,1,300,20","Universal celebration,40,360,20","Partying, dancing, delusion, kaus.,10,180,20","nice bright colors but looks like it's from the 90's,6,280,20","Mitchell","Partying, dancing, delusion, kaus.,10,180,20","Trevor","nice bright colors but looks like it's from the 90's,6,280,20","Jacob","This is very cool!,24,340,20","2"
"29112","","survey-text","95","882629","0.0-94.0-0.0","A3E76V59BKGKCQ","","","","{""Q0"":""It is creepy but interesting especially with only the bear head colored""}","","","","","","","","","","","","","","","","","","","","","","",""
"3779","","image-slider-response","96","886412","0.0-95.0","A3E76V59BKGKCQ","","","","","4","","","","","","","","","","","","","","","","","","","","","",""
"null","","image-button-response","97","891415","0.0-96.0","A3E76V59BKGKCQ","img_art/16.jpg","null","","","","","","","","","","","","","","","","","","","","","","","","",""
"3201","","image-button-response","98","894619","0.0-97.0","A3E76V59BKGKCQ","img_art/16.jpg","5","","","","","","","","","","","","","","","","","","","","","","","","",""
"2751","","image-button-response","99","897370","0.0-98.0-0.0","A3E76V59BKGKCQ","img_art/16.jpg","2","","","","","","","","","","","","","","","","","","","","","","","","",""
"3435","","image-button-response","100","900807","0.0-99.0-0.0","A3E76V59BKGKCQ","img_art/16.jpg","0","","","","","","","","","","","","","","","","","","","","","","","","",""
"null","","html-keyboard-response","101","901811","0.0-100.0","A3E76V59BKGKCQ","<p style=""font-size: 48px;"">+</p>","","","","","null","allTrialResponses","1000","1","8","img_art/16.jpg","4","It is creepy but interesting especially with only the bear head colored","Jacob,Derek,Cody,Elijah,Mitchell,Trevor","Cool but the bear creeps me out?,8,340,20","I can't figure out the meaning of this painting but it is pleasant to look at,40,360,20","Kind of creepyyyyyy,-41,180,20","The bear is terrifying,-50,80,20","A teddybear, gun, crying person does not give a happy reaction. Death, still, no life.,-50,180,20","very creepy with a bear and a gun,-50,280,20","Trevor","very creepy with a bear and a gun,-50,280,20","Cody","Kind of creepyyyyyy,-41,180,20","Jacob","Cool but the bear creeps me out?,8,340,20","2"
"17153","","survey-text","102","918970","0.0-101.0-0.0","A3E76V59BKGKCQ","","","","{""Q0"":""reminds me of a railroad system ""}","","","","","","","","","","","","","","","","","","","","","","",""
"3046.9999999998836","","image-slider-response","103","922021","0.0-102.0","A3E76V59BKGKCQ","","","","","25","","","","","","","","","","","","","","","","","","","","","",""
"4521","","image-button-response","104","927023","0.0-103.0","A3E76V59BKGKCQ","img_art/11.jpg","4","","","","","","","","","","","","","","","","","","","","","","","","",""
"340","","image-button-response","105","927365","0.0-104.0","A3E76V59BKGKCQ","img_art/11.jpg","4","","","","","","","","","","","","","","","","","","","","","","","","",""
"9361","","image-button-response","106","936728","0.0-105.0-0.0","A3E76V59BKGKCQ","img_art/11.jpg","2","","","","","","","","","","","","","","","","","","","","","","","","",""
"2032","","image-button-response","107","938763","0.0-106.0-0.0","A3E76V59BKGKCQ","img_art/11.jpg","0","","","","","","","","","","","","","","","","","","","","","","","","",""
"null","","html-keyboard-response","108","940267","0.0-107.0","A3E76V59BKGKCQ","<p style=""font-size: 48px;"">+</p>","","","","","null","allTrialResponses","1500","1","9","img_art/11.jpg","25","reminds me of a railroad system ","Jacob,Devon,Cody,Paul,Steven,Trevor","This looks cool, and definitely comes to life in a way,36,340,20","a beautiful piece of art,33,400,20","Pretty, interesting, feels like a city, feels like home,50,180,20","I like how it reminds me of music and at the same time it looks like colorful train tracks.,10,300,20","Oh, I love this one, it says to me that life is very busy,50,160,20","I like how it looks like buildings but i'm not a fan of colors,20,280,20","Steven","Oh, I love this one, it says to me that life is very busy,50,160,20","Cody","Pretty, interesting, feels like a city, feels like home,50,180,20","Jacob","This looks cool, and definitely comes to life in a way,36,340,20","2"
"14268","","survey-text","109","954541","0.0-108.0-0.0","A3E76V59BKGKCQ","","","","{""Q0"":""a dull colored shopping area""}","","","","","","","","","","","","","","","","","","","","","","",""
"3245","","image-slider-response","110","957789","0.0-109.0","A3E76V59BKGKCQ","","","","","-4","","","","","","","","","","","","","","","","","","","","","",""
"null","","image-button-response","111","962792","0.0-110.0","A3E76V59BKGKCQ","img_art/26.jpg","null","","","","","","","","","","","","","","","","","","","","","","","","",""
"3002","","image-button-response","112","965796","0.0-111.0","A3E76V59BKGKCQ","img_art/26.jpg","2","","","","","","","","","","","","","","","","","","","","","","","","",""
"1590","","image-button-response","113","967388","0.0-112.0-0.0","A3E76V59BKGKCQ","img_art/26.jpg","0","","","","","","","","","","","","","","","","","","","","","","","","",""
"6085","","image-button-response","114","973475","0.0-113.0-0.0","A3E76V59BKGKCQ","img_art/26.jpg","4","","","","","","","","","","","","","","","","","","","","","","","","",""
"null","","html-keyboard-response","115","973977","0.0-114.0","A3E76V59BKGKCQ","<p style=""font-size: 48px;"">+</p>","","","","","null","allTrialResponses","500","1","10","img_art/26.jpg","-4","a dull colored shopping area","Jacob,Jordan,Cody,Thomas,Steven,Colton","It doesn't look so vibrant, I'm not sure what feelings they were trying to capture,-41,340,20","Reminds me of walks in my dads city when I was little,22,160,20","Looks unfinished,-31,180,20","It feels almost unfinished, but I like the color palette,9,220,20","This one is nicer, looks like a walk in a small, dreamy city,20,160,20","very impressionistic,11,220,20","Cody","Looks unfinished,-31,180,20","Jacob","It doesn't look so vibrant, I'm not sure what feelings they were trying to capture,-41,340,20","Steven","This one is nicer, looks like a walk in a small, dreamy city,20,160,20","2"
"2897","","survey-text","116","976891","0.0-115.0-0.0","A3E76V59BKGKCQ","","","","{""Q0"":""our""}","","","","","","","","","","","","","","","","","","","","","","",""
"18281","","survey-text","117","995174","0.0-116.0-0.0","A3E76V59BKGKCQ","","","","{""Q0"":""creepy and cool with a neat green color""}","","","","","","","","","","","","","","","","","","","","","","",""
"3062.9999999998836","","image-slider-response","118","998239","0.0-117.0","A3E76V59BKGKCQ","","","","","45","","","","","","","","","","","","","","","","","","","","","",""
"4418","","image-button-response","119","1003243","0.0-118.0","A3E76V59BKGKCQ","img_art/25.jpg","5","","","","","","","","","","","","","","","","","","","","","","","","",""
"881","","image-button-response","120","1004126","0.0-119.0","A3E76V59BKGKCQ","img_art/25.jpg","5","","","","","","","","","","","","","","","","","","","","","","","","",""
"2101","","image-button-response","121","1006229","0.0-120.0-0.0","A3E76V59BKGKCQ","img_art/25.jpg","2","","","","","","","","","","","","","","","","","","","","","","","","",""
"3998","","image-button-response","122","1010229","0.0-121.0-0.0","A3E76V59BKGKCQ","img_art/25.jpg","0","","","","","","","","","","","","","","","","","","","","","","","","",""
"null","","html-keyboard-response","123","1011732","0.0-122.0","A3E76V59BKGKCQ","<p style=""font-size: 48px;"">+</p>","","","","","null","allTrialResponses","1500","1","11","img_art/25.jpg","45","creepy and cool with a neat green color","Jacob,Jesus,Cody,Nicholas,Steven,Brandon","I really like how the lines form this piece.,8,340,20","Very nice color contrast and design.,40,100,20","Like the colors and the figure,30,180,20","It is interesting but too creapy for me,-29,240,20","It's fine, belongs in a church, or somewhere else mystical,15,160,20","Reminds me of cave drawings,21,320,20","Brandon","Reminds me of cave drawings,21,320,20","Cody","Like the colors and the figure,30,180,20","Jacob","I really like how the lines form this piece.,8,340,20","2"
"25804","","survey-text","124","1037543","0.0-123.0-0.0","A3E76V59BKGKCQ","","","","{""Q0"":""too much going on with not much understanding ""}","","","","","","","","","","","","","","","","","","","","","","",""
"3910.0000000001164","","image-slider-response","125","1041454","0.0-124.0","A3E76V59BKGKCQ","","","","","-12","","","","","","","","","","","","","","","","","","","","","",""
"4040","","image-button-response","126","1046457","0.0-125.0","A3E76V59BKGKCQ","img_art/12.jpg","3","","","","","","","","","","","","","","","","","","","","","","","","",""
"1978","","image-button-response","127","1048437","0.0-126.0","A3E76V59BKGKCQ","img_art/12.jpg","3","","","","","","","","","","","","","","","","","","","","","","","","",""
"1163","","image-button-response","128","1049601","0.0-127.0-0.0","A3E76V59BKGKCQ","img_art/12.jpg","1","","","","","","","","","","","","","","","","","","","","","","","","",""
"2926","","image-button-response","129","1052529","0.0-128.0-0.0","A3E76V59BKGKCQ","img_art/12.jpg","2","","","","","","","","","","","","","","","","","","","","","","","","",""
"null","","html-keyboard-response","130","1053531","0.0-129.0","A3E76V59BKGKCQ","<p style=""font-size: 48px;"">+</p>","","","","","null","allTrialResponses","1000","1","12","img_art/12.jpg","-12","too much going on with not much understanding ","Jacob,Patrick,Cody,Carlos,Robert,Brandon","I like this concept.,11,340,20","I don't like the blocking,-20,280,20","Pretty but not a huge fan of the colors,20,180,20","It is very bland and the colors are not cohesive.,-20,80,20","I like the pattern to it.,31,360,20","I like the cubic feel.,11,320,20","Carlos","It is very bland and the colors are not cohesive.,-20,80,20","Patrick","I don't like the blocking,-20,280,20","Cody","Pretty but not a huge fan of the colors,20,180,20","2"
"15394","","survey-text","131","1068932","0.0-130.0-0.0","A3E76V59BKGKCQ","","","","{""Q0"":""Looks like a spilled mess with old colors ""}","","","","","","","","","","","","","","","","","","","","","","",""
"3160","","image-slider-response","132","1072096","0.0-131.0","A3E76V59BKGKCQ","","","","","-33","","","","","","","","","","","","","","","","","","","","","",""
"null","","image-button-response","133","1077100","0.0-132.0","A3E76V59BKGKCQ","img_art/22.jpg","null","","","","","","","","","","","","","","","","","","","","","","","","",""
"2704","","image-button-response","134","1079806","0.0-133.0","A3E76V59BKGKCQ","img_art/22.jpg","1","","","","","","","","","","","","","","","","","","","","","","","","",""
"2710","","image-button-response","135","1082518","0.0-134.0-0.0","A3E76V59BKGKCQ","img_art/22.jpg","5","","","","","","","","","","","","","","","","","","","","","","","","",""
"5508","","image-button-response","136","1088028","0.0-135.0-0.0","A3E76V59BKGKCQ","img_art/22.jpg","3","","","","","","","","","","","","","","","","","","","","","","","","",""
"null","","html-keyboard-response","137","1089553","0.0-136.0","A3E76V59BKGKCQ","<p style=""font-size: 48px;"">+</p>","","","","","null","allTrialResponses","1500","1","13","img_art/22.jpg","-33","Looks like a spilled mess with old colors ","Bryan,Patrick,Cody,Carlos,Victor,Samuel","Love vibrant colors & the abstractness.,43,400,20","Looks like a warm sunset to me i like it,42,280,20","Love the use of color,50,180,20","The colors are pleasant, the shapes are inviting.,21,80,20","I don't really know why, I just like looking at it,10,340,20","ball of light in 90s,8,400,20","Patrick","Looks like a warm sunset to me i like it,42,280,20","Samuel","ball of light in 90s,8,400,20","Carlos","The colors are pleasant, the shapes are inviting.,21,80,20","2"
"16528","","survey-text","138","1106088","0.0-137.0-0.0","A3E76V59BKGKCQ","","","","{""Q0"":""Love the colors and it reminds me of a mountain town""}","","","","","","","","","","","","","","","","","","","","","","",""
"3363","","image-slider-response","139","1109454","0.0-138.0","A3E76V59BKGKCQ","","","","","33","","","","","","","","","","","","","","","","","","","","","",""
"null","","image-button-response","140","1114458","0.0-139.0","A3E76V59BKGKCQ","img_art/20.jpg","null","","","","","","","","","","","","","","","","","","","","","","","","",""
"6822","","image-button-response","141","1121281","0.0-140.0","A3E76V59BKGKCQ","img_art/20.jpg","0","","","","","","","","","","","","","","","","","","","","","","","","",""
"5986","","image-button-response","142","1127268","0.0-141.0-0.0","A3E76V59BKGKCQ","img_art/20.jpg","1","","","","","","","","","","","","","","","","","","","","","","","","",""
"2552","","image-button-response","143","1129822","0.0-142.0-0.0","A3E76V59BKGKCQ","img_art/20.jpg","0","","","","","","","","","","","","","","","","","","","","","","","","",""
"6625","","image-button-response","144","1139789","0.0-142.1-0.1","A3E76V59BKGKCQ","img_art/20.jpg","5","","","","","","","","","","","","","","","","","","","","","","","","",""
"null","","html-keyboard-response","145","1140292","0.0-143.0","A3E76V59BKGKCQ","<p style=""font-size: 48px;"">+</p>","","","","","null","allTrialResponses","500","1","14","img_art/20.jpg","33","Love the colors and it reminds me of a mountain town","Brian,Patrick,Connor,Carlos,Jason,Samuel","The colors are nice, and the shapes conjure the decay of the city in the face of natural entropy,19,380,20","Looks calm but a bit dark,21,280,20","Dark frame overpowers the image,-6,240,20","It feels like it ""almost"" several things.,-10,80,20","The picture looks smudged and dirty,-4,20,20","crash after traffic causing grief,-11,400,20","Brian","The colors are nice, and the shapes conjure the decay of the city in the face of natural entropy,19,380,20","Patrick","Looks calm but a bit dark,21,280,20","Samuel","crash after traffic causing grief,-11,400,20","4"
"42285","","survey-text","146","1182583","0.0-144.0-0.0","A3E76V59BKGKCQ","","","","{""Q0"":""It has nice figures and looks like ghosts fighting""}","","","","","","","","","","","","","","","","","","","","","","",""
"2226","","image-slider-response","147","1184811","0.0-145.0","A3E76V59BKGKCQ","","","","","16","","","","","","","","","","","","","","","","","","","","","",""
"4176","","image-button-response","148","1189815","0.0-146.0","A3E76V59BKGKCQ","img_art/18.jpg","2","","","","","","","","","","","","","","","","","","","","","","","","",""
"373","","image-button-response","149","1190189","0.0-147.0","A3E76V59BKGKCQ","img_art/18.jpg","2","","","","","","","","","","","","","","","","","","","","","","","","",""
"5100","","image-button-response","150","1195291","0.0-148.0-0.0","A3E76V59BKGKCQ","img_art/18.jpg","4","","","","","","","","","","","","","","","","","","","","","","","","",""
"1263","","image-button-response","151","1196555","0.0-149.0-0.0","A3E76V59BKGKCQ","img_art/18.jpg","3","","","","","","","","","","","","","","","","","","","","","","","","",""
"null","","html-keyboard-response","152","1197560","0.0-150.0","A3E76V59BKGKCQ","<p style=""font-size: 48px;"">+</p>","","","","","null","allTrialResponses","1000","1","15","img_art/18.jpg","16","It has nice figures and looks like ghosts fighting","Brian,Patrick,Jorge,Spencer,Cole,Samuel","Very classy, I feel like it's the apocalypse.,25,380,20","Too abstract and swirly,-21,280,20","Imaginative, makes me feel creative.,42,180,20","I really like it, like hells drivers,43,120,20","Two people fighting with one watching,17,200,20","death rides in life,-25,400,20","Jorge","Imaginative, makes me feel creative.,42,180,20","Cole","Two people fighting with one watching,17,200,20","Spencer","I really like it, like hells drivers,43,120,20","4"
"2985","","survey-text","153","1200561","0.0-151.0-0.0","A3E76V59BKGKCQ","","","","{""Q0"":""course""}","","","","","","","","","","","","","","","","","","","","","","",""
"18220","","survey-text","154","1218783","0.0-152.0-0.0","A3E76V59BKGKCQ","","","","{""Q0"":""reminds me of a market thats hard to make out""}","","","","","","","","","","","","","","","","","","","","","","",""
"2418.999999999767","","image-slider-response","155","1221215","0.0-153.0","A3E76V59BKGKCQ","","","","","-11","","","","","","","","","","","","","","","","","","","","","",""
"3741","","image-button-response","156","1226219","0.0-154.0","A3E76V59BKGKCQ","img_art/19.jpg","5","","","","","","","","","","","","","","","","","","","","","","","","",""
"544","","image-button-response","157","1226763","0.0-155.0","A3E76V59BKGKCQ","img_art/19.jpg","5","","","","","","","","","","","","","","","","","","","","","","","","",""
"4435","","image-button-response","158","1231199","0.0-156.0-0.0","A3E76V59BKGKCQ","img_art/19.jpg","0","","","","","","","","","","","","","","","","","","","","","","","","",""
"2827","","image-button-response","159","1234029","0.0-157.0-0.0","A3E76V59BKGKCQ","img_art/19.jpg","2","","","","","","","","","","","","","","","","","","","","","","","","",""
"null","","html-keyboard-response","160","1234533","0.0-158.0","A3E76V59BKGKCQ","<p style=""font-size: 48px;"">+</p>","","","","","null","allTrialResponses","500","1","16","img_art/19.jpg","-11","reminds me of a market thats hard to make out","Zachary,Luis,Jorge,Spencer,Cole,Anthony","Reminds me of a busy town. Chaotic in nature.,-11,400,20","Gives a very open and freeing vibe,42,400,20","confused and emotional,-4,180,20","Very abstract but I like it, it's busy, lots of colors,43,120,20","Its simple and the colors i like. It reminds me of chagall,34,200,20","Very, very ugly and sloppy,-31,200,20","Anthony","Very, very ugly and sloppy,-31,200,20","Zachary","Reminds me of a busy town. Chaotic in nature.,-11,400,20","Jorge","confused and emotional,-4,180,20","4"
"104900","","survey-text","161","1339439","0.0-159.0-0.0","A3E76V59BKGKCQ","","","","{""Q0"":""dark colored leaves and trees""}","","","","","","","","","","","","","","","","","","","","","","",""
"2526","","image-slider-response","162","1341968","0.0-160.0","A3E76V59BKGKCQ","","","","","9","","","","","","","","","","","","","","","","","","","","","",""
"null","","image-button-response","163","1346971","0.0-161.0","A3E76V59BKGKCQ","img_art/15.jpg","null","","","","","","","","","","","","","","","","","","","","","","","","",""
"1775","","image-button-response","164","1348748","0.0-162.0","A3E76V59BKGKCQ","img_art/15.jpg","5","","","","","","","","","","","","","","","","","","","","","","","","",""
"6279","","image-button-response","165","1355028","0.0-163.0-0.0","A3E76V59BKGKCQ","img_art/15.jpg","3","","","","","","","","","","","","","","","","","","","","","","","","",""
"2589","","image-button-response","166","1357620","0.0-164.0-0.0","A3E76V59BKGKCQ","img_art/15.jpg","0","","","","","","","","","","","","","","","","","","","","","","","","",""
"null","","html-keyboard-response","167","1358122","0.0-165.0","A3E76V59BKGKCQ","<p style=""font-size: 48px;"">+</p>","","","","","null","allTrialResponses","500","1","17","img_art/15.jpg","9","dark colored leaves and trees","Zachary,Ian,Jorge,Edward,Peter,Anthony","Reminds me of blue birds in a tree at night. I love nature.,40,400,20","This gives a skin crawling feeling. Like something that you could see under a mircoscope,10,260,20","interested in this transformation,20,180,20","Reminds me of lilacs,26,60,20","It's just dots. Doesn't bring any positive or negative feelings,2,320,20","This piece isn't particularly attractive, but it's not ugly either.,1,200,20","Anthony","This piece isn't particularly attractive, but it's not ugly either.,1,200,20","Edward","Reminds me of lilacs,26,60,20","Zachary","Reminds me of blue birds in a tree at night. I love nature.,40,400,20","4"
"31857","","survey-text","168","1389986","0.0-166.0-0.0","A3E76V59BKGKCQ","","","","{""Q0"":""very neat colored picture of a tree""}","","","","","","","","","","","","","","","","","","","","","","",""
"3202","","image-slider-response","169","1393192","0.0-167.0","A3E76V59BKGKCQ","","","","","31","","","","","","","","","","","","","","","","","","","","","",""
"null","","image-button-response","170","1398194","0.0-168.0","A3E76V59BKGKCQ","img_art/17.jpg","null","","","","","","","","","","","","","","","","","","","","","","","","",""
"3422","","image-button-response","171","1401617","0.0-169.0","A3E76V59BKGKCQ","img_art/17.jpg","5","","","","","","","","","","","","","","","","","","","","","","","","",""
"3645","","image-button-response","172","1405264","0.0-170.0-0.0","A3E76V59BKGKCQ","img_art/17.jpg","1","","","","","","","","","","","","","","","","","","","","","","","","",""
"958","","image-button-response","173","1406224","0.0-171.0-0.0","A3E76V59BKGKCQ","img_art/17.jpg","0","","","","","","","","","","","","","","","","","","","","","","","","",""
"null","","html-keyboard-response","174","1407227","0.0-172.0","A3E76V59BKGKCQ","<p style=""font-size: 48px;"">+</p>","","","","","null","allTrialResponses","1000","1","18","img_art/17.jpg","31","very neat colored picture of a tree","Zachary,Isaiah,Dustin,Edward,Alexis,Anthony","Reminds me of a beautiful tree growing in a courtyard. I like the light and airy technique used.,34,400,20","The painting makes me feel relaxed, and a bit lonely, like I'm sitting at a park waiting for someone.,30,300,20","Is it a tree/plant of some sort?  Or, I see hair?  I don't get it. But, the colors are pleasing to me.,1,20,20","I love how soft it is,35,60,20","This makes me feel inspired and happy. I love everything about this portrait,45,140,20","Very elegant, this design reminds me of trees,31,200,20","Anthony","Very elegant, this design reminds me of trees,31,200,20","Isaiah","The painting makes me feel relaxed, and a bit lonely, like I'm sitting at a park waiting for someone.,30,300,20","Zachary","Reminds me of a beautiful tree growing in a courtyard. I like the light and airy technique used.,34,400,20","4"
"40458","","survey-text","175","1447691","0.0-173.0-0.0","A3E76V59BKGKCQ","","","","{""Q0"":""A city colored one way with the background colored another ""}","","","","","","","","","","","","","","","","","","","","","","",""
"2246","","image-slider-response","176","1449950","0.0-174.0","A3E76V59BKGKCQ","","","","","7","","","","","","","","","","","","","","","","","","","","","",""
"null","","image-button-response","177","1454954","0.0-175.0","A3E76V59BKGKCQ","img_art/8.jpg","null","","","","","","","","","","","","","","","","","","","","","","","","",""
"1296","","image-button-response","178","1456251","0.0-176.0","A3E76V59BKGKCQ","img_art/8.jpg","5","","","","","","","","","","","","","","","","","","","","","","","","",""
"3252","","image-button-response","179","1459504","0.0-177.0-0.0","A3E76V59BKGKCQ","img_art/8.jpg","0","","","","","","","","","","","","","","","","","","","","","","","","",""
"868","","image-button-response","180","1460375","0.0-178.0-0.0","A3E76V59BKGKCQ","img_art/8.jpg","1","","","","","","","","","","","","","","","","","","","","","","","","",""
"null","","html-keyboard-response","181","1461880","0.0-179.0","A3E76V59BKGKCQ","<p style=""font-size: 48px;"">+</p>","","","","","null","allTrialResponses","1500","1","19","img_art/8.jpg","7","A city colored one way with the background colored another ","Zachary,Isaiah,Logan,Brendan,Daniel,Anthony","I like all of the faces that can be found in this piece. Interesting.,35,400,20","It makes me feel nervous. I can't tell ifI'm looking at an apartment, or a hellscape.,-18,300,20","a cute little cute with some protectors,25,360,20","beautiful buildings,32,340,20","Cortez's influence with fair color choices,10,320,20","Not my favorite but has an interesting concept,32,200,20","Anthony","Not my favorite but has an interesting concept,32,200,20","Zachary","I like all of the faces that can be found in this piece. Interesting.,35,400,20","Isaiah","It makes me feel nervous. I can't tell ifI'm looking at an apartment, or a hellscape.,-18,300,20","4"
"22948","","survey-text","182","1484837","0.0-180.0-0.0","A3E76V59BKGKCQ","","","","{""Q0"":""reminds me of red slides going down""}","","","","","","","","","","","","","","","","","","","","","","",""
"6878.999999999767","","image-slider-response","183","1491734","0.0-181.0","A3E76V59BKGKCQ","","","","","-8","","","","","","","","","","","","","","","","","","","","","",""
"null","","image-button-response","184","1496737","0.0-182.0","A3E76V59BKGKCQ","img_art/30.jpg","null","","","","","","","","","","","","","","","","","","","","","","","","",""
"8605","","image-button-response","185","1505345","0.0-183.0","A3E76V59BKGKCQ","img_art/30.jpg","3","","","","","","","","","","","","","","","","","","","","","","","","",""
"3471","","image-button-response","186","1508821","0.0-184.0-0.0","A3E76V59BKGKCQ","img_art/30.jpg","1","","","","","","","","","","","","","","","","","","","","","","","","",""
"5385","","image-button-response","187","1514209","0.0-185.0-0.0","A3E76V59BKGKCQ","img_art/30.jpg","4","","","","","","","","","","","","","","","","","","","","","","","","",""
"null","","html-keyboard-response","188","1515212","0.0-186.0","A3E76V59BKGKCQ","<p style=""font-size: 48px;"">+</p>","","","","","null","allTrialResponses","1000","1","20","img_art/30.jpg","-8","reminds me of red slides going down","Zachary,Isaiah,Evan,Charles,Luke,Anthony","I like this one because I am a mom and it reminds me of a child finger-painting.,20,400,20","The painting doesn't elicit any response from me.,0,300,20","I really like the broad and colorful strokes,21,140,20","looks like eels,-20,100,20","the lines and colors look purposeful,18,20,20","The color scheme used in this piece is very ugly.,-50,200,20","Charles","looks like eels,-20,100,20","Isaiah","The painting doesn't elicit any response from me.,0,300,20","Luke","the lines and colors look purposeful,18,20,20","4"
"2816","","survey-text","189","1518047","0.0-187.0-0.0","A3E76V59BKGKCQ","","","","{""Q0"":""we""}","","","","","","","","","","","","","","","","","","","","","","",""
"28856","","survey-text","190","1546925","0.0-188.0-0.0","A3E76V59BKGKCQ","","","","{""Q0"":""Reminds me of a ship in water""}","","","","","","","","","","","","","","","","","","","","","","",""
"3661","","image-slider-response","191","1550599","0.0-189.0","A3E76V59BKGKCQ","","","","","3","","","","","","","","","","","","","","","","","","","","","",""
"2428","","image-button-response","192","1555602","0.0-190.0","A3E76V59BKGKCQ","img_art/10.jpg","5","","","","","","","","","","","","","","","","","","","","","","","","",""
"2266","","image-button-response","193","1557869","0.0-191.0","A3E76V59BKGKCQ","img_art/10.jpg","5","","","","","","","","","","","","","","","","","","","","","","","","",""
"15040","","image-button-response","194","1572912","0.0-192.0-0.0","A3E76V59BKGKCQ","img_art/10.jpg","3","","","","","","","","","","","","","","","","","","","","","","","","",""
"5610","","image-button-response","195","1578525","0.0-193.0-0.0","A3E76V59BKGKCQ","img_art/10.jpg","2","","","","","","","","","","","","","","","","","","","","","","","","",""
"null","","html-keyboard-response","196","1579029","0.0-194.0","A3E76V59BKGKCQ","<p style=""font-size: 48px;"">+</p>","","","","","null","allTrialResponses","500","1","21","img_art/10.jpg","3","Reminds me of a ship in water","Christian,Isaiah,Nathaniel,Charles,Luke,Mark","gives a sense of a roller coaster unit splashed in water. it's not but i love it nevertheless,44,140,20","I feel little to no emotion looking at this painting.,0,300,20","For black and white, this is pretty vibrant and cool. I like this.,39,220,20","Also too all over the place, I don't see any pattern or anything that's supposed to stand out,-19,100,20","it reminds me of a musical instrument,19,20,20","Kraken, and I love it.,39,80,20","Mark","Kraken, and I love it.,39,80,20","Charles","Also too all over the place, I don't see any pattern or anything that's supposed to stand out,-19,100,20","Nathaniel","For black and white, this is pretty vibrant and cool. I like this.,39,220,20","4"
"21943","","survey-text","197","1600994","0.0-195.0-0.0","A3E76V59BKGKCQ","","","","{""Q0"":""A very colorful and scenic river or waterfall""}","","","","","","","","","","","","","","","","","","","","","","",""
"2864","","image-slider-response","198","1603872","0.0-196.0","A3E76V59BKGKCQ","","","","","42","","","","","","","","","","","","","","","","","","","","","",""
"4298","","image-button-response","199","1608875","0.0-197.0","A3E76V59BKGKCQ","img_art/24.jpg","2","","","","","","","","","","","","","","","","","","","","","","","","",""
"573","","image-button-response","200","1609450","0.0-198.0","A3E76V59BKGKCQ","img_art/24.jpg","2","","","","","","","","","","","","","","","","","","","","","","","","",""
"4258","","image-button-response","201","1613708","0.0-199.0-0.0","A3E76V59BKGKCQ","img_art/24.jpg","5","","","","","","","","","","","","","","","","","","","","","","","","",""
"1393","","image-button-response","202","1615104","0.0-200.0-0.0","A3E76V59BKGKCQ","img_art/24.jpg","4","","","","","","","","","","","","","","","","","","","","","","","","",""
"null","","html-keyboard-response","203","1615607","0.0-201.0","A3E76V59BKGKCQ","<p style=""font-size: 48px;"">+</p>","","","","","null","allTrialResponses","500","1","22","img_art/24.jpg","42","A very colorful and scenic river or waterfall","Noah,Stephen,Nathaniel,Charles,Marcus,Mark","this evokes a gutural reaction - it displeases me how similar it is to art I saw growing up,-30,260,20","I like how the colors mix in this one.,20,140,20","Feels surreal, in a way, and vibrant,37,220,20","It just feels a little bland for me,-23,100,20","Love the colors in this work, and the sense of motion in the water,36,60,20","Waterfall, and I love the coloring.,48,80,20","Nathaniel","Feels surreal, in a way, and vibrant,37,220,20","Mark","Waterfall, and I love the coloring.,48,80,20","Marcus","Love the colors in this work, and the sense of motion in the water,36,60,20","4"
"21105","","survey-text","204","1636718","0.0-202.0-0.0","A3E76V59BKGKCQ","","","","{""Q0"":""looks like a colored mess""}","","","","","","","","","","","","","","","","","","","","","","",""
"2831","","image-slider-response","205","1639551","0.0-203.0","A3E76V59BKGKCQ","","","","","-37","","","","","","","","","","","","","","","","","","","","","",""
"null","","image-button-response","206","1644556","0.0-204.0","A3E76V59BKGKCQ","img_art/9.jpg","null","","","","","","","","","","","","","","","","","","","","","","","","",""
"1775","","image-button-response","207","1646333","0.0-205.0","A3E76V59BKGKCQ","img_art/9.jpg","4","","","","","","","","","","","","","","","","","","","","","","","","",""
"2013","","image-button-response","208","1648348","0.0-206.0-0.0","A3E76V59BKGKCQ","img_art/9.jpg","3","","","","","","","","","","","","","","","","","","","","","","","","",""
"917","","image-button-response","209","1649266","0.0-207.0-0.0","A3E76V59BKGKCQ","img_art/9.jpg","2","","","","","","","","","","","","","","","","","","","","","","","","",""
"null","","html-keyboard-response","210","1650269","0.0-208.0","A3E76V59BKGKCQ","<p style=""font-size: 48px;"">+</p>","","","","","null","allTrialResponses","1000","1","23","img_art/9.jpg","-37","looks like a colored mess","Lucas,Eric,Nathaniel,Sean,Marcus,Mark","I like the way the artist has painted his painting.,20,380,20","I see some of my favorite colors which I like, but I don't like what's portrayed.,35,100,20","Not very enticing. No real substance other than a lady laying down,-35,220,20","Gives me anxiety,-23,40,20","This painting feels too jumbled for me to like it.,-12,60,20","Sleeping woman in a cave. Makes me feel safe.,20,80,20","Marcus","This painting feels too jumbled for me to like it.,-12,60,20","Sean","Gives me anxiety,-23,40,20","Nathaniel","Not very enticing. No real substance other than a lady laying down,-35,220,20","4"
"15911","","survey-text","211","1666188","0.0-209.0-0.0","A3E76V59BKGKCQ","","","","{""Q0"":""bland colors that remind me of coffee""}","","","","","","","","","","","","","","","","","","","","","","",""
"3829","","image-slider-response","212","1670019","0.0-210.0","A3E76V59BKGKCQ","","","","","-14","","","","","","","","","","","","","","","","","","","","","",""
"null","","image-button-response","213","1675022","0.0-211.0","A3E76V59BKGKCQ","img_art/28.jpg","null","","","","","","","","","","","","","","","","","","","","","","","","",""
"2160","","image-button-response","214","1677184","0.0-212.0","A3E76V59BKGKCQ","img_art/28.jpg","3","","","","","","","","","","","","","","","","","","","","","","","","",""
"2396","","image-button-response","215","1679582","0.0-213.0-0.0","A3E76V59BKGKCQ","img_art/28.jpg","1","","","","","","","","","","","","","","","","","","","","","","","","",""
"4525","","image-button-response","216","1684111","0.0-214.0-0.0","A3E76V59BKGKCQ","img_art/28.jpg","2","","","","","","","","","","","","","","","","","","","","","","","","",""
"null","","html-keyboard-response","217","1685113","0.0-215.0","A3E76V59BKGKCQ","<p style=""font-size: 48px;"">+</p>","","","","","null","allTrialResponses","1000","1","24","img_art/28.jpg","-14","bland colors that remind me of coffee","Taylor,Chase,Nathaniel,Sean,Marcus,Seth","Bug meets bug in a dark alley.,-20,200,20","I don't like the washed out colors.,-15,120,20","Has an air of darkness to it, but no real substance besides the mouse-like thing.,-38,220,20","it looks alright,-1,40,20","This reminds me of internal organs.,-10,60,20","I think this piece is interesting. I love the faces drawn into it.,29,60,20","Sean","it looks alright,-1,40,20","Chase","I don't like the washed out colors.,-15,120,20","Nathaniel","Has an air of darkness to it, but no real substance besides the mouse-like thing.,-38,220,20","4"
"28595","","survey-text","218","1713718","0.0-216.0-0.0","A3E76V59BKGKCQ","","","","{""Q0"":""Reminds me of a bad storm or a city under attack""}","","","","","","","","","","","","","","","","","","","","","","",""
"2817","","image-slider-response","219","1716538","0.0-217.0","A3E76V59BKGKCQ","","","","","4","","","","","","","","","","","","","","","","","","","","","",""
"null","","image-button-response","220","1721541","0.0-218.0","A3E76V59BKGKCQ","img_art/21.jpg","null","","","","","","","","","","","","","","","","","","","","","","","","",""
"1785","","image-button-response","221","1723327","0.0-219.0","A3E76V59BKGKCQ","img_art/21.jpg","4","","","","","","","","","","","","","","","","","","","","","","","","",""
"4725","","image-button-response","222","1728053","0.0-220.0-0.0","A3E76V59BKGKCQ","img_art/21.jpg","0","","","","","","","","","","","","","","","","","","","","","","","","",""
"2241","","image-button-response","223","1730299","0.0-221.0-0.0","A3E76V59BKGKCQ","img_art/21.jpg","1","","","","","","","","","","","","","","","","","","","","","","","","",""
"null","","html-keyboard-response","224","1731301","0.0-222.0","A3E76V59BKGKCQ","<p style=""font-size: 48px;"">+</p>","","","","","null","allTrialResponses","1000","1","25","img_art/21.jpg","4","Reminds me of a bad storm or a city under attack","Cameron,Chase,Nathaniel,Sean,Dylan,Justin","Like the colors. Don't like the white dots on the right side of the painting though.,15,60,20","Kind of looks like a sky with a storm or tornado.,10,120,20","Looks like two ships on fire. Cool image.,12,220,20","my response to the picture is what is going on?,-13,40,20","This one is nice, it reminds me of the sky,42,40,20","Alright. I like the colors.,5,280,20","Dylan","This one is nice, it reminds me of the sky,42,40,20","Cameron","Like the colors. Don't like the white dots on the right side of the painting though.,15,60,20","Chase","Kind of looks like a sky with a storm or tornado.,10,120,20","4"
"2880","","survey-text","225","1734195","0.0-223.0-0.0","A3E76V59BKGKCQ","","","","{""Q0"":""table""}","","","","","","","","","","","","","","","","","","","","","","",""
"17638","","survey-text","226","1751835","0.0-224.0-0.0","A3E76V59BKGKCQ","","","","{""Q0"":""a very interesting looking hand with very long fingers""}","","","","","","","","","","","","","","","","","","","","","","",""
"5764","","image-slider-response","227","1757601","0.0-225.0","A3E76V59BKGKCQ","","","","","6","","","","","","","","","","","","","","","","","","","","","",""
"2639","","image-button-response","228","1762604","0.0-226.0","A3E76V59BKGKCQ","img_art/4.jpg","2","","","","","","","","","","","","","","","","","","","","","","","","",""
"315","","image-button-response","229","1762921","0.0-227.0","A3E76V59BKGKCQ","img_art/4.jpg","2","","","","","","","","","","","","","","","","","","","","","","","","",""
"2800","","image-button-response","230","1765723","0.0-228.0-0.0","A3E76V59BKGKCQ","img_art/4.jpg","3","","","","","","","","","","","","","","","","","","","","","","","","",""
"4365","","image-button-response","231","1770092","0.0-229.0-0.0","A3E76V59BKGKCQ","img_art/4.jpg","4","","","","","","","","","","","","","","","","","","","","","","","","",""
"null","","html-keyboard-response","232","1771595","0.0-230.0","A3E76V59BKGKCQ","<p style=""font-size: 48px;"">+</p>","","","","","null","allTrialResponses","1500","1","26","img_art/4.jpg","6","a very interesting looking hand with very long fingers","Cameron,Chase,Vincent,Scott,Dylan,Miguel","Looks like the roomba got into dog poop,-30,60,20","It looks like smeared poop.,-27,120,20","I like it not sure much of how I feel about it,7,360,20","feels free flowing and relaxed,21,20,20","This artwork looks like a child did it,-41,40,20","I don't like murky colors.,-40,160,20","Vincent","I like it not sure much of how I feel about it,7,360,20","Scott","feels free flowing and relaxed,21,20,20","Dylan","This artwork looks like a child did it,-41,40,20","4"
"32262","","survey-text","233","1803863","0.0-231.0-0.0","A3E76V59BKGKCQ","","","","{""Q0"":""Reminds me of a colorful tree or plant growing""}","","","","","","","","","","","","","","","","","","","","","","",""
"3030","","image-slider-response","234","1806894","0.0-232.0","A3E76V59BKGKCQ","","","","","12","","","","","","","","","","","","","","","","","","","","","",""
"null","","image-button-response","235","1811897","0.0-233.0","A3E76V59BKGKCQ","img_art/14.jpg","null","","","","","","","","","","","","","","","","","","","","","","","","",""
"594","","image-button-response","236","1812491","0.0-234.0","A3E76V59BKGKCQ","img_art/14.jpg","4","","","","","","","","","","","","","","","","","","","","","","","","",""
"1707","","image-button-response","237","1814200","0.0-235.0-0.0","A3E76V59BKGKCQ","img_art/14.jpg","3","","","","","","","","","","","","","","","","","","","","","","","","",""
"3535","","image-button-response","238","1817737","0.0-236.0-0.0","A3E76V59BKGKCQ","img_art/14.jpg","1","","","","","","","","","","","","","","","","","","","","","","","","",""
"null","","html-keyboard-response","239","1818742","0.0-237.0","A3E76V59BKGKCQ","<p style=""font-size: 48px;"">+</p>","","","","","null","allTrialResponses","1000","1","27","img_art/14.jpg","12","Reminds me of a colorful tree or plant growing","Dakota,Michael,Vincent,Scott,Dylan,Malik","feels incomplete, poorly planned/executed,-34,280,20","Looks like there is some skill but also at the same time parts look unskilled.,-16,140,20","Reminds me of the old days with my family and my grandma,41,360,20","its okay nothing special,11,20,20","Pretty, dainty, unique,22,40,20","It's alright, something I'd see in a guest bedroom,10,40,20","Dylan","Pretty, dainty, unique,22,40,20","Scott","its okay nothing special,11,20,20","Michael","Looks like there is some skill but also at the same time parts look unskilled.,-16,140,20","4"
"21704","","survey-text","240","1840452","0.0-238.0-0.0","A3E76V59BKGKCQ","","","","{""Q0"":""Reminds me of a landscape but with no real substance or color scheme""}","","","","","","","","","","","","","","","","","","","","","","",""
"2103","","image-slider-response","241","1842556","0.0-239.0","A3E76V59BKGKCQ","","","","","-29","","","","","","","","","","","","","","","","","","","","","",""
"null","","image-button-response","242","1847559","0.0-240.0","A3E76V59BKGKCQ","img_art/27.jpg","null","","","","","","","","","","","","","","","","","","","","","","","","",""
"617","","image-button-response","243","1848178","0.0-241.0","A3E76V59BKGKCQ","img_art/27.jpg","5","","","","","","","","","","","","","","","","","","","","","","","","",""
"914","","image-button-response","244","1849094","0.0-242.0-0.0","A3E76V59BKGKCQ","img_art/27.jpg","4","","","","","","","","","","","","","","","","","","","","","","","","",""
"3359","","image-button-response","245","1852455","0.0-243.0-0.0","A3E76V59BKGKCQ","img_art/27.jpg","1","","","","","","","","","","","","","","","","","","","","","","","","",""
"null","","html-keyboard-response","246","1853457","0.0-244.0","A3E76V59BKGKCQ","<p style=""font-size: 48px;"">+</p>","","","","","null","allTrialResponses","1000","1","28","img_art/27.jpg","-29","Reminds me of a landscape but with no real substance or color scheme","Jose,Michael,Alejandro,Scott,Dylan,Travis","it's like a weird version of heaven,16,200,20","Anyone could do that.,-31,140,20","Muddied and directionless. Like someone dragged a brush across the paper for the sake of doing something.,-50,80,20","again looks like childrens artwork,-40,20,20","This is ugly and looks like a child did this,-36,40,20","I don't like any of it...just scibbles.,-37,260,20","Travis","I don't like any of it...just scibbles.,-37,260,20","Dylan","This is ugly and looks like a child did this,-36,40,20","Michael","Anyone could do that.,-31,140,20","4"
"21409","","survey-text","247","1874874","0.0-245.0-0.0","A3E76V59BKGKCQ","","","","{""Q0"":""this kind of looks like a bell that one would ring""}","","","","","","","","","","","","","","","","","","","","","","",""
"6743","","image-slider-response","248","1881632","0.0-246.0","A3E76V59BKGKCQ","","","","","0","","","","","","","","","","","","","","","","","","","","","",""
"null","","image-button-response","249","1886637","0.0-247.0","A3E76V59BKGKCQ","img_art/5.jpg","null","","","","","","","","","","","","","","","","","","","","","","","","",""
"2908","","image-button-response","250","1889546","0.0-248.0","A3E76V59BKGKCQ","img_art/5.jpg","0","","","","","","","","","","","","","","","","","","","","","","","","",""
"2314","","image-button-response","251","1891863","0.0-249.0-0.0","A3E76V59BKGKCQ","img_art/5.jpg","2","","","","","","","","","","","","","","","","","","","","","","","","",""
"3282","","image-button-response","252","1895147","0.0-250.0-0.0","A3E76V59BKGKCQ","img_art/5.jpg","4","","","","","","","","","","","","","","","","","","","","","","","","",""
"null","","html-keyboard-response","253","1896652","0.0-251.0","A3E76V59BKGKCQ","<p style=""font-size: 48px;"">+</p>","","","","","null","allTrialResponses","1500","1","29","img_art/5.jpg","0","this kind of looks like a bell that one would ring","Jack,Michael,Jeffrey,Adam,Dylan,Travis","it's okay. the colors are eye catching, but that's about it.,3,320,20","Complete garbage. Looks like a kid drew it.,-50,140,20","positive colours; yellow calls attention,6,40,20","Too loud. Dislike the bright yellow.,-5,40,20","This looks like a twelve year old did it,-40,40,20","This was awful and it looked like someone took minimul effort with it... no time at all.,-49,260,20","Jack","it's okay. the colors are eye catching, but that's about it.,3,320,20","Jeffrey","positive colours; yellow calls attention,6,40,20","Dylan","This looks like a twelve year old did it,-40,40,20","4"
"12461","","survey-text","254","1909119","0.0-252.0-0.0","A3E76V59BKGKCQ","","","","{""Q0"":""Very cool colors and it reminds me of falling rain""}","","","","","","","","","","","","","","","","","","","","","","",""
"2757","","image-slider-response","255","1911879","0.0-253.0","A3E76V59BKGKCQ","","","","","22","","","","","","","","","","","","","","","","","","","","","",""
"2170","","image-button-response","256","1916882","0.0-254.0","A3E76V59BKGKCQ","img_art/13.jpg","5","","","","","","","","","","","","","","","","","","","","","","","","",""
"672","","image-button-response","257","1917555","0.0-255.0","A3E76V59BKGKCQ","img_art/13.jpg","4","","","","","","","","","","","","","","","","","","","","","","","","",""
"1055","","image-button-response","258","1918612","0.0-256.0-0.0","A3E76V59BKGKCQ","img_art/13.jpg","5","","","","","","","","","","","","","","","","","","","","","","","","",""
"2588","","image-button-response","259","1921202","0.0-257.0-0.0","A3E76V59BKGKCQ","img_art/13.jpg","2","","","","","","","","","","","","","","","","","","","","","","","","",""
"null","","html-keyboard-response","260","1922205","0.0-258.0","A3E76V59BKGKCQ","<p style=""font-size: 48px;"">+</p>","","","","","null","allTrialResponses","1000","1","30","img_art/13.jpg","22","Very cool colors and it reminds me of falling rain","Jack,Grant,Jeffrey,Ethan,Dylan,Jeremy","exciting & chaotic. love the colors.,50,320,20","This elicits no reaction in me.,0,200,20","Messy but organised, helps me to relax and observe,8,40,20","I do not care for the colors in this art. it doesnt go well at all.,-15,120,20","I do like the blue colors in this.,12,40,20","Pleased. I like to combination of colors,17,60,20","Dylan","I do like the blue colors in this.,12,40,20","Jeremy","Pleased. I like to combination of colors,17,60,20","Jeffrey","Messy but organised, helps me to relax and observe,8,40,20","4"
"2005","","image-button-response_instructions","261","1924216","0.0-259.0","A3E76V59BKGKCQ","","0","instructions","","","","","","","","","","","","","","","","","","","","","","","",""
"1311","","image-button-response","262","1925535","0.0-260.0","A3E76V59BKGKCQ","","0","","","","","","","","","","","","","","","","","","","","","","","","",""
