"rt","url","trial_type","trial_index","time_elapsed","internal_node_id","participant_id","stimulus","button_pressed","Name","responses","response","key_press","variableName","fixationTime","condition","trial","photo","subjectRating","subjectResponse","agentsNames","agent_1_Response","agent_2_Response","agent_3_Response","agent_4_Response","agent_5_Response","agent_6_Response","kept_1_name","kept_1_response","kept_2_name","kept_2_response","kept_3_name","kept_3_response","errorCounter"
"226493","external_page_harvard.html","external-html","0","227707","0.0-0.0","A3E9YVRNEUB9CA","","","","","","","","","","","","","","","","","","","","","","","","","","",""
"1795","","image-button-response","1","229503","0.0-1.0","A3E9YVRNEUB9CA","","1","","","","","","","","","","","","","","","","","","","","","","","","",""
"3095","","image-button-response","2","232602","0.0-2.0-0.0","A3E9YVRNEUB9CA","","1","phone","","","","","","","","","","","","","","","","","","","","","","","",""
"8755","","survey-text","3","241358","0.0-3.0-0.0","A3E9YVRNEUB9CA","","","","{""Q0"":""A3E9YVRNEUB9CA""}","","","","","","","","","","","","","","","","","","","","","","",""
"11655","","image-button-response_instructions","4","253014","0.0-4.0","A3E9YVRNEUB9CA","","0","instructions","","","","","","","","","","","","","","","","","","","","","","","",""
"51606","","image-button-response_instructions","5","304621","0.0-5.0","A3E9YVRNEUB9CA","img_art/ins/popularity/ins1.png","0","instructions","","","","","","","","","","","","","","","","","","","","","","","",""
"13952","","image-button-response_instructions","6","318574","0.0-6.0","A3E9YVRNEUB9CA","img_art/ins/popularity/ins2.png","0","instructions","","","","","","","","","","","","","","","","","","","","","","","",""
"8794","","image-button-response_instructions","7","327369","0.0-7.0","A3E9YVRNEUB9CA","img_art/ins/popularity/ins2Extreme.png","0","instructions","","","","","","","","","","","","","","","","","","","","","","","",""
"31616","","image-button-response_instructions","8","358986","0.0-8.0","A3E9YVRNEUB9CA","img_art/ins/popularity/ins3KEEPpop.PNG","0","instructions","","","","","","","","","","","","","","","","","","","","","","","",""
"5114","","image-button-response_instructions","9","364101","0.0-9.0","A3E9YVRNEUB9CA","img_art/ins/popularity/ins3ANamepop.PNG","0","instructions","","","","","","","","","","","","","","","","","","","","","","","",""
"3196","","image-button-response_instructions","10","367298","0.0-10.0","A3E9YVRNEUB9CA","img_art/ins/popularity/ins3ARatingpop.png","0","instructions","","","","","","","","","","","","","","","","","","","","","","","",""
"2639","","image-button-response_instructions","11","369939","0.0-11.0","A3E9YVRNEUB9CA","img_art/ins/popularity/ins3ATextpop.png","0","instructions","","","","","","","","","","","","","","","","","","","","","","","",""
"3872","","image-button-response_instructions","12","373811","0.0-12.0","A3E9YVRNEUB9CA","img_art/ins/popularity/ins3ALikespop.png","0","instructions","","","","","","","","","","","","","","","","","","","","","","","",""
"15432","","image-button-response_instructions","13","389244","0.0-13.0","A3E9YVRNEUB9CA","img_art/ins/popularity/ins3KEEPpop.PNG","0","instructions","","","","","","","","","","","","","","","","","","","","","","","",""
"19359","","image-button-response_instructions","14","408604","0.0-14.0","A3E9YVRNEUB9CA","img_art/ins/popularity/ins3_5RED.png","0","instructions","","","","","","","","","","","","","","","","","","","","","","","",""
"6579","","image-button-response_instructions","15","415184","0.0-15.0","A3E9YVRNEUB9CA","img_art/ins/popularity/ins3KEEPpop.PNG","0","instructions","","","","","","","","","","","","","","","","","","","","","","","",""
"20388","","image-button-response_instructions","16","435574","0.0-16.0","A3E9YVRNEUB9CA","img_art/ins/popularity/ins4KEEPpop.PNG","0","instructions","","","","","","","","","","","","","","","","","","","","","","","",""
"8183","","image-button-response_instructions","17","443758","0.0-17.0","A3E9YVRNEUB9CA","img_art/ins/popularity/ins5KEEPpop.PNG","0","instructions","","","","","","","","","","","","","","","","","","","","","","","",""
"5577","","image-button-response_instructions","18","449336","0.0-18.0","A3E9YVRNEUB9CA","","0","instructions","","","","","","","","","","","","","","","","","","","","","","","",""
"18659","","survey-text","19","468016","0.0-19.0-0.0","A3E9YVRNEUB9CA","","","","{""Q0"":""but""}","","","","","","","","","","","","","","","","","","","","","","",""
"33920","","survey-text","20","501938","0.0-20.0-0.0","A3E9YVRNEUB9CA","","","","{""Q0"":""I'm not real fond of the color choices.""}","","","","","","","","","","","","","","","","","","","","","","",""
"8092","","image-slider-response","21","510032","0.0-21.0","A3E9YVRNEUB9CA","","","","","8","","","","","","","","","","","","","","","","","","","","","",""
"null","","image-button-response","22","515044","0.0-22.0","A3E9YVRNEUB9CA","img_art/ins/1.jpg","null","","","","","","","","","","","","","","","","","","","","","","","","",""
"4819","","image-button-response","23","519865","0.0-23.0","A3E9YVRNEUB9CA","img_art/ins/1.jpg","1","","","","","","","","","","","","","","","","","","","","","","","","",""
"5360","","image-button-response","24","525227","0.0-24.0-0.0","A3E9YVRNEUB9CA","img_art/ins/1.jpg","0","","","","","","","","","","","","","","","","","","","","","","","","",""
"10525","","image-button-response","25","535753","0.0-25.0-0.0","A3E9YVRNEUB9CA","img_art/ins/1.jpg","3","","","","","","","","","","","","","","","","","","","","","","","","",""
"null","","html-keyboard-response","26","537256","0.0-26.0","A3E9YVRNEUB9CA","<p style=""font-size: 48px;"">+</p>","","","","","null","allTrialResponses","1500","1","-2","img_art/ins/1.jpg","8","I'm not real fond of the color choices.","Allison,Ashley,Beth,Dora,Erika,Jen","looks like a lot of things going on in the mist,20,20,20","I just don't get why these type of art would be popular,-32,40,20","This color reminds me of poo,-46,60,20","looks like what my niece in 3rd grade did this afternoon,-50,80,20","I like the sophisticated brushwork,40,100,20","It reminds me of a candy land dream I had,36,120,20","Ashley","I just don't get why these type of art would be popular,-32,40,20","Allison","looks like a lot of things going on in the mist,20,20,20","Dora","looks like what my niece in 3rd grade did this afternoon,-50,80,20","0"
"25952","","survey-text","27","563213","0.0-27.0-0.0","A3E9YVRNEUB9CA","","","","{""Q0"":""I like the vibrancy.""}","","","","","","","","","","","","","","","","","","","","","","",""
"5913.699999988079","","image-slider-response","28","569128","0.0-28.0","A3E9YVRNEUB9CA","","","","","30","","","","","","","","","","","","","","","","","","","","","",""
"null","","image-button-response","29","574130","0.0-29.0","A3E9YVRNEUB9CA","img_art/ins/2.jpg","null","","","","","","","","","","","","","","","","","","","","","","","","",""
"5111","","image-button-response","30","579241","0.0-30.0","A3E9YVRNEUB9CA","img_art/ins/2.jpg","4","","","","","","","","","","","","","","","","","","","","","","","","",""
"10368","","image-button-response","31","589610","0.0-31.0-0.0","A3E9YVRNEUB9CA","img_art/ins/2.jpg","0","","","","","","","","","","","","","","","","","","","","","","","","",""
"8883","","image-button-response","32","598495","0.0-32.0-0.0","A3E9YVRNEUB9CA","img_art/ins/2.jpg","5","","","","","","","","","","","","","","","","","","","","","","","","",""
"null","","html-keyboard-response","33","599507","0.0-33.0","A3E9YVRNEUB9CA","<p style=""font-size: 48px;"">+</p>","","","","","null","allTrialResponses","1000","1","-1","img_art/ins/2.jpg","30","I like the vibrancy.","Allison,Ashley,Jenna,Dora,Kara,Katie","I don't have strong feelings about this,10,20,20","Idk, it is just annoying,-32,40,20","One of my pet peevs,-48,140,20","looks too angry,-50,80,20","I like the blocks of color arrangements,30,160,20","too much color!,-28,180,20","Kara","I like the blocks of color arrangements,30,160,20","Allison","I don't have strong feelings about this,10,20,20","Katie","too much color!,-28,180,20","0"
"28258","","survey-text","34","627769","0.0-34.0-0.0","A3E9YVRNEUB9CA","","","","{""Q0"":""I really like how the royal blue pops.""}","","","","","","","","","","","","","","","","","","","","","","",""
"5205.100000023842","","image-slider-response","35","632976","0.0-35.0","A3E9YVRNEUB9CA","","","","","34","","","","","","","","","","","","","","","","","","","","","",""
"null","","image-button-response","36","637991","0.0-36.0","A3E9YVRNEUB9CA","img_art/ins/3.jpg","null","","","","","","","","","","","","","","","","","","","","","","","","",""
"10386","","image-button-response","37","648379","0.0-37.0","A3E9YVRNEUB9CA","img_art/ins/3.jpg","4","","","","","","","","","","","","","","","","","","","","","","","","",""
"2335","","image-button-response","38","650715","0.0-38.0-0.0","A3E9YVRNEUB9CA","img_art/ins/3.jpg","1","","","","","","","","","","","","","","","","","","","","","","","","",""
"676","","image-button-response","39","651393","0.0-39.0-0.0","A3E9YVRNEUB9CA","img_art/ins/3.jpg","0","","","","","","","","","","","","","","","","","","","","","","","","",""
"null","","html-keyboard-response","40","652394","0.0-40.0","A3E9YVRNEUB9CA","<p style=""font-size: 48px;"">+</p>","","","","","null","allTrialResponses","1000","1","0","img_art/ins/3.jpg","34","I really like how the royal blue pops.","Allison,Mary,Rose,Leslie,Kara,Katie","enjoy the different shades of blue,22,20,20","I like the overlapping of brushes,41,220,20","My daily routine, it's depressing,-20,240,20","It's an alright work,15,200,20","calming blue is very nice,36,160,20","It looks depressing,-26,180,20","Kara","calming blue is very nice,36,160,20","Mary","I like the overlapping of brushes,41,220,20","Allison","enjoy the different shades of blue,22,20,20","0"
"8305","","image-button-response_instructions","41","660702","0.0-41.0","A3E9YVRNEUB9CA","","0","instructions","","","","","","","","","","","","","","","","","","","","","","","",""
"20063","","survey-likert","42","680767","0.0-42.0-0.0","A3E9YVRNEUB9CA","","","","{""Q0"":"""",""Q1"":0,""Q2"":1}","","","","","","","","","","","","","","","","","","","","","","",""
"6149","","survey-text","43","686920","0.0-43.0-0.0","A3E9YVRNEUB9CA","","","","{""Q0"":""rock""}","","","","","","","","","","","","","","","","","","","","","","",""
"21798","","survey-text","44","708719","0.0-44.0-0.0","A3E9YVRNEUB9CA","","","","{""Q0"":""This is calming to me.""}","","","","","","","","","","","","","","","","","","","","","","",""
"4566.100000023842","","image-slider-response","45","713287","0.0-45.0","A3E9YVRNEUB9CA","","","","","39","","","","","","","","","","","","","","","","","","","","","",""
"null","","image-button-response","46","718307","0.0-46.0","A3E9YVRNEUB9CA","img_art/21.jpg","null","","","","","","","","","","","","","","","","","","","","","","","","",""
"3649","","image-button-response","47","721958","0.0-47.0","A3E9YVRNEUB9CA","img_art/21.jpg","5","","","","","","","","","","","","","","","","","","","","","","","","",""
"14848","","image-button-response","48","736807","0.0-48.0-0.0","A3E9YVRNEUB9CA","img_art/21.jpg","1","","","","","","","","","","","","","","","","","","","","","","","","",""
"5605","","image-button-response","49","742415","0.0-49.0-0.0","A3E9YVRNEUB9CA","img_art/21.jpg","4","","","","","","","","","","","","","","","","","","","","","","","","",""
"null","","html-keyboard-response","50","743416","0.0-50.0","A3E9YVRNEUB9CA","<p style=""font-size: 48px;"">+</p>","","","","","null","allTrialResponses","1000","1","1","img_art/21.jpg","39","This is calming to me.","Alexandria,Victoria,Alexandra,Makayla,Gabriela,Katie","the vast colors make me happy,15,80,20","like the colors,30,400,20","This one is nice, it reminds me of the sky,42,60,20","I like the two sides meeting, like a movie scene,15,80,20","It makes me feel mellow or ""chill"". It makes me have a positive and calm mood,42,140,20","Immediately a positive response! I like the muted colors. the blurriness calms me. It's serene,40,160,20","Katie","Immediately a positive response! I like the muted colors. the blurriness calms me. It's serene,40,160,20","Victoria","like the colors,30,400,20","Gabriela","It makes me feel mellow or ""chill"". It makes me have a positive and calm mood,42,140,20","0"
"25949","","survey-text","51","769368","0.0-51.0-0.0","A3E9YVRNEUB9CA","","","","{""Q0"":""This gives me bad thoughts.""}","","","","","","","","","","","","","","","","","","","","","","",""
"5575.5","","image-slider-response","52","774945","0.0-52.0","A3E9YVRNEUB9CA","","","","","-30","","","","","","","","","","","","","","","","","","","","","",""
"null","","image-button-response","53","779947","0.0-53.0","A3E9YVRNEUB9CA","img_art/28.jpg","null","","","","","","","","","","","","","","","","","","","","","","","","",""
"2917","","image-button-response","54","782865","0.0-54.0","A3E9YVRNEUB9CA","img_art/28.jpg","3","","","","","","","","","","","","","","","","","","","","","","","","",""
"6597","","image-button-response","55","789463","0.0-55.0-0.0","A3E9YVRNEUB9CA","img_art/28.jpg","1","","","","","","","","","","","","","","","","","","","","","","","","",""
"13467","","image-button-response","56","802932","0.0-56.0-0.0","A3E9YVRNEUB9CA","img_art/28.jpg","5","","","","","","","","","","","","","","","","","","","","","","","","",""
"null","","html-keyboard-response","57","804436","0.0-57.0","A3E9YVRNEUB9CA","<p style=""font-size: 48px;"">+</p>","","","","","null","allTrialResponses","1500","1","2","img_art/28.jpg","-30","This gives me bad thoughts.","Samantha,Victoria,Sarah,Sabrina,Gabriela,Katie","Interesting and weird. Perfect conversational piece,33,140,20","drab and dreary,-21,400,20","something about all the off-greys is pretty interesting,5,180,20","Self-hate and abuse at home, unsafe and torturing,-30,120,20","The brown and green colors used look dull and unappealing,-30,140,20","Like the muted pink colors. However, the mood is sad because of the blurriness,22,160,20","Sabrina","Self-hate and abuse at home, unsafe and torturing,-30,120,20","Victoria","drab and dreary,-21,400,20","Katie","Like the muted pink colors. However, the mood is sad because of the blurriness,22,160,20","0"
"24232","","survey-text","58","828671","0.0-58.0-0.0","A3E9YVRNEUB9CA","","","","{""Q0"":""This feels like a picture of Mars.""}","","","","","","","","","","","","","","","","","","","","","","",""
"5232.700000047684","","image-slider-response","59","833905","0.0-59.0","A3E9YVRNEUB9CA","","","","","2","","","","","","","","","","","","","","","","","","","","","",""
"null","","image-button-response","60","838920","0.0-60.0","A3E9YVRNEUB9CA","img_art/7.jpg","null","","","","","","","","","","","","","","","","","","","","","","","","",""
"8452","","image-button-response","61","847375","0.0-61.0","A3E9YVRNEUB9CA","img_art/7.jpg","3","","","","","","","","","","","","","","","","","","","","","","","","",""
"12279","","image-button-response","62","859655","0.0-62.0-0.0","A3E9YVRNEUB9CA","img_art/7.jpg","5","","","","","","","","","","","","","","","","","","","","","","","","",""
"7748","","image-button-response","63","867406","0.0-63.0-0.0","A3E9YVRNEUB9CA","img_art/7.jpg","0","","","","","","","","","","","","","","","","","","","","","","","","",""
"null","","html-keyboard-response","64","868911","0.0-64.0","A3E9YVRNEUB9CA","<p style=""font-size: 48px;"">+</p>","","","","","null","allTrialResponses","1500","1","3","img_art/7.jpg","2","This feels like a picture of Mars.","Kathryn,Victoria,Briana,Sabrina,Julia,Katie","It's off-putting because it reminds me of walking over rough sand/rocks or having scabs on my skin.,-10,140,20","looks like a photograph,-4,400,20","Are these ancient cave paintings?,-7,400,20","Not getting the vibe i would like from this,-30,120,20","I would like this more if I could pretend it was the moon.,-26,40,20","I see dryness, which is sad. Dirt, sand, the dessert. Barren dry lifeless,-30,160,20","Sabrina","Not getting the vibe i would like from this,-30,120,20","Katie","I see dryness, which is sad. Dirt, sand, the dessert. Barren dry lifeless,-30,160,20","Kathryn","It's off-putting because it reminds me of walking over rough sand/rocks or having scabs on my skin.,-10,140,20","0"
"42668","","survey-text","65","911584","0.0-65.0-0.0","A3E9YVRNEUB9CA","","","","{""Q0"":""Sorry, this has an evil feel.""}","","","","","","","","","","","","","","","","","","","","","","",""
"4137.900000035763","","image-slider-response","66","915724","0.0-66.0","A3E9YVRNEUB9CA","","","","","-15","","","","","","","","","","","","","","","","","","","","","",""
"null","","image-button-response","67","920726","0.0-67.0","A3E9YVRNEUB9CA","img_art/1.jpg","null","","","","","","","","","","","","","","","","","","","","","","","","",""
"13428","","image-button-response","68","934156","0.0-68.0","A3E9YVRNEUB9CA","img_art/1.jpg","2","","","","","","","","","","","","","","","","","","","","","","","","",""
"11161","","image-button-response","69","945319","0.0-69.0-0.0","A3E9YVRNEUB9CA","img_art/1.jpg","5","","","","","","","","","","","","","","","","","","","","","","","","",""
"7342","","image-button-response","70","952663","0.0-70.0-0.0","A3E9YVRNEUB9CA","img_art/1.jpg","4","","","","","","","","","","","","","","","","","","","","","","","","",""
"null","","html-keyboard-response","71","953164","0.0-71.0","A3E9YVRNEUB9CA","<p style=""font-size: 48px;"">+</p>","","","","","null","allTrialResponses","500","1","4","img_art/1.jpg","-15","Sorry, this has an evil feel.","Kathryn,Madeline,Leslie,Sabrina,Allison,Katie","For some reason this makes me want to go ice skating. It's whimsical and free but also very smooth.,20,140,20","Quite messy looking,-22,40,20","The use of reds, blues, and yellows together reminds me of fire. Very interesting to look at.,40,380,20","I love the calming comfort and safe feeling of this,50,120,20","Messy mix of primary colors.,-10,140,20","Too messy. Just looks like a mess of dark colors.,-20,160,20","Leslie","The use of reds, blues, and yellows together reminds me of fire. Very interesting to look at.,40,380,20","Katie","Too messy. Just looks like a mess of dark colors.,-20,160,20","Allison","Messy mix of primary colors.,-10,140,20","0"
"40445","","survey-text","72","993613","0.0-72.0-0.0","A3E9YVRNEUB9CA","","","","{""Q0"":""I see a dog enjoying a pile of leaves, it makes me smile.""}","","","","","","","","","","","","","","","","","","","","","","",""
"7750.699999988079","","image-slider-response","73","1001365","0.0-73.0","A3E9YVRNEUB9CA","","","","","43","","","","","","","","","","","","","","","","","","","","","",""
"null","","image-button-response","74","1006377","0.0-74.0","A3E9YVRNEUB9CA","img_art/24.jpg","null","","","","","","","","","","","","","","","","","","","","","","","","",""
"3697","","image-button-response","75","1010076","0.0-75.0","A3E9YVRNEUB9CA","img_art/24.jpg","4","","","","","","","","","","","","","","","","","","","","","","","","",""
"10178","","image-button-response","76","1020255","0.0-76.0-0.0","A3E9YVRNEUB9CA","img_art/24.jpg","1","","","","","","","","","","","","","","","","","","","","","","","","",""
"4602","","image-button-response","77","1024859","0.0-77.0-0.0","A3E9YVRNEUB9CA","img_art/24.jpg","3","","","","","","","","","","","","","","","","","","","","","","","","",""
"null","","html-keyboard-response","78","1025361","0.0-78.0","A3E9YVRNEUB9CA","<p style=""font-size: 48px;"">+</p>","","","","","null","allTrialResponses","500","1","5","img_art/24.jpg","43","I see a dog enjoying a pile of leaves, it makes me smile.","Cynthia,Alexa,Leslie,Lauren,Allison,Katie","Interested in visiting this place,18,320,20","I absolutely adore this painting. The colors, designs, everything. It's phenomenal,50,40,20","The colors look nice, but the painting bores me.,-20,380,20","Invokes a strong sense of nature, since the piece can interpreted as a stream or an abstracted bird.,40,340,20","I appreciate the earth tones. Soothing.,5,140,20","I see a waterfall, which is relaxing and peaceful!  I like the blue coloring,30,160,20","Allison","I appreciate the earth tones. Soothing.,5,140,20","Alexa","I absolutely adore this painting. The colors, designs, everything. It's phenomenal,50,40,20","Lauren","Invokes a strong sense of nature, since the piece can interpreted as a stream or an abstracted bird.,40,340,20","0"
"4774","","survey-text","79","1030146","0.0-79.0-0.0","A3E9YVRNEUB9CA","","","","{""Q0"":""sky""}","","","","","","","","","","","","","","","","","","","","","","",""
"48887","","survey-text","80","1079034","0.0-80.0-0.0","A3E9YVRNEUB9CA","","","","{""Q0"":""I really liked it until I saw the face looming overhead.""}","","","","","","","","","","","","","","","","","","","","","","",""
"3447.199999988079","","image-slider-response","81","1082483","0.0-81.0","A3E9YVRNEUB9CA","","","","","-7","","","","","","","","","","","","","","","","","","","","","",""
"null","","image-button-response","82","1087485","0.0-82.0","A3E9YVRNEUB9CA","img_art/8.jpg","null","","","","","","","","","","","","","","","","","","","","","","","","",""
"9098","","image-button-response","83","1096585","0.0-83.0","A3E9YVRNEUB9CA","img_art/8.jpg","5","","","","","","","","","","","","","","","","","","","","","","","","",""
"21312","","image-button-response","84","1117899","0.0-84.0-0.0","A3E9YVRNEUB9CA","img_art/8.jpg","4","","","","","","","","","","","","","","","","","","","","","","","","",""
"2986","","image-button-response","85","1120887","0.0-85.0-0.0","A3E9YVRNEUB9CA","img_art/8.jpg","3","","","","","","","","","","","","","","","","","","","","","","","","",""
"null","","html-keyboard-response","86","1122392","0.0-86.0","A3E9YVRNEUB9CA","<p style=""font-size: 48px;"">+</p>","","","","","null","allTrialResponses","1500","1","6","img_art/8.jpg","-7","I really liked it until I saw the face looming overhead.","Molly,Alexa,Hannah,Lauren,Allison,Courtney","Different styles make this picture outstanding.,20,340,20","It's simply gorgeous. This artist is very talented,50,40,20","I don't understand it. Makes no sense to me.,5,240,20","I like how the piece is showcasing emotion in relation to something.,25,340,20","Eclectic city with good mix of colors.,10,140,20","Now that one is wild. Looks like maybe mother nature isnt happy.,28,280,20","Courtney","Now that one is wild. Looks like maybe mother nature isnt happy.,28,280,20","Allison","Eclectic city with good mix of colors.,10,140,20","Lauren","I like how the piece is showcasing emotion in relation to something.,25,340,20","0"
"24799","","survey-text","87","1147194","0.0-87.0-0.0","A3E9YVRNEUB9CA","","","","{""Q0"":""It just doesn't do anything for me.""}","","","","","","","","","","","","","","","","","","","","","","",""
"3406.800000011921","","image-slider-response","88","1150602","0.0-88.0","A3E9YVRNEUB9CA","","","","","-5","","","","","","","","","","","","","","","","","","","","","",""
"null","","image-button-response","89","1155608","0.0-89.0","A3E9YVRNEUB9CA","img_art/15.jpg","null","","","","","","","","","","","","","","","","","","","","","","","","",""
"3302","","image-button-response","90","1158910","0.0-90.0","A3E9YVRNEUB9CA","img_art/15.jpg","5","","","","","","","","","","","","","","","","","","","","","","","","",""
"11913","","image-button-response","91","1170825","0.0-91.0-0.0","A3E9YVRNEUB9CA","img_art/15.jpg","2","","","","","","","","","","","","","","","","","","","","","","","","",""
"3033","","image-button-response","92","1173860","0.0-92.0-0.0","A3E9YVRNEUB9CA","img_art/15.jpg","4","","","","","","","","","","","","","","","","","","","","","","","","",""
"null","","html-keyboard-response","93","1175361","0.0-93.0","A3E9YVRNEUB9CA","<p style=""font-size: 48px;"">+</p>","","","","","null","allTrialResponses","1500","1","7","img_art/15.jpg","-5","It just doesn't do anything for me.","Erika,Morgan,Melissa,Lauren,Allison,Courtney","I like the dense patterns and the splashes  of blue,38,100,20","Leafs spread on the ground.,27,380,20","reminds me of birds in trees,14,240,20","Hard to tell what I'm looking at, but it does a gives a slight impression of a of garden.,5,340,20","Eyes hunt for the blue in the black.,5,140,20","Weird fuzzball bush.,22,280,20","Courtney","Weird fuzzball bush.,22,280,20","Melissa","reminds me of birds in trees,14,240,20","Allison","Eyes hunt for the blue in the black.,5,140,20","0"
"49305","","survey-text","94","1224669","0.0-94.0-0.0","A3E9YVRNEUB9CA","","","","{""Q0"":""Pretty green color, reminds me of hieroglyphics.""}","","","","","","","","","","","","","","","","","","","","","","",""
"5786.700000047684","","image-slider-response","95","1230457","0.0-95.0","A3E9YVRNEUB9CA","","","","","23","","","","","","","","","","","","","","","","","","","","","",""
"null","","image-button-response","96","1235460","0.0-96.0","A3E9YVRNEUB9CA","img_art/25.jpg","null","","","","","","","","","","","","","","","","","","","","","","","","",""
"8150","","image-button-response","97","1243612","0.0-97.0","A3E9YVRNEUB9CA","img_art/25.jpg","1","","","","","","","","","","","","","","","","","","","","","","","","",""
"9234","","image-button-response","98","1252848","0.0-98.0-0.0","A3E9YVRNEUB9CA","img_art/25.jpg","4","","","","","","","","","","","","","","","","","","","","","","","","",""
"2965","","image-button-response","99","1255815","0.0-99.0-0.0","A3E9YVRNEUB9CA","img_art/25.jpg","3","","","","","","","","","","","","","","","","","","","","","","","","",""
"null","","html-keyboard-response","100","1257316","0.0-100.0","A3E9YVRNEUB9CA","<p style=""font-size: 48px;"">+</p>","","","","","null","allTrialResponses","1500","1","8","img_art/25.jpg","23","Pretty green color, reminds me of hieroglyphics.","Kaitlin,Sydney,Melissa,Caitlin,Allison,Courtney","i feel a bit dull, a bit scared,-20,60,20","This piece gives me a lot of questions which I kind of like.,10,320,20","do not like that color of green,-11,240,20","Wish I was that thin.,-5,80,20","high contrast draws attention to the image, but I'm not sure what I'm seeing,-5,140,20","That on i find a bit creapy.,-19,280,20","Sydney","This piece gives me a lot of questions which I kind of like.,10,320,20","Allison","high contrast draws attention to the image, but I'm not sure what I'm seeing,-5,140,20","Caitlin","Wish I was that thin.,-5,80,20","0"
"32058","","survey-text","101","1289377","0.0-101.0-0.0","A3E9YVRNEUB9CA","","","","{""Q0"":""I really like the colors and semi hidden shapes.""}","","","","","","","","","","","","","","","","","","","","","","",""
"3721.899999976158","","image-slider-response","102","1293100","0.0-102.0","A3E9YVRNEUB9CA","","","","","22","","","","","","","","","","","","","","","","","","","","","",""
"null","","image-button-response","103","1298112","0.0-103.0","A3E9YVRNEUB9CA","img_art/22.jpg","null","","","","","","","","","","","","","","","","","","","","","","","","",""
"3256","","image-button-response","104","1301370","0.0-104.0","A3E9YVRNEUB9CA","img_art/22.jpg","5","","","","","","","","","","","","","","","","","","","","","","","","",""
"16781","","image-button-response","105","1318153","0.0-105.0-0.0","A3E9YVRNEUB9CA","img_art/22.jpg","4","","","","","","","","","","","","","","","","","","","","","","","","",""
"1545","","image-button-response","106","1319700","0.0-106.0-0.0","A3E9YVRNEUB9CA","img_art/22.jpg","3","","","","","","","","","","","","","","","","","","","","","","","","",""
"null","","html-keyboard-response","107","1320201","0.0-107.0","A3E9YVRNEUB9CA","<p style=""font-size: 48px;"">+</p>","","","","","null","allTrialResponses","500","1","9","img_art/22.jpg","22","I really like the colors and semi hidden shapes.","Bailey,Sydney,Sierra,Caitlin,Allison,Cassidy","Looks like a giant blob,-45,360,20","I don't normally like bright colors, but I like them in this. Don't like the random black paint.,30,320,20","colorful. but not much happening,1,260,20","Looks like the kind of art I would see at the doctor's office.,-5,80,20","Very generic mix of primary colors and shapes. Not a huge fan.,-10,140,20","I don't really know why, I just like looking at it,10,140,20","Cassidy","I don't really know why, I just like looking at it,10,140,20","Allison","Very generic mix of primary colors and shapes. Not a huge fan.,-10,140,20","Caitlin","Looks like the kind of art I would see at the doctor's office.,-5,80,20","0"
"24676","","survey-text","108","1344881","0.0-108.0-0.0","A3E9YVRNEUB9CA","","","","{""Q0"":""I see a messy work space.""}","","","","","","","","","","","","","","","","","","","","","","",""
"5973.300000011921","","image-slider-response","109","1350856","0.0-109.0","A3E9YVRNEUB9CA","","","","","-15","","","","","","","","","","","","","","","","","","","","","",""
"3475","","image-button-response","110","1355857","0.0-110.0","A3E9YVRNEUB9CA","img_art/29.jpg","0","","","","","","","","","","","","","","","","","","","","","","","","",""
"16740","","image-button-response","111","1372599","0.0-111.0","A3E9YVRNEUB9CA","img_art/29.jpg","3","","","","","","","","","","","","","","","","","","","","","","","","",""
"8475","","image-button-response","112","1381076","0.0-112.0-0.0","A3E9YVRNEUB9CA","img_art/29.jpg","4","","","","","","","","","","","","","","","","","","","","","","","","",""
"9683","","image-button-response","113","1390761","0.0-113.0-0.0","A3E9YVRNEUB9CA","img_art/29.jpg","0","","","","","","","","","","","","","","","","","","","","","","","","",""
"null","","html-keyboard-response","114","1391263","0.0-114.0","A3E9YVRNEUB9CA","<p style=""font-size: 48px;"">+</p>","","","","","null","allTrialResponses","500","1","10","img_art/29.jpg","-15","I see a messy work space.","Chelsea,Mackenzie,Amanda,Caitlin,Allison,Cassidy","It is intriguing but I don't like the red X.,6,180,20","The light source is confusing, but still interesting to look at,11,20,20","Once again, very modern, activists will love,27,180,20","I would give up and give it a red X too.,-5,80,20","Flash is too strong. Dislike the colors,-5,140,20","I like the colors but it looks very amateur,1,140,20","Caitlin","I would give up and give it a red X too.,-5,80,20","Allison","Flash is too strong. Dislike the colors,-5,140,20","Chelsea","It is intriguing but I don't like the red X.,6,180,20","0"
"5584","","survey-text","115","1396857","0.0-115.0-0.0","A3E9YVRNEUB9CA","","","","{""Q0"":""our""}","","","","","","","","","","","","","","","","","","","","","","",""
"71299","","survey-text","116","1468158","0.0-116.0-0.0","A3E9YVRNEUB9CA","","","","{""Q0"":""I don't really get much of a reaction. I do like looking at it.""}","","","","","","","","","","","","","","","","","","","","","","",""
"3546.199999988079","","image-slider-response","117","1471705","0.0-117.0","A3E9YVRNEUB9CA","","","","","10","","","","","","","","","","","","","","","","","","","","","",""
"null","","image-button-response","118","1476707","0.0-118.0","A3E9YVRNEUB9CA","img_art/12.jpg","null","","","","","","","","","","","","","","","","","","","","","","","","",""
"1493","","image-button-response","119","1478201","0.0-119.0","A3E9YVRNEUB9CA","img_art/12.jpg","5","","","","","","","","","","","","","","","","","","","","","","","","",""
"14373","","image-button-response","120","1492576","0.0-120.0-0.0","A3E9YVRNEUB9CA","img_art/12.jpg","2","","","","","","","","","","","","","","","","","","","","","","","","",""
"7341","","image-button-response","121","1499919","0.0-121.0-0.0","A3E9YVRNEUB9CA","img_art/12.jpg","3","","","","","","","","","","","","","","","","","","","","","","","","",""
"null","","html-keyboard-response","122","1500921","0.0-122.0","A3E9YVRNEUB9CA","<p style=""font-size: 48px;"">+</p>","","","","","null","allTrialResponses","1000","1","11","img_art/12.jpg","10","I don't really get much of a reaction. I do like looking at it.","Chelsea,Nicole,Savannah,Caitlin,Allison,Jamie","I like the gradient of little color on the top to colorful on the bottom.,24,180,20","I like all the squares and the colors but it feels too cluttered to me,20,20,20","Almost natural flowing between abstract sections.,27,200,20","Just wish it was more colorful.,20,80,20","Minimalist colors and shapes.,-5,140,20","Black and white contrast with color looks nice,15,320,20","Jamie","Black and white contrast with color looks nice,15,320,20","Savannah","Almost natural flowing between abstract sections.,27,200,20","Caitlin","Just wish it was more colorful.,20,80,20","0"
"45918","","survey-text","123","1546842","0.0-123.0-0.0","A3E9YVRNEUB9CA","","","","{""Q0"":""I see a very abstract, disformed hand.""}","","","","","","","","","","","","","","","","","","","","","","",""
"3812.600000023842","","image-slider-response","124","1550656","0.0-124.0","A3E9YVRNEUB9CA","","","","","-15","","","","","","","","","","","","","","","","","","","","","",""
"4971","","image-button-response","125","1555658","0.0-125.0","A3E9YVRNEUB9CA","img_art/4.jpg","5","","","","","","","","","","","","","","","","","","","","","","","","",""
"7542","","image-button-response","126","1563201","0.0-126.0","A3E9YVRNEUB9CA","img_art/4.jpg","5","","","","","","","","","","","","","","","","","","","","","","","","",""
"5285","","image-button-response","127","1568488","0.0-127.0-0.0","A3E9YVRNEUB9CA","img_art/4.jpg","2","","","","","","","","","","","","","","","","","","","","","","","","",""
"2778","","image-button-response","128","1571268","0.0-128.0-0.0","A3E9YVRNEUB9CA","img_art/4.jpg","0","","","","","","","","","","","","","","","","","","","","","","","","",""
"null","","html-keyboard-response","129","1572279","0.0-129.0","A3E9YVRNEUB9CA","<p style=""font-size: 48px;"">+</p>","","","","","null","allTrialResponses","1000","1","12","img_art/4.jpg","-15","I see a very abstract, disformed hand.","Ashley,Emily,Savannah,Caitlin,Alexis,Jamie","It looks like a hand.,25,320,20","Looks like a child did it.,-42,40,20","Colors are horrendous, look like bodily fluids have been smeared.,-50,200,20","They give out trophies now for fighting with brass knuckles?,-20,80,20","Really don't like this. Kindergarten art, sorry.,-50,100,20","Mustard yellow doesn't do it for me,-25,320,20","Jamie","Mustard yellow doesn't do it for me,-25,320,20","Savannah","Colors are horrendous, look like bodily fluids have been smeared.,-50,200,20","Ashley","It looks like a hand.,25,320,20","0"
"33395","","survey-text","130","1605676","0.0-130.0-0.0","A3E9YVRNEUB9CA","","","","{""Q0"":""Very calming, great color combo.""}","","","","","","","","","","","","","","","","","","","","","","",""
"4206.800000011921","","image-slider-response","131","1609884","0.0-131.0","A3E9YVRNEUB9CA","","","","","23","","","","","","","","","","","","","","","","","","","","","",""
"4285","","image-button-response","132","1614896","0.0-132.0","A3E9YVRNEUB9CA","img_art/17.jpg","5","","","","","","","","","","","","","","","","","","","","","","","","",""
"19808","","image-button-response","133","1634706","0.0-133.0","A3E9YVRNEUB9CA","img_art/17.jpg","1","","","","","","","","","","","","","","","","","","","","","","","","",""
"5304","","image-button-response","134","1640012","0.0-134.0-0.0","A3E9YVRNEUB9CA","img_art/17.jpg","2","","","","","","","","","","","","","","","","","","","","","","","","",""
"7099","","image-button-response","135","1647113","0.0-135.0-0.0","A3E9YVRNEUB9CA","img_art/17.jpg","5","","","","","","","","","","","","","","","","","","","","","","","","",""
"null","","html-keyboard-response","136","1647615","0.0-136.0","A3E9YVRNEUB9CA","<p style=""font-size: 48px;"">+</p>","","","","","null","allTrialResponses","500","1","13","img_art/17.jpg","23","Very calming, great color combo.","Ashley,Kylie,Savannah,Katelyn,Kimberly,Jamie","taste the rainbow, feel the flavor.,23,320,20","Looks like an explosion of pretty artwork,45,300,20","Not even abstract to me, very clear meaning.,44,200,20","Doesnt completely turn me off but wouldnt look twice,-3,100,20","I like the trees, but the doors less so,19,260,20","Looks like some fantasy tree. Nice,30,320,20","Kylie","Looks like an explosion of pretty artwork,45,300,20","Savannah","Not even abstract to me, very clear meaning.,44,200,20","Jamie","Looks like some fantasy tree. Nice,30,320,20","0"
"46463","","survey-text","137","1694081","0.0-137.0-0.0","A3E9YVRNEUB9CA","","","","{""Q0"":""high energy, with dancing, great background.""}","","","","","","","","","","","","","","","","","","","","","","",""
"4482","","image-slider-response","138","1698565","0.0-138.0","A3E9YVRNEUB9CA","","","","","30","","","","","","","","","","","","","","","","","","","","","",""
"null","","image-button-response","139","1703582","0.0-139.0","A3E9YVRNEUB9CA","img_art/23.jpg","null","","","","","","","","","","","","","","","","","","","","","","","","",""
"5262","","image-button-response","140","1708845","0.0-140.0","A3E9YVRNEUB9CA","img_art/23.jpg","2","","","","","","","","","","","","","","","","","","","","","","","","",""
"1884","","image-button-response","141","1710731","0.0-141.0-0.0","A3E9YVRNEUB9CA","img_art/23.jpg","1","","","","","","","","","","","","","","","","","","","","","","","","",""
"10966","","image-button-response","142","1721698","0.0-142.0-0.0","A3E9YVRNEUB9CA","img_art/23.jpg","5","","","","","","","","","","","","","","","","","","","","","","","","",""
"null","","html-keyboard-response","143","1722203","0.0-143.0","A3E9YVRNEUB9CA","<p style=""font-size: 48px;"">+</p>","","","","","null","allTrialResponses","500","1","14","img_art/23.jpg","30","high energy, with dancing, great background.","Andrea,Kylie,Savannah,Hailey,Maria,Jamie","I see souls in torment and that makes me feel uneasy.,-21,240,20","Universal celebration,40,300,20","Very colorful. Nice contrasts.,26,200,20","cold and dark feeling,-27,200,20","the pattern of colours imbues in me a sense of infinity, which I find soothing,10,120,20","Reminds me of outer space and the stars,30,320,20","Savannah","Very colorful. Nice contrasts.,26,200,20","Kylie","Universal celebration,40,300,20","Jamie","Reminds me of outer space and the stars,30,320,20","0"
"44644","","survey-text","144","1766850","0.0-144.0-0.0","A3E9YVRNEUB9CA","","","","{""Q0"":""I love this, the colors are nice, minimalist nature scene.""}","","","","","","","","","","","","","","","","","","","","","","",""
"7054.5","","image-slider-response","145","1773906","0.0-145.0","A3E9YVRNEUB9CA","","","","","44","","","","","","","","","","","","","","","","","","","","","",""
"null","","image-button-response","146","1778923","0.0-146.0","A3E9YVRNEUB9CA","img_art/6.jpg","null","","","","","","","","","","","","","","","","","","","","","","","","",""
"1756","","image-button-response","147","1780680","0.0-147.0","A3E9YVRNEUB9CA","img_art/6.jpg","5","","","","","","","","","","","","","","","","","","","","","","","","",""
"11053","","image-button-response","148","1791735","0.0-148.0-0.0","A3E9YVRNEUB9CA","img_art/6.jpg","2","","","","","","","","","","","","","","","","","","","","","","","","",""
"3897","","image-button-response","149","1795634","0.0-149.0-0.0","A3E9YVRNEUB9CA","img_art/6.jpg","4","","","","","","","","","","","","","","","","","","","","","","","","",""
"null","","html-keyboard-response","150","1797141","0.0-150.0","A3E9YVRNEUB9CA","<p style=""font-size: 48px;"">+</p>","","","","","null","allTrialResponses","1500","1","15","img_art/6.jpg","44","I love this, the colors are nice, minimalist nature scene.","Breanna,Kylie,Savannah,Cheyenne,Mary,Jamie","Not impressed, just very plain,-10,380,20","Reminds me of feeling incomplete,1,300,20","Despite how simple it is, this piece has clear meaning.,34,200,20","Good painting but too simple to care about it for very long.,-15,200,20","This piece has some emotion of isolation. I like it.,6,180,20","Tree growing in a desert. Gives me feelings of hope,5,320,20","Jamie","Tree growing in a desert. Gives me feelings of hope,5,320,20","Savannah","Despite how simple it is, this piece has clear meaning.,34,200,20","Mary","This piece has some emotion of isolation. I like it.,6,180,20","0"
"5103","","survey-text","151","1802250","0.0-151.0-0.0","A3E9YVRNEUB9CA","","","","{""Q0"":""course""}","","","","","","","","","","","","","","","","","","","","","","",""
"22110","","survey-text","152","1824361","0.0-152.0-0.0","A3E9YVRNEUB9CA","","","","{""Q0"":""I see a ghost town filled with ghosts.""}","","","","","","","","","","","","","","","","","","","","","","",""
"5278.299999952316","","image-slider-response","153","1829641","0.0-153.0","A3E9YVRNEUB9CA","","","","","-22","","","","","","","","","","","","","","","","","","","","","",""
"null","","image-button-response","154","1834650","0.0-154.0","A3E9YVRNEUB9CA","img_art/20.jpg","null","","","","","","","","","","","","","","","","","","","","","","","","",""
"4042","","image-button-response","155","1838693","0.0-155.0","A3E9YVRNEUB9CA","img_art/20.jpg","4","","","","","","","","","","","","","","","","","","","","","","","","",""
"7311","","image-button-response","156","1846005","0.0-156.0-0.0","A3E9YVRNEUB9CA","img_art/20.jpg","0","","","","","","","","","","","","","","","","","","","","","","","","",""
"2555","","image-button-response","157","1848561","0.0-157.0-0.0","A3E9YVRNEUB9CA","img_art/20.jpg","0","","","","","","","","","","","","","","","","","","","","","","","","",""
"1963","","image-button-response","158","1858410","0.0-157.1-0.1","A3E9YVRNEUB9CA","img_art/20.jpg","0","","","","","","","","","","","","","","","","","","","","","","","","",""
"7148","","image-button-response","159","1868840","0.0-157.2-0.2","A3E9YVRNEUB9CA","img_art/20.jpg","1","","","","","","","","","","","","","","","","","","","","","","","","",""
"null","","html-keyboard-response","160","1870347","0.0-158.0","A3E9YVRNEUB9CA","<p style=""font-size: 48px;"">+</p>","","","","","null","allTrialResponses","1500","1","16","img_art/20.jpg","-22","I see a ghost town filled with ghosts.","Destiny,Vanessa,Savannah,Anna,Mary,Jamie","truck? train? dead cow? plane?,10,360,20","I like the deep blues, but I don't like the way this picture makes me feel.,-13,380,20","Lovely composition, colors, and message.,35,200,20","I would like it more without the frame.,10,300,20","I can tell this artist has experience. I just don't care for the color combo.,7,180,20","Looks like some type of future dystopian civilization,35,320,20","Mary","I can tell this artist has experience. I just don't care for the color combo.,7,180,20","Destiny","truck? train? dead cow? plane?,10,360,20","Vanessa","I like the deep blues, but I don't like the way this picture makes me feel.,-13,380,20","4"
"31127","","survey-text","161","1901478","0.0-159.0-0.0","A3E9YVRNEUB9CA","","","","{""Q0"":""nice, you could interpret this in many ways.""}","","","","","","","","","","","","","","","","","","","","","","",""
"4588.399999976158","","image-slider-response","162","1906068","0.0-160.0","A3E9YVRNEUB9CA","","","","","36","","","","","","","","","","","","","","","","","","","","","",""
"null","","image-button-response","163","1911081","0.0-161.0","A3E9YVRNEUB9CA","img_art/27.jpg","null","","","","","","","","","","","","","","","","","","","","","","","","",""
"2881","","image-button-response","164","1913965","0.0-162.0","A3E9YVRNEUB9CA","img_art/27.jpg","4","","","","","","","","","","","","","","","","","","","","","","","","",""
"3898","","image-button-response","165","1917864","0.0-163.0-0.0","A3E9YVRNEUB9CA","img_art/27.jpg","3","","","","","","","","","","","","","","","","","","","","","","","","",""
"12954","","image-button-response","166","1930819","0.0-164.0-0.0","A3E9YVRNEUB9CA","img_art/27.jpg","2","","","","","","","","","","","","","","","","","","","","","","","","",""
"null","","html-keyboard-response","167","1932328","0.0-165.0","A3E9YVRNEUB9CA","<p style=""font-size: 48px;"">+</p>","","","","","null","allTrialResponses","1500","1","17","img_art/27.jpg","36","nice, you could interpret this in many ways.","Destiny,Vanessa,Brooke,Kaitlyn,Mary,Amy","demon vs angel brawl over lemon lime sprite,-10,360,20","Colors make me think of fall, but I don't like how the picture was done or the weird lines across the background,6,380,20","Like it, autumn colors, trees and foliage scene.,25,60,20","The variation of orange is nice,9,80,20","I like the layer upon layer of different mediums used here.,21,180,20","The colors provide a complexity to the nearly child-like sketches.,5,220,20","Mary","I like the layer upon layer of different mediums used here.,21,180,20","Kaitlyn","The variation of orange is nice,9,80,20","Brooke","Like it, autumn colors, trees and foliage scene.,25,60,20","4"
"24009","","survey-text","168","1956343","0.0-166.0-0.0","A3E9YVRNEUB9CA","","","","{""Q0"":""Although the colors are nice, I see a monster.""}","","","","","","","","","","","","","","","","","","","","","","",""
"6858.300000011921","","image-slider-response","169","1963203","0.0-167.0","A3E9YVRNEUB9CA","","","","","-20","","","","","","","","","","","","","","","","","","","","","",""
"null","","image-button-response","170","1968205","0.0-168.0","A3E9YVRNEUB9CA","img_art/9.jpg","null","","","","","","","","","","","","","","","","","","","","","","","","",""
"23134","","image-button-response","171","1991342","0.0-169.0","A3E9YVRNEUB9CA","img_art/9.jpg","3","","","","","","","","","","","","","","","","","","","","","","","","",""
"7522","","image-button-response","172","1998866","0.0-170.0-0.0","A3E9YVRNEUB9CA","img_art/9.jpg","4","","","","","","","","","","","","","","","","","","","","","","","","",""
"5700","","image-button-response","173","2004567","0.0-171.0-0.0","A3E9YVRNEUB9CA","img_art/9.jpg","0","","","","","","","","","","","","","","","","","","","","","","","","",""
"null","","html-keyboard-response","174","2006069","0.0-172.0","A3E9YVRNEUB9CA","<p style=""font-size: 48px;"">+</p>","","","","","null","allTrialResponses","1500","1","18","img_art/9.jpg","-20","Although the colors are nice, I see a monster.","Crystal,Angelica,Brooke,Kaitlyn,Mary,Rachel","Evokes triumph of a mountain over powering a drowning sea,24,300,20","The colors and image is ugly.,-7,280,20","Dark fantasy seaside cave carnival? Fun.,15,60,20","Focal point is interesting,2,80,20","How neat is this piece?  I love the angry expressive lines. Emotion is captured in it.,26,180,20","It looks like a lady taking a peaceful nap on a blanket in the grass.,41,80,20","Kaitlyn","Focal point is interesting,2,80,20","Mary","How neat is this piece?  I love the angry expressive lines. Emotion is captured in it.,26,180,20","Crystal","Evokes triumph of a mountain over powering a drowning sea,24,300,20","4"
"31792","","survey-text","175","2037866","0.0-173.0-0.0","A3E9YVRNEUB9CA","","","","{""Q0"":""reminds me of the eighties, but not in a good way, too played out.""}","","","","","","","","","","","","","","","","","","","","","","",""
"3766.5","","image-slider-response","176","2041633","0.0-174.0","A3E9YVRNEUB9CA","","","","","-21","","","","","","","","","","","","","","","","","","","","","",""
"null","","image-button-response","177","2046637","0.0-175.0","A3E9YVRNEUB9CA","img_art/13.jpg","null","","","","","","","","","","","","","","","","","","","","","","","","",""
"10375","","image-button-response","178","2057014","0.0-176.0","A3E9YVRNEUB9CA","img_art/13.jpg","4","","","","","","","","","","","","","","","","","","","","","","","","",""
"2566","","image-button-response","179","2059580","0.0-177.0-0.0","A3E9YVRNEUB9CA","img_art/13.jpg","3","","","","","","","","","","","","","","","","","","","","","","","","",""
"8848","","image-button-response","180","2068429","0.0-178.0-0.0","A3E9YVRNEUB9CA","img_art/13.jpg","1","","","","","","","","","","","","","","","","","","","","","","","","",""
"null","","html-keyboard-response","181","2069938","0.0-179.0","A3E9YVRNEUB9CA","<p style=""font-size: 48px;"">+</p>","","","","","null","allTrialResponses","1500","1","19","img_art/13.jpg","-21","reminds me of the eighties, but not in a good way, too played out.","Crystal,Marissa,Kelsey,Kaitlyn,Mary,Kayla","Reminiscent of Jackson Pollock and gives me a feeling of chaotic satisfaction,50,300,20","It reminds me of looking out the window on a stormy night at cars drive by,21,160,20","its like the ocean,24,240,20","Like the color choices,7,80,20","I do not care for the colors in this art. it doesnt go well at all.,-15,180,20","Pleasing, happy, rainy.,12,180,20","Mary","I do not care for the colors in this art. it doesnt go well at all.,-15,180,20","Kaitlyn","Like the color choices,7,80,20","Marissa","It reminds me of looking out the window on a stormy night at cars drive by,21,160,20","4"
"36091","","survey-text","182","2106032","0.0-180.0-0.0","A3E9YVRNEUB9CA","","","","{""Q0"":""a volcano erupting, I like the simplicity.""}","","","","","","","","","","","","","","","","","","","","","","",""
"5483.299999952316","","image-slider-response","183","2111517","0.0-181.0","A3E9YVRNEUB9CA","","","","","4","","","","","","","","","","","","","","","","","","","","","",""
"null","","image-button-response","184","2116536","0.0-182.0","A3E9YVRNEUB9CA","img_art/5.jpg","null","","","","","","","","","","","","","","","","","","","","","","","","",""
"566","","image-button-response","185","2117105","0.0-183.0","A3E9YVRNEUB9CA","img_art/5.jpg","4","","","","","","","","","","","","","","","","","","","","","","","","",""
"2461","","image-button-response","186","2119568","0.0-184.0-0.0","A3E9YVRNEUB9CA","img_art/5.jpg","5","","","","","","","","","","","","","","","","","","","","","","","","",""
"21242","","image-button-response","187","2140813","0.0-185.0-0.0","A3E9YVRNEUB9CA","img_art/5.jpg","3","","","","","","","","","","","","","","","","","","","","","","","","",""
"null","","html-keyboard-response","188","2141814","0.0-186.0","A3E9YVRNEUB9CA","<p style=""font-size: 48px;"">+</p>","","","","","null","allTrialResponses","1000","1","20","img_art/5.jpg","4","a volcano erupting, I like the simplicity.","Megan,Marissa,Shelby,Kaitlyn,Mary,Brittany","Cop out, easy money for artist for a 4 min piece,-29,200,20","I am confused as to what I am seeing is it a handbag, duck foot, bell?,-18,160,20","This feels joyful,39,240,20","Wish the background had been kept clean; distracts from main object,11,80,20","This piece has a good flow. I like the yellow with black combo.,11,180,20","Although it's very simple, there's something about the colors that really draws the eye.,11,40,20","Mary","This piece has a good flow. I like the yellow with black combo.,11,180,20","Brittany","Although it's very simple, there's something about the colors that really draws the eye.,11,40,20","Kaitlyn","Wish the background had been kept clean; distracts from main object,11,80,20","4"
"3518","","survey-text","189","2145340","0.0-187.0-0.0","A3E9YVRNEUB9CA","","","","{""Q0"":""we""}","","","","","","","","","","","","","","","","","","","","","","",""
"21986","","survey-text","190","2167326","0.0-188.0-0.0","A3E9YVRNEUB9CA","","","","{""Q0"":""I only see paint smears.""}","","","","","","","","","","","","","","","","","","","","","","",""
"4239.099999964237","","image-slider-response","191","2171566","0.0-189.0","A3E9YVRNEUB9CA","","","","","-18","","","","","","","","","","","","","","","","","","","","","",""
"null","","image-button-response","192","2176569","0.0-190.0","A3E9YVRNEUB9CA","img_art/30.jpg","null","","","","","","","","","","","","","","","","","","","","","","","","",""
"945","","image-button-response","193","2177514","0.0-191.0","A3E9YVRNEUB9CA","img_art/30.jpg","0","","","","","","","","","","","","","","","","","","","","","","","","",""
"9327","","image-button-response","194","2186842","0.0-192.0-0.0","A3E9YVRNEUB9CA","img_art/30.jpg","5","","","","","","","","","","","","","","","","","","","","","","","","",""
"1832","","image-button-response","195","2188676","0.0-193.0-0.0","A3E9YVRNEUB9CA","img_art/30.jpg","3","","","","","","","","","","","","","","","","","","","","","","","","",""
"null","","html-keyboard-response","196","2189679","0.0-194.0","A3E9YVRNEUB9CA","<p style=""font-size: 48px;"">+</p>","","","","","null","allTrialResponses","1000","1","21","img_art/30.jpg","-18","I only see paint smears.","Meghan,Brianna,Miranda,Kaitlyn,Mary,Brittany","nothing special about it,1,220,20","I like the fact that it's a painting.,21,20,20","It looks like it was made by pre-k students.,-30,320,20","Do not like the streaks,-14,80,20","I hate this piece. It looks like a child created it. The colors are awful.,-46,180,20","The colors and the brushstrokes are interesting enough.,17,40,20","Meghan","nothing special about it,1,220,20","Brittany","The colors and the brushstrokes are interesting enough.,17,40,20","Kaitlyn","Do not like the streaks,-14,80,20","4"
"47078","","survey-text","197","2236763","0.0-195.0-0.0","A3E9YVRNEUB9CA","","","","{""Q0"":""mayhem, fighting, loneliness""}","","","","","","","","","","","","","","","","","","","","","","",""
"5426.400000035763","","image-slider-response","198","2242191","0.0-196.0","A3E9YVRNEUB9CA","","","","","-8","","","","","","","","","","","","","","","","","","","","","",""
"null","","image-button-response","199","2247193","0.0-197.0","A3E9YVRNEUB9CA","img_art/18.jpg","null","","","","","","","","","","","","","","","","","","","","","","","","",""
"8726","","image-button-response","200","2255920","0.0-198.0","A3E9YVRNEUB9CA","img_art/18.jpg","2","","","","","","","","","","","","","","","","","","","","","","","","",""
"2855","","image-button-response","201","2258777","0.0-199.0-0.0","A3E9YVRNEUB9CA","img_art/18.jpg","1","","","","","","","","","","","","","","","","","","","","","","","","",""
"5550","","image-button-response","202","2264328","0.0-200.0-0.0","A3E9YVRNEUB9CA","img_art/18.jpg","5","","","","","","","","","","","","","","","","","","","","","","","","",""
"null","","html-keyboard-response","203","2264830","0.0-201.0","A3E9YVRNEUB9CA","<p style=""font-size: 48px;"">+</p>","","","","","null","allTrialResponses","500","1","22","img_art/18.jpg","-8","mayhem, fighting, loneliness","Meghan,Isabella,Sophia,Kaitlyn,Tiffany,Brittany","reminds me of sailors on a boat,17,220,20","Feels like a story of ancient war of the gods,26,280,20","This one is very dark and apocalyptic indeed!,-30,280,20","Umclear what is present in the picture,0,80,20","I'm mildly disgusted by the colors, and can't piece together the story the figures are trying to tell.,-10,360,20","This is really interesting to look at. I like the colors and the spectral look.,27,40,20","Sophia","This one is very dark and apocalyptic indeed!,-30,280,20","Isabella","Feels like a story of ancient war of the gods,26,280,20","Brittany","This is really interesting to look at. I like the colors and the spectral look.,27,40,20","4"
"38677","","survey-text","204","2303512","0.0-202.0-0.0","A3E9YVRNEUB9CA","","","","{""Q0"":""I like the muted background, but the focus confuses me.""}","","","","","","","","","","","","","","","","","","","","","","",""
"3670.400000035763","","image-slider-response","205","2307184","0.0-203.0","A3E9YVRNEUB9CA","","","","","15","","","","","","","","","","","","","","","","","","","","","",""
"null","","image-button-response","206","2312186","0.0-204.0","A3E9YVRNEUB9CA","img_art/14.jpg","null","","","","","","","","","","","","","","","","","","","","","","","","",""
"9681","","image-button-response","207","2321868","0.0-205.0","A3E9YVRNEUB9CA","img_art/14.jpg","3","","","","","","","","","","","","","","","","","","","","","","","","",""
"3126","","image-button-response","208","2324996","0.0-206.0-0.0","A3E9YVRNEUB9CA","img_art/14.jpg","4","","","","","","","","","","","","","","","","","","","","","","","","",""
"2041","","image-button-response","209","2327038","0.0-207.0-0.0","A3E9YVRNEUB9CA","img_art/14.jpg","5","","","","","","","","","","","","","","","","","","","","","","","","",""
"null","","html-keyboard-response","210","2327540","0.0-208.0","A3E9YVRNEUB9CA","<p style=""font-size: 48px;"">+</p>","","","","","null","allTrialResponses","500","1","23","img_art/14.jpg","15","I like the muted background, but the focus confuses me.","Stephanie,Isabella,Sophia,Gabrielle,Grace,Brittany","Late Winter when things are just starting to bloom.,21,300,20","Feels like a camp fire among friends,22,280,20","I don't know why, but this piece makes me happy.,20,280,20","the colors are peaceful and nature colors, soft,37,160,20","Like some of the colors but not much else.,1,180,20","The colors are good and the design is intriguing.,15,40,20","Gabrielle","the colors are peaceful and nature colors, soft,37,160,20","Grace","Like some of the colors but not much else.,1,180,20","Brittany","The colors are good and the design is intriguing.,15,40,20","4"
"34613","","survey-text","211","2362161","0.0-209.0-0.0","A3E9YVRNEUB9CA","","","","{""Q0"":""I don't feel emotions, I just see a modern art piece.""}","","","","","","","","","","","","","","","","","","","","","","",""
"4049.599999964237","","image-slider-response","212","2366212","0.0-210.0","A3E9YVRNEUB9CA","","","","","-4","","","","","","","","","","","","","","","","","","","","","",""
"null","","image-button-response","213","2371214","0.0-211.0","A3E9YVRNEUB9CA","img_art/2.jpg","null","","","","","","","","","","","","","","","","","","","","","","","","",""
"3386","","image-button-response","214","2374602","0.0-212.0","A3E9YVRNEUB9CA","img_art/2.jpg","5","","","","","","","","","","","","","","","","","","","","","","","","",""
"2711","","image-button-response","215","2377315","0.0-213.0-0.0","A3E9YVRNEUB9CA","img_art/2.jpg","3","","","","","","","","","","","","","","","","","","","","","","","","",""
"19582","","image-button-response","216","2396899","0.0-214.0-0.0","A3E9YVRNEUB9CA","img_art/2.jpg","0","","","","","","","","","","","","","","","","","","","","","","","","",""
"null","","html-keyboard-response","217","2397410","0.0-215.0","A3E9YVRNEUB9CA","<p style=""font-size: 48px;"">+</p>","","","","","null","allTrialResponses","500","1","24","img_art/2.jpg","-4","I don't feel emotions, I just see a modern art piece.","Shannon,Diana,Olivia,Gabrielle,Grace,Brittany","I like this picture a little because the colors make it look a little vibrant.,10,220,20","I think I see people sitting in lawn chairs in a circle watching an event. Not really sure so I rated it lower.,-35,380,20","i liked the bright colors,13,40,20","doctor's office art work, nice colors and not offensive,23,160,20","Like the colors but reminds me of a kids show done in cubism.,0,180,20","This one feels rather flat and not engaging.,-15,40,20","Brittany","This one feels rather flat and not engaging.,-15,40,20","Gabrielle","doctor's office art work, nice colors and not offensive,23,160,20","Shannon","I like this picture a little because the colors make it look a little vibrant.,10,220,20","4"
"36951","","survey-text","218","2434366","0.0-216.0-0.0","A3E9YVRNEUB9CA","","","","{""Q0"":""nice, I see a small town farmers market.""}","","","","","","","","","","","","","","","","","","","","","","",""
"3398.5","","image-slider-response","219","2437766","0.0-217.0","A3E9YVRNEUB9CA","","","","","19","","","","","","","","","","","","","","","","","","","","","",""
"null","","image-button-response","220","2442770","0.0-218.0","A3E9YVRNEUB9CA","img_art/19.jpg","null","","","","","","","","","","","","","","","","","","","","","","","","",""
"6717","","image-button-response","221","2449490","0.0-219.0","A3E9YVRNEUB9CA","img_art/19.jpg","2","","","","","","","","","","","","","","","","","","","","","","","","",""
"1221","","image-button-response","222","2450713","0.0-220.0-0.0","A3E9YVRNEUB9CA","img_art/19.jpg","1","","","","","","","","","","","","","","","","","","","","","","","","",""
"9811","","image-button-response","223","2460526","0.0-221.0-0.0","A3E9YVRNEUB9CA","img_art/19.jpg","3","","","","","","","","","","","","","","","","","","","","","","","","",""
"null","","html-keyboard-response","224","2462040","0.0-222.0","A3E9YVRNEUB9CA","<p style=""font-size: 48px;"">+</p>","","","","","null","allTrialResponses","1500","1","25","img_art/19.jpg","19","nice, I see a small town farmers market.","Shannon,Jessica,Amber,Gabrielle,Michelle,Brittany","This looks like a bunch of weird blobs and the colors don't go great together.,-10,220,20","Vibrant and colorful,13,400,20","Reminds me of a busy village.,16,200,20","not professional looking but not bad either,13,160,20","I like the water but again, the small lines with no detail are irritating,3,280,20","It looks too much of a rough sketch. Don't really enjoy looking at it.,-9,40,20","Amber","Reminds me of a busy village.,16,200,20","Jessica","Vibrant and colorful,13,400,20","Gabrielle","not professional looking but not bad either,13,160,20","4"
"5139","","survey-text","225","2467188","0.0-223.0-0.0","A3E9YVRNEUB9CA","","","","{""Q0"":""table""}","","","","","","","","","","","","","","","","","","","","","","",""
"47556","","survey-text","226","2514745","0.0-224.0-0.0","A3E9YVRNEUB9CA","","","","{""Q0"":""A ghost pirate ship on rough waters.""}","","","","","","","","","","","","","","","","","","","","","","",""
"3119.099999964237","","image-slider-response","227","2517866","0.0-225.0","A3E9YVRNEUB9CA","","","","","12","","","","","","","","","","","","","","","","","","","","","",""
"null","","image-button-response","228","2522876","0.0-226.0","A3E9YVRNEUB9CA","img_art/10.jpg","null","","","","","","","","","","","","","","","","","","","","","","","","",""
"2676","","image-button-response","229","2525553","0.0-227.0","A3E9YVRNEUB9CA","img_art/10.jpg","4","","","","","","","","","","","","","","","","","","","","","","","","",""
"5814","","image-button-response","230","2531369","0.0-228.0-0.0","A3E9YVRNEUB9CA","img_art/10.jpg","1","","","","","","","","","","","","","","","","","","","","","","","","",""
"4881","","image-button-response","231","2536251","0.0-229.0-0.0","A3E9YVRNEUB9CA","img_art/10.jpg","5","","","","","","","","","","","","","","","","","","","","","","","","",""
"null","","html-keyboard-response","232","2537252","0.0-230.0","A3E9YVRNEUB9CA","<p style=""font-size: 48px;"">+</p>","","","","","null","allTrialResponses","1000","1","26","img_art/10.jpg","12","A ghost pirate ship on rough waters.","Jordan,Jessica,Amber,Gabrielle,Dominique,Michaela","I dont like it, there is too much going on,-19,20,20","I feel like this has a cool concept behind it.,11,400,20","This picture just seems depressing.,-26,200,20","interesting portrayal of a violin?,10,160,20","A very conversational piece could be of many different ideas,38,400,20","It looks like it's sinking but it could also be a view from above,40,260,20","Dominique","A very conversational piece could be of many different ideas,38,400,20","Jessica","I feel like this has a cool concept behind it.,11,400,20","Michaela","It looks like it's sinking but it could also be a view from above,40,260,20","4"
"21275","","survey-text","233","2558531","0.0-231.0-0.0","A3E9YVRNEUB9CA","","","","{""Q0"":""I love this, a village in the hills.""}","","","","","","","","","","","","","","","","","","","","","","",""
"5091.199999988079","","image-slider-response","234","2563624","0.0-232.0","A3E9YVRNEUB9CA","","","","","37","","","","","","","","","","","","","","","","","","","","","",""
"2810","","image-button-response","235","2568626","0.0-233.0","A3E9YVRNEUB9CA","img_art/11.jpg","4","","","","","","","","","","","","","","","","","","","","","","","","",""
"3839","","image-button-response","236","2572465","0.0-234.0","A3E9YVRNEUB9CA","img_art/11.jpg","4","","","","","","","","","","","","","","","","","","","","","","","","",""
"4798","","image-button-response","237","2577264","0.0-235.0-0.0","A3E9YVRNEUB9CA","img_art/11.jpg","2","","","","","","","","","","","","","","","","","","","","","","","","",""
"1603","","image-button-response","238","2578869","0.0-236.0-0.0","A3E9YVRNEUB9CA","img_art/11.jpg","1","","","","","","","","","","","","","","","","","","","","","","","","",""
"null","","html-keyboard-response","239","2580376","0.0-237.0","A3E9YVRNEUB9CA","<p style=""font-size: 48px;"">+</p>","","","","","null","allTrialResponses","1500","1","27","img_art/11.jpg","37","I love this, a village in the hills.","Sara,Jessica,Kristen,Laura,Dominique,Michaela","Looks sad but clean,31,160,20","This looks cool, and definitely comes to life in a way,36,400,20","small town, friendly. calm,35,280,20","i think of beatnik music and dark piano lounges,25,320,20","Looks like a familiar area,31,400,20","Reminds me of a city and how chaotic it can be,22,260,20","Dominique","Looks like a familiar area,31,400,20","Kristen","small town, friendly. calm,35,280,20","Jessica","This looks cool, and definitely comes to life in a way,36,400,20","4"
"41797","","survey-text","240","2622179","0.0-238.0-0.0","A3E9YVRNEUB9CA","","","","{""Q0"":""I see trees in someone's Livingroom, but that's not a bad thing.""}","","","","","","","","","","","","","","","","","","","","","","",""
"3344.7999999523163","","image-slider-response","241","2625525","0.0-239.0","A3E9YVRNEUB9CA","","","","","13","","","","","","","","","","","","","","","","","","","","","",""
"null","","image-button-response","242","2630527","0.0-240.0","A3E9YVRNEUB9CA","img_art/26.jpg","null","","","","","","","","","","","","","","","","","","","","","","","","",""
"3250","","image-button-response","243","2633780","0.0-241.0","A3E9YVRNEUB9CA","img_art/26.jpg","4","","","","","","","","","","","","","","","","","","","","","","","","",""
"1521","","image-button-response","244","2635301","0.0-242.0-0.0","A3E9YVRNEUB9CA","img_art/26.jpg","3","","","","","","","","","","","","","","","","","","","","","","","","",""
"10825","","image-button-response","245","2646128","0.0-243.0-0.0","A3E9YVRNEUB9CA","img_art/26.jpg","2","","","","","","","","","","","","","","","","","","","","","","","","",""
"null","","html-keyboard-response","246","2646630","0.0-244.0","A3E9YVRNEUB9CA","<p style=""font-size: 48px;"">+</p>","","","","","null","allTrialResponses","500","1","28","img_art/26.jpg","13","I see trees in someone's Livingroom, but that's not a bad thing.","Monica,Jessica,Kristen,Jasmine,Dominique,Chloe","It looks empty and unfinished,-28,360,20","It doesn't look so vibrant, I'm not sure what feelings they were trying to capture,-41,400,20","happy, park, childhood,9,280,20","This seems like a quiet painting,11,340,20","Small town and home feel on A nice day.,28,400,20","Not great use of space and brush strokes seem indistinct/accidental,-30,220,20","Dominique","Small town and home feel on A nice day.,28,400,20","Jasmine","This seems like a quiet painting,11,340,20","Kristen","happy, park, childhood,9,280,20","4"
"30473","","survey-text","247","2677120","0.0-245.0-0.0","A3E9YVRNEUB9CA","","","","{""Q0"":""not for me, not even for a childs room.""}","","","","","","","","","","","","","","","","","","","","","","",""
"3407.699999988079","","image-slider-response","248","2680530","0.0-246.0","A3E9YVRNEUB9CA","","","","","-33","","","","","","","","","","","","","","","","","","","","","",""
"null","","image-button-response","249","2685545","0.0-247.0","A3E9YVRNEUB9CA","img_art/16.jpg","null","","","","","","","","","","","","","","","","","","","","","","","","",""
"395","","image-button-response","250","2685942","0.0-248.0","A3E9YVRNEUB9CA","img_art/16.jpg","0","","","","","","","","","","","","","","","","","","","","","","","","",""
"2002","","image-button-response","251","2687945","0.0-249.0-0.0","A3E9YVRNEUB9CA","img_art/16.jpg","2","","","","","","","","","","","","","","","","","","","","","","","","",""
"8833","","image-button-response","252","2696780","0.0-250.0-0.0","A3E9YVRNEUB9CA","img_art/16.jpg","5","","","","","","","","","","","","","","","","","","","","","","","","",""
"null","","html-keyboard-response","253","2698285","0.0-251.0","A3E9YVRNEUB9CA","<p style=""font-size: 48px;"">+</p>","","","","","null","allTrialResponses","1500","1","29","img_art/16.jpg","-33","not for me, not even for a childs room.","Mikayla,Claire,Kristen,Jasmine,Dominique,Alyssa","The teddy bear is scary as hell.,-44,300,20","the materials used are interesting,30,260,20","sad. desth of childhood,-5,280,20","I like it because it's quite different from the rest,23,340,20","Toys toys toys. Happy playful free spirit,30,400,20","It creeps me out.,-50,160,20","Mikayla","The teddy bear is scary as hell.,-44,300,20","Kristen","sad. desth of childhood,-5,280,20","Alyssa","It creeps me out.,-50,160,20","4"
"21269","","survey-text","254","2719563","0.0-252.0-0.0","A3E9YVRNEUB9CA","","","","{""Q0"":""I feel pain, and unrest.""}","","","","","","","","","","","","","","","","","","","","","","",""
"4553.800000011921","","image-slider-response","255","2724118","0.0-253.0","A3E9YVRNEUB9CA","","","","","-26","","","","","","","","","","","","","","","","","","","","","",""
"null","","image-button-response","256","2729120","0.0-254.0","A3E9YVRNEUB9CA","img_art/3.jpg","null","","","","","","","","","","","","","","","","","","","","","","","","",""
"1328","","image-button-response","257","2730449","0.0-255.0","A3E9YVRNEUB9CA","img_art/3.jpg","0","","","","","","","","","","","","","","","","","","","","","","","","",""
"1672","","image-button-response","258","2732122","0.0-256.0-0.0","A3E9YVRNEUB9CA","img_art/3.jpg","2","","","","","","","","","","","","","","","","","","","","","","","","",""
"5679","","image-button-response","259","2737803","0.0-257.0-0.0","A3E9YVRNEUB9CA","img_art/3.jpg","3","","","","","","","","","","","","","","","","","","","","","","","","",""
"null","","html-keyboard-response","260","2738304","0.0-258.0","A3E9YVRNEUB9CA","<p style=""font-size: 48px;"">+</p>","","","","","null","allTrialResponses","500","1","30","img_art/3.jpg","-26","I feel pain, and unrest.","Mikayla,Leah,Kristen,Paige,Jennifer,Alyssa","Scary. Looks like blood.,-45,300,20","Scratchy scrawly all one color, looks like a mistake,-28,360,20","anger, blood, death,-24,280,20","seems too angry,-50,60,20","This looks like something a child created in 5 minutes.,-50,380,20","Looks like someone spilled ketchup and forgot to clean it up,-30,160,20","Mikayla","Scary. Looks like blood.,-45,300,20","Kristen","anger, blood, death,-24,280,20","Paige","seems too angry,-50,60,20","4"
"7334","","image-button-response_instructions","261","2745643","0.0-259.0","A3E9YVRNEUB9CA","","0","instructions","","","","","","","","","","","","","","","","","","","","","","","",""
"1646","","image-button-response","262","2747294","0.0-260.0","A3E9YVRNEUB9CA","","0","","","","","","","","","","","","","","","","","","","","","","","","",""
