"rt","url","trial_type","trial_index","time_elapsed","internal_node_id","participant_id","stimulus","button_pressed","Name","responses","response","key_press","variableName","fixationTime","condition","trial","photo","subjectRating","subjectResponse","agentsNames","agent_1_Response","agent_2_Response","agent_3_Response","agent_4_Response","agent_5_Response","agent_6_Response","kept_1_name","kept_1_response","kept_2_name","kept_2_response","kept_3_name","kept_3_response","errorCounter"
"1333296","external_page_harvard.html","external-html","0","1333454","0.0-0.0","A3EGV6547B8F0B","","","","","","","","","","","","","","","","","","","","","","","","","","",""
"3137","","image-button-response","1","1336596","0.0-1.0","A3EGV6547B8F0B","","1","","","","","","","","","","","","","","","","","","","","","","","","",""
"5468","","image-button-response","2","1342077","0.0-2.0-0.0","A3EGV6547B8F0B","","1","phone","","","","","","","","","","","","","","","","","","","","","","","",""
"15678","","survey-text","3","1357759","0.0-3.0-0.0","A3EGV6547B8F0B","","","","{""Q0"":""A3EGV6547B8F0B""}","","","","","","","","","","","","","","","","","","","","","","",""
"16291","","image-button-response_instructions","4","1374054","0.0-4.0","A3EGV6547B8F0B","","0","instructions","","","","","","","","","","","","","","","","","","","","","","","",""
"25613","","image-button-response_instructions","5","1399669","0.0-5.0","A3EGV6547B8F0B","img_art/ins/popularity/ins1.png","0","instructions","","","","","","","","","","","","","","","","","","","","","","","",""
"19221","","image-button-response_instructions","6","1418893","0.0-6.0","A3EGV6547B8F0B","img_art/ins/popularity/ins2.png","0","instructions","","","","","","","","","","","","","","","","","","","","","","","",""
"14312","","image-button-response_instructions","7","1433207","0.0-7.0","A3EGV6547B8F0B","img_art/ins/popularity/ins2Extreme.png","0","instructions","","","","","","","","","","","","","","","","","","","","","","","",""
"12103","","image-button-response_instructions","8","1445314","0.0-8.0","A3EGV6547B8F0B","img_art/ins/popularity/ins3KEEPpop.PNG","0","instructions","","","","","","","","","","","","","","","","","","","","","","","",""
"8567","","image-button-response_instructions","9","1453884","0.0-9.0","A3EGV6547B8F0B","img_art/ins/popularity/ins3ANamepop.PNG","0","instructions","","","","","","","","","","","","","","","","","","","","","","","",""
"7858","","image-button-response_instructions","10","1461744","0.0-10.0","A3EGV6547B8F0B","img_art/ins/popularity/ins3ARatingpop.png","0","instructions","","","","","","","","","","","","","","","","","","","","","","","",""
"7553","","image-button-response_instructions","11","1469299","0.0-11.0","A3EGV6547B8F0B","img_art/ins/popularity/ins3ATextpop.png","0","instructions","","","","","","","","","","","","","","","","","","","","","","","",""
"13471","","image-button-response_instructions","12","1482772","0.0-12.0","A3EGV6547B8F0B","img_art/ins/popularity/ins3ALikespop.png","0","instructions","","","","","","","","","","","","","","","","","","","","","","","",""
"30295","","image-button-response_instructions","13","1513070","0.0-13.0","A3EGV6547B8F0B","img_art/ins/popularity/ins3KEEPpop.PNG","0","instructions","","","","","","","","","","","","","","","","","","","","","","","",""
"7894","","image-button-response_instructions","14","1520967","0.0-14.0","A3EGV6547B8F0B","img_art/ins/popularity/ins3_5RED.png","0","instructions","","","","","","","","","","","","","","","","","","","","","","","",""
"8033","","image-button-response_instructions","15","1529003","0.0-15.0","A3EGV6547B8F0B","img_art/ins/popularity/ins3KEEPpop.PNG","0","instructions","","","","","","","","","","","","","","","","","","","","","","","",""
"25690","","image-button-response_instructions","16","1554696","0.0-16.0","A3EGV6547B8F0B","img_art/ins/popularity/ins4KEEPpop.PNG","0","instructions","","","","","","","","","","","","","","","","","","","","","","","",""
"30258","","image-button-response_instructions","17","1584956","0.0-17.0","A3EGV6547B8F0B","img_art/ins/popularity/ins5KEEPpop.PNG","0","instructions","","","","","","","","","","","","","","","","","","","","","","","",""
"3289","","image-button-response_instructions","18","1588248","0.0-18.0","A3EGV6547B8F0B","","0","instructions","","","","","","","","","","","","","","","","","","","","","","","",""
"11801","","survey-text","19","1600118","0.0-19.0-0.0","A3EGV6547B8F0B","","","","{""Q0"":""but""}","","","","","","","","","","","","","","","","","","","","","","",""
"51511","","survey-text","20","1651634","0.0-20.0-0.0","A3EGV6547B8F0B","","","","{""Q0"":""very interesting and artistic""}","","","","","","","","","","","","","","","","","","","","","","",""
"8623.39999999851","","image-slider-response","21","1660264","0.0-21.0","A3EGV6547B8F0B","","","","","13","","","","","","","","","","","","","","","","","","","","","",""
"null","","image-button-response","22","1665272","0.0-22.0","A3EGV6547B8F0B","img_art/ins/1.jpg","null","","","","","","","","","","","","","","","","","","","","","","","","",""
"2363","","image-button-response","23","1667638","0.0-23.0","A3EGV6547B8F0B","img_art/ins/1.jpg","0","","","","","","","","","","","","","","","","","","","","","","","","",""
"1795","","image-button-response","24","1669439","0.0-24.0-0.0","A3EGV6547B8F0B","img_art/ins/1.jpg","4","","","","","","","","","","","","","","","","","","","","","","","","",""
"1307","","image-button-response","25","1670752","0.0-25.0-0.0","A3EGV6547B8F0B","img_art/ins/1.jpg","5","","","","","","","","","","","","","","","","","","","","","","","","",""
"null","","html-keyboard-response","26","1671757","0.0-26.0","A3EGV6547B8F0B","<p style=""font-size: 48px;"">+</p>","","","","","null","allTrialResponses","1000","1","-2","img_art/ins/1.jpg","13","very interesting and artistic","Allison,Ashley,Beth,Dora,Erika,Jen","looks like a lot of things going on in the mist,20,20,20","I just don't get why these type of art would be popular,-32,40,20","This color reminds me of poo,-46,60,20","looks like what my niece in 3rd grade did this afternoon,-50,80,20","I like the sophisticated brushwork,40,100,20","It reminds me of a candy land dream I had,36,120,20","Allison","looks like a lot of things going on in the mist,20,20,20","Erika","I like the sophisticated brushwork,40,100,20","Jen","It reminds me of a candy land dream I had,36,120,20","0"
"29428","","survey-text","27","1701199","0.0-27.0-0.0","A3EGV6547B8F0B","","","","{""Q0"":""love it very artistic""}","","","","","","","","","","","","","","","","","","","","","","",""
"14597.69999999553","","image-slider-response","28","1715800","0.0-28.0","A3EGV6547B8F0B","","","","","17","","","","","","","","","","","","","","","","","","","","","",""
"null","","image-button-response","29","1720806","0.0-29.0","A3EGV6547B8F0B","img_art/ins/2.jpg","null","","","","","","","","","","","","","","","","","","","","","","","","",""
"2152","","image-button-response","30","1722962","0.0-30.0","A3EGV6547B8F0B","img_art/ins/2.jpg","0","","","","","","","","","","","","","","","","","","","","","","","","",""
"1486","","image-button-response","31","1724452","0.0-31.0-0.0","A3EGV6547B8F0B","img_art/ins/2.jpg","1","","","","","","","","","","","","","","","","","","","","","","","","",""
"3265","","image-button-response","32","1727722","0.0-32.0-0.0","A3EGV6547B8F0B","img_art/ins/2.jpg","5","","","","","","","","","","","","","","","","","","","","","","","","",""
"null","","html-keyboard-response","33","1728226","0.0-33.0","A3EGV6547B8F0B","<p style=""font-size: 48px;"">+</p>","","","","","null","allTrialResponses","500","1","-1","img_art/ins/2.jpg","17","love it very artistic","Allison,Kara,Katie,Jenna,Erika,Jen","I don't have strong feelings about this,10,20,20","I like the blocks of color arrangements,30,160,20","too much color!,-28,180,20","One of my pet peevs,-48,140,20","I would never be able to compose a sophisticated pallete like this,48,100,20","It reminds me of a fireplace,36,120,20","Allison","I don't have strong feelings about this,10,20,20","Kara","I like the blocks of color arrangements,30,160,20","Jen","It reminds me of a fireplace,36,120,20","0"
"26248","","survey-text","34","1754488","0.0-34.0-0.0","A3EGV6547B8F0B","","","","{""Q0"":""makes me think of winter""}","","","","","","","","","","","","","","","","","","","","","","",""
"38668.89999999851","","image-slider-response","35","1793161","0.0-35.0","A3EGV6547B8F0B","","","","","20","","","","","","","","","","","","","","","","","","","","","",""
"2514","","image-button-response","36","1798167","0.0-36.0","A3EGV6547B8F0B","img_art/ins/3.jpg","0","","","","","","","","","","","","","","","","","","","","","","","","",""
"3454","","image-button-response","37","1801624","0.0-37.0","A3EGV6547B8F0B","img_art/ins/3.jpg","0","","","","","","","","","","","","","","","","","","","","","","","","",""
"2011","","image-button-response","38","1803638","0.0-38.0-0.0","A3EGV6547B8F0B","img_art/ins/3.jpg","3","","","","","","","","","","","","","","","","","","","","","","","","",""
"2562","","image-button-response","39","1806205","0.0-39.0-0.0","A3EGV6547B8F0B","img_art/ins/3.jpg","5","","","","","","","","","","","","","","","","","","","","","","","","",""
"null","","html-keyboard-response","40","1807209","0.0-40.0","A3EGV6547B8F0B","<p style=""font-size: 48px;"">+</p>","","","","","null","allTrialResponses","1000","1","0","img_art/ins/3.jpg","20","makes me think of winter","Allison,Kara,Rose,Leslie,Mary,Jen","enjoy the different shades of blue,22,20,20","calming blue is very nice,36,160,20","My daily routine, it's depressing,-20,240,20","It's an alright work,15,200,20","I like the overlapping of brushes,41,220,20","I can feel a rainy day from this painting,18,120,20","Allison","enjoy the different shades of blue,22,20,20","Leslie","It's an alright work,15,200,20","Jen","I can feel a rainy day from this painting,18,120,20","0"
"43053","","image-button-response_instructions","41","1850276","0.0-41.0","A3EGV6547B8F0B","","0","instructions","","","","","","","","","","","","","","","","","","","","","","","",""
"45714","","survey-likert","42","1895994","0.0-42.0-0.0","A3EGV6547B8F0B","","","","{""Q0"":"""",""Q1"":0,""Q2"":1}","","","","","","","","","","","","","","","","","","","","","","",""
"8647","","survey-text","43","1904654","0.0-43.0-0.0","A3EGV6547B8F0B","","","","{""Q0"":""rock""}","","","","","","","","","","","","","","","","","","","","","","",""
"13106","","survey-text","44","1917762","0.0-44.0-0.0","A3EGV6547B8F0B","","","","{""Q0"":""very dramatic""}","","","","","","","","","","","","","","","","","","","","","","",""
"12966.29999999702","","image-slider-response","45","1930733","0.0-45.0","A3EGV6547B8F0B","","","","","6","","","","","","","","","","","","","","","","","","","","","",""
"null","","image-button-response","46","1935803","0.0-46.0","A3EGV6547B8F0B","img_art/21.jpg","null","","","","","","","","","","","","","","","","","","","","","","","","",""
"2486","","image-button-response","47","1938293","0.0-47.0","A3EGV6547B8F0B","img_art/21.jpg","5","","","","","","","","","","","","","","","","","","","","","","","","",""
"5956","","image-button-response","48","1944254","0.0-48.0-0.0","A3EGV6547B8F0B","img_art/21.jpg","5","","","","","","","","","","","","","","","","","","","","","","","","",""
"2676","","image-button-response","49","1954596","0.0-48.1-0.1","A3EGV6547B8F0B","img_art/21.jpg","0","","","","","","","","","","","","","","","","","","","","","","","","",""
"2004","","image-button-response","50","1956606","0.0-49.0-0.0","A3EGV6547B8F0B","img_art/21.jpg","3","","","","","","","","","","","","","","","","","","","","","","","","",""
"null","","html-keyboard-response","51","1957110","0.0-50.0","A3EGV6547B8F0B","<p style=""font-size: 48px;"">+</p>","","","","","null","allTrialResponses","500","1","1","img_art/21.jpg","6","very dramatic","Makayla,Kaylee,Taylor,Leslie,Brooke,Rebecca","I like the two sides meeting, like a movie scene,15,80,20","looks like a sea during some war,27,200,20","I love the contrasting tones between the two sides,36,340,20","The colors make me think of a perilous scene at sea, and are pretty interesting.,15,380,20","Like the colors. Don't like the white dots on the right side of the painting though.,15,60,20","stormy with gold lining,0,100,20","Rebecca","stormy with gold lining,0,100,20","Makayla","I like the two sides meeting, like a movie scene,15,80,20","Leslie","The colors make me think of a perilous scene at sea, and are pretty interesting.,15,380,20","2"
"23205","","survey-text","52","1980325","0.0-51.0-0.0","A3EGV6547B8F0B","","","","{""Q0"":""reminds me of a rainy day""}","","","","","","","","","","","","","","","","","","","","","","",""
"29358.5","","image-slider-response","53","2009687","0.0-52.0","A3EGV6547B8F0B","","","","","0","","","","","","","","","","","","","","","","","","","","","",""
"null","","image-button-response","54","2014692","0.0-53.0","A3EGV6547B8F0B","img_art/13.jpg","null","","","","","","","","","","","","","","","","","","","","","","","","",""
"415","","image-button-response","55","2015111","0.0-54.0","A3EGV6547B8F0B","img_art/13.jpg","3","","","","","","","","","","","","","","","","","","","","","","","","",""
"3254","","image-button-response","56","2018370","0.0-55.0-0.0","A3EGV6547B8F0B","img_art/13.jpg","0","","","","","","","","","","","","","","","","","","","","","","","","",""
"2474","","image-button-response","57","2020852","0.0-56.0-0.0","A3EGV6547B8F0B","img_art/13.jpg","5","","","","","","","","","","","","","","","","","","","","","","","","",""
"null","","html-keyboard-response","58","2021866","0.0-57.0","A3EGV6547B8F0B","<p style=""font-size: 48px;"">+</p>","","","","","null","allTrialResponses","1000","1","2","img_art/13.jpg","0","reminds me of a rainy day","Makayla,Gabrielle,Madeline,Leslie,Anna,Rebecca","Reminds me of the aquarium,4,80,20","kind of like the pattern and colors but don't love it,13,160,20","Really love the colors,11,40,20","This elicits no reaction in me.,0,380,20","It reminds me of a window on a rainy day.,40,300,20","love the style but not very novel,9,100,20","Leslie","This elicits no reaction in me.,0,380,20","Makayla","Reminds me of the aquarium,4,80,20","Rebecca","love the style but not very novel,9,100,20","2"
"30683","","survey-text","59","2052558","0.0-58.0-0.0","A3EGV6547B8F0B","","","","{""Q0"":""very imaginable ""}","","","","","","","","","","","","","","","","","","","","","","",""
"6539.29999999702","","image-slider-response","60","2059101","0.0-59.0","A3EGV6547B8F0B","","","","","28","","","","","","","","","","","","","","","","","","","","","",""
"null","","image-button-response","61","2064105","0.0-60.0","A3EGV6547B8F0B","img_art/23.jpg","null","","","","","","","","","","","","","","","","","","","","","","","","",""
"821","","image-button-response","62","2064931","0.0-61.0","A3EGV6547B8F0B","img_art/23.jpg","5","","","","","","","","","","","","","","","","","","","","","","","","",""
"2499","","image-button-response","63","2067435","0.0-62.0-0.0","A3EGV6547B8F0B","img_art/23.jpg","4","","","","","","","","","","","","","","","","","","","","","","","","",""
"3977","","image-button-response","64","2071417","0.0-63.0-0.0","A3EGV6547B8F0B","img_art/23.jpg","2","","","","","","","","","","","","","","","","","","","","","","","","",""
"null","","html-keyboard-response","65","2071921","0.0-64.0","A3EGV6547B8F0B","<p style=""font-size: 48px;"">+</p>","","","","","null","allTrialResponses","500","1","3","img_art/23.jpg","28","very imaginable ","Makayla,Katie,Erin,Leslie,Hannah,Rebecca","Reminds me of disco/70's, not my favorite design,-12,80,20","I don't get it! the white in the middle of the speckled rainbow is confusing.,-10,160,20","Confetti dancer,-7,120,20","It reminds me of being in a crowded place.,-10,380,20","This one is interesting. Looks like people with maybe musical instruments?,11,240,20","love the contrast (was this painted by a left-handed artist?),7,100,20","Rebecca","love the contrast (was this painted by a left-handed artist?),7,100,20","Hannah","This one is interesting. Looks like people with maybe musical instruments?,11,240,20","Erin","Confetti dancer,-7,120,20","2"
"58744","","survey-text","66","2130679","0.0-65.0-0.0","A3EGV6547B8F0B","","","","{""Q0"":""I can imagine a lot in this picture""}","","","","","","","","","","","","","","","","","","","","","","",""
"7144.5","","image-slider-response","67","2137827","0.0-66.0","A3EGV6547B8F0B","","","","","2","","","","","","","","","","","","","","","","","","","","","",""
"4534","","image-button-response","68","2142832","0.0-67.0","A3EGV6547B8F0B","img_art/22.jpg","0","","","","","","","","","","","","","","","","","","","","","","","","",""
"1262","","image-button-response","69","2144101","0.0-68.0","A3EGV6547B8F0B","img_art/22.jpg","4","","","","","","","","","","","","","","","","","","","","","","","","",""
"1733","","image-button-response","70","2145838","0.0-69.0-0.0","A3EGV6547B8F0B","img_art/22.jpg","5","","","","","","","","","","","","","","","","","","","","","","","","",""
"2354","","image-button-response","71","2148196","0.0-70.0-0.0","A3EGV6547B8F0B","img_art/22.jpg","0","","","","","","","","","","","","","","","","","","","","","","","","",""
"null","","html-keyboard-response","72","2149700","0.0-71.0","A3EGV6547B8F0B","<p style=""font-size: 48px;"">+</p>","","","","","null","allTrialResponses","1500","1","4","img_art/22.jpg","2","I can imagine a lot in this picture","Melissa,Angelica,Erin,Samantha,Hannah,Rebecca","strong blending skills,7,240,20","It's bland and ugly.,-21,280,20","Seems dated with geometic forms,-20,120,20","Pretty colors but something seems sinister about it,25,140,20","This one would work in the right frame. It's nice.,20,240,20","colorful water (in front of castle?),17,100,20","Hannah","This one would work in the right frame. It's nice.,20,240,20","Rebecca","colorful water (in front of castle?),17,100,20","Melissa","strong blending skills,7,240,20","2"
"24520","","survey-text","73","2174232","0.0-72.0-0.0","A3EGV6547B8F0B","","","","{""Q0"":""reminds me of drawings I would see in a cave""}","","","","","","","","","","","","","","","","","","","","","","",""
"7236","","image-slider-response","74","2181472","0.0-73.0","A3EGV6547B8F0B","","","","","25","","","","","","","","","","","","","","","","","","","","","",""
"null","","image-button-response","75","2186478","0.0-74.0","A3EGV6547B8F0B","img_art/25.jpg","null","","","","","","","","","","","","","","","","","","","","","","","","",""
"1088","","image-button-response","76","2187569","0.0-75.0","A3EGV6547B8F0B","img_art/25.jpg","2","","","","","","","","","","","","","","","","","","","","","","","","",""
"4540","","image-button-response","77","2192114","0.0-76.0-0.0","A3EGV6547B8F0B","img_art/25.jpg","4","","","","","","","","","","","","","","","","","","","","","","","","",""
"1437","","image-button-response","78","2193556","0.0-77.0-0.0","A3EGV6547B8F0B","img_art/25.jpg","0","","","","","","","","","","","","","","","","","","","","","","","","",""
"null","","html-keyboard-response","79","2195060","0.0-78.0","A3EGV6547B8F0B","<p style=""font-size: 48px;"">+</p>","","","","","null","allTrialResponses","1500","1","5","img_art/25.jpg","25","reminds me of drawings I would see in a cave","Melissa,Kayla,Jennifer,Destiny,Hannah,Rebecca","do not like that color of green,-11,240,20","Ghosts are NOT my thing.,-13,180,20","Spooky, but in a good way. I like the green and black color palette.,42,380,20","creeeeeppyyyyyyy but mad cool,-26,360,20","Looks like a voodoo figure in a New Orleans cemetery at night.,-5,240,20","I'm sorry but I don't uderstand this,-20,100,20","Jennifer","Spooky, but in a good way. I like the green and black color palette.,42,380,20","Hannah","Looks like a voodoo figure in a New Orleans cemetery at night.,-5,240,20","Melissa","do not like that color of green,-11,240,20","2"
"4966","","survey-text","80","2200053","0.0-79.0-0.0","A3EGV6547B8F0B","","","","{""Q0"":""sky""}","","","","","","","","","","","","","","","","","","","","","","",""
"29210","","survey-text","81","2229267","0.0-80.0-0.0","A3EGV6547B8F0B","","","","{""Q0"":""very different""}","","","","","","","","","","","","","","","","","","","","","","",""
"6075.69999999553","","image-slider-response","82","2235346","0.0-81.0","A3EGV6547B8F0B","","","","","2","","","","","","","","","","","","","","","","","","","","","",""
"4235","","image-button-response","83","2240351","0.0-82.0","A3EGV6547B8F0B","img_art/6.jpg","2","","","","","","","","","","","","","","","","","","","","","","","","",""
"1623","","image-button-response","84","2241977","0.0-83.0","A3EGV6547B8F0B","img_art/6.jpg","2","","","","","","","","","","","","","","","","","","","","","","","","",""
"1450","","image-button-response","85","2243431","0.0-84.0-0.0","A3EGV6547B8F0B","img_art/6.jpg","4","","","","","","","","","","","","","","","","","","","","","","","","",""
"2622","","image-button-response","86","2246058","0.0-85.0-0.0","A3EGV6547B8F0B","img_art/6.jpg","3","","","","","","","","","","","","","","","","","","","","","","","","",""
"null","","html-keyboard-response","87","2246568","0.0-86.0","A3EGV6547B8F0B","<p style=""font-size: 48px;"">+</p>","","","","","null","allTrialResponses","500","1","6","img_art/6.jpg","2","very different","Melissa,Emily,Jennifer,Chloe,Hannah,Natalie","composition is engaging,28,240,20","Looks like a kid created it.,-50,40,20","I am neutral towards this piece.,0,380,20","Cute and evocative,11,220,20","Looks like a bird. It's fine.,7,240,20","reminds me a giant peach,19,400,20","Jennifer","I am neutral towards this piece.,0,380,20","Hannah","Looks like a bird. It's fine.,7,240,20","Chloe","Cute and evocative,11,220,20","2"
"24495","","survey-text","88","2271076","0.0-87.0-0.0","A3EGV6547B8F0B","","","","{""Q0"":""reminds me of a piece of artistic wood my fiance made""}","","","","","","","","","","","","","","","","","","","","","","",""
"5976.20000000298","","image-slider-response","89","2277056","0.0-88.0","A3EGV6547B8F0B","","","","","22","","","","","","","","","","","","","","","","","","","","","",""
"4247","","image-button-response","90","2282061","0.0-89.0","A3EGV6547B8F0B","img_art/4.jpg","0","","","","","","","","","","","","","","","","","","","","","","","","",""
"496","","image-button-response","91","2282562","0.0-90.0","A3EGV6547B8F0B","img_art/4.jpg","3","","","","","","","","","","","","","","","","","","","","","","","","",""
"4713","","image-button-response","92","2287280","0.0-91.0-0.0","A3EGV6547B8F0B","img_art/4.jpg","4","","","","","","","","","","","","","","","","","","","","","","","","",""
"2766","","image-button-response","93","2290052","0.0-92.0-0.0","A3EGV6547B8F0B","img_art/4.jpg","0","","","","","","","","","","","","","","","","","","","","","","","","",""
"null","","html-keyboard-response","94","2291556","0.0-93.0","A3EGV6547B8F0B","<p style=""font-size: 48px;"">+</p>","","","","","null","allTrialResponses","1500","1","7","img_art/4.jpg","22","reminds me of a piece of artistic wood my fiance made","Gabriela,Megan,Jennifer,Chloe,Hannah,Sarah","The bold colors are exciting. It looks like a statue on someone's mantle.,18,140,20","Better version of a 7 year old who got lucky,-23,200,20","Ugly and bland compared to the other pieces.,-33,380,20","Great movement but don't love the yellowy tones.,31,220,20","looks very rudimentary and too simple.,-14,240,20","too many red/yellow shades, its impact without a reason,-27,180,20","Chloe","Great movement but don't love the yellowy tones.,31,220,20","Hannah","looks very rudimentary and too simple.,-14,240,20","Gabriela","The bold colors are exciting. It looks like a statue on someone's mantle.,18,140,20","2"
"69468","","survey-text","95","2361038","0.0-94.0-0.0","A3EGV6547B8F0B","","","","{""Q0"":""someone could be painting a picture of a construction job""}","","","","","","","","","","","","","","","","","","","","","","",""
"5021","","image-slider-response","96","2366063","0.0-95.0","A3EGV6547B8F0B","","","","","30","","","","","","","","","","","","","","","","","","","","","",""
"null","","image-button-response","97","2371070","0.0-96.0","A3EGV6547B8F0B","img_art/29.jpg","null","","","","","","","","","","","","","","","","","","","","","","","","",""
"888","","image-button-response","98","2371964","0.0-97.0","A3EGV6547B8F0B","img_art/29.jpg","1","","","","","","","","","","","","","","","","","","","","","","","","",""
"1580","","image-button-response","99","2373548","0.0-98.0-0.0","A3EGV6547B8F0B","img_art/29.jpg","0","","","","","","","","","","","","","","","","","","","","","","","","",""
"2992","","image-button-response","100","2376545","0.0-99.0-0.0","A3EGV6547B8F0B","img_art/29.jpg","0","","","","","","","","","","","","","","","","","","","","","","","","",""
"1411","","image-button-response","101","2384041","0.0-99.1-0.1","A3EGV6547B8F0B","img_art/29.jpg","5","","","","","","","","","","","","","","","","","","","","","","","","",""
"null","","html-keyboard-response","102","2385545","0.0-100.0","A3EGV6547B8F0B","<p style=""font-size: 48px;"">+</p>","","","","","null","allTrialResponses","1500","1","8","img_art/29.jpg","30","someone could be painting a picture of a construction job","Gabriela,Brittany,Amber,Chloe,Hannah,Jasmine","I like that it looks like a scene from perhaps a failed painted project,10,140,20","It looks likes there's a lot going on, but they don't fit together.,2,40,20","Don't like the red X across the painting.,-15,200,20","Looks muddy and sticky,-31,220,20","I don't like the red X through it.,-20,240,20","I like the usage of blacks and greys in this,8,340,20","Brittany","It looks likes there's a lot going on, but they don't fit together.,2,40,20","Gabriela","I like that it looks like a scene from perhaps a failed painted project,10,140,20","Jasmine","I like the usage of blacks and greys in this,8,340,20","4"
"23466","","survey-text","103","2409025","0.0-101.0-0.0","A3EGV6547B8F0B","","","","{""Q0"":""could be a waterfall""}","","","","","","","","","","","","","","","","","","","","","","",""
"39543.20000000298","","image-slider-response","104","2448572","0.0-102.0","A3EGV6547B8F0B","","","","","23","","","","","","","","","","","","","","","","","","","","","",""
"null","","image-button-response","105","2453578","0.0-103.0","A3EGV6547B8F0B","img_art/24.jpg","null","","","","","","","","","","","","","","","","","","","","","","","","",""
"4225","","image-button-response","106","2457808","0.0-104.0","A3EGV6547B8F0B","img_art/24.jpg","4","","","","","","","","","","","","","","","","","","","","","","","","",""
"1170","","image-button-response","107","2458983","0.0-105.0-0.0","A3EGV6547B8F0B","img_art/24.jpg","5","","","","","","","","","","","","","","","","","","","","","","","","",""
"1870","","image-button-response","108","2460858","0.0-106.0-0.0","A3EGV6547B8F0B","img_art/24.jpg","0","","","","","","","","","","","","","","","","","","","","","","","","",""
"null","","html-keyboard-response","109","2461862","0.0-107.0","A3EGV6547B8F0B","<p style=""font-size: 48px;"">+</p>","","","","","null","allTrialResponses","1000","1","9","img_art/24.jpg","23","could be a waterfall","Gabriela,Brittany,Brianna,Kelsey,Paige,Jasmine","I love how bold and vibrant the colors are,40,140,20","Nice colors, but doesn't do much for me.,1,40,20","The waterfall looks peaceful,11,20,20","this one is just a bit too harsh,-13,240,20","somewhat happy. I like the colors,38,60,20","This one is nice because it reminds me of nature,18,340,20","Paige","somewhat happy. I like the colors,38,60,20","Jasmine","This one is nice because it reminds me of nature,18,340,20","Gabriela","I love how bold and vibrant the colors are,40,140,20","4"
"15642","","survey-text","110","2477515","0.0-108.0-0.0","A3EGV6547B8F0B","","","","{""Q0"":""stuffed animals ""}","","","","","","","","","","","","","","","","","","","","","","",""
"6517.4000000059605","","image-slider-response","111","2484036","0.0-109.0","A3EGV6547B8F0B","","","","","21","","","","","","","","","","","","","","","","","","","","","",""
"3892","","image-button-response","112","2489042","0.0-110.0","A3EGV6547B8F0B","img_art/16.jpg","2","","","","","","","","","","","","","","","","","","","","","","","","",""
"496","","image-button-response","113","2489543","0.0-111.0","A3EGV6547B8F0B","img_art/16.jpg","5","","","","","","","","","","","","","","","","","","","","","","","","",""
"3478","","image-button-response","114","2493025","0.0-112.0-0.0","A3EGV6547B8F0B","img_art/16.jpg","1","","","","","","","","","","","","","","","","","","","","","","","","",""
"2955","","image-button-response","115","2495986","0.0-113.0-0.0","A3EGV6547B8F0B","img_art/16.jpg","2","","","","","","","","","","","","","","","","","","","","","","","","",""
"null","","html-keyboard-response","116","2496490","0.0-114.0","A3EGV6547B8F0B","<p style=""font-size: 48px;"">+</p>","","","","","null","allTrialResponses","500","1","10","img_art/16.jpg","21","stuffed animals ","Gabriela,Stephanie,Alexandria,Meghan,Paige,Jasmine","It looks very generic, like items were pasted onto the background,-38,140,20","It looks violent.,-30,300,20","while simple, it seems to have a deeper meaning on childhood,33,80,20","feels chaotic and morbid,-39,220,20","very disturbed seening a gun in the same picture as a teddy bear,-50,60,20","I like it because it's quite different from the rest,23,340,20","Jasmine","I like it because it's quite different from the rest,23,340,20","Stephanie","It looks violent.,-30,300,20","Alexandria","while simple, it seems to have a deeper meaning on childhood,33,80,20","4"
"5612","","survey-text","117","2502126","0.0-115.0-0.0","A3EGV6547B8F0B","","","","{""Q0"":""0ur""}","","","","","","","","","","","","","","","","","","","","","","",""
"6110","","survey-text","118","2510417","0.0-115.1-0.1","A3EGV6547B8F0B","","","","{""Q0"":""our""}","","","","","","","","","","","","","","","","","","","","","","",""
"13770","","survey-text","119","2524190","0.0-116.0-0.0","A3EGV6547B8F0B","","","","{""Q0"":""very different""}","","","","","","","","","","","","","","","","","","","","","","",""
"7792.29999999702","","image-slider-response","120","2531986","0.0-117.0","A3EGV6547B8F0B","","","","","-1","","","","","","","","","","","","","","","","","","","","","",""
"null","","image-button-response","121","2536991","0.0-118.0","A3EGV6547B8F0B","img_art/28.jpg","null","","","","","","","","","","","","","","","","","","","","","","","","",""
"2619","","image-button-response","122","2539614","0.0-119.0","A3EGV6547B8F0B","img_art/28.jpg","3","","","","","","","","","","","","","","","","","","","","","","","","",""
"824","","image-button-response","123","2540443","0.0-120.0-0.0","A3EGV6547B8F0B","img_art/28.jpg","4","","","","","","","","","","","","","","","","","","","","","","","","",""
"750","","image-button-response","124","2541199","0.0-121.0-0.0","A3EGV6547B8F0B","img_art/28.jpg","5","","","","","","","","","","","","","","","","","","","","","","","","",""
"null","","html-keyboard-response","125","2542201","0.0-122.0","A3EGV6547B8F0B","<p style=""font-size: 48px;"">+</p>","","","","","null","allTrialResponses","1000","1","11","img_art/28.jpg","-1","very different","Hailey,Stephanie,Alexandria,Marissa,Angela,Jasmine","an old woman in a wheelchair. sad,-35,200,20","The colors are neutral but I see a mother helping her child,31,300,20","no clear colors or meaning to evoke emotions,-15,80,20","It feels very blah,-10,160,20","This reminds me of internal organs.,-10,260,20","Colors too dull for me,-10,340,20","Marissa","It feels very blah,-10,160,20","Angela","This reminds me of internal organs.,-10,260,20","Jasmine","Colors too dull for me,-10,340,20","5"
"13276","","survey-text","126","2555493","0.0-123.0-0.0","A3EGV6547B8F0B","","","","{""Q0"":""reminds me of bee hive""}","","","","","","","","","","","","","","","","","","","","","","",""
"5786.29999999702","","image-slider-response","127","2561283","0.0-124.0","A3EGV6547B8F0B","","","","","7","","","","","","","","","","","","","","","","","","","","","",""
"4416","","image-button-response","128","2566288","0.0-125.0","A3EGV6547B8F0B","img_art/15.jpg","0","","","","","","","","","","","","","","","","","","","","","","","","",""
"908","","image-button-response","129","2567201","0.0-126.0","A3EGV6547B8F0B","img_art/15.jpg","3","","","","","","","","","","","","","","","","","","","","","","","","",""
"1597","","image-button-response","130","2568801","0.0-127.0-0.0","A3EGV6547B8F0B","img_art/15.jpg","1","","","","","","","","","","","","","","","","","","","","","","","","",""
"2018","","image-button-response","131","2570825","0.0-128.0-0.0","A3EGV6547B8F0B","img_art/15.jpg","0","","","","","","","","","","","","","","","","","","","","","","","","",""
"null","","html-keyboard-response","132","2572328","0.0-129.0","A3EGV6547B8F0B","<p style=""font-size: 48px;"">+</p>","","","","","null","allTrialResponses","1500","1","12","img_art/15.jpg","7","reminds me of bee hive","Tiffany,Claire,Chelsea,Marissa,Angela,Jasmine","The painting is very relaxing, I'm reminded of sitting in a garden in the evening.,8,360,20","it's alright but a little cluttered,14,260,20","The colors are too busy.,-39,180,20","I am reminded of spring flowers swaying in the dark night's breeze,9,160,20","Interesting, but don't really like it. Gloomy.,-10,260,20","I like it as the colors complement each other well,21,340,20","Marissa","I am reminded of spring flowers swaying in the dark night's breeze,9,160,20","Claire","it's alright but a little cluttered,14,260,20","Tiffany","The painting is very relaxing, I'm reminded of sitting in a garden in the evening.,8,360,20","5"
"15088","","survey-text","133","2587426","0.0-130.0-0.0","A3EGV6547B8F0B","","","","{""Q0"":""having a party ""}","","","","","","","","","","","","","","","","","","","","","","",""
"5031.80000000447","","image-slider-response","134","2592462","0.0-131.0","A3EGV6547B8F0B","","","","","1","","","","","","","","","","","","","","","","","","","","","",""
"3967","","image-button-response","135","2597467","0.0-132.0","A3EGV6547B8F0B","img_art/5.jpg","2","","","","","","","","","","","","","","","","","","","","","","","","",""
"507","","image-button-response","136","2597979","0.0-133.0","A3EGV6547B8F0B","img_art/5.jpg","4","","","","","","","","","","","","","","","","","","","","","","","","",""
"1565","","image-button-response","137","2599548","0.0-134.0-0.0","A3EGV6547B8F0B","img_art/5.jpg","0","","","","","","","","","","","","","","","","","","","","","","","","",""
"3132","","image-button-response","138","2602686","0.0-135.0-0.0","A3EGV6547B8F0B","img_art/5.jpg","2","","","","","","","","","","","","","","","","","","","","","","","","",""
"null","","html-keyboard-response","139","2604189","0.0-136.0","A3EGV6547B8F0B","<p style=""font-size: 48px;"">+</p>","","","","","null","allTrialResponses","1500","1","13","img_art/5.jpg","1","having a party ","Tiffany,Claire,Catherine,Marissa,Lauren,Jordan","I feel nothing looking at this.,-5,360,20","I like the strokes and colors used,20,260,20","Building remnants in the sand.,1,160,20","I am confused as to what I am seeing is it a handbag, duck foot, bell?,-18,160,20","I like the simplicity of the design, but I can't tell what the image is trying to depict.,10,340,20","I dont really get anything from this,-25,20,20","Lauren","I like the simplicity of the design, but I can't tell what the image is trying to depict.,10,340,20","Tiffany","I feel nothing looking at this.,-5,360,20","Catherine","Building remnants in the sand.,1,160,20","5"
"27530","","survey-text","140","2631736","0.0-137.0-0.0","A3EGV6547B8F0B","","","","{""Q0"":""oh no crime scene ""}","","","","","","","","","","","","","","","","","","","","","","",""
"27413.70000000298","","image-slider-response","141","2659153","0.0-138.0","A3EGV6547B8F0B","","","","","-2","","","","","","","","","","","","","","","","","","","","","",""
"4422","","image-button-response","142","2664159","0.0-139.0","A3EGV6547B8F0B","img_art/3.jpg","3","","","","","","","","","","","","","","","","","","","","","","","","",""
"4786","","image-button-response","143","2668949","0.0-140.0","A3EGV6547B8F0B","img_art/3.jpg","0","","","","","","","","","","","","","","","","","","","","","","","","",""
"2197","","image-button-response","144","2671151","0.0-141.0-0.0","A3EGV6547B8F0B","img_art/3.jpg","4","","","","","","","","","","","","","","","","","","","","","","","","",""
"4274","","image-button-response","145","2675430","0.0-142.0-0.0","A3EGV6547B8F0B","img_art/3.jpg","4","","","","","","","","","","","","","","","","","","","","","","","","",""
"2638","","image-button-response","146","2684259","0.0-142.1-0.1","A3EGV6547B8F0B","img_art/3.jpg","4","","","","","","","","","","","","","","","","","","","","","","","","",""
"1646","","image-button-response","147","2696914","0.0-142.2-0.2","A3EGV6547B8F0B","img_art/3.jpg","4","","","","","","","","","","","","","","","","","","","","","","","","",""
"1004","","image-button-response","148","2702143","0.0-142.3-0.3","A3EGV6547B8F0B","img_art/3.jpg","3","","","","","","","","","","","","","","","","","","","","","","","","",""
"null","","html-keyboard-response","149","2702646","0.0-143.0","A3EGV6547B8F0B","<p style=""font-size: 48px;"">+</p>","","","","","null","allTrialResponses","500","1","14","img_art/3.jpg","-2","oh no crime scene ","Tiffany,Diana,Catherine,Sydney,Lauren,Nicole","I feel uncomfortable, like I am looking at a crime scene.,-17,360,20","I didn't feel the color choice when I first looked. I did however like the placement of the gray.,-28,380,20","Anger, like something a serial killer may paint.,-30,160,20","This piece makes me think it has a backstory or a reason which I like.,5,320,20","No clue what I'm looking. This just looks a series of scribbles in a box.,-20,340,20","Something I'd paint when I'm mad. I feel that,20,20,20","Tiffany","I feel uncomfortable, like I am looking at a crime scene.,-17,360,20","Lauren","No clue what I'm looking. This just looks a series of scribbles in a box.,-20,340,20","Sydney","This piece makes me think it has a backstory or a reason which I like.,5,320,20","11"
"22684","","survey-text","150","2725347","0.0-144.0-0.0","A3EGV6547B8F0B","","","","{""Q0"":""could be on the rocky beach""}","","","","","","","","","","","","","","","","","","","","","","",""
"6402.10000000149","","image-slider-response","151","2731753","0.0-145.0","A3EGV6547B8F0B","","","","","10","","","","","","","","","","","","","","","","","","","","","",""
"4991","","image-button-response","152","2736760","0.0-146.0","A3EGV6547B8F0B","img_art/7.jpg","1","","","","","","","","","","","","","","","","","","","","","","","","",""
"4580","","image-button-response","153","2741344","0.0-147.0","A3EGV6547B8F0B","img_art/7.jpg","0","","","","","","","","","","","","","","","","","","","","","","","","",""
"2458","","image-button-response","154","2743807","0.0-148.0-0.0","A3EGV6547B8F0B","img_art/7.jpg","3","","","","","","","","","","","","","","","","","","","","","","","","",""
"2625","","image-button-response","155","2746439","0.0-149.0-0.0","A3EGV6547B8F0B","img_art/7.jpg","4","","","","","","","","","","","","","","","","","","","","","","","","",""
"null","","html-keyboard-response","156","2746942","0.0-150.0","A3EGV6547B8F0B","<p style=""font-size: 48px;"">+</p>","","","","","null","allTrialResponses","500","1","15","img_art/7.jpg","10","could be on the rocky beach","Tiffany,Erica,Kaitlyn,Sydney,Lauren,Morgan","I feel relaxed and a little nostalgic, like I'm exploring the wall of a very old building.,18,360,20","No not cause many emotions,1,80,20","Boring  and lacks color,-11,80,20","This piece is really simple but the colors and texture work well together.,20,320,20","I like how the image has a sense of history, since the style looks like it came from stone.,20,340,20","Dead bugs on an insect battleground.,-10,380,20","Tiffany","I feel relaxed and a little nostalgic, like I'm exploring the wall of a very old building.,18,360,20","Sydney","This piece is really simple but the colors and texture work well together.,20,320,20","Lauren","I like how the image has a sense of history, since the style looks like it came from stone.,20,340,20","11"
"5912","","survey-text","157","2752879","0.0-151.0-0.0","A3EGV6547B8F0B","","","","{""Q0"":""course""}","","","","","","","","","","","","","","","","","","","","","","",""
"16964","","survey-text","158","2769846","0.0-152.0-0.0","A3EGV6547B8F0B","","","","{""Q0"":""very artistic ""}","","","","","","","","","","","","","","","","","","","","","","",""
"5224.5","","image-slider-response","159","2775074","0.0-153.0","A3EGV6547B8F0B","","","","","10","","","","","","","","","","","","","","","","","","","","","",""
"4117","","image-button-response","160","2780078","0.0-154.0","A3EGV6547B8F0B","img_art/14.jpg","1","","","","","","","","","","","","","","","","","","","","","","","","",""
"1538","","image-button-response","161","2781621","0.0-155.0","A3EGV6547B8F0B","img_art/14.jpg","2","","","","","","","","","","","","","","","","","","","","","","","","",""
"1570","","image-button-response","162","2783196","0.0-156.0-0.0","A3EGV6547B8F0B","img_art/14.jpg","1","","","","","","","","","","","","","","","","","","","","","","","","",""
"1604","","image-button-response","163","2784805","0.0-157.0-0.0","A3EGV6547B8F0B","img_art/14.jpg","4","","","","","","","","","","","","","","","","","","","","","","","","",""
"null","","html-keyboard-response","164","2786308","0.0-158.0","A3EGV6547B8F0B","<p style=""font-size: 48px;"">+</p>","","","","","null","allTrialResponses","1500","1","16","img_art/14.jpg","10","very artistic ","Tiffany,Briana,Abigail,Sydney,Lauren,Danielle","I feel uncomfortable looking at this painting, it is a mess that needs to be cleaned up.,-16,360,20","Simplistic. Looks like a child did it,14,400,20","Reminds me of art class,22,20,20","I'm imagining a flower bouquet with pretty colors which I like.,35,320,20","I like how balanced the piece is with its symmetrical design.,20,340,20","Too much yellow in this image, i'm not a fan of art that is overly-saturated with yellow,-30,340,20","Abigail","Reminds me of art class,22,20,20","Briana","Simplistic. Looks like a child did it,14,400,20","Lauren","I like how balanced the piece is with its symmetrical design.,20,340,20","11"
"29229","","survey-text","165","2815550","0.0-159.0-0.0","A3EGV6547B8F0B","","","","{""Q0"":""one has to very artistic to draw this""}","","","","","","","","","","","","","","","","","","","","","","",""
"3721.39999999851","","image-slider-response","166","2819275","0.0-160.0","A3EGV6547B8F0B","","","","","17","","","","","","","","","","","","","","","","","","","","","",""
"null","","image-button-response","167","2824279","0.0-161.0","A3EGV6547B8F0B","img_art/18.jpg","null","","","","","","","","","","","","","","","","","","","","","","","","",""
"6177","","image-button-response","168","2830460","0.0-162.0","A3EGV6547B8F0B","img_art/18.jpg","1","","","","","","","","","","","","","","","","","","","","","","","","",""
"1784","","image-button-response","169","2832250","0.0-163.0-0.0","A3EGV6547B8F0B","img_art/18.jpg","2","","","","","","","","","","","","","","","","","","","","","","","","",""
"1269","","image-button-response","170","2833523","0.0-164.0-0.0","A3EGV6547B8F0B","img_art/18.jpg","0","","","","","","","","","","","","","","","","","","","","","","","","",""
"null","","html-keyboard-response","171","2835026","0.0-165.0","A3EGV6547B8F0B","<p style=""font-size: 48px;"">+</p>","","","","","null","allTrialResponses","1500","1","17","img_art/18.jpg","17","one has to very artistic to draw this","Alexis,Briana,Abigail,Lindsey,Lauren,Kylie","Crusade-feel, but a little too abstract for my taste,23,100,20","Two people fighting with one watching,17,400,20","Interesting and capitvating to look at,19,20,20","Interesting piece - gives you more the more you look at it. I like it but wouldn't buy it.,11,400,20","I like how the image gives off an impression of bravery.,25,340,20","Kind of weird in a confusing way,10,300,20","Briana","Two people fighting with one watching,17,400,20","Abigail","Interesting and capitvating to look at,19,20,20","Alexis","Crusade-feel, but a little too abstract for my taste,23,100,20","11"
"24158","","survey-text","172","2859201","0.0-166.0-0.0","A3EGV6547B8F0B","","","","{""Q0"":""can imagine a lot in this picture""}","","","","","","","","","","","","","","","","","","","","","","",""
"14203.19999999553","","image-slider-response","173","2873408","0.0-167.0","A3EGV6547B8F0B","","","","","23","","","","","","","","","","","","","","","","","","","","","",""
"null","","image-button-response","174","2878413","0.0-168.0","A3EGV6547B8F0B","img_art/20.jpg","null","","","","","","","","","","","","","","","","","","","","","","","","",""
"820","","image-button-response","175","2879237","0.0-169.0","A3EGV6547B8F0B","img_art/20.jpg","0","","","","","","","","","","","","","","","","","","","","","","","","",""
"1423","","image-button-response","176","2880665","0.0-170.0-0.0","A3EGV6547B8F0B","img_art/20.jpg","4","","","","","","","","","","","","","","","","","","","","","","","","",""
"887","","image-button-response","177","2881558","0.0-171.0-0.0","A3EGV6547B8F0B","img_art/20.jpg","5","","","","","","","","","","","","","","","","","","","","","","","","",""
"null","","html-keyboard-response","178","2882061","0.0-172.0","A3EGV6547B8F0B","<p style=""font-size: 48px;"">+</p>","","","","","null","allTrialResponses","500","1","18","img_art/20.jpg","23","can imagine a lot in this picture","Alexis,Briana,Abigail,Michelle,Erika,Julia","I like the proportion of the car to the desert city, but too abstract for me,15,100,20","Someone trying to be dali,-15,400,20","A mountain vacation,46,20,20","Reminds me of Dali for some reason, whom I don't like,-7,280,20","The artist had very strong feelings, bold colors,28,100,20","The colors are nice, and the shapes conjure the decay of the city in the face of natural entropy,19,40,20","Alexis","I like the proportion of the car to the desert city, but too abstract for me,15,100,20","Erika","The artist had very strong feelings, bold colors,28,100,20","Julia","The colors are nice, and the shapes conjure the decay of the city in the face of natural entropy,19,40,20","11"
"23001","","survey-text","179","2905076","0.0-173.0-0.0","A3EGV6547B8F0B","","","","{""Q0"":""walking down a hall of the unknown""}","","","","","","","","","","","","","","","","","","","","","","",""
"5784.70000000298","","image-slider-response","180","2910864","0.0-174.0","A3EGV6547B8F0B","","","","","24","","","","","","","","","","","","","","","","","","","","","",""
"4174","","image-button-response","181","2915869","0.0-175.0","A3EGV6547B8F0B","img_art/17.jpg","3","","","","","","","","","","","","","","","","","","","","","","","","",""
"740","","image-button-response","182","2916614","0.0-176.0","A3EGV6547B8F0B","img_art/17.jpg","2","","","","","","","","","","","","","","","","","","","","","","","","",""
"1588","","image-button-response","183","2918207","0.0-177.0-0.0","A3EGV6547B8F0B","img_art/17.jpg","0","","","","","","","","","","","","","","","","","","","","","","","","",""
"2995","","image-button-response","184","2921207","0.0-178.0-0.0","A3EGV6547B8F0B","img_art/17.jpg","3","","","","","","","","","","","","","","","","","","","","","","","","",""
"null","","html-keyboard-response","185","2922211","0.0-179.0","A3EGV6547B8F0B","<p style=""font-size: 48px;"">+</p>","","","","","null","allTrialResponses","1000","1","19","img_art/17.jpg","24","walking down a hall of the unknown","Alexis,Alicia,Mariah,Amy,Erika,Julia","Love the color and nature motif,36,100,20","Like this one, super creative, calming.,43,120,20","It feels like nature overtaking civilization.,21,140,20","peaceful. contemplative. balanced. old,10,220,20","I love vague, dreamlike styles,50,100,20","I'm not into paintings of trees,-18,40,20","Mariah","It feels like nature overtaking civilization.,21,140,20","Alexis","Love the color and nature motif,36,100,20","Amy","peaceful. contemplative. balanced. old,10,220,20","11"
"8714","","survey-text","186","2930939","0.0-180.0-0.0","A3EGV6547B8F0B","","","","{""Q0"":""wow""}","","","","","","","","","","","","","","","","","","","","","","",""
"12706","","survey-text","187","2949808","0.0-180.1-0.1","A3EGV6547B8F0B","","","","{""Q0"":""wow awesome""}","","","","","","","","","","","","","","","","","","","","","","",""
"10468.60000000149","","image-slider-response","188","2960281","0.0-181.0","A3EGV6547B8F0B","","","","","33","","","","","","","","","","","","","","","","","","","","","",""
"4257","","image-button-response","189","2965285","0.0-182.0","A3EGV6547B8F0B","img_art/19.jpg","4","","","","","","","","","","","","","","","","","","","","","","","","",""
"541","","image-button-response","190","2965831","0.0-183.0","A3EGV6547B8F0B","img_art/19.jpg","3","","","","","","","","","","","","","","","","","","","","","","","","",""
"837","","image-button-response","191","2966673","0.0-184.0-0.0","A3EGV6547B8F0B","img_art/19.jpg","4","","","","","","","","","","","","","","","","","","","","","","","","",""
"4510","","image-button-response","192","2971188","0.0-185.0-0.0","A3EGV6547B8F0B","img_art/19.jpg","2","","","","","","","","","","","","","","","","","","","","","","","","",""
"null","","html-keyboard-response","193","2971691","0.0-186.0","A3EGV6547B8F0B","<p style=""font-size: 48px;"">+</p>","","","","","null","allTrialResponses","500","1","20","img_art/19.jpg","33","wow awesome","Alexis,Cassidy,Mariah,Amy,Jamie,Rachel","Not a fan of the blobbiness,-22,100,20","too much going on, can't tell what it is,-14,140,20","I like the watercolor and colors, do not like the deconstructed city scene feel.,0,140,20","Though provoking. Adventurous.,10,220,20","Looks like a busy port,10,320,20","Reminds me of a busy town. Chaotic in nature.,-11,80,20","Amy","Though provoking. Adventurous.,10,220,20","Jamie","Looks like a busy port,10,320,20","Mariah","I like the watercolor and colors, do not like the deconstructed city scene feel.,0,140,20","11"
"4450","","survey-text","194","2976168","0.0-187.0-0.0","A3EGV6547B8F0B","","","","{""Q0"":""we""}","","","","","","","","","","","","","","","","","","","","","","",""
"31178","","survey-text","195","3007350","0.0-188.0-0.0","A3EGV6547B8F0B","","","","{""Q0"":""one could look at this picture for a very long time""}","","","","","","","","","","","","","","","","","","","","","","",""
"5885.19999999553","","image-slider-response","196","3013239","0.0-189.0","A3EGV6547B8F0B","","","","","27","","","","","","","","","","","","","","","","","","","","","",""
"4825","","image-button-response","197","3018245","0.0-190.0","A3EGV6547B8F0B","img_art/26.jpg","0","","","","","","","","","","","","","","","","","","","","","","","","",""
"1059","","image-button-response","198","3019309","0.0-191.0","A3EGV6547B8F0B","img_art/26.jpg","1","","","","","","","","","","","","","","","","","","","","","","","","",""
"2217","","image-button-response","199","3021531","0.0-192.0-0.0","A3EGV6547B8F0B","img_art/26.jpg","5","","","","","","","","","","","","","","","","","","","","","","","","",""
"2784","","image-button-response","200","3024320","0.0-193.0-0.0","A3EGV6547B8F0B","img_art/26.jpg","0","","","","","","","","","","","","","","","","","","","","","","","","",""
"null","","html-keyboard-response","201","3025825","0.0-194.0","A3EGV6547B8F0B","<p style=""font-size: 48px;"">+</p>","","","","","null","allTrialResponses","1500","1","21","img_art/26.jpg","27","one could look at this picture for a very long time","Kaitlin,Michaela,Mariah,Amy,Jamie,Grace","i can feel the warmth,12,60,20","Elevator art but the watercolors are good,29,260,20","Pleasant but bland.,10,140,20","The feeling that I am looking at the world through a dingy filter makes this unpleasant for me.,-20,220,20","Street corner on a sunny day,5,320,20","Like the muted colors & the scene which seems to be serene.,14,180,20","Michaela","Elevator art but the watercolors are good,29,260,20","Grace","Like the muted colors & the scene which seems to be serene.,14,180,20","Kaitlin","i can feel the warmth,12,60,20","11"
"28430","","survey-text","202","3054273","0.0-195.0-0.0","A3EGV6547B8F0B","","","","{""Q0"":""someone likes doing finger painting""}","","","","","","","","","","","","","","","","","","","","","","",""
"8661.19999999553","","image-slider-response","203","3062939","0.0-196.0","A3EGV6547B8F0B","","","","","25","","","","","","","","","","","","","","","","","","","","","",""
"3860","","image-button-response","204","3067944","0.0-197.0","A3EGV6547B8F0B","img_art/30.jpg","1","","","","","","","","","","","","","","","","","","","","","","","","",""
"348","","image-button-response","205","3068296","0.0-198.0","A3EGV6547B8F0B","img_art/30.jpg","0","","","","","","","","","","","","","","","","","","","","","","","","",""
"1375","","image-button-response","206","3069675","0.0-199.0-0.0","A3EGV6547B8F0B","img_art/30.jpg","2","","","","","","","","","","","","","","","","","","","","","","","","",""
"1495","","image-button-response","207","3071174","0.0-200.0-0.0","A3EGV6547B8F0B","img_art/30.jpg","1","","","","","","","","","","","","","","","","","","","","","","","","",""
"null","","html-keyboard-response","208","3071678","0.0-201.0","A3EGV6547B8F0B","<p style=""font-size: 48px;"">+</p>","","","","","null","allTrialResponses","500","1","22","img_art/30.jpg","25","someone likes doing finger painting","Kaitlin,Michaela,Shelby,Breanna,Jacqueline,Grace","the different roads to take in life,10,60,20","My son made me a painting that looked like this,26,260,20","It's pleasent but otherwise unprovoking,8,240,20","Paint scribbled on canvas,-25,380,20","Too dark and ugly with all the black smears,-20,300,20","A little too dull. Would've liked brighter colors. Also looks washed out.,1,180,20","Kaitlin","the different roads to take in life,10,60,20","Shelby","It's pleasent but otherwise unprovoking,8,240,20","Michaela","My son made me a painting that looked like this,26,260,20","11"
"15693","","survey-text","209","3087390","0.0-202.0-0.0","A3EGV6547B8F0B","","","","{""Q0"":""very artistic""}","","","","","","","","","","","","","","","","","","","","","","",""
"8153.19999999553","","image-slider-response","210","3095547","0.0-203.0","A3EGV6547B8F0B","","","","","11","","","","","","","","","","","","","","","","","","","","","",""
"4038","","image-button-response","211","3100551","0.0-204.0","A3EGV6547B8F0B","img_art/1.jpg","4","","","","","","","","","","","","","","","","","","","","","","","","",""
"1065","","image-button-response","212","3101619","0.0-205.0","A3EGV6547B8F0B","img_art/1.jpg","1","","","","","","","","","","","","","","","","","","","","","","","","",""
"1929","","image-button-response","213","3103553","0.0-206.0-0.0","A3EGV6547B8F0B","img_art/1.jpg","4","","","","","","","","","","","","","","","","","","","","","","","","",""
"1968","","image-button-response","214","3105526","0.0-207.0-0.0","A3EGV6547B8F0B","img_art/1.jpg","2","","","","","","","","","","","","","","","","","","","","","","","","",""
"null","","html-keyboard-response","215","3106030","0.0-208.0","A3EGV6547B8F0B","<p style=""font-size: 48px;"">+</p>","","","","","null","allTrialResponses","500","1","23","img_art/1.jpg","11","very artistic","Kaitlin,Michaela,Shelby,Mikayla,Bailey,Kimberly","I see happiness from different aspects of life,31,60,20","That one piece in the middle gives it depth and it's really neat,21,260,20","This one has a pleasent energy,15,240,20","Again kind a boring.,-38,300,20","A bit of a smokey mess, but it does have an air of mystery I like,7,360,20","It's like being out on a psychedelic lake,32,260,20","Michaela","That one piece in the middle gives it depth and it's really neat,21,260,20","Bailey","A bit of a smokey mess, but it does have an air of mystery I like,7,360,20","Shelby","This one has a pleasent energy,15,240,20","11"
"22904","","survey-text","216","3128949","0.0-209.0-0.0","A3EGV6547B8F0B","","","","{""Q0"":""don't know about this one""}","","","","","","","","","","","","","","","","","","","","","","",""
"8995.10000000149","","image-slider-response","217","3137949","0.0-210.0","A3EGV6547B8F0B","","","","","-2","","","","","","","","","","","","","","","","","","","","","",""
"null","","image-button-response","218","3142954","0.0-211.0","A3EGV6547B8F0B","img_art/27.jpg","null","","","","","","","","","","","","","","","","","","","","","","","","",""
"1767","","image-button-response","219","3144725","0.0-212.0","A3EGV6547B8F0B","img_art/27.jpg","3","","","","","","","","","","","","","","","","","","","","","","","","",""
"3565","","image-button-response","220","3148294","0.0-213.0-0.0","A3EGV6547B8F0B","img_art/27.jpg","1","","","","","","","","","","","","","","","","","","","","","","","","",""
"1118","","image-button-response","221","3149418","0.0-214.0-0.0","A3EGV6547B8F0B","img_art/27.jpg","0","","","","","","","","","","","","","","","","","","","","","","","","",""
"null","","html-keyboard-response","222","3150421","0.0-215.0","A3EGV6547B8F0B","<p style=""font-size: 48px;"">+</p>","","","","","null","allTrialResponses","1000","1","24","img_art/27.jpg","-2","don't know about this one","Elizabeth,Michaela,Shelby,Vanessa,Bailey,Alexandra","Like the abstractness of this picture,20,20,20","It looks like a kid colored a picture and an adult added to it,19,260,20","The colors in this one are wonderful,20,240,20","Colors make me think of fall, but I don't like how the picture was done or the weird lines across the background,6,380,20","Looks like a splash of different colors and designs without purpose,-44,360,20","This is ugly and looks like a child did this,-36,60,20","Vanessa","Colors make me think of fall, but I don't like how the picture was done or the weird lines across the background,6,380,20","Michaela","It looks like a kid colored a picture and an adult added to it,19,260,20","Elizabeth","Like the abstractness of this picture,20,20,20","11"
"24497","","survey-text","223","3174934","0.0-216.0-0.0","A3EGV6547B8F0B","","","","{""Q0"":""what's going on here""}","","","","","","","","","","","","","","","","","","","","","","",""
"4935.5","","image-slider-response","224","3179874","0.0-217.0","A3EGV6547B8F0B","","","","","-6","","","","","","","","","","","","","","","","","","","","","",""
"null","","image-button-response","225","3184879","0.0-218.0","A3EGV6547B8F0B","img_art/10.jpg","null","","","","","","","","","","","","","","","","","","","","","","","","",""
"398","","image-button-response","226","3185282","0.0-219.0","A3EGV6547B8F0B","img_art/10.jpg","5","","","","","","","","","","","","","","","","","","","","","","","","",""
"2191","","image-button-response","227","3187476","0.0-220.0-0.0","A3EGV6547B8F0B","img_art/10.jpg","2","","","","","","","","","","","","","","","","","","","","","","","","",""
"1346","","image-button-response","228","3188828","0.0-221.0-0.0","A3EGV6547B8F0B","img_art/10.jpg","3","","","","","","","","","","","","","","","","","","","","","","","","",""
"null","","html-keyboard-response","229","3189331","0.0-222.0","A3EGV6547B8F0B","<p style=""font-size: 48px;"">+</p>","","","","","null","allTrialResponses","500","1","25","img_art/10.jpg","-6","what's going on here","Elizabeth,Michaela,Madison,Vanessa,Sabrina,Christina","Has an air of mystery around it,39,20,20","It looks like it's sinking but it could also be a view from above,40,260,20","In proper lighting I might enjoy this,11,60,20","It's interesting and my eyes keep being drawn to different parts of the picture.,11,380,20","I love the dark and edgy nature of this,50,120,20","It's very dark and angry looking,-31,240,20","Christina","It's very dark and angry looking,-31,240,20","Madison","In proper lighting I might enjoy this,11,60,20","Vanessa","It's interesting and my eyes keep being drawn to different parts of the picture.,11,380,20","11"
"6983","","survey-text","230","3196341","0.0-223.0-0.0","A3EGV6547B8F0B","","","","{""Q0"":""table""}","","","","","","","","","","","","","","","","","","","","","","",""
"31582","","survey-text","231","3227926","0.0-224.0-0.0","A3EGV6547B8F0B","","","","{""Q0"":""for some reason reason reminds me of music""}","","","","","","","","","","","","","","","","","","","","","","",""
"4075.7000000029802","","image-slider-response","232","3232006","0.0-225.0","A3EGV6547B8F0B","","","","","4","","","","","","","","","","","","","","","","","","","","","",""
"4079","","image-button-response","233","3237012","0.0-226.0","A3EGV6547B8F0B","img_art/11.jpg","0","","","","","","","","","","","","","","","","","","","","","","","","",""
"4167","","image-button-response","234","3241185","0.0-227.0","A3EGV6547B8F0B","img_art/11.jpg","5","","","","","","","","","","","","","","","","","","","","","","","","",""
"1145","","image-button-response","235","3242335","0.0-228.0-0.0","A3EGV6547B8F0B","img_art/11.jpg","3","","","","","","","","","","","","","","","","","","","","","","","","",""
"1941","","image-button-response","236","3244281","0.0-229.0-0.0","A3EGV6547B8F0B","img_art/11.jpg","0","","","","","","","","","","","","","","","","","","","","","","","","",""
"null","","html-keyboard-response","237","3245284","0.0-230.0","A3EGV6547B8F0B","<p style=""font-size: 48px;"">+</p>","","","","","null","allTrialResponses","1000","1","26","img_art/11.jpg","4","for some reason reason reminds me of music","Kelly,Amanda,Madison,Vanessa,Alexa,Christina","Its a little psychedelic.,10,220,20","It makes me feel angry and overwhelmed,-29,180,20","Rainy day at an urban sea port. Portugal?,30,60,20","It makes me think of a rainy day and I like the colors. Also like the wavy lines.,22,380,20","There's a lot going on in this painting but it is pleasing and neat looking,31,40,20","I like how it looks like buildings but i'm not a fan of colors,20,240,20","Christina","I like how it looks like buildings but i'm not a fan of colors,20,240,20","Vanessa","It makes me think of a rainy day and I like the colors. Also like the wavy lines.,22,380,20","Kelly","Its a little psychedelic.,10,220,20","11"
"20632","","survey-text","238","3265932","0.0-231.0-0.0","A3EGV6547B8F0B","","","","{""Q0"":""a big octopus mouth ha""}","","","","","","","","","","","","","","","","","","","","","","",""
"5357.29999999702","","image-slider-response","239","3271293","0.0-232.0","A3EGV6547B8F0B","","","","","5","","","","","","","","","","","","","","","","","","","","","",""
"2525","","image-button-response","240","3276297","0.0-233.0","A3EGV6547B8F0B","img_art/9.jpg","1","","","","","","","","","","","","","","","","","","","","","","","","",""
"798","","image-button-response","241","3277100","0.0-234.0","A3EGV6547B8F0B","img_art/9.jpg","5","","","","","","","","","","","","","","","","","","","","","","","","",""
"1757","","image-button-response","242","3278862","0.0-235.0-0.0","A3EGV6547B8F0B","img_art/9.jpg","3","","","","","","","","","","","","","","","","","","","","","","","","",""
"2775","","image-button-response","243","3281643","0.0-236.0-0.0","A3EGV6547B8F0B","img_art/9.jpg","1","","","","","","","","","","","","","","","","","","","","","","","","",""
"null","","html-keyboard-response","244","3282146","0.0-237.0","A3EGV6547B8F0B","<p style=""font-size: 48px;"">+</p>","","","","","null","allTrialResponses","500","1","27","img_art/9.jpg","5","a big octopus mouth ha","Kelly,Sierra,Isabella,Vanessa,Leah,Christina","It looks like a child drew it.,-28,220,20","it looks like a lady resting. it is soothing.,4,260,20","Angry beast mouth,-37,280,20","It's too abstract for my taste. I wish there were more definition.,-9,380,20","Depressing to me, like a dark dream,-11,360,20","nice colors but it looks like it's from the 80s,10,240,20","Christina","nice colors but it looks like it's from the 80s,10,240,20","Vanessa","It's too abstract for my taste. I wish there were more definition.,-9,380,20","Sierra","it looks like a lady resting. it is soothing.,4,260,20","11"
"35246","","survey-text","245","3317419","0.0-238.0-0.0","A3EGV6547B8F0B","","","","{""Q0"":""there's a lot going on here not sure what""}","","","","","","","","","","","","","","","","","","","","","","",""
"6662.89999999851","","image-slider-response","246","3324085","0.0-239.0","A3EGV6547B8F0B","","","","","27","","","","","","","","","","","","","","","","","","","","","",""
"3356","","image-button-response","247","3329091","0.0-240.0","A3EGV6547B8F0B","img_art/12.jpg","0","","","","","","","","","","","","","","","","","","","","","","","","",""
"355","","image-button-response","248","3329451","0.0-241.0","A3EGV6547B8F0B","img_art/12.jpg","4","","","","","","","","","","","","","","","","","","","","","","","","",""
"2139","","image-button-response","249","3331595","0.0-242.0-0.0","A3EGV6547B8F0B","img_art/12.jpg","2","","","","","","","","","","","","","","","","","","","","","","","","",""
"3464","","image-button-response","250","3335068","0.0-243.0-0.0","A3EGV6547B8F0B","img_art/12.jpg","5","","","","","","","","","","","","","","","","","","","","","","","","",""
"null","","html-keyboard-response","251","3336573","0.0-244.0","A3EGV6547B8F0B","<p style=""font-size: 48px;"">+</p>","","","","","null","allTrialResponses","1500","1","28","img_art/12.jpg","27","there's a lot going on here not sure what","Kathryn,Sierra,Cheyenne,Vanessa,Cassandra,Christina","This feels cosmopolitan. Like looking at a high rise apartment at night and seeing into everyone's windows.,20,140,20","i dont see the point.,-19,260,20","Comes off as a bit boring.,-11,200,20","This is too abstract and the colors are too worn out.,-23,380,20","Neutral...just blocks.,3,120,20","way too 90s/80s for me,-9,240,20","Cassandra","Neutral...just blocks.,3,120,20","Cheyenne","Comes off as a bit boring.,-11,200,20","Christina","way too 90s/80s for me,-9,240,20","11"
"23141","","survey-text","252","3359730","0.0-245.0-0.0","A3EGV6547B8F0B","","","","{""Q0"":""reminds me of my Dutch things""}","","","","","","","","","","","","","","","","","","","","","","",""
"5117.80000000447","","image-slider-response","253","3364852","0.0-246.0","A3EGV6547B8F0B","","","","","24","","","","","","","","","","","","","","","","","","","","","",""
"null","","image-button-response","254","3369856","0.0-247.0","A3EGV6547B8F0B","img_art/2.jpg","null","","","","","","","","","","","","","","","","","","","","","","","","",""
"3760","","image-button-response","255","3373620","0.0-248.0","A3EGV6547B8F0B","img_art/2.jpg","3","","","","","","","","","","","","","","","","","","","","","","","","",""
"1846","","image-button-response","256","3375471","0.0-249.0-0.0","A3EGV6547B8F0B","img_art/2.jpg","5","","","","","","","","","","","","","","","","","","","","","","","","",""
"2221","","image-button-response","257","3377697","0.0-250.0-0.0","A3EGV6547B8F0B","img_art/2.jpg","2","","","","","","","","","","","","","","","","","","","","","","","","",""
"null","","html-keyboard-response","258","3378201","0.0-251.0","A3EGV6547B8F0B","<p style=""font-size: 48px;"">+</p>","","","","","null","allTrialResponses","500","1","29","img_art/2.jpg","24","reminds me of my Dutch things","Caitlin,Haley,Cheyenne,Shannon,Cassandra,Christina","Have now advanced from kindergarten to the first grade.,-5,80,20","My first thought was that it looks like a children's art project,-30,220,20","Colors mix nicely.,5,200,20","I like this picture a little because the colors make it look a little vibrant.,10,220,20","I didn't like this it looked like a kindergardner painted it and the green was out of place.,-46,120,20","It looks like a little kids primary color picture,3,240,20","Shannon","I like this picture a little because the colors make it look a little vibrant.,10,220,20","Christina","It looks like a little kids primary color picture,3,240,20","Cheyenne","Colors mix nicely.,5,200,20","11"
"18505","","survey-text","259","3396723","0.0-252.0-0.0","A3EGV6547B8F0B","","","","{""Q0"":""a lot of building in a big city""}","","","","","","","","","","","","","","","","","","","","","","",""
"3930.5","","image-slider-response","260","3400658","0.0-253.0","A3EGV6547B8F0B","","","","","23","","","","","","","","","","","","","","","","","","","","","",""
"null","","image-button-response","261","3405663","0.0-254.0","A3EGV6547B8F0B","img_art/8.jpg","null","","","","","","","","","","","","","","","","","","","","","","","","",""
"1994","","image-button-response","262","3407660","0.0-255.0","A3EGV6547B8F0B","img_art/8.jpg","1","","","","","","","","","","","","","","","","","","","","","","","","",""
"1783","","image-button-response","263","3409448","0.0-256.0-0.0","A3EGV6547B8F0B","img_art/8.jpg","4","","","","","","","","","","","","","","","","","","","","","","","","",""
"1297","","image-button-response","264","3410751","0.0-257.0-0.0","A3EGV6547B8F0B","img_art/8.jpg","3","","","","","","","","","","","","","","","","","","","","","","","","",""
"null","","html-keyboard-response","265","3411255","0.0-258.0","A3EGV6547B8F0B","<p style=""font-size: 48px;"">+</p>","","","","","null","allTrialResponses","500","1","30","img_art/8.jpg","23","a lot of building in a big city","Jenna,Molly,Cheyenne,Shannon,Sara,Christina","beautiful colors & details. love the surrealism & strange angle. the faces are interesting.,50,360,20","Different styles make this picture outstanding.,20,340,20","Has nice depth to it.,12,200,20","I like that it looks like a city and the way the shapes and colors are put together,40,220,20","Very interesting use of blocks,21,160,20","it looks very 80's and kind of scary,-11,240,20","Molly","Different styles make this picture outstanding.,20,340,20","Sara","Very interesting use of blocks,21,160,20","Shannon","I like that it looks like a city and the way the shapes and colors are put together,40,220,20","11"
"10847","","image-button-response_instructions","266","3422118","0.0-259.0","A3EGV6547B8F0B","","0","instructions","","","","","","","","","","","","","","","","","","","","","","","",""
"2882","","image-button-response","267","3425017","0.0-260.0","A3EGV6547B8F0B","","0","","","","","","","","","","","","","","","","","","","","","","","","",""
