"rt","url","trial_type","trial_index","time_elapsed","internal_node_id","participant_id","stimulus","button_pressed","Name","responses","response","key_press","variableName","fixationTime","condition","trial","photo","subjectRating","subjectResponse","agentsNames","agent_1_Response","agent_2_Response","agent_3_Response","agent_4_Response","agent_5_Response","agent_6_Response","kept_1_name","kept_1_response","kept_2_name","kept_2_response","kept_3_name","kept_3_response","errorCounter"
"17281","external_page_harvard.html","external-html","0","17401","0.0-0.0","A3EKKEZ21SGJEC","","","","","","","","","","","","","","","","","","","","","","","","","","",""
"2052","","image-button-response","1","19457","0.0-1.0","A3EKKEZ21SGJEC","","1","","","","","","","","","","","","","","","","","","","","","","","","",""
"2307","","image-button-response","2","21768","0.0-2.0-0.0","A3EKKEZ21SGJEC","","1","phone","","","","","","","","","","","","","","","","","","","","","","","",""
"15950","","survey-text","3","37719","0.0-3.0-0.0","A3EKKEZ21SGJEC","","","","{""Q0"":""A3EKKEZ21SGJEC""}","","","","","","","","","","","","","","","","","","","","","","",""
"20959","","image-button-response_instructions","4","58680","0.0-4.0","A3EKKEZ21SGJEC","","0","instructions","","","","","","","","","","","","","","","","","","","","","","","",""
"54438","","image-button-response_instructions","5","113119","0.0-5.0","A3EKKEZ21SGJEC","img_art/ins/popularity/ins1.png","0","instructions","","","","","","","","","","","","","","","","","","","","","","","",""
"10445","","image-button-response_instructions","6","123567","0.0-6.0","A3EKKEZ21SGJEC","img_art/ins/popularity/ins2.png","0","instructions","","","","","","","","","","","","","","","","","","","","","","","",""
"8966","","image-button-response_instructions","7","132534","0.0-7.0","A3EKKEZ21SGJEC","img_art/ins/popularity/ins2Extreme.png","0","instructions","","","","","","","","","","","","","","","","","","","","","","","",""
"12046","","image-button-response_instructions","8","144582","0.0-8.0","A3EKKEZ21SGJEC","img_art/ins/popularity/ins3KEEPpop.PNG","0","instructions","","","","","","","","","","","","","","","","","","","","","","","",""
"7862","","image-button-response_instructions","9","152446","0.0-9.0","A3EKKEZ21SGJEC","img_art/ins/popularity/ins3ANamepop.PNG","0","instructions","","","","","","","","","","","","","","","","","","","","","","","",""
"10422","","image-button-response_instructions","10","162870","0.0-10.0","A3EKKEZ21SGJEC","img_art/ins/popularity/ins3ARatingpop.png","0","instructions","","","","","","","","","","","","","","","","","","","","","","","",""
"14247","","image-button-response_instructions","11","177119","0.0-11.0","A3EKKEZ21SGJEC","img_art/ins/popularity/ins3ATextpop.png","0","instructions","","","","","","","","","","","","","","","","","","","","","","","",""
"6093","","image-button-response_instructions","12","183214","0.0-12.0","A3EKKEZ21SGJEC","img_art/ins/popularity/ins3ALikespop.png","0","instructions","","","","","","","","","","","","","","","","","","","","","","","",""
"26927","","image-button-response_instructions","13","210142","0.0-13.0","A3EKKEZ21SGJEC","img_art/ins/popularity/ins3KEEPpop.PNG","0","instructions","","","","","","","","","","","","","","","","","","","","","","","",""
"30966","","image-button-response_instructions","14","241109","0.0-14.0","A3EKKEZ21SGJEC","img_art/ins/popularity/ins3_5RED.png","0","instructions","","","","","","","","","","","","","","","","","","","","","","","",""
"19279","","image-button-response_instructions","15","260389","0.0-15.0","A3EKKEZ21SGJEC","img_art/ins/popularity/ins3KEEPpop.PNG","0","instructions","","","","","","","","","","","","","","","","","","","","","","","",""
"18926","","image-button-response_instructions","16","279317","0.0-16.0","A3EKKEZ21SGJEC","img_art/ins/popularity/ins4KEEPpop.PNG","0","instructions","","","","","","","","","","","","","","","","","","","","","","","",""
"13415","","image-button-response_instructions","17","292733","0.0-17.0","A3EKKEZ21SGJEC","img_art/ins/popularity/ins5KEEPpop.PNG","0","instructions","","","","","","","","","","","","","","","","","","","","","","","",""
"2399","","image-button-response_instructions","18","295132","0.0-18.0","A3EKKEZ21SGJEC","","0","instructions","","","","","","","","","","","","","","","","","","","","","","","",""
"10371","","survey-text","19","305533","0.0-19.0-0.0","A3EKKEZ21SGJEC","","","","{""Q0"":""but""}","","","","","","","","","","","","","","","","","","","","","","",""
"32071","","survey-text","20","337604","0.0-20.0-0.0","A3EKKEZ21SGJEC","","","","{""Q0"":""This picture is colorful but confusing. ""}","","","","","","","","","","","","","","","","","","","","","","",""
"20899","","image-slider-response","21","358507","0.0-21.0","A3EKKEZ21SGJEC","","","","","17","","","","","","","","","","","","","","","","","","","","","",""
"null","","image-button-response","22","363510","0.0-22.0","A3EKKEZ21SGJEC","img_art/ins/1.jpg","null","","","","","","","","","","","","","","","","","","","","","","","","",""
"7300","","image-button-response","23","370812","0.0-23.0","A3EKKEZ21SGJEC","img_art/ins/1.jpg","5","","","","","","","","","","","","","","","","","","","","","","","","",""
"11917","","image-button-response","24","382732","0.0-24.0-0.0","A3EKKEZ21SGJEC","img_art/ins/1.jpg","0","","","","","","","","","","","","","","","","","","","","","","","","",""
"2605","","image-button-response","25","385340","0.0-25.0-0.0","A3EKKEZ21SGJEC","img_art/ins/1.jpg","0","","","","","","","","","","","","","","","","","","","","","","","","",""
"9551","","image-button-response","26","401019","0.0-25.1-0.1","A3EKKEZ21SGJEC","img_art/ins/1.jpg","3","","","","","","","","","","","","","","","","","","","","","","","","",""
"null","","html-keyboard-response","27","401529","0.0-26.0","A3EKKEZ21SGJEC","<p style=""font-size: 48px;"">+</p>","","","","","null","allTrialResponses","500","1","-2","img_art/ins/1.jpg","17","This picture is colorful but confusing. ","Allison,Ashley,Beth,Dora,Erika,Jen","looks like a lot of things going on in the mist,20,20,20","I just don't get why these type of art would be popular,-32,40,20","This color reminds me of poo,-46,60,20","looks like what my niece in 3rd grade did this afternoon,-50,80,20","I like the sophisticated brushwork,40,100,20","It reminds me of a candy land dream I had,36,120,20","Jen","It reminds me of a candy land dream I had,36,120,20","Allison","looks like a lot of things going on in the mist,20,20,20","Dora","looks like what my niece in 3rd grade did this afternoon,-50,80,20","2"
"44179","","survey-text","28","445715","0.0-27.0-0.0","A3EKKEZ21SGJEC","","","","{""Q0"":""This painting is very abstract and bold. ""}","","","","","","","","","","","","","","","","","","","","","","",""
"5365","","image-slider-response","29","451082","0.0-28.0","A3EKKEZ21SGJEC","","","","","-21","","","","","","","","","","","","","","","","","","","","","",""
"null","","image-button-response","30","456085","0.0-29.0","A3EKKEZ21SGJEC","img_art/ins/2.jpg","null","","","","","","","","","","","","","","","","","","","","","","","","",""
"5413","","image-button-response","31","461499","0.0-30.0","A3EKKEZ21SGJEC","img_art/ins/2.jpg","3","","","","","","","","","","","","","","","","","","","","","","","","",""
"11310","","image-button-response","32","472811","0.0-31.0-0.0","A3EKKEZ21SGJEC","img_art/ins/2.jpg","5","","","","","","","","","","","","","","","","","","","","","","","","",""
"8174","","image-button-response","33","480986","0.0-32.0-0.0","A3EKKEZ21SGJEC","img_art/ins/2.jpg","0","","","","","","","","","","","","","","","","","","","","","","","","",""
"null","","html-keyboard-response","34","482003","0.0-33.0","A3EKKEZ21SGJEC","<p style=""font-size: 48px;"">+</p>","","","","","null","allTrialResponses","1000","1","-1","img_art/ins/2.jpg","-21","This painting is very abstract and bold. ","Allison,Jenna,Katie,Dora,Kara,Jen","I don't have strong feelings about this,10,20,20","One of my pet peevs,-48,140,20","too much color!,-28,180,20","looks too angry,-50,80,20","I like the blocks of color arrangements,30,160,20","It reminds me of a fireplace,36,120,20","Dora","looks too angry,-50,80,20","Jen","It reminds me of a fireplace,36,120,20","Allison","I don't have strong feelings about this,10,20,20","2"
"71797","","survey-text","35","553818","0.0-34.0-0.0","A3EKKEZ21SGJEC","","","","{""Q0"":""Love the blue. This print symbolizes something different to everyone.""}","","","","","","","","","","","","","","","","","","","","","","",""
"6021","","image-slider-response","36","559841","0.0-35.0","A3EKKEZ21SGJEC","","","","","34","","","","","","","","","","","","","","","","","","","","","",""
"3415","","image-button-response","37","564857","0.0-36.0","A3EKKEZ21SGJEC","img_art/ins/3.jpg","0","","","","","","","","","","","","","","","","","","","","","","","","",""
"3111","","image-button-response","38","567969","0.0-37.0","A3EKKEZ21SGJEC","img_art/ins/3.jpg","4","","","","","","","","","","","","","","","","","","","","","","","","",""
"3182","","image-button-response","39","571153","0.0-38.0-0.0","A3EKKEZ21SGJEC","img_art/ins/3.jpg","5","","","","","","","","","","","","","","","","","","","","","","","","",""
"10454","","image-button-response","40","581610","0.0-39.0-0.0","A3EKKEZ21SGJEC","img_art/ins/3.jpg","0","","","","","","","","","","","","","","","","","","","","","","","","",""
"null","","html-keyboard-response","41","583111","0.0-40.0","A3EKKEZ21SGJEC","<p style=""font-size: 48px;"">+</p>","","","","","null","allTrialResponses","1500","1","0","img_art/ins/3.jpg","34","Love the blue. This print symbolizes something different to everyone.","Allison,Leslie,Rose,Dora,Mary,Jen","enjoy the different shades of blue,22,20,20","It's an alright work,15,200,20","My daily routine, it's depressing,-20,240,20","My worst nightmare,-42,80,20","I like the overlapping of brushes,41,220,20","I can feel a rainy day from this painting,18,120,20","Mary","I like the overlapping of brushes,41,220,20","Jen","I can feel a rainy day from this painting,18,120,20","Allison","enjoy the different shades of blue,22,20,20","2"
"11094","","image-button-response_instructions","42","594209","0.0-41.0","A3EKKEZ21SGJEC","","0","instructions","","","","","","","","","","","","","","","","","","","","","","","",""
"14662","","survey-likert","43","608872","0.0-42.0-0.0","A3EKKEZ21SGJEC","","","","{""Q0"":"""",""Q1"":0,""Q2"":1}","","","","","","","","","","","","","","","","","","","","","","",""
"6875","","survey-text","44","615753","0.0-43.0-0.0","A3EKKEZ21SGJEC","","","","{""Q0"":""rock""}","","","","","","","","","","","","","","","","","","","","","","",""
"26959","","survey-text","45","642713","0.0-44.0-0.0","A3EKKEZ21SGJEC","","","","{""Q0"":""Looks like a deserted ghost town. ""}","","","","","","","","","","","","","","","","","","","","","","",""
"4534","","image-slider-response","46","647248","0.0-45.0","A3EKKEZ21SGJEC","","","","","28","","","","","","","","","","","","","","","","","","","","","",""
"null","","image-button-response","47","652262","0.0-46.0","A3EKKEZ21SGJEC","img_art/20.jpg","null","","","","","","","","","","","","","","","","","","","","","","","","",""
"9273","","image-button-response","48","661537","0.0-47.0","A3EKKEZ21SGJEC","img_art/20.jpg","5","","","","","","","","","","","","","","","","","","","","","","","","",""
"4174","","image-button-response","49","665713","0.0-48.0-0.0","A3EKKEZ21SGJEC","img_art/20.jpg","0","","","","","","","","","","","","","","","","","","","","","","","","",""
"3270","","image-button-response","50","668984","0.0-49.0-0.0","A3EKKEZ21SGJEC","img_art/20.jpg","0","","","","","","","","","","","","","","","","","","","","","","","","",""
"7242","","image-button-response","51","679280","0.0-49.1-0.1","A3EKKEZ21SGJEC","img_art/20.jpg","3","","","","","","","","","","","","","","","","","","","","","","","","",""
"null","","html-keyboard-response","52","680790","0.0-50.0","A3EKKEZ21SGJEC","<p style=""font-size: 48px;"">+</p>","","","","","null","allTrialResponses","1500","1","1","img_art/20.jpg","28","Looks like a deserted ghost town. ","Cassidy,Jacqueline,Jasmine,Madison,Jordan,Victoria","sort of pleasant to look at, but can't tell if it's supposed to be something,13,140,20","Looks like a refinery dumping shit into the water.,-40,300,20","This one is okay but I don't really care for it,5,340,20","This is not abstract art, it is representative.,0,60,20","It's okay, I see what looks like a truck laying on it's side. Meh,10,20,20","like the colors and desert feel,7,400,20","Victoria","like the colors and desert feel,7,400,20","Cassidy","sort of pleasant to look at, but can't tell if it's supposed to be something,13,140,20","Madison","This is not abstract art, it is representative.,0,60,20","4"
"29998","","survey-text","53","710792","0.0-51.0-0.0","A3EKKEZ21SGJEC","","","","{""Q0"":""Too modern for my taste. ""}","","","","","","","","","","","","","","","","","","","","","","",""
"4478","","image-slider-response","54","715272","0.0-52.0","A3EKKEZ21SGJEC","","","","","-22","","","","","","","","","","","","","","","","","","","","","",""
"null","","image-button-response","55","720278","0.0-53.0","A3EKKEZ21SGJEC","img_art/29.jpg","null","","","","","","","","","","","","","","","","","","","","","","","","",""
"4641","","image-button-response","56","724920","0.0-54.0","A3EKKEZ21SGJEC","img_art/29.jpg","3","","","","","","","","","","","","","","","","","","","","","","","","",""
"3047","","image-button-response","57","727968","0.0-55.0-0.0","A3EKKEZ21SGJEC","img_art/29.jpg","4","","","","","","","","","","","","","","","","","","","","","","","","",""
"2559","","image-button-response","58","730528","0.0-56.0-0.0","A3EKKEZ21SGJEC","img_art/29.jpg","5","","","","","","","","","","","","","","","","","","","","","","","","",""
"null","","html-keyboard-response","59","731032","0.0-57.0","A3EKKEZ21SGJEC","<p style=""font-size: 48px;"">+</p>","","","","","null","allTrialResponses","500","1","2","img_art/29.jpg","-22","Too modern for my taste. ","Cassidy,Chelsea,Andrea,Madison,Kaitlyn,Victoria","I like the colors but it looks very amateur,1,140,20","It is intriguing but I don't like the red X.,6,180,20","Bottomless pit and prison. Feels like its saying time is precious.,11,240,20","Well if the artist themself is crossing it out, why should I pay any mind?,-30,60,20","I do not like the red x present in the picture,-6,80,20","makes me think of destruction,-20,400,20","Madison","Well if the artist themself is crossing it out, why should I pay any mind?,-30,60,20","Kaitlyn","I do not like the red x present in the picture,-6,80,20","Victoria","makes me think of destruction,-20,400,20","4"
"28244","","survey-text","60","759279","0.0-58.0-0.0","A3EKKEZ21SGJEC","","","","{""Q0"":""Like the colors but this piece looks like it was painted by a child.""}","","","","","","","","","","","","","","","","","","","","","","",""
"4695","","image-slider-response","61","763976","0.0-59.0","A3EKKEZ21SGJEC","","","","","11","","","","","","","","","","","","","","","","","","","","","",""
"null","","image-button-response","62","768977","0.0-60.0","A3EKKEZ21SGJEC","img_art/27.jpg","null","","","","","","","","","","","","","","","","","","","","","","","","",""
"957","","image-button-response","63","769935","0.0-61.0","A3EKKEZ21SGJEC","img_art/27.jpg","2","","","","","","","","","","","","","","","","","","","","","","","","",""
"8415","","image-button-response","64","778351","0.0-62.0-0.0","A3EKKEZ21SGJEC","img_art/27.jpg","4","","","","","","","","","","","","","","","","","","","","","","","","",""
"1247","","image-button-response","65","779599","0.0-63.0-0.0","A3EKKEZ21SGJEC","img_art/27.jpg","0","","","","","","","","","","","","","","","","","","","","","","","","",""
"null","","html-keyboard-response","66","781101","0.0-64.0","A3EKKEZ21SGJEC","<p style=""font-size: 48px;"">+</p>","","","","","null","allTrialResponses","1500","1","3","img_art/27.jpg","11","Like the colors but this piece looks like it was painted by a child.","Kylie,Natalie,Michelle,Madison,Kaitlyn,Victoria","Soothing in the middle of some confusion,40,300,20","also gives me anxiety,-21,400,20","very abstract, I don't understand it, but I like the bright, cheerful colors,14,280,20","The photographing is horribly distracting. I would feel more favorable toward the original colors/ brightness,1,60,20","The variation of orange is nice,9,80,20","reminds me of fall,33,400,20","Michelle","very abstract, I don't understand it, but I like the bright, cheerful colors,14,280,20","Kaitlyn","The variation of orange is nice,9,80,20","Kylie","Soothing in the middle of some confusion,40,300,20","4"
"32733","","survey-text","67","813838","0.0-65.0-0.0","A3EKKEZ21SGJEC","","","","{""Q0"":""Reminds me of people celebrating in a rainbow of colors.""}","","","","","","","","","","","","","","","","","","","","","","",""
"4534","","image-slider-response","68","818375","0.0-66.0","A3EKKEZ21SGJEC","","","","","45","","","","","","","","","","","","","","","","","","","","","",""
"2607","","image-button-response","69","823380","0.0-67.0","A3EKKEZ21SGJEC","img_art/23.jpg","0","","","","","","","","","","","","","","","","","","","","","","","","",""
"1801","","image-button-response","70","825182","0.0-68.0","A3EKKEZ21SGJEC","img_art/23.jpg","2","","","","","","","","","","","","","","","","","","","","","","","","",""
"6759","","image-button-response","71","831942","0.0-69.0-0.0","A3EKKEZ21SGJEC","img_art/23.jpg","3","","","","","","","","","","","","","","","","","","","","","","","","",""
"4262","","image-button-response","72","836206","0.0-70.0-0.0","A3EKKEZ21SGJEC","img_art/23.jpg","0","","","","","","","","","","","","","","","","","","","","","","","","",""
"null","","html-keyboard-response","73","837217","0.0-71.0","A3EKKEZ21SGJEC","<p style=""font-size: 48px;"">+</p>","","","","","null","allTrialResponses","1000","1","4","img_art/23.jpg","45","Reminds me of people celebrating in a rainbow of colors.","Kylie,Christina,Michelle,Anna,Kaitlyn,Heather","Universal celebration,40,300,20","nice bright colors but looks like it's from the 90's,6,240,20","This is nice, the colorful background is fun and the white looks like dancing figures,5,280,20","I love the colors and the contrast.,50,300,20","Interesting contrast,9,80,20","illegible wording with a graffiti background,1,260,20","Michelle","This is nice, the colorful background is fun and the white looks like dancing figures,5,280,20","Anna","I love the colors and the contrast.,50,300,20","Kylie","Universal celebration,40,300,20","4"
"31482","","survey-text","74","868702","0.0-72.0-0.0","A3EKKEZ21SGJEC","","","","{""Q0"":""Looks like an apartment setting in the city. ""}","","","","","","","","","","","","","","","","","","","","","","",""
"4207","","image-slider-response","75","872909","0.0-73.0","A3EKKEZ21SGJEC","","","","","24","","","","","","","","","","","","","","","","","","","","","",""
"2519","","image-button-response","76","877922","0.0-74.0","A3EKKEZ21SGJEC","img_art/26.jpg","0","","","","","","","","","","","","","","","","","","","","","","","","",""
"4484","","image-button-response","77","882406","0.0-75.0","A3EKKEZ21SGJEC","img_art/26.jpg","4","","","","","","","","","","","","","","","","","","","","","","","","",""
"1670","","image-button-response","78","884078","0.0-76.0-0.0","A3EKKEZ21SGJEC","img_art/26.jpg","5","","","","","","","","","","","","","","","","","","","","","","","","",""
"1631","","image-button-response","79","885710","0.0-77.0-0.0","A3EKKEZ21SGJEC","img_art/26.jpg","0","","","","","","","","","","","","","","","","","","","","","","","","",""
"null","","html-keyboard-response","80","886213","0.0-78.0","A3EKKEZ21SGJEC","<p style=""font-size: 48px;"">+</p>","","","","","null","allTrialResponses","500","1","5","img_art/26.jpg","24","Looks like an apartment setting in the city. ","Kylie,Isabella,Michelle,Anna,Courtney,Abigail","Picturesque little town,45,300,20","Colors are full and reminds me of a messy room,-9,280,20","I can make out a street view and I am a fan of watercolors but still too boring,15,280,20","It looks like a watercolor I did when I was 6.,-30,300,20","Some trees in front of a house.,2,280,20","Reminds me of walks in my dads city when I was little,22,20,20","Courtney","Some trees in front of a house.,2,280,20","Abigail","Reminds me of walks in my dads city when I was little,22,20,20","Kylie","Picturesque little town,45,300,20","4"
"4858","","survey-text","81","891078","0.0-79.0-0.0","A3EKKEZ21SGJEC","","","","{""Q0"":""sky""}","","","","","","","","","","","","","","","","","","","","","","",""
"36669","","survey-text","82","927749","0.0-80.0-0.0","A3EKKEZ21SGJEC","","","","{""Q0"":""Love the colors. Looks like a tree growing out of a building.""}","","","","","","","","","","","","","","","","","","","","","","",""
"5254","","image-slider-response","83","933005","0.0-81.0","A3EKKEZ21SGJEC","","","","","25","","","","","","","","","","","","","","","","","","","","","",""
"null","","image-button-response","84","938007","0.0-82.0","A3EKKEZ21SGJEC","img_art/17.jpg","null","","","","","","","","","","","","","","","","","","","","","","","","",""
"5228","","image-button-response","85","943237","0.0-83.0","A3EKKEZ21SGJEC","img_art/17.jpg","0","","","","","","","","","","","","","","","","","","","","","","","","",""
"2455","","image-button-response","86","945693","0.0-84.0-0.0","A3EKKEZ21SGJEC","img_art/17.jpg","5","","","","","","","","","","","","","","","","","","","","","","","","",""
"7198","","image-button-response","87","952893","0.0-85.0-0.0","A3EKKEZ21SGJEC","img_art/17.jpg","3","","","","","","","","","","","","","","","","","","","","","","","","",""
"null","","html-keyboard-response","88","953902","0.0-86.0","A3EKKEZ21SGJEC","<p style=""font-size: 48px;"">+</p>","","","","","null","allTrialResponses","1000","1","6","img_art/17.jpg","25","Love the colors. Looks like a tree growing out of a building.","Kylie,Hailey,Meghan,Sydney,Courtney,Abigail","Looks like an explosion of pretty artwork,45,300,20","soft and warm light colors are relaxing,12,200,20","pretty bland in coloring,1,220,20","This picture is calming to me, and I love the colors.,45,320,20","Some new perm we got there.,12,280,20","Really love the branches. The bottom made it not perfect,42,20,20","Kylie","Looks like an explosion of pretty artwork,45,300,20","Abigail","Really love the branches. The bottom made it not perfect,42,20,20","Sydney","This picture is calming to me, and I love the colors.,45,320,20","4"
"46185","","survey-text","89","1000092","0.0-87.0-0.0","A3EKKEZ21SGJEC","","","","{""Q0"":""Rather boring- not enough colors.""}","","","","","","","","","","","","","","","","","","","","","","",""
"5022","","image-slider-response","90","1005116","0.0-88.0","A3EKKEZ21SGJEC","","","","","-34","","","","","","","","","","","","","","","","","","","","","",""
"null","","image-button-response","91","1010119","0.0-89.0","A3EKKEZ21SGJEC","img_art/4.jpg","null","","","","","","","","","","","","","","","","","","","","","","","","",""
"3349","","image-button-response","92","1013468","0.0-90.0","A3EKKEZ21SGJEC","img_art/4.jpg","1","","","","","","","","","","","","","","","","","","","","","","","","",""
"1047","","image-button-response","93","1014516","0.0-91.0-0.0","A3EKKEZ21SGJEC","img_art/4.jpg","2","","","","","","","","","","","","","","","","","","","","","","","","",""
"1238","","image-button-response","94","1015756","0.0-92.0-0.0","A3EKKEZ21SGJEC","img_art/4.jpg","4","","","","","","","","","","","","","","","","","","","","","","","","",""
"null","","html-keyboard-response","95","1016267","0.0-93.0","A3EKKEZ21SGJEC","<p style=""font-size: 48px;"">+</p>","","","","","null","allTrialResponses","500","1","7","img_art/4.jpg","-34","Rather boring- not enough colors.","Kylie,Erin,Jessica,Sydney,Alexa,Abigail","I just have no clue,26,300,20","Seems simplistic,-8,120,20","Looks like they just smothered on some paint and called it a day.,-17,400,20","This piece catches my eye, but it's strange to me.,10,320,20","A bit too plain for my tastes,-10,40,20","A hand reaching for something it cannot obtain,-9,20,20","Erin","Seems simplistic,-8,120,20","Jessica","Looks like they just smothered on some paint and called it a day.,-17,400,20","Alexa","A bit too plain for my tastes,-10,40,20","4"
"21994","","survey-text","96","1038267","0.0-94.0-0.0","A3EKKEZ21SGJEC","","","","{""Q0"":""Looks like a stormy day on the sea. ""}","","","","","","","","","","","","","","","","","","","","","","",""
"4430","","image-slider-response","97","1042700","0.0-95.0","A3EKKEZ21SGJEC","","","","","26","","","","","","","","","","","","","","","","","","","","","",""
"null","","image-button-response","98","1047716","0.0-96.0","A3EKKEZ21SGJEC","img_art/10.jpg","null","","","","","","","","","","","","","","","","","","","","","","","","",""
"3006","","image-button-response","99","1050724","0.0-97.0","A3EKKEZ21SGJEC","img_art/10.jpg","0","","","","","","","","","","","","","","","","","","","","","","","","",""
"3470","","image-button-response","100","1054195","0.0-98.0-0.0","A3EKKEZ21SGJEC","img_art/10.jpg","4","","","","","","","","","","","","","","","","","","","","","","","","",""
"3303","","image-button-response","101","1057500","0.0-99.0-0.0","A3EKKEZ21SGJEC","img_art/10.jpg","1","","","","","","","","","","","","","","","","","","","","","","","","",""
"null","","html-keyboard-response","102","1058005","0.0-100.0","A3EKKEZ21SGJEC","<p style=""font-size: 48px;"">+</p>","","","","","null","allTrialResponses","500","1","8","img_art/10.jpg","26","Looks like a stormy day on the sea. ","Bailey,Erin,Jessica,Katie,Alexa,Maria","For black and white, this is pretty vibrant and cool. I like this.,39,360,20","Cello music instrument,11,120,20","I feel like this has a cool concept behind it.,11,400,20","Dark and weird. Unidentifiable shape. I can't tell what it is, so I don't like it.,-50,160,20","Cute and has a vintage feel to it,45,40,20","not sure what to make of this one,0,120,20","Bailey","For black and white, this is pretty vibrant and cool. I like this.,39,360,20","Alexa","Cute and has a vintage feel to it,45,40,20","Erin","Cello music instrument,11,120,20","4"
"26882","","survey-text","103","1084892","0.0-101.0-0.0","A3EKKEZ21SGJEC","","","","{""Q0"":""Pretty colors but design is too busy. ""}","","","","","","","","","","","","","","","","","","","","","","",""
"4814","","image-slider-response","104","1089707","0.0-102.0","A3EKKEZ21SGJEC","","","","","17","","","","","","","","","","","","","","","","","","","","","",""
"null","","image-button-response","105","1094720","0.0-103.0","A3EKKEZ21SGJEC","img_art/2.jpg","null","","","","","","","","","","","","","","","","","","","","","","","","",""
"1194","","image-button-response","106","1095915","0.0-104.0","A3EKKEZ21SGJEC","img_art/2.jpg","0","","","","","","","","","","","","","","","","","","","","","","","","",""
"6311","","image-button-response","107","1102227","0.0-105.0-0.0","A3EKKEZ21SGJEC","img_art/2.jpg","4","","","","","","","","","","","","","","","","","","","","","","","","",""
"6527","","image-button-response","108","1108755","0.0-106.0-0.0","A3EKKEZ21SGJEC","img_art/2.jpg","1","","","","","","","","","","","","","","","","","","","","","","","","",""
"null","","html-keyboard-response","109","1109757","0.0-107.0","A3EKKEZ21SGJEC","<p style=""font-size: 48px;"">+</p>","","","","","null","allTrialResponses","1000","1","9","img_art/2.jpg","17","Pretty colors but design is too busy. ","Bailey,Erin,Caroline,Erika,Alexa,Catherine","Too gloopy and unfocused,-38,360,20","There is an odd face here that is creepy,-4,120,20","Colors are drab and cause a sense of blandness,-28,100,20","Indistinct and too bright,-21,100,20","Not my favorite but I can see this being hung in a art museum,25,40,20","Dependence. Things relying on each other. Caring,-4,160,20","Bailey","Too gloopy and unfocused,-38,360,20","Alexa","Not my favorite but I can see this being hung in a art museum,25,40,20","Erin","There is an odd face here that is creepy,-4,120,20","4"
"22465","","survey-text","110","1132227","0.0-108.0-0.0","A3EKKEZ21SGJEC","","","","{""Q0"":""I sense something bad is about to happen. ""}","","","","","","","","","","","","","","","","","","","","","","",""
"5566","","image-slider-response","111","1137795","0.0-109.0","A3EKKEZ21SGJEC","","","","","-14","","","","","","","","","","","","","","","","","","","","","",""
"null","","image-button-response","112","1142797","0.0-110.0","A3EKKEZ21SGJEC","img_art/21.jpg","null","","","","","","","","","","","","","","","","","","","","","","","","",""
"7301","","image-button-response","113","1150098","0.0-111.0","A3EKKEZ21SGJEC","img_art/21.jpg","0","","","","","","","","","","","","","","","","","","","","","","","","",""
"13023","","image-button-response","114","1163122","0.0-112.0-0.0","A3EKKEZ21SGJEC","img_art/21.jpg","1","","","","","","","","","","","","","","","","","","","","","","","","",""
"4398","","image-button-response","115","1167522","0.0-113.0-0.0","A3EKKEZ21SGJEC","img_art/21.jpg","4","","","","","","","","","","","","","","","","","","","","","","","","",""
"null","","html-keyboard-response","116","1169025","0.0-114.0","A3EKKEZ21SGJEC","<p style=""font-size: 48px;"">+</p>","","","","","null","allTrialResponses","1500","1","10","img_art/21.jpg","-14","I sense something bad is about to happen. ","Bailey,Erin,Mariah,Kristen,Alexa,Alicia","Looks like two ships on fire. Cool image.,12,360,20","Love the colors and hue, ocean,38,120,20","Motion, the light marks in the lower right corner are very appealing.,15,140,20","calm, ship at sea, sunset,16,280,20","I love the colors in this painting,30,40,20","Don't know why I like it, cant describe, maybe many landscapes?,47,120,20","Bailey","Looks like two ships on fire. Cool image.,12,360,20","Erin","Love the colors and hue, ocean,38,120,20","Alexa","I love the colors in this painting,30,40,20","4"
"5161","","survey-text","117","1174195","0.0-115.0-0.0","A3EKKEZ21SGJEC","","","","{""Q0"":""our""}","","","","","","","","","","","","","","","","","","","","","","",""
"51982","","survey-text","118","1226178","0.0-116.0-0.0","A3EKKEZ21SGJEC","","","","{""Q0"":""The dark figure reminds me of a crow. ""}","","","","","","","","","","","","","","","","","","","","","","",""
"6254","","image-slider-response","119","1232433","0.0-117.0","A3EKKEZ21SGJEC","","","","","34","","","","","","","","","","","","","","","","","","","","","",""
"null","","image-button-response","120","1237436","0.0-118.0","A3EKKEZ21SGJEC","img_art/6.jpg","null","","","","","","","","","","","","","","","","","","","","","","","","",""
"883","","image-button-response","121","1238322","0.0-119.0","A3EKKEZ21SGJEC","img_art/6.jpg","1","","","","","","","","","","","","","","","","","","","","","","","","",""
"2486","","image-button-response","122","1240809","0.0-120.0-0.0","A3EKKEZ21SGJEC","img_art/6.jpg","2","","","","","","","","","","","","","","","","","","","","","","","","",""
"7110","","image-button-response","123","1247922","0.0-121.0-0.0","A3EKKEZ21SGJEC","img_art/6.jpg","5","","","","","","","","","","","","","","","","","","","","","","","","",""
"null","","html-keyboard-response","124","1248427","0.0-122.0","A3EKKEZ21SGJEC","<p style=""font-size: 48px;"">+</p>","","","","","null","allTrialResponses","500","1","11","img_art/6.jpg","34","The dark figure reminds me of a crow. ","Bailey,Erin,Gabrielle,Kaylee,Alexa,Alexandra","Not my favorite, but I like the empty vibe and the imagination it invokes. A skinny girl with long legs, perhaps, looking over a cliff,9,360,20","Blackbird in the desert,27,120,20","simplistic but reminds me of a crow in a field,-10,160,20","just an another tree on a desert?,9,200,20","Too basic for me,-20,40,20","this is interesting and unique,11,60,20","Erin","Blackbird in the desert,27,120,20","Gabrielle","simplistic but reminds me of a crow in a field,-10,160,20","Alexandra","this is interesting and unique,11,60,20","4"
"29049","","survey-text","125","1277481","0.0-123.0-0.0","A3EKKEZ21SGJEC","","","","{""Q0"":""Too much red. It makes me think of a crime scene. ""}","","","","","","","","","","","","","","","","","","","","","","",""
"5021","","image-slider-response","126","1282505","0.0-124.0","A3EKKEZ21SGJEC","","","","","-36","","","","","","","","","","","","","","","","","","","","","",""
"null","","image-button-response","127","1287512","0.0-125.0","A3EKKEZ21SGJEC","img_art/3.jpg","null","","","","","","","","","","","","","","","","","","","","","","","","",""
"1808","","image-button-response","128","1289321","0.0-126.0","A3EKKEZ21SGJEC","img_art/3.jpg","1","","","","","","","","","","","","","","","","","","","","","","","","",""
"4231","","image-button-response","129","1293553","0.0-127.0-0.0","A3EKKEZ21SGJEC","img_art/3.jpg","3","","","","","","","","","","","","","","","","","","","","","","","","",""
"1790","","image-button-response","130","1295345","0.0-128.0-0.0","A3EKKEZ21SGJEC","img_art/3.jpg","4","","","","","","","","","","","","","","","","","","","","","","","","",""
"null","","html-keyboard-response","131","1296358","0.0-129.0","A3EKKEZ21SGJEC","<p style=""font-size: 48px;"">+</p>","","","","","null","allTrialResponses","1000","1","12","img_art/3.jpg","-36","Too much red. It makes me think of a crime scene. ","Ashley,Erin,Gabrielle,Stephanie,Angelica,Alexandra","Reminds of John Lenonn's art a bit.,27,320,20","Shapes are interesting but color is overwhelming,5,120,20","7th grade art, not much effort to do this.,-39,160,20","I think of an angry child,-50,300,20","This is angry and childish looking.,-49,280,20","I could scribble on paper and mimic this,-48,60,20","Erin","Shapes are interesting but color is overwhelming,5,120,20","Stephanie","I think of an angry child,-50,300,20","Angelica","This is angry and childish looking.,-49,280,20","4"
"21534","","survey-text","132","1317897","0.0-130.0-0.0","A3EKKEZ21SGJEC","","","","{""Q0"":""Love the vintage look of the teddy bear. ""}","","","","","","","","","","","","","","","","","","","","","","",""
"5110","","image-slider-response","133","1323008","0.0-131.0","A3EKKEZ21SGJEC","","","","","32","","","","","","","","","","","","","","","","","","","","","",""
"4174","","image-button-response","134","1328011","0.0-132.0","A3EKKEZ21SGJEC","img_art/16.jpg","0","","","","","","","","","","","","","","","","","","","","","","","","",""
"1108","","image-button-response","135","1329121","0.0-133.0","A3EKKEZ21SGJEC","img_art/16.jpg","0","","","","","","","","","","","","","","","","","","","","","","","","",""
"23566","","image-button-response","136","1352688","0.0-134.0-0.0","A3EKKEZ21SGJEC","img_art/16.jpg","2","","","","","","","","","","","","","","","","","","","","","","","","",""
"1007","","image-button-response","137","1353696","0.0-135.0-0.0","A3EKKEZ21SGJEC","img_art/16.jpg","5","","","","","","","","","","","","","","","","","","","","","","","","",""
"null","","html-keyboard-response","138","1355198","0.0-136.0","A3EKKEZ21SGJEC","<p style=""font-size: 48px;"">+</p>","","","","","null","allTrialResponses","1500","1","13","img_art/16.jpg","32","Love the vintage look of the teddy bear. ","Cassandra,Erin,Kelly,Stephanie,Angelica,Miranda","I like the teddy bear,but a neutral feeling,5,120,20","Not original. Bear is odd,-50,120,20","Looks like someone got really high and did a bad photoshop job.,-27,220,20","It looks violent.,-30,300,20","This is creepy and puerile.,-45,280,20","This looks like it was made by an art student filled with angst,-30,320,20","Cassandra","I like the teddy bear,but a neutral feeling,5,120,20","Kelly","Looks like someone got really high and did a bad photoshop job.,-27,220,20","Miranda","This looks like it was made by an art student filled with angst,-30,320,20","4"
"83013","","survey-text","139","1438215","0.0-137.0-0.0","A3EKKEZ21SGJEC","","","","{""Q0"":""Looks like a forest landscape with a stream running through it""}","","","","","","","","","","","","","","","","","","","","","","",""
"5206","","image-slider-response","140","1443423","0.0-138.0","A3EKKEZ21SGJEC","","","","","49","","","","","","","","","","","","","","","","","","","","","",""
"2974","","image-button-response","141","1448427","0.0-139.0","A3EKKEZ21SGJEC","img_art/24.jpg","0","","","","","","","","","","","","","","","","","","","","","","","","",""
"1499","","image-button-response","142","1449927","0.0-140.0","A3EKKEZ21SGJEC","img_art/24.jpg","0","","","","","","","","","","","","","","","","","","","","","","","","",""
"9550","","image-button-response","143","1459479","0.0-141.0-0.0","A3EKKEZ21SGJEC","img_art/24.jpg","1","","","","","","","","","","","","","","","","","","","","","","","","",""
"3783","","image-button-response","144","1463263","0.0-142.0-0.0","A3EKKEZ21SGJEC","img_art/24.jpg","3","","","","","","","","","","","","","","","","","","","","","","","","",""
"null","","html-keyboard-response","145","1463768","0.0-143.0","A3EKKEZ21SGJEC","<p style=""font-size: 48px;"">+</p>","","","","","null","allTrialResponses","500","1","14","img_art/24.jpg","49","Looks like a forest landscape with a stream running through it","Cassandra,Shelby,Kelly,Elizabeth,Cynthia,Miranda","I like it...looks like a waterfall.,11,120,20","Earthy wonderful, love everything about it,50,240,20","Cute; I like what the image itself & the colors.,25,220,20","Evokes pleasant feelings,50,20,20","Interested in visiting this place,18,320,20","I find the colors work really well. It's very pretty but I have no idea as what it is.,34,320,20","Cassandra","I like it...looks like a waterfall.,11,120,20","Shelby","Earthy wonderful, love everything about it,50,240,20","Elizabeth","Evokes pleasant feelings,50,20,20","4"
"38281","","survey-text","146","1502055","0.0-144.0-0.0","A3EKKEZ21SGJEC","","","","{""Q0"":""The woman is ill and lying in bed.""}","","","","","","","","","","","","","","","","","","","","","","",""
"9806","","image-slider-response","147","1511862","0.0-145.0","A3EKKEZ21SGJEC","","","","","3","","","","","","","","","","","","","","","","","","","","","",""
"null","","image-button-response","148","1516864","0.0-146.0","A3EKKEZ21SGJEC","img_art/9.jpg","null","","","","","","","","","","","","","","","","","","","","","","","","",""
"10382","","image-button-response","149","1527246","0.0-147.0","A3EKKEZ21SGJEC","img_art/9.jpg","2","","","","","","","","","","","","","","","","","","","","","","","","",""
"18997","","image-button-response","150","1546247","0.0-148.0-0.0","A3EKKEZ21SGJEC","img_art/9.jpg","1","","","","","","","","","","","","","","","","","","","","","","","","",""
"4117","","image-button-response","151","1550366","0.0-149.0-0.0","A3EKKEZ21SGJEC","img_art/9.jpg","4","","","","","","","","","","","","","","","","","","","","","","","","",""
"null","","html-keyboard-response","152","1551373","0.0-150.0","A3EKKEZ21SGJEC","<p style=""font-size: 48px;"">+</p>","","","","","null","allTrialResponses","1000","1","15","img_art/9.jpg","3","The woman is ill and lying in bed.","Cassandra,Shelby,Brittany,Elizabeth,Kimberly,Dominique","Stuipid looking...dumb,-48,120,20","A little too weird for me,-30,240,20","It reminds me of an illustration for a fairy tale.,19,40,20","Love the uniqueness,21,20,20","It's too all over the place,-37,260,20","This speaks to me like a personalities and sides and not all are nice,19,400,20","Brittany","It reminds me of an illustration for a fairy tale.,19,40,20","Shelby","A little too weird for me,-30,240,20","Kimberly","It's too all over the place,-37,260,20","4"
"5255","","survey-text","153","1556638","0.0-151.0-0.0","A3EKKEZ21SGJEC","","","","{""Q0"":""course""}","","","","","","","","","","","","","","","","","","","","","","",""
"58814","","survey-text","154","1615453","0.0-152.0-0.0","A3EKKEZ21SGJEC","","","","{""Q0"":""Yuck. Looks like someone's lunch made them sick. ""}","","","","","","","","","","","","","","","","","","","","","","",""
"3567","","image-slider-response","155","1619021","0.0-153.0","A3EKKEZ21SGJEC","","","","","-42","","","","","","","","","","","","","","","","","","","","","",""
"4687","","image-button-response","156","1624024","0.0-154.0","A3EKKEZ21SGJEC","img_art/7.jpg","2","","","","","","","","","","","","","","","","","","","","","","","","",""
"5116","","image-button-response","157","1629141","0.0-155.0","A3EKKEZ21SGJEC","img_art/7.jpg","2","","","","","","","","","","","","","","","","","","","","","","","","",""
"1318","","image-button-response","158","1630461","0.0-156.0-0.0","A3EKKEZ21SGJEC","img_art/7.jpg","4","","","","","","","","","","","","","","","","","","","","","","","","",""
"966","","image-button-response","159","1631429","0.0-157.0-0.0","A3EKKEZ21SGJEC","img_art/7.jpg","5","","","","","","","","","","","","","","","","","","","","","","","","",""
"null","","html-keyboard-response","160","1632432","0.0-158.0","A3EKKEZ21SGJEC","<p style=""font-size: 48px;"">+</p>","","","","","null","allTrialResponses","1000","1","16","img_art/7.jpg","-42","Yuck. Looks like someone's lunch made them sick. ","Makayla,Shelby,Brittany,Mikayla,Kimberly,Nicole","It's just like sand from the beach,2,80,20","This feels very earthy and grounded,20,240,20","It looks like a wall, not really something I'd enjoy looking at.,-12,40,20","I love the texture.,20,300,20","Looks like a bad picture of a beach,-21,260,20","Looks like the surface of mars,29,20,20","Brittany","It looks like a wall, not really something I'd enjoy looking at.,-12,40,20","Kimberly","Looks like a bad picture of a beach,-21,260,20","Nicole","Looks like the surface of mars,29,20,20","4"
"71304","","survey-text","161","1703740","0.0-159.0-0.0","A3EKKEZ21SGJEC","","","","{""Q0"":""Very detailed. Looks like there are many faces in the picture.""}","","","","","","","","","","","","","","","","","","","","","","",""
"4461","","image-slider-response","162","1708204","0.0-160.0","A3EKKEZ21SGJEC","","","","","19","","","","","","","","","","","","","","","","","","","","","",""
"null","","image-button-response","163","1713215","0.0-161.0","A3EKKEZ21SGJEC","img_art/28.jpg","null","","","","","","","","","","","","","","","","","","","","","","","","",""
"2861","","image-button-response","164","1716076","0.0-162.0","A3EKKEZ21SGJEC","img_art/28.jpg","1","","","","","","","","","","","","","","","","","","","","","","","","",""
"7526","","image-button-response","165","1723604","0.0-163.0-0.0","A3EKKEZ21SGJEC","img_art/28.jpg","0","","","","","","","","","","","","","","","","","","","","","","","","",""
"15086","","image-button-response","166","1738692","0.0-164.0-0.0","A3EKKEZ21SGJEC","img_art/28.jpg","4","","","","","","","","","","","","","","","","","","","","","","","","",""
"null","","html-keyboard-response","167","1740202","0.0-165.0","A3EKKEZ21SGJEC","<p style=""font-size: 48px;"">+</p>","","","","","null","allTrialResponses","1500","1","17","img_art/28.jpg","19","Very detailed. Looks like there are many faces in the picture.","Sierra,Diana,Brittany,Rachel,Kimberly,Nicole","i like the colors and the shapes look like people,20,260,20","I think this piece is interesting. I love the faces drawn into it.,29,380,20","I don't like the colors or the design.,-20,40,20","Too muted and bland. I like my art to be vivid.,-11,80,20","The thing on the right is kind of weird/fetus-y,-12,260,20","The lack of color variance leaves it looking ugly even if I like the brush strokes,-10,20,20","Diana","I think this piece is interesting. I love the faces drawn into it.,29,380,20","Sierra","i like the colors and the shapes look like people,20,260,20","Kimberly","The thing on the right is kind of weird/fetus-y,-12,260,20","4"
"34475","","survey-text","168","1774683","0.0-166.0-0.0","A3EKKEZ21SGJEC","","","","{""Q0"":""Lovely colors but the image is too basic. ""}","","","","","","","","","","","","","","","","","","","","","","",""
"5959","","image-slider-response","169","1780643","0.0-167.0","A3EKKEZ21SGJEC","","","","","-12","","","","","","","","","","","","","","","","","","","","","",""
"null","","image-button-response","170","1785647","0.0-168.0","A3EKKEZ21SGJEC","img_art/5.jpg","null","","","","","","","","","","","","","","","","","","","","","","","","",""
"11387","","image-button-response","171","1797035","0.0-169.0","A3EKKEZ21SGJEC","img_art/5.jpg","1","","","","","","","","","","","","","","","","","","","","","","","","",""
"2071","","image-button-response","172","1799107","0.0-170.0-0.0","A3EKKEZ21SGJEC","img_art/5.jpg","2","","","","","","","","","","","","","","","","","","","","","","","","",""
"7119","","image-button-response","173","1806227","0.0-171.0-0.0","A3EKKEZ21SGJEC","img_art/5.jpg","3","","","","","","","","","","","","","","","","","","","","","","","","",""
"null","","html-keyboard-response","174","1806735","0.0-172.0","A3EKKEZ21SGJEC","<p style=""font-size: 48px;"">+</p>","","","","","null","allTrialResponses","500","1","18","img_art/5.jpg","-12","Lovely colors but the image is too basic. ","Sierra,Diana,Chloe,Savannah,Kimberly,Allison","i dont like the yellow or the shape,-26,260,20","I didn't care for this art piece. I wasn't sure about the color choice.,-15,380,20","Black stripe looks violent,-31,220,20","Boring and appears low effort,-41,200,20","It feels positive and kind of uplifting,24,260,20","Too loud. Dislike the bright yellow.,-5,140,20","Diana","I didn't care for this art piece. I wasn't sure about the color choice.,-15,380,20","Chloe","Black stripe looks violent,-31,220,20","Savannah","Boring and appears low effort,-41,200,20","4"
"30614","","survey-text","175","1837355","0.0-173.0-0.0","A3EKKEZ21SGJEC","","","","{""Q0"":""The black is overwhelming. ""}","","","","","","","","","","","","","","","","","","","","","","",""
"3141","","image-slider-response","176","1840498","0.0-174.0","A3EKKEZ21SGJEC","","","","","-24","","","","","","","","","","","","","","","","","","","","","",""
"null","","image-button-response","177","1845506","0.0-175.0","A3EKKEZ21SGJEC","img_art/15.jpg","null","","","","","","","","","","","","","","","","","","","","","","","","",""
"2807","","image-button-response","178","1848314","0.0-176.0","A3EKKEZ21SGJEC","img_art/15.jpg","0","","","","","","","","","","","","","","","","","","","","","","","","",""
"2423","","image-button-response","179","1850738","0.0-177.0-0.0","A3EKKEZ21SGJEC","img_art/15.jpg","1","","","","","","","","","","","","","","","","","","","","","","","","",""
"3414","","image-button-response","180","1854155","0.0-178.0-0.0","A3EKKEZ21SGJEC","img_art/15.jpg","5","","","","","","","","","","","","","","","","","","","","","","","","",""
"null","","html-keyboard-response","181","1854673","0.0-179.0","A3EKKEZ21SGJEC","<p style=""font-size: 48px;"">+</p>","","","","","null","allTrialResponses","500","1","19","img_art/15.jpg","-24","The black is overwhelming. ","Molly,Diana,Chloe,Savannah,Michaela,Olivia","I can't see the meaning of the painting.,-30,340,20","There should be more space between the black marks. The black comes off harsh and the blue between the trees can barely be seen.,-21,380,20","Like the composition and lines,26,220,20","Love the accent colors in this piece!,20,200,20","Reminds me of lilacs,26,260,20","Black reminds me of darkness,-18,40,20","Molly","I can't see the meaning of the painting.,-30,340,20","Diana","There should be more space between the black marks. The black comes off harsh and the blue between the trees can barely be seen.,-21,380,20","Olivia","Black reminds me of darkness,-18,40,20","4"
"54755","","survey-text","182","1909434","0.0-180.0-0.0","A3EKKEZ21SGJEC","","","","{""Q0"":""Looks like a native person holding up a candle or torch. ""}","","","","","","","","","","","","","","","","","","","","","","",""
"8078","","image-slider-response","183","1917514","0.0-181.0","A3EKKEZ21SGJEC","","","","","34","","","","","","","","","","","","","","","","","","","","","",""
"4270","","image-button-response","184","1922516","0.0-182.0","A3EKKEZ21SGJEC","img_art/25.jpg","1","","","","","","","","","","","","","","","","","","","","","","","","",""
"2772","","image-button-response","185","1925289","0.0-183.0","A3EKKEZ21SGJEC","img_art/25.jpg","1","","","","","","","","","","","","","","","","","","","","","","","","",""
"9463","","image-button-response","186","1934753","0.0-184.0-0.0","A3EKKEZ21SGJEC","img_art/25.jpg","4","","","","","","","","","","","","","","","","","","","","","","","","",""
"2622","","image-button-response","187","1937378","0.0-185.0-0.0","A3EKKEZ21SGJEC","img_art/25.jpg","5","","","","","","","","","","","","","","","","","","","","","","","","",""
"null","","html-keyboard-response","188","1937894","0.0-186.0","A3EKKEZ21SGJEC","<p style=""font-size: 48px;"">+</p>","","","","","null","allTrialResponses","500","1","20","img_art/25.jpg","34","Looks like a native person holding up a candle or torch. ","Molly,Diana,Destiny,Danielle,Kathryn,Olivia","Well-designed, interesting.,30,340,20","This piece feels cultural. Like it represents something culturally.,22,380,20","creeeeeppyyyyyyy but mad cool,-26,360,20","I like it, a bit cryptic and obscene, I enjoy that,30,340,20","I feel uneasy. Like watching someone powerful ready to perform a ritual, but I don't know their intentions.,-10,140,20","reminds me of burning man,18,40,20","Diana","This piece feels cultural. Like it represents something culturally.,22,380,20","Kathryn","I feel uneasy. Like watching someone powerful ready to perform a ritual, but I don't know their intentions.,-10,140,20","Olivia","reminds me of burning man,18,40,20","4"
"3962","","survey-text","189","1941866","0.0-187.0-0.0","A3EKKEZ21SGJEC","","","","{""Q0"":""we""}","","","","","","","","","","","","","","","","","","","","","","",""
"67326","","survey-text","190","2009193","0.0-188.0-0.0","A3EKKEZ21SGJEC","","","","{""Q0"":""A busy fishing town by the ocean. ""}","","","","","","","","","","","","","","","","","","","","","","",""
"4286","","image-slider-response","191","2013480","0.0-189.0","A3EKKEZ21SGJEC","","","","","33","","","","","","","","","","","","","","","","","","","","","",""
"null","","image-button-response","192","2018482","0.0-190.0","A3EKKEZ21SGJEC","img_art/11.jpg","null","","","","","","","","","","","","","","","","","","","","","","","","",""
"5773","","image-button-response","193","2024256","0.0-191.0","A3EKKEZ21SGJEC","img_art/11.jpg","5","","","","","","","","","","","","","","","","","","","","","","","","",""
"5631","","image-button-response","194","2029888","0.0-192.0-0.0","A3EKKEZ21SGJEC","img_art/11.jpg","0","","","","","","","","","","","","","","","","","","","","","","","","",""
"9718","","image-button-response","195","2039608","0.0-193.0-0.0","A3EKKEZ21SGJEC","img_art/11.jpg","2","","","","","","","","","","","","","","","","","","","","","","","","",""
"null","","html-keyboard-response","196","2041121","0.0-194.0","A3EKKEZ21SGJEC","<p style=""font-size: 48px;"">+</p>","","","","","null","allTrialResponses","1500","1","21","img_art/11.jpg","33","A busy fishing town by the ocean. ","Taylor,Diana,Lindsey,Jennifer,Kathryn,Olivia","It's a really cool painting, but it reminds me of bad traffic,-20,340,20","It makes my head feel dizzy. So I rated it lower.,-25,380,20","Not a fan of the colors but it looks interesting.,-31,400,20","The narrow groups of lines in the center make me feel uneasy for some reason,-31,380,20","This is disorienting, like motion sickness.,-20,140,20","business of traffic,10,40,20","Olivia","business of traffic,10,40,20","Taylor","It's a really cool painting, but it reminds me of bad traffic,-20,340,20","Lindsey","Not a fan of the colors but it looks interesting.,-31,400,20","4"
"31624","","survey-text","197","2072751","0.0-195.0-0.0","A3EKKEZ21SGJEC","","","","{""Q0"":""Looks like a ghost riding a horse. ""}","","","","","","","","","","","","","","","","","","","","","","",""
"4453","","image-slider-response","198","2077207","0.0-196.0","A3EKKEZ21SGJEC","","","","","44","","","","","","","","","","","","","","","","","","","","","",""
"4975","","image-button-response","199","2082219","0.0-197.0","A3EKKEZ21SGJEC","img_art/18.jpg","1","","","","","","","","","","","","","","","","","","","","","","","","",""
"1171","","image-button-response","200","2083392","0.0-198.0","A3EKKEZ21SGJEC","img_art/18.jpg","1","","","","","","","","","","","","","","","","","","","","","","","","",""
"6958","","image-button-response","201","2090352","0.0-199.0-0.0","A3EKKEZ21SGJEC","img_art/18.jpg","5","","","","","","","","","","","","","","","","","","","","","","","","",""
"7581","","image-button-response","202","2097936","0.0-200.0-0.0","A3EKKEZ21SGJEC","img_art/18.jpg","0","","","","","","","","","","","","","","","","","","","","","","","","",""
"null","","html-keyboard-response","203","2098942","0.0-201.0","A3EKKEZ21SGJEC","<p style=""font-size: 48px;"">+</p>","","","","","null","allTrialResponses","1000","1","22","img_art/18.jpg","44","Looks like a ghost riding a horse. ","Taylor,Jenna,Lindsey,Sara,Brooke,Olivia","Another ominous painting,-10,340,20","hauntingly beautiful. more things revealed the longer you look. love the spirit-like figure in the top left.,47,360,20","Interesting piece - gives you more the more you look at it. I like it but wouldn't buy it.,11,400,20","Too abstract and swirly,-21,160,20","Don't like the color scheme. Or the theme.,-5,60,20","death rides in life,-25,40,20","Jenna","hauntingly beautiful. more things revealed the longer you look. love the spirit-like figure in the top left.,47,360,20","Olivia","death rides in life,-25,40,20","Taylor","Another ominous painting,-10,340,20","4"
"35324","","survey-text","204","2134271","0.0-202.0-0.0","A3EKKEZ21SGJEC","","","","{""Q0"":""Love the color scheme and shapes.""}","","","","","","","","","","","","","","","","","","","","","","",""
"3468","","image-slider-response","205","2137743","0.0-203.0","A3EKKEZ21SGJEC","","","","","26","","","","","","","","","","","","","","","","","","","","","",""
"3054","","image-button-response","206","2142753","0.0-204.0","A3EKKEZ21SGJEC","img_art/22.jpg","1","","","","","","","","","","","","","","","","","","","","","","","","",""
"180","","image-button-response","207","2142935","0.0-205.0","A3EKKEZ21SGJEC","img_art/22.jpg","1","","","","","","","","","","","","","","","","","","","","","","","","",""
"3879","","image-button-response","208","2146815","0.0-206.0-0.0","A3EKKEZ21SGJEC","img_art/22.jpg","4","","","","","","","","","","","","","","","","","","","","","","","","",""
"3918","","image-button-response","209","2150735","0.0-207.0-0.0","A3EKKEZ21SGJEC","img_art/22.jpg","5","","","","","","","","","","","","","","","","","","","","","","","","",""
"null","","html-keyboard-response","210","2151743","0.0-208.0","A3EKKEZ21SGJEC","<p style=""font-size: 48px;"">+</p>","","","","","null","allTrialResponses","1000","1","23","img_art/22.jpg","26","Love the color scheme and shapes.","Taylor,Jenna,Amy,Brianna,Crystal,Olivia","Doesn't make me feel anything,-4,340,20","beautiful. love the bright colors & soft brush strokes, and the imprint of the key is genius.,50,360,20","I appreciate the shapes but the abundance of primary colors make it seem garrish.,-10,220,20","Like the black key and the rainbow color theme.,31,20,20","Beautiful use of chalk or pastels. Love the abstract nature.,35,300,20","ball of light in 90s,8,40,20","Jenna","beautiful. love the bright colors & soft brush strokes, and the imprint of the key is genius.,50,360,20","Crystal","Beautiful use of chalk or pastels. Love the abstract nature.,35,300,20","Olivia","ball of light in 90s,8,40,20","4"
"35498","","survey-text","211","2187246","0.0-209.0-0.0","A3EKKEZ21SGJEC","","","","{""Q0"":""Kind of has a Southwestern vibe with the colors and design.""}","","","","","","","","","","","","","","","","","","","","","","",""
"7637","","image-slider-response","212","2194886","0.0-210.0","A3EKKEZ21SGJEC","","","","","26","","","","","","","","","","","","","","","","","","","","","",""
"null","","image-button-response","213","2199898","0.0-211.0","A3EKKEZ21SGJEC","img_art/12.jpg","null","","","","","","","","","","","","","","","","","","","","","","","","",""
"3355","","image-button-response","214","2203254","0.0-212.0","A3EKKEZ21SGJEC","img_art/12.jpg","0","","","","","","","","","","","","","","","","","","","","","","","","",""
"1159","","image-button-response","215","2204415","0.0-213.0-0.0","A3EKKEZ21SGJEC","img_art/12.jpg","0","","","","","","","","","","","","","","","","","","","","","","","","",""
"2127","","image-button-response","216","2209430","0.0-213.1-0.1","A3EKKEZ21SGJEC","img_art/12.jpg","2","","","","","","","","","","","","","","","","","","","","","","","","",""
"8263","","image-button-response","217","2217694","0.0-214.0-0.0","A3EKKEZ21SGJEC","img_art/12.jpg","3","","","","","","","","","","","","","","","","","","","","","","","","",""
"null","","html-keyboard-response","218","2218200","0.0-215.0","A3EKKEZ21SGJEC","<p style=""font-size: 48px;"">+</p>","","","","","null","allTrialResponses","500","1","24","img_art/12.jpg","26","Kind of has a Southwestern vibe with the colors and design.","Alyssa,Jenna,Mackenzie,Haley,Crystal,Olivia","Its cool,reminiscent of Andy Warhol type of style,10,160,20","interesting, but feels like someone cut up a picture and pasted it together wrong. want to see the original,15,360,20","I like the color scheme.,10,20,20","Very interesting. Makes me want to look at it for a long time.,16,220,20","I like the sectioned nature of the squares and curves. Not my favorite but still a good one.,27,300,20","feels cluttered,-11,40,20","Alyssa","Its cool,reminiscent of Andy Warhol type of style,10,160,20","Mackenzie","I like the color scheme.,10,20,20","Haley","Very interesting. Makes me want to look at it for a long time.,16,220,20","6"
"37783","","survey-text","219","2255989","0.0-216.0-0.0","A3EKKEZ21SGJEC","","","","{""Q0"":""It feels like I'm being watched by angry people. ""}","","","","","","","","","","","","","","","","","","","","","","",""
"11926","","image-slider-response","220","2267918","0.0-217.0","A3EKKEZ21SGJEC","","","","","9","","","","","","","","","","","","","","","","","","","","","",""
"null","","image-button-response","221","2272959","0.0-218.0","A3EKKEZ21SGJEC","img_art/8.jpg","null","","","","","","","","","","","","","","","","","","","","","","","","",""
"4381","","image-button-response","222","2277341","0.0-219.0","A3EKKEZ21SGJEC","img_art/8.jpg","0","","","","","","","","","","","","","","","","","","","","","","","","",""
"4415","","image-button-response","223","2281757","0.0-220.0-0.0","A3EKKEZ21SGJEC","img_art/8.jpg","2","","","","","","","","","","","","","","","","","","","","","","","","",""
"6214","","image-button-response","224","2287973","0.0-221.0-0.0","A3EKKEZ21SGJEC","img_art/8.jpg","4","","","","","","","","","","","","","","","","","","","","","","","","",""
"null","","html-keyboard-response","225","2288476","0.0-222.0","A3EKKEZ21SGJEC","<p style=""font-size: 48px;"">+</p>","","","","","null","allTrialResponses","500","1","25","img_art/8.jpg","9","It feels like I'm being watched by angry people. ","Alyssa,Autumn,Mackenzie,Haley,Melissa,Leah","I like how the more you like at it there are more things to discover.Very creative.,33,160,20","Well painted. Not my style.,27,340,20","The different shapes are fun to look for.,30,20,20","Gorgeous! I love the colors and the details.,50,220,20","crisp shapes, find more things the longer you look,17,240,20","Nice formats, I just don't like it much,-16,360,20","Alyssa","I like how the more you like at it there are more things to discover.Very creative.,33,160,20","Mackenzie","The different shapes are fun to look for.,30,20,20","Melissa","crisp shapes, find more things the longer you look,17,240,20","6"
"5134","","survey-text","226","2293621","0.0-223.0-0.0","A3EKKEZ21SGJEC","","","","{""Q0"":""table""}","","","","","","","","","","","","","","","","","","","","","","",""
"36342","","survey-text","227","2329964","0.0-224.0-0.0","A3EKKEZ21SGJEC","","","","{""Q0"":""This piece relaxes my soul. ""}","","","","","","","","","","","","","","","","","","","","","","",""
"7838","","image-slider-response","228","2337804","0.0-225.0","A3EKKEZ21SGJEC","","","","","28","","","","","","","","","","","","","","","","","","","","","",""
"2095","","image-button-response","229","2342809","0.0-226.0","A3EKKEZ21SGJEC","img_art/13.jpg","0","","","","","","","","","","","","","","","","","","","","","","","","",""
"674","","image-button-response","230","2343485","0.0-227.0","A3EKKEZ21SGJEC","img_art/13.jpg","0","","","","","","","","","","","","","","","","","","","","","","","","",""
"7030","","image-button-response","231","2350517","0.0-228.0-0.0","A3EKKEZ21SGJEC","img_art/13.jpg","1","","","","","","","","","","","","","","","","","","","","","","","","",""
"1262","","image-button-response","232","2351780","0.0-229.0-0.0","A3EKKEZ21SGJEC","img_art/13.jpg","3","","","","","","","","","","","","","","","","","","","","","","","","",""
"null","","html-keyboard-response","233","2352797","0.0-230.0","A3EKKEZ21SGJEC","<p style=""font-size: 48px;"">+</p>","","","","","null","allTrialResponses","1000","1","26","img_art/13.jpg","28","This piece relaxes my soul. ","Alyssa,Katherine,Mackenzie,Samantha,Melissa,Cheyenne","Pretty and it reminds me of rain droplets running down a window on a rainy day.,40,160,20","Best color combo. i love this.,50,120,20","I enjoy the cool colors mixed together,31,20,20","Nice colors. beautiful blue,50,140,20","feels sterile/manufactured,1,240,20","Like how realistic it looks.,33,200,20","Alyssa","Pretty and it reminds me of rain droplets running down a window on a rainy day.,40,160,20","Katherine","Best color combo. i love this.,50,120,20","Samantha","Nice colors. beautiful blue,50,140,20","6"
"60552","","survey-text","234","2413355","0.0-231.0-0.0","A3EKKEZ21SGJEC","","","","{""Q0"":""Looks like a man preparing to sail a boat. ""}","","","","","","","","","","","","","","","","","","","","","","",""
"5158","","image-slider-response","235","2418515","0.0-232.0","A3EKKEZ21SGJEC","","","","","22","","","","","","","","","","","","","","","","","","","","","",""
"null","","image-button-response","236","2423518","0.0-233.0","A3EKKEZ21SGJEC","img_art/19.jpg","null","","","","","","","","","","","","","","","","","","","","","","","","",""
"11205","","image-button-response","237","2434723","0.0-234.0","A3EKKEZ21SGJEC","img_art/19.jpg","0","","","","","","","","","","","","","","","","","","","","","","","","",""
"3822","","image-button-response","238","2438547","0.0-235.0-0.0","A3EKKEZ21SGJEC","img_art/19.jpg","1","","","","","","","","","","","","","","","","","","","","","","","","",""
"13326","","image-button-response","239","2451876","0.0-236.0-0.0","A3EKKEZ21SGJEC","img_art/19.jpg","3","","","","","","","","","","","","","","","","","","","","","","","","",""
"null","","html-keyboard-response","240","2452879","0.0-237.0","A3EKKEZ21SGJEC","<p style=""font-size: 48px;"">+</p>","","","","","null","allTrialResponses","1000","1","27","img_art/19.jpg","22","Looks like a man preparing to sail a boat. ","Alyssa,Katherine,Claire,Samantha,Madeline,Paige","There's alot of elements to it bordering on clutter and chaotic,-20,160,20","I dig the not being able to tell what anything is but knowing everything is supposed to be something,46,120,20","way too much going on,-33,260,20","Intersting but not for me,21,140,20","Looks a bit too loose,-2,40,20","it's too busy for me. Makes me feel stressed.,1,60,20","Alyssa","There's alot of elements to it bordering on clutter and chaotic,-20,160,20","Katherine","I dig the not being able to tell what anything is but knowing everything is supposed to be something,46,120,20","Samantha","Intersting but not for me,21,140,20","6"
"39077","","survey-text","241","2491963","0.0-238.0-0.0","A3EKKEZ21SGJEC","","","","{""Q0"":""Picture is too blurred. Seems like something negative is going on. ""}","","","","","","","","","","","","","","","","","","","","","","",""
"3877","","image-slider-response","242","2495843","0.0-239.0","A3EKKEZ21SGJEC","","","","","-30","","","","","","","","","","","","","","","","","","","","","",""
"null","","image-button-response","243","2500849","0.0-240.0","A3EKKEZ21SGJEC","img_art/1.jpg","null","","","","","","","","","","","","","","","","","","","","","","","","",""
"7681","","image-button-response","244","2508530","0.0-241.0","A3EKKEZ21SGJEC","img_art/1.jpg","1","","","","","","","","","","","","","","","","","","","","","","","","",""
"5254","","image-button-response","245","2513786","0.0-242.0-0.0","A3EKKEZ21SGJEC","img_art/1.jpg","3","","","","","","","","","","","","","","","","","","","","","","","","",""
"5902","","image-button-response","246","2519690","0.0-243.0-0.0","A3EKKEZ21SGJEC","img_art/1.jpg","0","","","","","","","","","","","","","","","","","","","","","","","","",""
"null","","html-keyboard-response","247","2520697","0.0-244.0","A3EKKEZ21SGJEC","<p style=""font-size: 48px;"">+</p>","","","","","null","allTrialResponses","1000","1","28","img_art/1.jpg","-30","Picture is too blurred. Seems like something negative is going on. ","Alyssa,Katherine,Rebecca,Samantha,Erica,Julia","Its okay,not great.,1,160,20","Blurry but that's how emotions are a lot of the time.,27,120,20","bamboo boat in sunset,12,100,20","Love the colors but it makes me feel like someone is looking at me through it,38,140,20","Makes me warm and relaxed,38,80,20","I don't feel like much is happening in this painting,-25,40,20","Katherine","Blurry but that's how emotions are a lot of the time.,27,120,20","Samantha","Love the colors but it makes me feel like someone is looking at me through it,38,140,20","Alyssa","Its okay,not great.,1,160,20","6"
"43866","","survey-text","248","2564570","0.0-245.0-0.0","A3EKKEZ21SGJEC","","","","{""Q0"":""Too much going on. Hard to figure out the meaning. ""}","","","","","","","","","","","","","","","","","","","","","","",""
"4029","","image-slider-response","249","2568602","0.0-246.0","A3EKKEZ21SGJEC","","","","","-20","","","","","","","","","","","","","","","","","","","","","",""
"null","","image-button-response","250","2573617","0.0-247.0","A3EKKEZ21SGJEC","img_art/14.jpg","null","","","","","","","","","","","","","","","","","","","","","","","","",""
"8073","","image-button-response","251","2581690","0.0-248.0","A3EKKEZ21SGJEC","img_art/14.jpg","1","","","","","","","","","","","","","","","","","","","","","","","","",""
"3702","","image-button-response","252","2585394","0.0-249.0-0.0","A3EKKEZ21SGJEC","img_art/14.jpg","2","","","","","","","","","","","","","","","","","","","","","","","","",""
"29230","","image-button-response","253","2614625","0.0-250.0-0.0","A3EKKEZ21SGJEC","img_art/14.jpg","5","","","","","","","","","","","","","","","","","","","","","","","","",""
"null","","html-keyboard-response","254","2615127","0.0-251.0","A3EKKEZ21SGJEC","<p style=""font-size: 48px;"">+</p>","","","","","null","allTrialResponses","500","1","29","img_art/14.jpg","-20","Too much going on. Hard to figure out the meaning. ","Alyssa,Katherine,Amber,Samantha,Lauren,Briana","Beautiful tree,the use of water colors makes it soothing to look at,37,160,20","I don't like the color red,30,120,20","Reminds me of the outdoors.,12,200,20","I love the feeling of the tree and people. Makes me happy,50,140,20","I like how balanced the piece is with its symmetrical design.,20,340,20","Simplistic. Looks like a child did it,14,400,20","Katherine","I don't like the color red,30,120,20","Amber","Reminds me of the outdoors.,12,200,20","Briana","Simplistic. Looks like a child did it,14,400,20","6"
"32715","","survey-text","255","2647849","0.0-252.0-0.0","A3EKKEZ21SGJEC","","","","{""Q0"":""Brings back memories of finger painting as a child. ""}","","","","","","","","","","","","","","","","","","","","","","",""
"4767","","image-slider-response","256","2652617","0.0-253.0","A3EKKEZ21SGJEC","","","","","14","","","","","","","","","","","","","","","","","","","","","",""
"null","","image-button-response","257","2657618","0.0-254.0","A3EKKEZ21SGJEC","img_art/30.jpg","null","","","","","","","","","","","","","","","","","","","","","","","","",""
"3478","","image-button-response","258","2661097","0.0-255.0","A3EKKEZ21SGJEC","img_art/30.jpg","4","","","","","","","","","","","","","","","","","","","","","","","","",""
"2142","","image-button-response","259","2663241","0.0-256.0-0.0","A3EKKEZ21SGJEC","img_art/30.jpg","3","","","","","","","","","","","","","","","","","","","","","","","","",""
"5607","","image-button-response","260","2668849","0.0-257.0-0.0","A3EKKEZ21SGJEC","img_art/30.jpg","2","","","","","","","","","","","","","","","","","","","","","","","","",""
"null","","html-keyboard-response","261","2669358","0.0-258.0","A3EKKEZ21SGJEC","<p style=""font-size: 48px;"">+</p>","","","","","null","allTrialResponses","500","1","30","img_art/30.jpg","14","Brings back memories of finger painting as a child. ","Kelsey,Katherine,Amber,Alexis,Emily,Briana","dont like this much at all,-30,240,20","For some reason I like the red in this one. Maybe it's the style of lines/blurs,46,120,20","fresh and bold. outgoing.,15,200,20","Too abstract, looks like something I could paint,-50,100,20","It looks like a child did it. There is nothing talented or special about it.,-16,40,20","Its ugly. Too simple,-23,400,20","Emily","It looks like a child did it. There is nothing talented or special about it.,-16,40,20","Alexis","Too abstract, looks like something I could paint,-50,100,20","Amber","fresh and bold. outgoing.,15,200,20","6"
"6244","","image-button-response_instructions","262","2675609","0.0-259.0","A3EKKEZ21SGJEC","","0","instructions","","","","","","","","","","","","","","","","","","","","","","","",""
