"rt","url","trial_type","trial_index","time_elapsed","internal_node_id","participant_id","stimulus","button_pressed","Name","responses","response","key_press","variableName","fixationTime","condition","trial","photo","subjectRating","subjectResponse","agentsNames","agent_1_Response","agent_2_Response","agent_3_Response","agent_4_Response","agent_5_Response","agent_6_Response","kept_1_name","kept_1_response","kept_2_name","kept_2_response","kept_3_name","kept_3_response","errorCounter"
"18913","external_page_harvard.html","external-html","0","18985","0.0-0.0","A3F2W4HZRDKNW7","","","","","","","","","","","","","","","","","","","","","","","","","","",""
"1661","","image-button-response","1","20649","0.0-1.0","A3F2W4HZRDKNW7","","0","","","","","","","","","","","","","","","","","","","","","","","","",""
"1708","","image-button-response","2","22364","0.0-2.0-0.0","A3F2W4HZRDKNW7","","1","phone","","","","","","","","","","","","","","","","","","","","","","","",""
"6630","","survey-text","3","28997","0.0-3.0-0.0","A3F2W4HZRDKNW7","","","","{""Q0"":""A3F2W4HZRDKNW7""}","","","","","","","","","","","","","","","","","","","","","","",""
"6880","","image-button-response_instructions","4","35880","0.0-4.0","A3F2W4HZRDKNW7","","0","instructions","","","","","","","","","","","","","","","","","","","","","","","",""
"16981","","image-button-response_instructions","5","52863","0.0-5.0","A3F2W4HZRDKNW7","img_art/ins/popularity/ins1.png","0","instructions","","","","","","","","","","","","","","","","","","","","","","","",""
"5930","","image-button-response_instructions","6","58794","0.0-6.0","A3F2W4HZRDKNW7","img_art/ins/popularity/ins2.png","0","instructions","","","","","","","","","","","","","","","","","","","","","","","",""
"11258","","image-button-response_instructions","7","70054","0.0-7.0","A3F2W4HZRDKNW7","img_art/ins/popularity/ins2Extreme.png","0","instructions","","","","","","","","","","","","","","","","","","","","","","","",""
"7136","","image-button-response_instructions","8","77191","0.0-8.0","A3F2W4HZRDKNW7","img_art/ins/popularity/ins3KEEPpop.PNG","0","instructions","","","","","","","","","","","","","","","","","","","","","","","",""
"6945","","image-button-response_instructions","9","84138","0.0-9.0","A3F2W4HZRDKNW7","img_art/ins/popularity/ins3ANamepop.PNG","0","instructions","","","","","","","","","","","","","","","","","","","","","","","",""
"1691","","image-button-response_instructions","10","85831","0.0-10.0","A3F2W4HZRDKNW7","img_art/ins/popularity/ins3ARatingpop.png","0","instructions","","","","","","","","","","","","","","","","","","","","","","","",""
"2548","","image-button-response_instructions","11","88381","0.0-11.0","A3F2W4HZRDKNW7","img_art/ins/popularity/ins3ATextpop.png","0","instructions","","","","","","","","","","","","","","","","","","","","","","","",""
"4451","","image-button-response_instructions","12","92834","0.0-12.0","A3F2W4HZRDKNW7","img_art/ins/popularity/ins3ALikespop.png","0","instructions","","","","","","","","","","","","","","","","","","","","","","","",""
"21491","","image-button-response_instructions","13","114326","0.0-13.0","A3F2W4HZRDKNW7","img_art/ins/popularity/ins3KEEPpop.PNG","0","instructions","","","","","","","","","","","","","","","","","","","","","","","",""
"8058","","image-button-response_instructions","14","122387","0.0-14.0","A3F2W4HZRDKNW7","img_art/ins/popularity/ins3_5RED.png","0","instructions","","","","","","","","","","","","","","","","","","","","","","","",""
"7275","","image-button-response_instructions","15","129664","0.0-15.0","A3F2W4HZRDKNW7","img_art/ins/popularity/ins3KEEPpop.PNG","0","instructions","","","","","","","","","","","","","","","","","","","","","","","",""
"11784","","image-button-response_instructions","16","141449","0.0-16.0","A3F2W4HZRDKNW7","img_art/ins/popularity/ins4KEEPpop.PNG","0","instructions","","","","","","","","","","","","","","","","","","","","","","","",""
"5032","","image-button-response_instructions","17","146485","0.0-17.0","A3F2W4HZRDKNW7","img_art/ins/popularity/ins5KEEPpop.PNG","0","instructions","","","","","","","","","","","","","","","","","","","","","","","",""
"1816","","image-button-response_instructions","18","148302","0.0-18.0","A3F2W4HZRDKNW7","","0","instructions","","","","","","","","","","","","","","","","","","","","","","","",""
"9297","","survey-text","19","157640","0.0-19.0-0.0","A3F2W4HZRDKNW7","","","","{""Q0"":""but""}","","","","","","","","","","","","","","","","","","","","","","",""
"16057","","survey-text","20","173698","0.0-20.0-0.0","A3F2W4HZRDKNW7","","","","{""Q0"":""This piece is ugly.""}","","","","","","","","","","","","","","","","","","","","","","",""
"3229","","image-slider-response","21","176932","0.0-21.0","A3F2W4HZRDKNW7","","","","","-50","","","","","","","","","","","","","","","","","","","","","",""
"null","","image-button-response","22","181952","0.0-22.0","A3F2W4HZRDKNW7","img_art/ins/1.jpg","null","","","","","","","","","","","","","","","","","","","","","","","","",""
"13435","","image-button-response","23","195390","0.0-23.0","A3F2W4HZRDKNW7","img_art/ins/1.jpg","4","","","","","","","","","","","","","","","","","","","","","","","","",""
"2547","","image-button-response","24","197939","0.0-24.0-0.0","A3F2W4HZRDKNW7","img_art/ins/1.jpg","2","","","","","","","","","","","","","","","","","","","","","","","","",""
"979","","image-button-response","25","198921","0.0-25.0-0.0","A3F2W4HZRDKNW7","img_art/ins/1.jpg","0","","","","","","","","","","","","","","","","","","","","","","","","",""
"null","","html-keyboard-response","26","199931","0.0-26.0","A3F2W4HZRDKNW7","<p style=""font-size: 48px;"">+</p>","","","","","null","allTrialResponses","1000","1","-2","img_art/ins/1.jpg","-50","This piece is ugly.","Adam,Alex,Ben,Carl,Daniel,Jack","Seems like doodles,-20,20,20","very creative work.,36,40,20","This color reminds me of poo,-46,60,20","very calming artwork,42,80,20","It looks like a murder scene.,-48,100,20","I like the sophisticated brushwork,40,120,20","Daniel","It looks like a murder scene.,-48,100,20","Ben","This color reminds me of poo,-46,60,20","Adam","Seems like doodles,-20,20,20","0"
"13586","","survey-text","27","213534","0.0-27.0-0.0","A3F2W4HZRDKNW7","","","","{""Q0"":""I enjoy this piece.""}","","","","","","","","","","","","","","","","","","","","","","",""
"2822","","image-slider-response","28","216358","0.0-28.0","A3F2W4HZRDKNW7","","","","","31","","","","","","","","","","","","","","","","","","","","","",""
"1792","","image-button-response","29","221362","0.0-29.0","A3F2W4HZRDKNW7","img_art/ins/2.jpg","1","","","","","","","","","","","","","","","","","","","","","","","","",""
"5629","","image-button-response","30","226995","0.0-30.0","A3F2W4HZRDKNW7","img_art/ins/2.jpg","1","","","","","","","","","","","","","","","","","","","","","","","","",""
"1328","","image-button-response","31","228325","0.0-31.0-0.0","A3F2W4HZRDKNW7","img_art/ins/2.jpg","0","","","","","","","","","","","","","","","","","","","","","","","","",""
"1877","","image-button-response","32","230204","0.0-32.0-0.0","A3F2W4HZRDKNW7","img_art/ins/2.jpg","5","","","","","","","","","","","","","","","","","","","","","","","","",""
"null","","html-keyboard-response","33","231211","0.0-33.0","A3F2W4HZRDKNW7","<p style=""font-size: 48px;"">+</p>","","","","","null","allTrialResponses","1000","1","-1","img_art/ins/2.jpg","31","I enjoy this piece.","Adam,John,Ben,James,Daniel,Kyle","too much color,-18,20,20","love the texture of paint,48,160,20","meaningless painting,-45,60,20","looks too angry,-50,140,20","One of my pet peevs,-48,100,20","Idk, it is just annoying,-32,180,20","John","love the texture of paint,48,160,20","Adam","too much color,-18,20,20","Kyle","Idk, it is just annoying,-32,180,20","0"
"6236","","survey-text","34","237460","0.0-34.0-0.0","A3F2W4HZRDKNW7","","","","{""Q0"":""very soothing""}","","","","","","","","","","","","","","","","","","","","","","",""
"2219","","image-slider-response","35","239682","0.0-35.0","A3F2W4HZRDKNW7","","","","","26","","","","","","","","","","","","","","","","","","","","","",""
"1321","","image-button-response","36","244694","0.0-36.0","A3F2W4HZRDKNW7","img_art/ins/3.jpg","1","","","","","","","","","","","","","","","","","","","","","","","","",""
"508","","image-button-response","37","245204","0.0-37.0","A3F2W4HZRDKNW7","img_art/ins/3.jpg","2","","","","","","","","","","","","","","","","","","","","","","","","",""
"487","","image-button-response","38","245693","0.0-38.0-0.0","A3F2W4HZRDKNW7","img_art/ins/3.jpg","1","","","","","","","","","","","","","","","","","","","","","","","","",""
"1405","","image-button-response","39","247100","0.0-39.0-0.0","A3F2W4HZRDKNW7","img_art/ins/3.jpg","3","","","","","","","","","","","","","","","","","","","","","","","","",""
"null","","html-keyboard-response","40","248107","0.0-40.0","A3F2W4HZRDKNW7","<p style=""font-size: 48px;"">+</p>","","","","","null","allTrialResponses","1000","1","0","img_art/ins/3.jpg","26","very soothing","Adam,John,Sam,Mike,Ron,Kyle","My daily routine, it's depressing,-20,20,20","I like the overlapping of brushes,41,160,20","I can feel a rainy day from this painting,18,240,20","enjoy the different shades of blue,22,200,20","It looks depressing,-26,220,20","It looks like a playground for bats,-36,180,20","Sam","I can feel a rainy day from this painting,18,240,20","John","I like the overlapping of brushes,41,160,20","Mike","enjoy the different shades of blue,22,200,20","0"
"7127","","image-button-response_instructions","41","255243","0.0-41.0","A3F2W4HZRDKNW7","","0","instructions","","","","","","","","","","","","","","","","","","","","","","","",""
"16464","","survey-likert","42","271709","0.0-42.0-0.0","A3F2W4HZRDKNW7","","","","{""Q0"":"""",""Q1"":0,""Q2"":1}","","","","","","","","","","","","","","","","","","","","","","",""
"3838","","survey-text","43","275551","0.0-43.0-0.0","A3F2W4HZRDKNW7","","","","{""Q0"":""rock""}","","","","","","","","","","","","","","","","","","","","","","",""
"11010","","survey-text","44","286563","0.0-44.0-0.0","A3F2W4HZRDKNW7","","","","{""Q0"":""I like this piece.""}","","","","","","","","","","","","","","","","","","","","","","",""
"2931","","image-slider-response","45","289497","0.0-45.0","A3F2W4HZRDKNW7","","","","","45","","","","","","","","","","","","","","","","","","","","","",""
"4070","","image-button-response","46","294522","0.0-46.0","A3F2W4HZRDKNW7","img_art/13.jpg","3","","","","","","","","","","","","","","","","","","","","","","","","",""
"763","","image-button-response","47","295287","0.0-47.0","A3F2W4HZRDKNW7","img_art/13.jpg","4","","","","","","","","","","","","","","","","","","","","","","","","",""
"524","","image-button-response","48","295813","0.0-48.0-0.0","A3F2W4HZRDKNW7","img_art/13.jpg","3","","","","","","","","","","","","","","","","","","","","","","","","",""
"2083","","image-button-response","49","297898","0.0-49.0-0.0","A3F2W4HZRDKNW7","img_art/13.jpg","5","","","","","","","","","","","","","","","","","","","","","","","","",""
"null","","html-keyboard-response","50","298902","0.0-50.0","A3F2W4HZRDKNW7","<p style=""font-size: 48px;"">+</p>","","","","","null","allTrialResponses","1000","1","1","img_art/13.jpg","45","I like this piece.","Chase,Jason,Samuel,Eric,Cole,Elijah","Seems a little cold but I like the neuron looking splatters.,10,120,20","Like the color choices,7,20,20","eighties here we come,7,400,20","I love the style of this piece, but the color choice could've been more eye catching or calming.,40,100,20","The blue colors are very calming. Reminds me of water,33,200,20","Makes me feel nice and calm,18,80,20","Cole","The blue colors are very calming. Reminds me of water,33,200,20","Eric","I love the style of this piece, but the color choice could've been more eye catching or calming.,40,100,20","Elijah","Makes me feel nice and calm,18,80,20","0"
"8007","","survey-text","51","306918","0.0-51.0-0.0","A3F2W4HZRDKNW7","","","","{""Q0"":""Nice piece""}","","","","","","","","","","","","","","","","","","","","","","",""
"2350","","image-slider-response","52","309270","0.0-52.0","A3F2W4HZRDKNW7","","","","","28","","","","","","","","","","","","","","","","","","","","","",""
"3515","","image-button-response","53","314284","0.0-53.0","A3F2W4HZRDKNW7","img_art/26.jpg","3","","","","","","","","","","","","","","","","","","","","","","","","",""
"646","","image-button-response","54","314933","0.0-54.0","A3F2W4HZRDKNW7","img_art/26.jpg","3","","","","","","","","","","","","","","","","","","","","","","","","",""
"999","","image-button-response","55","315934","0.0-55.0-0.0","A3F2W4HZRDKNW7","img_art/26.jpg","0","","","","","","","","","","","","","","","","","","","","","","","","",""
"823","","image-button-response","56","316758","0.0-56.0-0.0","A3F2W4HZRDKNW7","img_art/26.jpg","1","","","","","","","","","","","","","","","","","","","","","","","","",""
"null","","html-keyboard-response","57","317261","0.0-57.0","A3F2W4HZRDKNW7","<p style=""font-size: 48px;"">+</p>","","","","","null","allTrialResponses","500","1","2","img_art/26.jpg","28","Nice piece","William,Evan,Blake,Eric,Cole,Elijah","feels a tad old,30,380,20","It feels simple and pretty,12,140,20","bedroom in the outdoors. warm,9,280,20","I wish there was more detail, but I really like this simple piece.,35,100,20","Another blob on a landscape. A city street?,9,200,20","Splash of paint in an ordered way,7,80,20","Eric","I wish there was more detail, but I really like this simple piece.,35,100,20","William","feels a tad old,30,380,20","Evan","It feels simple and pretty,12,140,20","0"
"15701","","survey-text","58","332971","0.0-58.0-0.0","A3F2W4HZRDKNW7","","","","{""Q0"":""very ugly""}","","","","","","","","","","","","","","","","","","","","","","",""
"3417","","image-slider-response","59","336390","0.0-59.0","A3F2W4HZRDKNW7","","","","","-50","","","","","","","","","","","","","","","","","","","","","",""
"null","","image-button-response","60","341397","0.0-60.0","A3F2W4HZRDKNW7","img_art/4.jpg","null","","","","","","","","","","","","","","","","","","","","","","","","",""
"1986","","image-button-response","61","343384","0.0-61.0","A3F2W4HZRDKNW7","img_art/4.jpg","5","","","","","","","","","","","","","","","","","","","","","","","","",""
"2554","","image-button-response","62","345940","0.0-62.0-0.0","A3F2W4HZRDKNW7","img_art/4.jpg","1","","","","","","","","","","","","","","","","","","","","","","","","",""
"510","","image-button-response","63","346452","0.0-63.0-0.0","A3F2W4HZRDKNW7","img_art/4.jpg","0","","","","","","","","","","","","","","","","","","","","","","","","",""
"null","","html-keyboard-response","64","346957","0.0-64.0","A3F2W4HZRDKNW7","<p style=""font-size: 48px;"">+</p>","","","","","null","allTrialResponses","500","1","3","img_art/4.jpg","-50","very ugly","William,Evan,Dakota,Eric,Derek,Jonathan","dont like the colors,-31,380,20","I'm disappointed that such a simple piece, with very little effort spent, could be grouped with other detailed pieces,-31,140,20","spontaneous, without hesitation,22,280,20","This piece catches my eye, but it's strange to me.,10,100,20","A bit too plain for my tastes,-10,360,20","Mcdonald's french fries :(,-40,140,20","Jonathan","Mcdonald's french fries :(,-40,140,20","Evan","I'm disappointed that such a simple piece, with very little effort spent, could be grouped with other detailed pieces,-31,140,20","William","dont like the colors,-31,380,20","0"
"13296","","survey-text","65","360266","0.0-65.0-0.0","A3F2W4HZRDKNW7","","","","{""Q0"":""Looks like a child painted it.""}","","","","","","","","","","","","","","","","","","","","","","",""
"2327","","image-slider-response","66","362594","0.0-66.0","A3F2W4HZRDKNW7","","","","","-37","","","","","","","","","","","","","","","","","","","","","",""
"3428","","image-button-response","67","367612","0.0-67.0","A3F2W4HZRDKNW7","img_art/27.jpg","4","","","","","","","","","","","","","","","","","","","","","","","","",""
"502","","image-button-response","68","368117","0.0-68.0","A3F2W4HZRDKNW7","img_art/27.jpg","4","","","","","","","","","","","","","","","","","","","","","","","","",""
"738","","image-button-response","69","368856","0.0-69.0-0.0","A3F2W4HZRDKNW7","img_art/27.jpg","1","","","","","","","","","","","","","","","","","","","","","","","","",""
"1736","","image-button-response","70","370594","0.0-70.0-0.0","A3F2W4HZRDKNW7","img_art/27.jpg","3","","","","","","","","","","","","","","","","","","","","","","","","",""
"null","","html-keyboard-response","71","371098","0.0-71.0","A3F2W4HZRDKNW7","<p style=""font-size: 48px;"">+</p>","","","","","null","allTrialResponses","500","1","4","img_art/27.jpg","-37","Looks like a child painted it.","William,Evan,Mason,Lucas,Jesus,Jonathan","reminds me of fall,33,380,20","I am bothered by the green doodles,-20,140,20","dont like it, don't hate it, meh.,2,100,20","No clue what to say.,0,380,20","The color palette isn't my taste,-24,100,20","Very cool colors and I like the contrast of lights and darks,30,140,20","Jesus","The color palette isn't my taste,-24,100,20","Evan","I am bothered by the green doodles,-20,140,20","Lucas","No clue what to say.,0,380,20","0"
"11569","","survey-text","72","382678","0.0-72.0-0.0","A3F2W4HZRDKNW7","","","","{""Q0"":""Very nice piece.""}","","","","","","","","","","","","","","","","","","","","","","",""
"2624","","image-slider-response","73","385304","0.0-73.0","A3F2W4HZRDKNW7","","","","","27","","","","","","","","","","","","","","","","","","","","","",""
"null","","image-button-response","74","390309","0.0-74.0","A3F2W4HZRDKNW7","img_art/19.jpg","null","","","","","","","","","","","","","","","","","","","","","","","","",""
"1217","","image-button-response","75","391527","0.0-75.0","A3F2W4HZRDKNW7","img_art/19.jpg","2","","","","","","","","","","","","","","","","","","","","","","","","",""
"1641","","image-button-response","76","393170","0.0-76.0-0.0","A3F2W4HZRDKNW7","img_art/19.jpg","3","","","","","","","","","","","","","","","","","","","","","","","","",""
"613","","image-button-response","77","393784","0.0-77.0-0.0","A3F2W4HZRDKNW7","img_art/19.jpg","5","","","","","","","","","","","","","","","","","","","","","","","","",""
"null","","html-keyboard-response","78","394291","0.0-78.0","A3F2W4HZRDKNW7","<p style=""font-size: 48px;"">+</p>","","","","","null","allTrialResponses","500","1","5","img_art/19.jpg","27","Very nice piece.","Seth,Evan,Cody,Lucas,Jesus,Noah","I wasn't sure if I liked it or hated it. It oddly reminds me of a clothing store.,11,60,20","It makes me feel like it is of a street of bakeries,15,140,20","Interesting, leaves you wondering what it is,40,180,20","I can see kind of beach and sea full of people and buildings.,25,380,20","Shapes give it a feeling of being crowded,-18,100,20","the way the landscape is portrayed captivates me - I enjoy studying the structure,32,260,20","Cody","Interesting, leaves you wondering what it is,40,180,20","Lucas","I can see kind of beach and sea full of people and buildings.,25,380,20","Noah","the way the landscape is portrayed captivates me - I enjoy studying the structure,32,260,20","0"
"3461","","survey-text","79","397773","0.0-79.0-0.0","A3F2W4HZRDKNW7","","","","{""Q0"":""sky""}","","","","","","","","","","","","","","","","","","","","","","",""
"12226","","survey-text","80","410001","0.0-80.0-0.0","A3F2W4HZRDKNW7","","","","{""Q0"":""an average piece""}","","","","","","","","","","","","","","","","","","","","","","",""
"2373","","image-slider-response","81","412376","0.0-81.0","A3F2W4HZRDKNW7","","","","","1","","","","","","","","","","","","","","","","","","","","","",""
"4678","","image-button-response","82","417389","0.0-82.0","A3F2W4HZRDKNW7","img_art/30.jpg","1","","","","","","","","","","","","","","","","","","","","","","","","",""
"727","","image-button-response","83","418119","0.0-83.0","A3F2W4HZRDKNW7","img_art/30.jpg","1","","","","","","","","","","","","","","","","","","","","","","","","",""
"996","","image-button-response","84","419116","0.0-84.0-0.0","A3F2W4HZRDKNW7","img_art/30.jpg","5","","","","","","","","","","","","","","","","","","","","","","","","",""
"770","","image-button-response","85","419890","0.0-85.0-0.0","A3F2W4HZRDKNW7","img_art/30.jpg","2","","","","","","","","","","","","","","","","","","","","","","","","",""
"null","","html-keyboard-response","86","420902","0.0-86.0","A3F2W4HZRDKNW7","<p style=""font-size: 48px;"">+</p>","","","","","null","allTrialResponses","1000","1","6","img_art/30.jpg","1","an average piece","Garrett,Devin,Cody,Lucas,Connor,Noah","I feel like the colors are too repetitive and not very eyecatching.,-20,180,20","A bit haphazard looking and lacking in vision,2,380,20","Like the design, not a big fan of the colors,20,180,20","I like the way the artist has painted his work.,40,380,20","Layers are interesting,22,240,20","uplifted and yet calmed,15,260,20","Devin","A bit haphazard looking and lacking in vision,2,380,20","Noah","uplifted and yet calmed,15,260,20","Cody","Like the design, not a big fan of the colors,20,180,20","0"
"7515","","survey-text","87","428422","0.0-87.0-0.0","A3F2W4HZRDKNW7","","","","{""Q0"":""very ugly""}","","","","","","","","","","","","","","","","","","","","","","",""
"2020","","image-slider-response","88","430444","0.0-88.0","A3F2W4HZRDKNW7","","","","","-40","","","","","","","","","","","","","","","","","","","","","",""
"4768","","image-button-response","89","435452","0.0-89.0","A3F2W4HZRDKNW7","img_art/3.jpg","4","","","","","","","","","","","","","","","","","","","","","","","","",""
"4604","","image-button-response","90","440059","0.0-90.0","A3F2W4HZRDKNW7","img_art/3.jpg","4","","","","","","","","","","","","","","","","","","","","","","","","",""
"970","","image-button-response","91","441030","0.0-91.0-0.0","A3F2W4HZRDKNW7","img_art/3.jpg","1","","","","","","","","","","","","","","","","","","","","","","","","",""
"1008","","image-button-response","92","442040","0.0-92.0-0.0","A3F2W4HZRDKNW7","img_art/3.jpg","5","","","","","","","","","","","","","","","","","","","","","","","","",""
"null","","html-keyboard-response","93","443049","0.0-93.0","A3F2W4HZRDKNW7","<p style=""font-size: 48px;"">+</p>","","","","","null","allTrialResponses","1000","1","7","img_art/3.jpg","-40","very ugly","Jesse,Devin,Cody,Vincent,Steven,Noah","No substance or feeling to it,-20,80,20","Scribbly a bit too much,-30,380,20","Feels upset .......,-10,180,20","Iike this one it's a piece that I need to spend more time with to understand how i feel about it,20,360,20","i don't like this, just looks like scribbles,-50,160,20","I struggle to see the art,-20,260,20","Steven","i don't like this, just looks like scribbles,-50,160,20","Devin","Scribbly a bit too much,-30,380,20","Noah","I struggle to see the art,-20,260,20","0"
"8959","","survey-text","94","452018","0.0-94.0-0.0","A3F2W4HZRDKNW7","","","","{""Q0"":""unique piece""}","","","","","","","","","","","","","","","","","","","","","","",""
"4323","","image-slider-response","95","456344","0.0-95.0","A3F2W4HZRDKNW7","","","","","-2","","","","","","","","","","","","","","","","","","","","","",""
"4278","","image-button-response","96","461350","0.0-96.0","A3F2W4HZRDKNW7","img_art/21.jpg","1","","","","","","","","","","","","","","","","","","","","","","","","",""
"1136","","image-button-response","97","462488","0.0-97.0","A3F2W4HZRDKNW7","img_art/21.jpg","1","","","","","","","","","","","","","","","","","","","","","","","","",""
"896","","image-button-response","98","463387","0.0-98.0-0.0","A3F2W4HZRDKNW7","img_art/21.jpg","4","","","","","","","","","","","","","","","","","","","","","","","","",""
"1564","","image-button-response","99","464952","0.0-99.0-0.0","A3F2W4HZRDKNW7","img_art/21.jpg","2","","","","","","","","","","","","","","","","","","","","","","","","",""
"null","","html-keyboard-response","100","466455","0.0-100.0","A3F2W4HZRDKNW7","<p style=""font-size: 48px;"">+</p>","","","","","null","allTrialResponses","1500","1","8","img_art/21.jpg","-2","unique piece","Joseph,Devin,David,Shawn,Steven,Noah","I like that it reminds me of an abstract version of a Bob Ross painting.,36,220,20","Evokes a strong colorful sense,8,380,20","I like how the piece has the possibility of depicting some type of story.,30,340,20","Lovely colors and emotive effects. Turner-esque in a not-so derivative way.,44,100,20","Okay, I love the color schemes, I can't quite figure it out though,14,160,20","brings up imagery of the sea and clashing, though not in a negative way,31,260,20","Devin","Evokes a strong colorful sense,8,380,20","Steven","Okay, I love the color schemes, I can't quite figure it out though,14,160,20","David","I like how the piece has the possibility of depicting some type of story.,30,340,20","0"
"20003","","survey-text","101","486469","0.0-101.0-0.0","A3F2W4HZRDKNW7","","","","{""Q0"":""looks old and ugly""}","","","","","","","","","","","","","","","","","","","","","","",""
"2776","","image-slider-response","102","489246","0.0-102.0","A3F2W4HZRDKNW7","","","","","-46","","","","","","","","","","","","","","","","","","","","","",""
"2585","","image-button-response","103","494262","0.0-103.0","A3F2W4HZRDKNW7","img_art/12.jpg","3","","","","","","","","","","","","","","","","","","","","","","","","",""
"2062","","image-button-response","104","496327","0.0-104.0","A3F2W4HZRDKNW7","img_art/12.jpg","3","","","","","","","","","","","","","","","","","","","","","","","","",""
"690","","image-button-response","105","497019","0.0-105.0-0.0","A3F2W4HZRDKNW7","img_art/12.jpg","4","","","","","","","","","","","","","","","","","","","","","","","","",""
"776","","image-button-response","106","497796","0.0-106.0-0.0","A3F2W4HZRDKNW7","img_art/12.jpg","2","","","","","","","","","","","","","","","","","","","","","","","","",""
"null","","html-keyboard-response","107","498812","0.0-107.0","A3F2W4HZRDKNW7","<p style=""font-size: 48px;"">+</p>","","","","","null","allTrialResponses","1000","1","9","img_art/12.jpg","-46","looks old and ugly","Paul,Devin,David,Brendan,Steven,Angel","Reminds me of collages we made in elementary school. I like the contrast of the colors from top to bottom,43,300,20","Love the shapes here,12,380,20","This doesn't invoke anything. Just a mosaic of random images.,0,340,20","wtf is that i dont get it,-50,340,20","not my kind of thing,1,160,20","This feels cosmopolitan. Like looking at a high rise apartment at night and seeing into everyone's windows.,20,180,20","Brendan","wtf is that i dont get it,-50,340,20","Steven","not my kind of thing,1,160,20","David","This doesn't invoke anything. Just a mosaic of random images.,0,340,20","0"
"11106","","survey-text","108","509928","0.0-108.0-0.0","A3F2W4HZRDKNW7","","","","{""Q0"":""Nice clean painting.""}","","","","","","","","","","","","","","","","","","","","","","",""
"3720","","image-slider-response","109","513650","0.0-109.0","A3F2W4HZRDKNW7","","","","","31","","","","","","","","","","","","","","","","","","","","","",""
"4878","","image-button-response","110","518657","0.0-110.0","A3F2W4HZRDKNW7","img_art/8.jpg","1","","","","","","","","","","","","","","","","","","","","","","","","",""
"883","","image-button-response","111","519543","0.0-111.0","A3F2W4HZRDKNW7","img_art/8.jpg","1","","","","","","","","","","","","","","","","","","","","","","","","",""
"1165","","image-button-response","112","520709","0.0-112.0-0.0","A3F2W4HZRDKNW7","img_art/8.jpg","2","","","","","","","","","","","","","","","","","","","","","","","","",""
"823","","image-button-response","113","521534","0.0-113.0-0.0","A3F2W4HZRDKNW7","img_art/8.jpg","3","","","","","","","","","","","","","","","","","","","","","","","","",""
"null","","html-keyboard-response","114","523041","0.0-114.0","A3F2W4HZRDKNW7","<p style=""font-size: 48px;"">+</p>","","","","","null","allTrialResponses","1500","1","10","img_art/8.jpg","31","Nice clean painting.","Malik,Aaron,David,Brendan,Steven,Taylor","Striking, but not my taste,20,40,20","The shapes and colors work well together.,40,20,20","I like how the piece is showcasing emotion in relation to something.,25,340,20","beautiful buildings,32,340,20","very nice, i love what's going on here,21,160,20","And I'll huff and I'll puff and I'll blow your town down!!,20,200,20","Aaron","The shapes and colors work well together.,40,20,20","David","I like how the piece is showcasing emotion in relation to something.,25,340,20","Brendan","beautiful buildings,32,340,20","0"
"3325","","survey-text","115","526389","0.0-115.0-0.0","A3F2W4HZRDKNW7","","","","{""Q0"":""our""}","","","","","","","","","","","","","","","","","","","","","","",""
"8824","","survey-text","116","535214","0.0-116.0-0.0","A3F2W4HZRDKNW7","","","","{""Q0"":""Pretty plain painting""}","","","","","","","","","","","","","","","","","","","","","","",""
"2666","","image-slider-response","117","537882","0.0-117.0","A3F2W4HZRDKNW7","","","","","-42","","","","","","","","","","","","","","","","","","","","","",""
"3900","","image-button-response","118","542889","0.0-118.0","A3F2W4HZRDKNW7","img_art/7.jpg","4","","","","","","","","","","","","","","","","","","","","","","","","",""
"883","","image-button-response","119","543775","0.0-119.0","A3F2W4HZRDKNW7","img_art/7.jpg","4","","","","","","","","","","","","","","","","","","","","","","","","",""
"887","","image-button-response","120","544663","0.0-120.0-0.0","A3F2W4HZRDKNW7","img_art/7.jpg","0","","","","","","","","","","","","","","","","","","","","","","","","",""
"1785","","image-button-response","121","546449","0.0-121.0-0.0","A3F2W4HZRDKNW7","img_art/7.jpg","0","","","","","","","","","","","","","","","","","","","","","","","","",""
"1383","","image-button-response","122","551343","0.0-121.1-0.1","A3F2W4HZRDKNW7","img_art/7.jpg","3","","","","","","","","","","","","","","","","","","","","","","","","",""
"null","","html-keyboard-response","123","552853","0.0-122.0","A3F2W4HZRDKNW7","<p style=""font-size: 48px;"">+</p>","","","","","null","allTrialResponses","1500","1","11","img_art/7.jpg","-42","Pretty plain painting","Dustin,Aaron,David,Brendan,Adrian,Jack","I see dryness, which is sad. Dirt, sand, the dessert. Barren dry lifeless,-30,20,20","It's kind of ugly but I like the texture.,10,20,20","I like how the image has a sense of history, since the style looks like it came from stone.,20,340,20","some rocks on a mars?,7,340,20","It's dirty. I don't mind the colors so much as the way they are put together in this dirty-looking pattern.,-41,60,20","reminds me of a desert from far above,23,320,20","Adrian","It's dirty. I don't mind the colors so much as the way they are put together in this dirty-looking pattern.,-41,60,20","Dustin","I see dryness, which is sad. Dirt, sand, the dessert. Barren dry lifeless,-30,20,20","Brendan","some rocks on a mars?,7,340,20","2"
"21155","","survey-text","124","574019","0.0-123.0-0.0","A3F2W4HZRDKNW7","","","","{""Q0"":""Alot going on but I like it.""}","","","","","","","","","","","","","","","","","","","","","","",""
"3624","","image-slider-response","125","577645","0.0-124.0","A3F2W4HZRDKNW7","","","","","23","","","","","","","","","","","","","","","","","","","","","",""
"null","","image-button-response","126","582650","0.0-125.0","A3F2W4HZRDKNW7","img_art/29.jpg","null","","","","","","","","","","","","","","","","","","","","","","","","",""
"1585","","image-button-response","127","584237","0.0-126.0","A3F2W4HZRDKNW7","img_art/29.jpg","1","","","","","","","","","","","","","","","","","","","","","","","","",""
"2194","","image-button-response","128","586433","0.0-127.0-0.0","A3F2W4HZRDKNW7","img_art/29.jpg","5","","","","","","","","","","","","","","","","","","","","","","","","",""
"1895","","image-button-response","129","588330","0.0-128.0-0.0","A3F2W4HZRDKNW7","img_art/29.jpg","2","","","","","","","","","","","","","","","","","","","","","","","","",""
"null","","html-keyboard-response","130","589846","0.0-129.0","A3F2W4HZRDKNW7","<p style=""font-size: 48px;"">+</p>","","","","","null","allTrialResponses","1500","1","12","img_art/29.jpg","23","Alot going on but I like it.","Dustin,Austin,Dylan,Brendan,Adrian,Joshua","Don't get it! Too dark and random. Perhaps it was the start of something but the artist stopped and cancelled out the work.,-50,20,20","Has a haunting feel to it,22,240,20","I don't like this. It is ugly and dark,-29,40,20","it looks like a prison,-33,340,20","Again, ugly colors and I'm not a fan of abstract. This looks like the view into a garbage dump.,-50,60,20","I don't like the red X through it.,-20,240,20","Austin","Has a haunting feel to it,22,240,20","Joshua","I don't like the red X through it.,-20,240,20","Dylan","I don't like this. It is ugly and dark,-29,40,20","2"
"14958","","survey-text","131","604816","0.0-130.0-0.0","A3F2W4HZRDKNW7","","","","{""Q0"":""Very unique painting just average.""}","","","","","","","","","","","","","","","","","","","","","","",""
"3522","","image-slider-response","132","608341","0.0-131.0","A3F2W4HZRDKNW7","","","","","-1","","","","","","","","","","","","","","","","","","","","","",""
"null","","image-button-response","133","613346","0.0-132.0","A3F2W4HZRDKNW7","img_art/10.jpg","null","","","","","","","","","","","","","","","","","","","","","","","","",""
"2923","","image-button-response","134","616271","0.0-133.0","A3F2W4HZRDKNW7","img_art/10.jpg","0","","","","","","","","","","","","","","","","","","","","","","","","",""
"1052","","image-button-response","135","617325","0.0-134.0-0.0","A3F2W4HZRDKNW7","img_art/10.jpg","5","","","","","","","","","","","","","","","","","","","","","","","","",""
"4380","","image-button-response","136","621707","0.0-135.0-0.0","A3F2W4HZRDKNW7","img_art/10.jpg","3","","","","","","","","","","","","","","","","","","","","","","","","",""
"null","","html-keyboard-response","137","622211","0.0-136.0","A3F2W4HZRDKNW7","<p style=""font-size: 48px;"">+</p>","","","","","null","allTrialResponses","500","1","13","img_art/10.jpg","-1","Very unique painting just average.","Isaac,Austin,Dylan,Christopher,Shane,Joshua","It looks intricate.,15,280,20","Has an air of mystery around it,39,240,20","The longer I looked at this, the more I liked it,33,40,20","i like this, the mix of brush textures is cool,24,160,20","Like a decision making process,46,80,20","This one is interesting. I like it.,11,240,20","Isaac","It looks intricate.,15,280,20","Joshua","This one is interesting. I like it.,11,240,20","Christopher","i like this, the mix of brush textures is cool,24,160,20","2"
"19199","","survey-text","138","641422","0.0-137.0-0.0","A3F2W4HZRDKNW7","","","","{""Q0"":""Very average painting. Doesnt do much for me.""}","","","","","","","","","","","","","","","","","","","","","","",""
"2933","","image-slider-response","139","644357","0.0-138.0","A3F2W4HZRDKNW7","","","","","-19","","","","","","","","","","","","","","","","","","","","","",""
"4106","","image-button-response","140","649367","0.0-139.0","A3F2W4HZRDKNW7","img_art/22.jpg","0","","","","","","","","","","","","","","","","","","","","","","","","",""
"535","","image-button-response","141","649903","0.0-140.0","A3F2W4HZRDKNW7","img_art/22.jpg","3","","","","","","","","","","","","","","","","","","","","","","","","",""
"896","","image-button-response","142","650800","0.0-141.0-0.0","A3F2W4HZRDKNW7","img_art/22.jpg","0","","","","","","","","","","","","","","","","","","","","","","","","",""
"1887","","image-button-response","143","652689","0.0-142.0-0.0","A3F2W4HZRDKNW7","img_art/22.jpg","4","","","","","","","","","","","","","","","","","","","","","","","","",""
"null","","html-keyboard-response","144","653691","0.0-143.0","A3F2W4HZRDKNW7","<p style=""font-size: 48px;"">+</p>","","","","","null","allTrialResponses","1000","1","14","img_art/22.jpg","-19","Very average painting. Doesnt do much for me.","Isaac,Zachary,Richard,Christopher,Michael,Joshua","The colors clash, and I don't know what is happening.,-23,280,20","I like the vivid colors.,11,400,20","another OK work, mostly because of the blend of colors,12,340,20","boring, too many red and yellow tones for my taste,-15,160,20","There is some flow and organization.,10,140,20","This one would work in the right frame. It's nice.,20,240,20","Christopher","boring, too many red and yellow tones for my taste,-15,160,20","Isaac","The colors clash, and I don't know what is happening.,-23,280,20","Michael","There is some flow and organization.,10,140,20","2"
"10212","","survey-text","145","663917","0.0-144.0-0.0","A3F2W4HZRDKNW7","","","","{""Q0"":""Trash painting""}","","","","","","","","","","","","","","","","","","","","","","",""
"2516","","image-slider-response","146","666435","0.0-145.0","A3F2W4HZRDKNW7","","","","","-50","","","","","","","","","","","","","","","","","","","","","",""
"2413","","image-button-response","147","671439","0.0-146.0","A3F2W4HZRDKNW7","img_art/15.jpg","0","","","","","","","","","","","","","","","","","","","","","","","","",""
"729","","image-button-response","148","672171","0.0-147.0","A3F2W4HZRDKNW7","img_art/15.jpg","0","","","","","","","","","","","","","","","","","","","","","","","","",""
"683","","image-button-response","149","672855","0.0-148.0-0.0","A3F2W4HZRDKNW7","img_art/15.jpg","4","","","","","","","","","","","","","","","","","","","","","","","","",""
"477","","image-button-response","150","673335","0.0-149.0-0.0","A3F2W4HZRDKNW7","img_art/15.jpg","5","","","","","","","","","","","","","","","","","","","","","","","","",""
"null","","html-keyboard-response","151","674839","0.0-150.0","A3F2W4HZRDKNW7","<p style=""font-size: 48px;"">+</p>","","","","","null","allTrialResponses","1500","1","15","img_art/15.jpg","-50","Trash painting","Isaac,Anthony,Jordan,Christopher,Michael,Grant","The colors are too busy.,-39,280,20","This piece isn't particularly attractive, but it's not ugly either.,1,200,20","This also has nice contrast,34,160,20","this is really pretty! i like the pops of blue in all the black,26,160,20","Looks incomplete.,-19,140,20","This elicits no reaction in me.,0,200,20","Isaac","The colors are too busy.,-39,280,20","Michael","Looks incomplete.,-19,140,20","Grant","This elicits no reaction in me.,0,200,20","2"
"3923","","survey-text","152","678787","0.0-151.0-0.0","A3F2W4HZRDKNW7","","","","{""Q0"":""course""}","","","","","","","","","","","","","","","","","","","","","","",""
"22968","","survey-text","153","701756","0.0-152.0-0.0","A3F2W4HZRDKNW7","","","","{""Q0"":""Very bland like a child painted it.""}","","","","","","","","","","","","","","","","","","","","","","",""
"5174","","image-slider-response","154","706932","0.0-153.0","A3F2W4HZRDKNW7","","","","","-27","","","","","","","","","","","","","","","","","","","","","",""
"null","","image-button-response","155","711938","0.0-154.0","A3F2W4HZRDKNW7","img_art/5.jpg","null","","","","","","","","","","","","","","","","","","","","","","","","",""
"2325","","image-button-response","156","714265","0.0-155.0","A3F2W4HZRDKNW7","img_art/5.jpg","4","","","","","","","","","","","","","","","","","","","","","","","","",""
"1824","","image-button-response","157","716090","0.0-156.0-0.0","A3F2W4HZRDKNW7","img_art/5.jpg","1","","","","","","","","","","","","","","","","","","","","","","","","",""
"738","","image-button-response","158","716831","0.0-157.0-0.0","A3F2W4HZRDKNW7","img_art/5.jpg","0","","","","","","","","","","","","","","","","","","","","","","","","",""
"null","","html-keyboard-response","159","717341","0.0-158.0","A3F2W4HZRDKNW7","<p style=""font-size: 48px;"">+</p>","","","","","null","allTrialResponses","500","1","16","img_art/5.jpg","-27","Very bland like a child painted it.","Isaac,Ian,Scott,Jacob,Michael,Grant","I'm not sure what is going on here.,-46,280,20","This either looks like a bell or aliens finishing the pyramids,-34,260,20","I like it but I don't know why,15,20,20","Don't really know the point of this one.,-11,340,20","Complete garbage. Looks like a kid drew it.,-50,140,20","This elicits no reaction in me.,0,200,20","Michael","Complete garbage. Looks like a kid drew it.,-50,140,20","Ian","This either looks like a bell or aliens finishing the pyramids,-34,260,20","Isaac","I'm not sure what is going on here.,-46,280,20","2"
"8279","","survey-text","160","725628","0.0-159.0-0.0","A3F2W4HZRDKNW7","","","","{""Q0"":""Scary painting""}","","","","","","","","","","","","","","","","","","","","","","",""
"2679","","image-slider-response","161","728311","0.0-160.0","A3F2W4HZRDKNW7","","","","","-50","","","","","","","","","","","","","","","","","","","","","",""
"null","","image-button-response","162","733314","0.0-161.0","A3F2W4HZRDKNW7","img_art/16.jpg","null","","","","","","","","","","","","","","","","","","","","","","","","",""
"1329","","image-button-response","163","734645","0.0-162.0","A3F2W4HZRDKNW7","img_art/16.jpg","4","","","","","","","","","","","","","","","","","","","","","","","","",""
"1508","","image-button-response","164","736155","0.0-163.0-0.0","A3F2W4HZRDKNW7","img_art/16.jpg","3","","","","","","","","","","","","","","","","","","","","","","","","",""
"997","","image-button-response","165","737155","0.0-164.0-0.0","A3F2W4HZRDKNW7","img_art/16.jpg","1","","","","","","","","","","","","","","","","","","","","","","","","",""
"null","","html-keyboard-response","166","737657","0.0-165.0","A3F2W4HZRDKNW7","<p style=""font-size: 48px;"">+</p>","","","","","null","allTrialResponses","500","1","17","img_art/16.jpg","-50","Scary painting","Isaac,Ian,Sean,Charles,Michael,Tanner","I wouldn't hang it up on my wall but I like the colors of the bear.,25,280,20","This looks like it was made by an art student filled with angst,-30,260,20","my reaction is that the picture is creepy,-19,40,20","Weird and creepy,-30,100,20","Looks like a kid did itt and ti looks disturbing.,-45,140,20","sad. desth of childhood,-5,180,20","Michael","Looks like a kid did itt and ti looks disturbing.,-45,140,20","Charles","Weird and creepy,-30,100,20","Ian","This looks like it was made by an art student filled with angst,-30,260,20","2"
"12338","","survey-text","167","750004","0.0-166.0-0.0","A3F2W4HZRDKNW7","","","","{""Q0"":""very unique painting I like""}","","","","","","","","","","","","","","","","","","","","","","",""
"8499","","image-slider-response","168","758505","0.0-167.0","A3F2W4HZRDKNW7","","","","","19","","","","","","","","","","","","","","","","","","","","","",""
"null","","image-button-response","169","763509","0.0-168.0","A3F2W4HZRDKNW7","img_art/9.jpg","null","","","","","","","","","","","","","","","","","","","","","","","","",""
"792","","image-button-response","170","764303","0.0-169.0","A3F2W4HZRDKNW7","img_art/9.jpg","1","","","","","","","","","","","","","","","","","","","","","","","","",""
"888","","image-button-response","171","765193","0.0-170.0-0.0","A3F2W4HZRDKNW7","img_art/9.jpg","2","","","","","","","","","","","","","","","","","","","","","","","","",""
"722","","image-button-response","172","765916","0.0-171.0-0.0","A3F2W4HZRDKNW7","img_art/9.jpg","5","","","","","","","","","","","","","","","","","","","","","","","","",""
"null","","html-keyboard-response","173","766927","0.0-172.0","A3F2W4HZRDKNW7","<p style=""font-size: 48px;"">+</p>","","","","","null","allTrialResponses","1000","1","18","img_art/9.jpg","19","very unique painting I like","Robert,Ian,Luis,Charles,Michael,Miguel","Someone sleeping in a cave. Dont like the scribble look.,-30,360,20","It looks like someone gave a kid a coloring book page but the colors are soothing and look put together and elegant,27,260,20","Calming and relaxing,42,400,20","It's too all over the place,-37,100,20","Looks like a young child drew it.,-45,140,20","Abstract but not well made,-26,160,20","Ian","It looks like someone gave a kid a coloring book page but the colors are soothing and look put together and elegant,27,260,20","Luis","Calming and relaxing,42,400,20","Miguel","Abstract but not well made,-26,160,20","2"
"15632","","survey-text","174","782573","0.0-173.0-0.0","A3F2W4HZRDKNW7","","","","{""Q0"":""Would like to know the meaning. Unique""}","","","","","","","","","","","","","","","","","","","","","","",""
"2491","","image-slider-response","175","785067","0.0-174.0","A3F2W4HZRDKNW7","","","","","32","","","","","","","","","","","","","","","","","","","","","",""
"3696","","image-button-response","176","790073","0.0-175.0","A3F2W4HZRDKNW7","img_art/25.jpg","2","","","","","","","","","","","","","","","","","","","","","","","","",""
"564","","image-button-response","177","790639","0.0-176.0","A3F2W4HZRDKNW7","img_art/25.jpg","2","","","","","","","","","","","","","","","","","","","","","","","","",""
"1122","","image-button-response","178","791762","0.0-177.0-0.0","A3F2W4HZRDKNW7","img_art/25.jpg","4","","","","","","","","","","","","","","","","","","","","","","","","",""
"1070","","image-button-response","179","792833","0.0-178.0-0.0","A3F2W4HZRDKNW7","img_art/25.jpg","1","","","","","","","","","","","","","","","","","","","","","","","","",""
"null","","html-keyboard-response","180","793340","0.0-179.0","A3F2W4HZRDKNW7","<p style=""font-size: 48px;"">+</p>","","","","","null","allTrialResponses","500","1","19","img_art/25.jpg","32","Would like to know the meaning. Unique","Stephen,Ian,Luis,Patrick,Spencer,Miguel","It's nice but nothing special.,7,140,20","This looks cool but I don't really care for it. Some sort or religious figure?,16,260,20","New life, rising from your personal battles,50,400,20","Green color is not my thing,-29,280,20","I really like it, very simple, very tribal,38,120,20","This is too simple,-22,160,20","Luis","New life, rising from your personal battles,50,400,20","Spencer","I really like it, very simple, very tribal,38,120,20","Ian","This looks cool but I don't really care for it. Some sort or religious figure?,16,260,20","2"
"18579","","survey-text","181","811934","0.0-180.0-0.0","A3F2W4HZRDKNW7","","","","{""Q0"":""I like it.""}","","","","","","","","","","","","","","","","","","","","","","",""
"2271","","image-slider-response","182","814209","0.0-181.0","A3F2W4HZRDKNW7","","","","","35","","","","","","","","","","","","","","","","","","","","","",""
"4947","","image-button-response","183","819220","0.0-182.0","A3F2W4HZRDKNW7","img_art/14.jpg","2","","","","","","","","","","","","","","","","","","","","","","","","",""
"1062","","image-button-response","184","820285","0.0-183.0","A3F2W4HZRDKNW7","img_art/14.jpg","2","","","","","","","","","","","","","","","","","","","","","","","","",""
"895","","image-button-response","185","821181","0.0-184.0-0.0","A3F2W4HZRDKNW7","img_art/14.jpg","4","","","","","","","","","","","","","","","","","","","","","","","","",""
"1060","","image-button-response","186","822243","0.0-185.0-0.0","A3F2W4HZRDKNW7","img_art/14.jpg","5","","","","","","","","","","","","","","","","","","","","","","","","",""
"null","","html-keyboard-response","187","823752","0.0-186.0","A3F2W4HZRDKNW7","<p style=""font-size: 48px;"">+</p>","","","","","null","allTrialResponses","1500","1","20","img_art/14.jpg","35","I like it.","Travis,Ian,Luis,Gregory,Spencer,Gabriel","I kind of like it...I like the white back ground,11,260,20","This just looks like a kids watercolor painting.,-30,260,20","Love the assortment of colors and flowers, expressing gentle and caring,50,400,20","Not as cool as other tree looking paintings,-5,220,20","I like the simplicity along with the colors,27,120,20","i like this one!,23,160,20","Luis","Love the assortment of colors and flowers, expressing gentle and caring,50,400,20","Spencer","I like the simplicity along with the colors,27,120,20","Gabriel","i like this one!,23,160,20","2"
"2558","","survey-text","188","826338","0.0-187.0-0.0","A3F2W4HZRDKNW7","","","","{""Q0"":""we""}","","","","","","","","","","","","","","","","","","","","","","",""
"8599","","survey-text","189","834939","0.0-188.0-0.0","A3F2W4HZRDKNW7","","","","{""Q0"":""Very nice painting.""}","","","","","","","","","","","","","","","","","","","","","","",""
"2115","","image-slider-response","190","837056","0.0-189.0","A3F2W4HZRDKNW7","","","","","31","","","","","","","","","","","","","","","","","","","","","",""
"3113","","image-button-response","191","842063","0.0-190.0","A3F2W4HZRDKNW7","img_art/24.jpg","2","","","","","","","","","","","","","","","","","","","","","","","","",""
"846","","image-button-response","192","842911","0.0-191.0","A3F2W4HZRDKNW7","img_art/24.jpg","2","","","","","","","","","","","","","","","","","","","","","","","","",""
"596","","image-button-response","193","843509","0.0-192.0-0.0","A3F2W4HZRDKNW7","img_art/24.jpg","0","","","","","","","","","","","","","","","","","","","","","","","","",""
"823","","image-button-response","194","844334","0.0-193.0-0.0","A3F2W4HZRDKNW7","img_art/24.jpg","4","","","","","","","","","","","","","","","","","","","","","","","","",""
"null","","html-keyboard-response","195","845848","0.0-194.0","A3F2W4HZRDKNW7","<p style=""font-size: 48px;"">+</p>","","","","","null","allTrialResponses","1500","1","21","img_art/24.jpg","31","Very nice painting.","Edward,Bradley,Luis,Carlos,Spencer,Gabriel","Very pretty and soft,37,60,20","Hmm. Don't know what to make of this one.,1,300,20","Love the natural vibe,50,400,20","It is like a really bad impressionist painting.,-40,80,20","Happy, the forest as I would love to see it,50,120,20","this one is just a bit too harsh,-13,160,20","Luis","Love the natural vibe,50,400,20","Edward","Very pretty and soft,37,60,20","Spencer","Happy, the forest as I would love to see it,50,120,20","2"
"13931","","survey-text","196","859800","0.0-195.0-0.0","A3F2W4HZRDKNW7","","","","{""Q0"":""I enjoy this painting.""}","","","","","","","","","","","","","","","","","","","","","","",""
"2202","","image-slider-response","197","862005","0.0-196.0","A3F2W4HZRDKNW7","","","","","37","","","","","","","","","","","","","","","","","","","","","",""
"null","","image-button-response","198","867014","0.0-197.0","A3F2W4HZRDKNW7","img_art/18.jpg","null","","","","","","","","","","","","","","","","","","","","","","","","",""
"2206","","image-button-response","199","869221","0.0-198.0","A3F2W4HZRDKNW7","img_art/18.jpg","2","","","","","","","","","","","","","","","","","","","","","","","","",""
"786","","image-button-response","200","870008","0.0-199.0-0.0","A3F2W4HZRDKNW7","img_art/18.jpg","0","","","","","","","","","","","","","","","","","","","","","","","","",""
"862","","image-button-response","201","870872","0.0-200.0-0.0","A3F2W4HZRDKNW7","img_art/18.jpg","4","","","","","","","","","","","","","","","","","","","","","","","","",""
"null","","html-keyboard-response","202","871380","0.0-201.0","A3F2W4HZRDKNW7","<p style=""font-size: 48px;"">+</p>","","","","","null","allTrialResponses","500","1","22","img_art/18.jpg","37","I enjoy this painting.","Edward,Isaiah,Luis,James,Spencer,Ryan","Reminds me of the four horsemen of the apocalypse,29,60,20","I'm mildly disgusted by the colors, and can't piece together the story the figures are trying to tell.,-10,300,20","I love the battle vibe in this,50,400,20","Very eerie and it's spooky,11,380,20","I really like it, like hells drivers,43,120,20","Too political, not my cup of tea,-50,380,20","Luis","I love the battle vibe in this,50,400,20","Edward","Reminds me of the four horsemen of the apocalypse,29,60,20","Spencer","I really like it, like hells drivers,43,120,20","2"
"21851","","survey-text","203","893246","0.0-202.0-0.0","A3F2W4HZRDKNW7","","","","{""Q0"":""very ugly dont like""}","","","","","","","","","","","","","","","","","","","","","","",""
"3098","","image-slider-response","204","896346","0.0-203.0","A3F2W4HZRDKNW7","","","","","-32","","","","","","","","","","","","","","","","","","","","","",""
"null","","image-button-response","205","901359","0.0-204.0","A3F2W4HZRDKNW7","img_art/2.jpg","null","","","","","","","","","","","","","","","","","","","","","","","","",""
"2279","","image-button-response","206","903641","0.0-205.0","A3F2W4HZRDKNW7","img_art/2.jpg","4","","","","","","","","","","","","","","","","","","","","","","","","",""
"784","","image-button-response","207","904427","0.0-206.0-0.0","A3F2W4HZRDKNW7","img_art/2.jpg","5","","","","","","","","","","","","","","","","","","","","","","","","",""
"839","","image-button-response","208","905269","0.0-207.0-0.0","A3F2W4HZRDKNW7","img_art/2.jpg","2","","","","","","","","","","","","","","","","","","","","","","","","",""
"null","","html-keyboard-response","209","906773","0.0-208.0","A3F2W4HZRDKNW7","<p style=""font-size: 48px;"">+</p>","","","","","null","allTrialResponses","1500","1","23","img_art/2.jpg","-32","very ugly dont like","Edward,Devon,Luis,Peter,Spencer,Cameron","My immediate reaction was it looked like a class but then I saw a smile in the middle,11,60,20","another confusing piece of art,-12,400,20","I dont like the expression of this,-19,400,20","I don't feel indifferent,4,320,20","Kind of looks upside down, I need a focal point,-29,120,20","Ugly version of that park painting.,-31,60,20","Spencer","Kind of looks upside down, I need a focal point,-29,120,20","Cameron","Ugly version of that park painting.,-31,60,20","Luis","I dont like the expression of this,-19,400,20","2"
"8172","","survey-text","210","914962","0.0-209.0-0.0","A3F2W4HZRDKNW7","","","","{""Q0"":""to much going on""}","","","","","","","","","","","","","","","","","","","","","","",""
"2328","","image-slider-response","211","917293","0.0-210.0","A3F2W4HZRDKNW7","","","","","-26","","","","","","","","","","","","","","","","","","","","","",""
"null","","image-button-response","212","922307","0.0-211.0","A3F2W4HZRDKNW7","img_art/23.jpg","null","","","","","","","","","","","","","","","","","","","","","","","","",""
"1146","","image-button-response","213","923453","0.0-212.0","A3F2W4HZRDKNW7","img_art/23.jpg","0","","","","","","","","","","","","","","","","","","","","","","","","",""
"691","","image-button-response","214","924145","0.0-213.0-0.0","A3F2W4HZRDKNW7","img_art/23.jpg","3","","","","","","","","","","","","","","","","","","","","","","","","",""
"573","","image-button-response","215","924719","0.0-214.0-0.0","A3F2W4HZRDKNW7","img_art/23.jpg","5","","","","","","","","","","","","","","","","","","","","","","","","",""
"null","","html-keyboard-response","216","925236","0.0-215.0","A3F2W4HZRDKNW7","<p style=""font-size: 48px;"">+</p>","","","","","null","allTrialResponses","500","1","24","img_art/23.jpg","-26","to much going on","Trevor,Jake,Luis,Jeremy,Spencer,Cameron","nice bright colors but looks like it's from the 90's,6,280,20","This looks like hotel room art, it's ugly and odd.,-2,360,20","I dont like the chaos of this,-20,400,20","Does not incite any emotional response,1,60,20","Interesting, want to look at it more to identify,25,120,20","looks like those paper chain things.,0,60,20","Trevor","nice bright colors but looks like it's from the 90's,6,280,20","Jeremy","Does not incite any emotional response,1,60,20","Cameron","looks like those paper chain things.,0,60,20","2"
"11928","","survey-text","217","937183","0.0-216.0-0.0","A3F2W4HZRDKNW7","","","","{""Q0"":""I enjoy this painting""}","","","","","","","","","","","","","","","","","","","","","","",""
"2806","","image-slider-response","218","939991","0.0-217.0","A3F2W4HZRDKNW7","","","","","19","","","","","","","","","","","","","","","","","","","","","",""
"null","","image-button-response","219","945004","0.0-218.0","A3F2W4HZRDKNW7","img_art/11.jpg","null","","","","","","","","","","","","","","","","","","","","","","","","",""
"659","","image-button-response","220","945664","0.0-219.0","A3F2W4HZRDKNW7","img_art/11.jpg","1","","","","","","","","","","","","","","","","","","","","","","","","",""
"658","","image-button-response","221","946324","0.0-220.0-0.0","A3F2W4HZRDKNW7","img_art/11.jpg","4","","","","","","","","","","","","","","","","","","","","","","","","",""
"527","","image-button-response","222","946853","0.0-221.0-0.0","A3F2W4HZRDKNW7","img_art/11.jpg","5","","","","","","","","","","","","","","","","","","","","","","","","",""
"null","","html-keyboard-response","223","948364","0.0-222.0","A3F2W4HZRDKNW7","<p style=""font-size: 48px;"">+</p>","","","","","null","allTrialResponses","1500","1","25","img_art/11.jpg","19","I enjoy this painting","Trevor,Bryan,Nathaniel,Jeremy,Matthew,Cameron","I like how it looks like buildings but i'm not a fan of colors,20,280,20","Rainy asian city scape.,31,400,20","Kind of bizzare in that I can imagine ships or something from it.,11,220,20","gave me a sense of gloom,-21,60,20","Dark but bright, city but ocean, musical scales.,50,120,20","futuristic arching railways,25,60,20","Bryan","Rainy asian city scape.,31,400,20","Matthew","Dark but bright, city but ocean, musical scales.,50,120,20","Cameron","futuristic arching railways,25,60,20","2"
"3654","","survey-text","224","952053","0.0-223.0-0.0","A3F2W4HZRDKNW7","","","","{""Q0"":""table""}","","","","","","","","","","","","","","","","","","","","","","",""
"10283","","survey-text","225","962338","0.0-224.0-0.0","A3F2W4HZRDKNW7","","","","{""Q0"":""Very soothing""}","","","","","","","","","","","","","","","","","","","","","","",""
"2516","","image-slider-response","226","964857","0.0-225.0","A3F2W4HZRDKNW7","","","","","43","","","","","","","","","","","","","","","","","","","","","",""
"4334","","image-button-response","227","969867","0.0-226.0","A3F2W4HZRDKNW7","img_art/20.jpg","4","","","","","","","","","","","","","","","","","","","","","","","","",""
"691","","image-button-response","228","970561","0.0-227.0","A3F2W4HZRDKNW7","img_art/20.jpg","4","","","","","","","","","","","","","","","","","","","","","","","","",""
"588","","image-button-response","229","971151","0.0-228.0-0.0","A3F2W4HZRDKNW7","img_art/20.jpg","3","","","","","","","","","","","","","","","","","","","","","","","","",""
"975","","image-button-response","230","972128","0.0-229.0-0.0","A3F2W4HZRDKNW7","img_art/20.jpg","1","","","","","","","","","","","","","","","","","","","","","","","","",""
"null","","html-keyboard-response","231","972631","0.0-230.0","A3F2W4HZRDKNW7","<p style=""font-size: 48px;"">+</p>","","","","","null","allTrialResponses","500","1","26","img_art/20.jpg","43","Very soothing","Daniel,Bryan,Juan,Logan,Matthew,Cameron","Fails to capture what similar styles do,-12,320,20","Reminds me of Georgia O'Keefe.,11,400,20","I like the deep blues, but I don't like the way this picture makes me feel.,-13,260,20","truck? train? dead cow? plane?,10,360,20","Painting within a painting, abstract.,32,120,20","Dinosaur skill and some dark shadow above,-30,60,20","Matthew","Painting within a painting, abstract.,32,120,20","Logan","truck? train? dead cow? plane?,10,360,20","Bryan","Reminds me of Georgia O'Keefe.,11,400,20","2"
"11669","","survey-text","232","984316","0.0-231.0-0.0","A3F2W4HZRDKNW7","","","","{""Q0"":""Would be good for the office.""}","","","","","","","","","","","","","","","","","","","","","","",""
"2074","","image-slider-response","233","986393","0.0-232.0","A3F2W4HZRDKNW7","","","","","37","","","","","","","","","","","","","","","","","","","","","",""
"null","","image-button-response","234","991399","0.0-233.0","A3F2W4HZRDKNW7","img_art/17.jpg","null","","","","","","","","","","","","","","","","","","","","","","","","",""
"3099","","image-button-response","235","994499","0.0-234.0","A3F2W4HZRDKNW7","img_art/17.jpg","1","","","","","","","","","","","","","","","","","","","","","","","","",""
"1130","","image-button-response","236","995631","0.0-235.0-0.0","A3F2W4HZRDKNW7","img_art/17.jpg","0","","","","","","","","","","","","","","","","","","","","","","","","",""
"1636","","image-button-response","237","997268","0.0-236.0-0.0","A3F2W4HZRDKNW7","img_art/17.jpg","2","","","","","","","","","","","","","","","","","","","","","","","","",""
"null","","html-keyboard-response","238","997779","0.0-237.0","A3F2W4HZRDKNW7","<p style=""font-size: 48px;"">+</p>","","","","","null","allTrialResponses","500","1","27","img_art/17.jpg","37","Would be good for the office.","Brett,Bryan,Victor,Logan,Matthew,Kyle","Looks like an explosion of pretty artwork,45,360,20","Reminds me of winters in Minnesota.,48,400,20","cool. Sharp and blocky below, light and flowing on top. Overall pleasing to look at,32,340,20","similar to last one, still pretty cool but I liked arrangement of last one better,13,360,20","taste the rainbow, feel the flavor.,23,120,20","I like the use of color in this and how you can actually see shapes form. Seems thoughtful,22,340,20","Bryan","Reminds me of winters in Minnesota.,48,400,20","Brett","Looks like an explosion of pretty artwork,45,360,20","Victor","cool. Sharp and blocky below, light and flowing on top. Overall pleasing to look at,32,340,20","2"
"15086","","survey-text","239","1012885","0.0-238.0-0.0","A3F2W4HZRDKNW7","","","","{""Q0"":""very ugly painting""}","","","","","","","","","","","","","","","","","","","","","","",""
"2200","","image-slider-response","240","1015086","0.0-239.0","A3F2W4HZRDKNW7","","","","","-27","","","","","","","","","","","","","","","","","","","","","",""
"4215","","image-button-response","241","1020093","0.0-240.0","A3F2W4HZRDKNW7","img_art/28.jpg","3","","","","","","","","","","","","","","","","","","","","","","","","",""
"759","","image-button-response","242","1020855","0.0-241.0","A3F2W4HZRDKNW7","img_art/28.jpg","3","","","","","","","","","","","","","","","","","","","","","","","","",""
"808","","image-button-response","243","1021664","0.0-242.0-0.0","A3F2W4HZRDKNW7","img_art/28.jpg","5","","","","","","","","","","","","","","","","","","","","","","","","",""
"1116","","image-button-response","244","1022782","0.0-243.0-0.0","A3F2W4HZRDKNW7","img_art/28.jpg","2","","","","","","","","","","","","","","","","","","","","","","","","",""
"null","","html-keyboard-response","245","1023294","0.0-244.0","A3F2W4HZRDKNW7","<p style=""font-size: 48px;"">+</p>","","","","","null","allTrialResponses","500","1","28","img_art/28.jpg","-27","very ugly painting","Brett,Bryan,Victor,Luke,Jorge,Bryce","Overpopulated city,35,360,20","A meeting in Old Jerusalem.,11,400,20","Almost looks like child's artwork, sloppy and chaotic,6,340,20","no clear colors or meaning to evoke emotions,-15,20,20","nostalgic from a memory,11,180,20","It gives me weird vibes.,-25,20,20","Luke","no clear colors or meaning to evoke emotions,-15,20,20","Bryce","It gives me weird vibes.,-25,20,20","Victor","Almost looks like child's artwork, sloppy and chaotic,6,340,20","2"
"9637","","survey-text","246","1032951","0.0-245.0-0.0","A3F2W4HZRDKNW7","","","","{""Q0"":""Plain painting""}","","","","","","","","","","","","","","","","","","","","","","",""
"1967","","image-slider-response","247","1034919","0.0-246.0","A3F2W4HZRDKNW7","","","","","-19","","","","","","","","","","","","","","","","","","","","","",""
"null","","image-button-response","248","1039926","0.0-247.0","A3F2W4HZRDKNW7","img_art/6.jpg","null","","","","","","","","","","","","","","","","","","","","","","","","",""
"2223","","image-button-response","249","1042151","0.0-248.0","A3F2W4HZRDKNW7","img_art/6.jpg","5","","","","","","","","","","","","","","","","","","","","","","","","",""
"715","","image-button-response","250","1042867","0.0-249.0-0.0","A3F2W4HZRDKNW7","img_art/6.jpg","1","","","","","","","","","","","","","","","","","","","","","","","","",""
"533","","image-button-response","251","1043403","0.0-250.0-0.0","A3F2W4HZRDKNW7","img_art/6.jpg","0","","","","","","","","","","","","","","","","","","","","","","","","",""
"null","","html-keyboard-response","252","1044408","0.0-251.0","A3F2W4HZRDKNW7","<p style=""font-size: 48px;"">+</p>","","","","","null","allTrialResponses","1000","1","29","img_art/6.jpg","-19","Plain painting","Justin,Alex,Victor,Luke,John,Bryce","It's alright. I imagined the peach from James and the Giant Peach.,1,280,20","Definitely belongs at a doctor's office, I think it's a crow or a tree?,-3,100,20","The background on the upper half is nice. I also like the contrast of the top and bottom halves,5,340,20","i like it but it is very neutral,9,20,20","It makes me stop and think about what the artist is trying to say.It creates a feeling of solitude and tranqulity,30,120,20","Not very exciting.,-34,20,20","Bryce","Not very exciting.,-34,20,20","Alex","Definitely belongs at a doctor's office, I think it's a crow or a tree?,-3,100,20","Justin","It's alright. I imagined the peach from James and the Giant Peach.,1,280,20","2"
"9102","","survey-text","253","1053531","0.0-252.0-0.0","A3F2W4HZRDKNW7","","","","{""Q0"":""To much going on dont like""}","","","","","","","","","","","","","","","","","","","","","","",""
"2184","","image-slider-response","254","1055717","0.0-253.0","A3F2W4HZRDKNW7","","","","","-42","","","","","","","","","","","","","","","","","","","","","",""
"null","","image-button-response","255","1060722","0.0-254.0","A3F2W4HZRDKNW7","img_art/1.jpg","null","","","","","","","","","","","","","","","","","","","","","","","","",""
"1603","","image-button-response","256","1062326","0.0-255.0","A3F2W4HZRDKNW7","img_art/1.jpg","5","","","","","","","","","","","","","","","","","","","","","","","","",""
"613","","image-button-response","257","1062940","0.0-256.0-0.0","A3F2W4HZRDKNW7","img_art/1.jpg","3","","","","","","","","","","","","","","","","","","","","","","","","",""
"816","","image-button-response","258","1063758","0.0-257.0-0.0","A3F2W4HZRDKNW7","img_art/1.jpg","1","","","","","","","","","","","","","","","","","","","","","","","","",""
"null","","html-keyboard-response","259","1064771","0.0-258.0","A3F2W4HZRDKNW7","<p style=""font-size: 48px;"">+</p>","","","","","null","allTrialResponses","1000","1","30","img_art/1.jpg","-42","To much going on dont like","Justin,Alex,Christian,Dalton,Antonio,Bryce","It reminds me of a sunset I once saw.,16,280,20","Random paint does not make art,-5,100,20","bamboo boat in sunset,12,140,20","the colors are vibrant and beautiful,1,300,20","Felt nothing in response to this painting,3,220,20","Again kind a boring.,-38,20,20","Bryce","Again kind a boring.,-38,20,20","Dalton","the colors are vibrant and beautiful,1,300,20","Alex","Random paint does not make art,-5,100,20","2"
"2701","","image-button-response_instructions","260","1067490","0.0-259.0","A3F2W4HZRDKNW7","","0","instructions","","","","","","","","","","","","","","","","","","","","","","","",""
