"rt","url","trial_type","trial_index","time_elapsed","internal_node_id","participant_id","stimulus","button_pressed","Name","responses","response","key_press","variableName","fixationTime","condition","trial","photo","subjectRating","subjectResponse","agentsNames","agent_1_Response","agent_2_Response","agent_3_Response","agent_4_Response","agent_5_Response","agent_6_Response","kept_1_name","kept_1_response","kept_2_name","kept_2_response","kept_3_name","kept_3_response","errorCounter"
"9599","external_page_harvard.html","external-html","0","9910","0.0-0.0","A3FAQHPVI8OUP0","","","","","","","","","","","","","","","","","","","","","","","","","","",""
"2092","","image-button-response","1","12011","0.0-1.0","A3FAQHPVI8OUP0","","0","","","","","","","","","","","","","","","","","","","","","","","","",""
"2622","","image-button-response","2","14654","0.0-2.0-0.0","A3FAQHPVI8OUP0","","1","phone","","","","","","","","","","","","","","","","","","","","","","","",""
"9708","","survey-text","3","24367","0.0-3.0-0.0","A3FAQHPVI8OUP0","","","","{""Q0"":""A3FAQHPVI8OUP0""}","","","","","","","","","","","","","","","","","","","","","","",""
"20505","","image-button-response_instructions","4","44884","0.0-4.0","A3FAQHPVI8OUP0","","0","instructions","","","","","","","","","","","","","","","","","","","","","","","",""
"43069","","image-button-response_instructions","5","87961","0.0-5.0","A3FAQHPVI8OUP0","img_art/ins/popularity/ins1.png","0","instructions","","","","","","","","","","","","","","","","","","","","","","","",""
"9547","","image-button-response_instructions","6","97514","0.0-6.0","A3FAQHPVI8OUP0","img_art/ins/popularity/ins2.png","0","instructions","","","","","","","","","","","","","","","","","","","","","","","",""
"6347","","image-button-response_instructions","7","103875","0.0-7.0","A3FAQHPVI8OUP0","img_art/ins/popularity/ins2Extreme.png","0","instructions","","","","","","","","","","","","","","","","","","","","","","","",""
"25937","","image-button-response_instructions","8","129816","0.0-8.0","A3FAQHPVI8OUP0","img_art/ins/popularity/ins3KEEPpop.PNG","0","instructions","","","","","","","","","","","","","","","","","","","","","","","",""
"5522","","image-button-response_instructions","9","135344","0.0-9.0","A3FAQHPVI8OUP0","img_art/ins/popularity/ins3ANamepop.PNG","0","instructions","","","","","","","","","","","","","","","","","","","","","","","",""
"5520","","image-button-response_instructions","10","140868","0.0-10.0","A3FAQHPVI8OUP0","img_art/ins/popularity/ins3ARatingpop.png","0","instructions","","","","","","","","","","","","","","","","","","","","","","","",""
"5063","","image-button-response_instructions","11","145935","0.0-11.0","A3FAQHPVI8OUP0","img_art/ins/popularity/ins3ATextpop.png","0","instructions","","","","","","","","","","","","","","","","","","","","","","","",""
"10956","","image-button-response_instructions","12","156896","0.0-12.0","A3FAQHPVI8OUP0","img_art/ins/popularity/ins3ALikespop.png","0","instructions","","","","","","","","","","","","","","","","","","","","","","","",""
"14016","","image-button-response_instructions","13","170918","0.0-13.0","A3FAQHPVI8OUP0","img_art/ins/popularity/ins3KEEPpop.PNG","0","instructions","","","","","","","","","","","","","","","","","","","","","","","",""
"19279","","image-button-response_instructions","14","190200","0.0-14.0","A3FAQHPVI8OUP0","img_art/ins/popularity/ins3_5RED.png","0","instructions","","","","","","","","","","","","","","","","","","","","","","","",""
"5570","","image-button-response_instructions","15","195776","0.0-15.0","A3FAQHPVI8OUP0","img_art/ins/popularity/ins3KEEPpop.PNG","0","instructions","","","","","","","","","","","","","","","","","","","","","","","",""
"12603","","image-button-response_instructions","16","208383","0.0-16.0","A3FAQHPVI8OUP0","img_art/ins/popularity/ins4KEEPpop.PNG","0","instructions","","","","","","","","","","","","","","","","","","","","","","","",""
"4831","","image-button-response_instructions","17","213218","0.0-17.0","A3FAQHPVI8OUP0","img_art/ins/popularity/ins5KEEPpop.PNG","0","instructions","","","","","","","","","","","","","","","","","","","","","","","",""
"2813","","image-button-response_instructions","18","216035","0.0-18.0","A3FAQHPVI8OUP0","","0","instructions","","","","","","","","","","","","","","","","","","","","","","","",""
"17667","","survey-text","19","233787","0.0-19.0-0.0","A3FAQHPVI8OUP0","","","","{""Q0"":""but""}","","","","","","","","","","","","","","","","","","","","","","",""
"16366","","survey-text","20","250161","0.0-20.0-0.0","A3FAQHPVI8OUP0","","","","{""Q0"":""looks like springtime flowers""}","","","","","","","","","","","","","","","","","","","","","","",""
"6968.20000000298","","image-slider-response","21","257139","0.0-21.0","A3FAQHPVI8OUP0","","","","","-40","","","","","","","","","","","","","","","","","","","","","",""
"null","","image-button-response","22","262171","0.0-22.0","A3FAQHPVI8OUP0","img_art/ins/1.jpg","null","","","","","","","","","","","","","","","","","","","","","","","","",""
"5911","","image-button-response","23","268097","0.0-23.0","A3FAQHPVI8OUP0","img_art/ins/1.jpg","0","","","","","","","","","","","","","","","","","","","","","","","","",""
"6994","","image-button-response","24","275101","0.0-24.0-0.0","A3FAQHPVI8OUP0","img_art/ins/1.jpg","2","","","","","","","","","","","","","","","","","","","","","","","","",""
"4633","","image-button-response","25","279744","0.0-25.0-0.0","A3FAQHPVI8OUP0","img_art/ins/1.jpg","0","","","","","","","","","","","","","","","","","","","","","","","","",""
"7061","","image-button-response","26","293158","0.0-25.1-0.1","A3FAQHPVI8OUP0","img_art/ins/1.jpg","4","","","","","","","","","","","","","","","","","","","","","","","","",""
"null","","html-keyboard-response","27","293667","0.0-26.0","A3FAQHPVI8OUP0","<p style=""font-size: 48px;"">+</p>","","","","","null","allTrialResponses","500","1","-2","img_art/ins/1.jpg","-40","looks like springtime flowers","Adam,Alex,Ben,Carl,Daniel,Jack","Seems like doodles,-20,20,20","very creative work.,36,40,20","This color reminds me of poo,-46,60,20","very calming artwork,42,80,20","It looks like a murder scene.,-48,100,20","I like the sophisticated brushwork,40,120,20","Adam","Seems like doodles,-20,20,20","Ben","This color reminds me of poo,-46,60,20","Daniel","It looks like a murder scene.,-48,100,20","2"
"15267","","survey-text","28","308982","0.0-27.0-0.0","A3FAQHPVI8OUP0","","","","{""Q0"":""lots of texture""}","","","","","","","","","","","","","","","","","","","","","","",""
"11061.70000000298","","image-slider-response","29","320049","0.0-28.0","A3FAQHPVI8OUP0","","","","","-16","","","","","","","","","","","","","","","","","","","","","",""
"3912","","image-button-response","30","325079","0.0-29.0","A3FAQHPVI8OUP0","img_art/ins/2.jpg","1","","","","","","","","","","","","","","","","","","","","","","","","",""
"4693","","image-button-response","31","329780","0.0-30.0","A3FAQHPVI8OUP0","img_art/ins/2.jpg","3","","","","","","","","","","","","","","","","","","","","","","","","",""
"15031","","image-button-response","32","344820","0.0-31.0-0.0","A3FAQHPVI8OUP0","img_art/ins/2.jpg","5","","","","","","","","","","","","","","","","","","","","","","","","",""
"5367","","image-button-response","33","350198","0.0-32.0-0.0","A3FAQHPVI8OUP0","img_art/ins/2.jpg","1","","","","","","","","","","","","","","","","","","","","","","","","",""
"null","","html-keyboard-response","34","351211","0.0-33.0","A3FAQHPVI8OUP0","<p style=""font-size: 48px;"">+</p>","","","","","null","allTrialResponses","1000","1","-1","img_art/ins/2.jpg","-16","lots of texture","Adam,John,Ben,James,Daniel,Kyle","too much color,-18,20,20","love the texture of paint,48,160,20","meaningless painting,-45,60,20","looks too angry,-50,140,20","One of my pet peevs,-48,100,20","Idk, it is just annoying,-32,180,20","James","looks too angry,-50,140,20","Kyle","Idk, it is just annoying,-32,180,20","John","love the texture of paint,48,160,20","2"
"13473","","survey-text","35","364721","0.0-34.0-0.0","A3FAQHPVI8OUP0","","","","{""Q0"":""I don't get it""}","","","","","","","","","","","","","","","","","","","","","","",""
"4570.79999999702","","image-slider-response","36","369297","0.0-35.0","A3FAQHPVI8OUP0","","","","","-44","","","","","","","","","","","","","","","","","","","","","",""
"null","","image-button-response","37","374315","0.0-36.0","A3FAQHPVI8OUP0","img_art/ins/3.jpg","null","","","","","","","","","","","","","","","","","","","","","","","","",""
"2034","","image-button-response","38","376363","0.0-37.0","A3FAQHPVI8OUP0","img_art/ins/3.jpg","4","","","","","","","","","","","","","","","","","","","","","","","","",""
"2304","","image-button-response","39","378676","0.0-38.0-0.0","A3FAQHPVI8OUP0","img_art/ins/3.jpg","5","","","","","","","","","","","","","","","","","","","","","","","","",""
"1781","","image-button-response","40","380466","0.0-39.0-0.0","A3FAQHPVI8OUP0","img_art/ins/3.jpg","2","","","","","","","","","","","","","","","","","","","","","","","","",""
"null","","html-keyboard-response","41","381480","0.0-40.0","A3FAQHPVI8OUP0","<p style=""font-size: 48px;"">+</p>","","","","","null","allTrialResponses","1000","1","0","img_art/ins/3.jpg","-44","I don't get it","Mike,John,Sam,James,Ron,Kyle","enjoy the different shades of blue,22,200,20","I like the overlapping of brushes,41,160,20","I can feel a rainy day from this painting,18,240,20","My worst nightmare,-42,140,20","It looks depressing,-26,220,20","It looks like a playground for bats,-36,180,20","Ron","It looks depressing,-26,220,20","Kyle","It looks like a playground for bats,-36,180,20","Sam","I can feel a rainy day from this painting,18,240,20","2"
"5751","","image-button-response_instructions","42","387283","0.0-41.0","A3FAQHPVI8OUP0","","0","instructions","","","","","","","","","","","","","","","","","","","","","","","",""
"14709","","survey-likert","43","401999","0.0-42.0-0.0","A3FAQHPVI8OUP0","","","","{""Q0"":"""",""Q1"":0,""Q2"":0}","","","","","","","","","","","","","","","","","","","","","","",""
"7597","","survey-likert","44","411969","0.0-42.1-0.1","A3FAQHPVI8OUP0","","","","{""Q0"":"""",""Q1"":0,""Q2"":1}","","","","","","","","","","","","","","","","","","","","","","",""
"7580","","survey-text","45","419568","0.0-43.0-0.0","A3FAQHPVI8OUP0","","","","{""Q0"":""rock""}","","","","","","","","","","","","","","","","","","","","","","",""
"17317","","survey-text","46","436891","0.0-44.0-0.0","A3FAQHPVI8OUP0","","","","{""Q0"":""street scene?""}","","","","","","","","","","","","","","","","","","","","","","",""
"6209.29999999702","","image-slider-response","47","443106","0.0-45.0","A3FAQHPVI8OUP0","","","","","-25","","","","","","","","","","","","","","","","","","","","","",""
"null","","image-button-response","48","448239","0.0-46.0","A3FAQHPVI8OUP0","img_art/19.jpg","null","","","","","","","","","","","","","","","","","","","","","","","","",""
"752","","image-button-response","49","449001","0.0-47.0","A3FAQHPVI8OUP0","img_art/19.jpg","1","","","","","","","","","","","","","","","","","","","","","","","","",""
"2311","","image-button-response","50","451320","0.0-48.0-0.0","A3FAQHPVI8OUP0","img_art/19.jpg","2","","","","","","","","","","","","","","","","","","","","","","","","",""
"9311","","image-button-response","51","460639","0.0-49.0-0.0","A3FAQHPVI8OUP0","img_art/19.jpg","3","","","","","","","","","","","","","","","","","","","","","","","","",""
"null","","html-keyboard-response","52","461647","0.0-50.0","A3FAQHPVI8OUP0","<p style=""font-size: 48px;"">+</p>","","","","","null","allTrialResponses","1000","1","1","img_art/19.jpg","-25","street scene?","Christopher,Brandon,Edward,Robert,Tristan,Devon","too much of a mix of lines and shading,-22,160,20","Not a fan of the blobbiness,-22,320,20","It's ok but it's nothing I would hang on my wall,11,60,20","A dreary town in the fall.,-4,360,20","Though provoking. Adventurous.,10,300,20","this looks like a busy city lifestyle,24,400,20","Brandon","Not a fan of the blobbiness,-22,320,20","Edward","It's ok but it's nothing I would hang on my wall,11,60,20","Robert","A dreary town in the fall.,-4,360,20","3"
"11441","","survey-text","53","473122","0.0-51.0-0.0","A3FAQHPVI8OUP0","","","","{""Q0"":""just blobs""}","","","","","","","","","","","","","","","","","","","","","","",""
"5042.4000000059605","","image-slider-response","54","478171","0.0-52.0","A3FAQHPVI8OUP0","","","","","-44","","","","","","","","","","","","","","","","","","","","","",""
"4824","","image-button-response","55","483182","0.0-53.0","A3FAQHPVI8OUP0","img_art/22.jpg","1","","","","","","","","","","","","","","","","","","","","","","","","",""
"9166","","image-button-response","56","492363","0.0-54.0","A3FAQHPVI8OUP0","img_art/22.jpg","3","","","","","","","","","","","","","","","","","","","","","","","","",""
"2987","","image-button-response","57","495358","0.0-55.0-0.0","A3FAQHPVI8OUP0","img_art/22.jpg","1","","","","","","","","","","","","","","","","","","","","","","","","",""
"7228","","image-button-response","58","502594","0.0-56.0-0.0","A3FAQHPVI8OUP0","img_art/22.jpg","0","","","","","","","","","","","","","","","","","","","","","","","","",""
"null","","html-keyboard-response","59","504099","0.0-57.0","A3FAQHPVI8OUP0","<p style=""font-size: 48px;"">+</p>","","","","","null","allTrialResponses","1500","1","2","img_art/22.jpg","-44","just blobs","Adam,Brandon,Edward,Robert,Victor,Elijah","Very generic mix of primary colors and shapes. Not a huge fan.,-10,40,20","Don't like this type of abstract work,-39,320,20","I like the use of primary colors in an interesting way,29,60,20","I don't get much of a reaction.,11,360,20","I don't really know why, I just like looking at it,10,340,20","Makes me feel a bit anxious,6,80,20","Robert","I don't get much of a reaction.,11,360,20","Brandon","Don't like this type of abstract work,-39,320,20","Adam","Very generic mix of primary colors and shapes. Not a huge fan.,-10,40,20","3"
"35270","","survey-text","60","539420","0.0-58.0-0.0","A3FAQHPVI8OUP0","","","","{""Q0"":""ni idea what this is, but looks unpleasant""}","","","","","","","","","","","","","","","","","","","","","","",""
"4722.800000011921","","image-slider-response","61","544150","0.0-59.0","A3FAQHPVI8OUP0","","","","","-48","","","","","","","","","","","","","","","","","","","","","",""
"null","","image-button-response","62","549175","0.0-60.0","A3FAQHPVI8OUP0","img_art/4.jpg","null","","","","","","","","","","","","","","","","","","","","","","","","",""
"2573","","image-button-response","63","551762","0.0-61.0","A3FAQHPVI8OUP0","img_art/4.jpg","1","","","","","","","","","","","","","","","","","","","","","","","","",""
"5783","","image-button-response","64","557554","0.0-62.0-0.0","A3FAQHPVI8OUP0","img_art/4.jpg","3","","","","","","","","","","","","","","","","","","","","","","","","",""
"12907","","image-button-response","65","570471","0.0-63.0-0.0","A3FAQHPVI8OUP0","img_art/4.jpg","0","","","","","","","","","","","","","","","","","","","","","","","","",""
"null","","html-keyboard-response","66","571483","0.0-64.0","A3FAQHPVI8OUP0","<p style=""font-size: 48px;"">+</p>","","","","","null","allTrialResponses","1000","1","3","img_art/4.jpg","-48","ni idea what this is, but looks unpleasant","Adam,Brandon,Bryce,Robert,Trevor,Vincent","McDonald's French Fries.,-10,40,20","Really don't like this. Kindergarten art, sorry.,-50,320,20","Not very interesting to look at.,-34,20,20","It looks like a hand someone scribbled over,-30,360,20","not enough color and too yellow for me. Not my favorite colors,-10,280,20","I like it not sure much of how I feel about it,7,360,20","Brandon","Really don't like this. Kindergarten art, sorry.,-50,320,20","Robert","It looks like a hand someone scribbled over,-30,360,20","Adam","McDonald's French Fries.,-10,40,20","3"
"32991","","survey-text","67","604517","0.0-65.0-0.0","A3FAQHPVI8OUP0","","","","{""Q0"":""a guitar or something?  interesting""}","","","","","","","","","","","","","","","","","","","","","","",""
"5176.9000000059605","","image-slider-response","68","609700","0.0-66.0","A3FAQHPVI8OUP0","","","","","5","","","","","","","","","","","","","","","","","","","","","",""
"null","","image-button-response","69","614716","0.0-67.0","A3FAQHPVI8OUP0","img_art/10.jpg","null","","","","","","","","","","","","","","","","","","","","","","","","",""
"6537","","image-button-response","70","621262","0.0-68.0","A3FAQHPVI8OUP0","img_art/10.jpg","5","","","","","","","","","","","","","","","","","","","","","","","","",""
"22650","","image-button-response","71","643920","0.0-69.0-0.0","A3FAQHPVI8OUP0","img_art/10.jpg","0","","","","","","","","","","","","","","","","","","","","","","","","",""
"2247","","image-button-response","72","646176","0.0-70.0-0.0","A3FAQHPVI8OUP0","img_art/10.jpg","1","","","","","","","","","","","","","","","","","","","","","","","","",""
"null","","html-keyboard-response","73","647188","0.0-71.0","A3FAQHPVI8OUP0","<p style=""font-size: 48px;"">+</p>","","","","","null","allTrialResponses","1000","1","4","img_art/10.jpg","5","a guitar or something?  interesting","Adam,Brandon,Mitchell,Robert,John,Jose","I like the contrast,10,40,20","Too abstract and it doesn't really remind me of anything,-40,320,20","Circle of life, with highs and lows, good and bad. You always weather the storm and come out on top.,40,180,20","The black color is depressing.,-50,360,20","Bleak and uninteresting,-10,120,20","This is pretty rad. The outline looks like a music staff,15,200,20","Jose","This is pretty rad. The outline looks like a music staff,15,200,20","Adam","I like the contrast,10,40,20","Brandon","Too abstract and it doesn't really remind me of anything,-40,320,20","3"
"16168","","survey-text","74","663409","0.0-72.0-0.0","A3FAQHPVI8OUP0","","","","{""Q0"":""dark and uninteresting""}","","","","","","","","","","","","","","","","","","","","","","",""
"4764","","image-slider-response","75","668179","0.0-73.0","A3FAQHPVI8OUP0","","","","","-39","","","","","","","","","","","","","","","","","","","","","",""
"null","","image-button-response","76","673206","0.0-74.0","A3FAQHPVI8OUP0","img_art/15.jpg","null","","","","","","","","","","","","","","","","","","","","","","","","",""
"9980","","image-button-response","77","683198","0.0-75.0","A3FAQHPVI8OUP0","img_art/15.jpg","5","","","","","","","","","","","","","","","","","","","","","","","","",""
"9755","","image-button-response","78","692962","0.0-76.0-0.0","A3FAQHPVI8OUP0","img_art/15.jpg","0","","","","","","","","","","","","","","","","","","","","","","","","",""
"5462","","image-button-response","79","698433","0.0-77.0-0.0","A3FAQHPVI8OUP0","img_art/15.jpg","2","","","","","","","","","","","","","","","","","","","","","","","","",""
"null","","html-keyboard-response","80","699950","0.0-78.0","A3FAQHPVI8OUP0","<p style=""font-size: 48px;"">+</p>","","","","","null","allTrialResponses","1500","1","5","img_art/15.jpg","-39","dark and uninteresting","Adam,Brandon,Nathaniel,Jason,Connor,Jose","Eyes hunt for the blue in the black.,5,40,20","Not a fan of abstract, but the black is very striking,10,320,20","This is passable, but personally it just has nothing I'd like to see.,-14,220,20","Simplicity of colors is nice,11,20,20","Neat to explore meaning, blue is interesting,11,240,20","black dots too ant-like,-25,200,20","Jose","black dots too ant-like,-25,200,20","Adam","Eyes hunt for the blue in the black.,5,40,20","Nathaniel","This is passable, but personally it just has nothing I'd like to see.,-14,220,20","3"
"5471","","survey-text","81","705488","0.0-79.0-0.0","A3FAQHPVI8OUP0","","","","{""Q0"":""sky""}","","","","","","","","","","","","","","","","","","","","","","",""
"39919","","survey-text","82","745412","0.0-80.0-0.0","A3FAQHPVI8OUP0","","","","{""Q0"":""looks like preschool doodling""}","","","","","","","","","","","","","","","","","","","","","","",""
"4308.5","","image-slider-response","83","749727","0.0-81.0","A3FAQHPVI8OUP0","","","","","-45","","","","","","","","","","","","","","","","","","","","","",""
"null","","image-button-response","84","754744","0.0-82.0","A3FAQHPVI8OUP0","img_art/17.jpg","null","","","","","","","","","","","","","","","","","","","","","","","","",""
"2888","","image-button-response","85","757646","0.0-83.0","A3FAQHPVI8OUP0","img_art/17.jpg","5","","","","","","","","","","","","","","","","","","","","","","","","",""
"11153","","image-button-response","86","768808","0.0-84.0-0.0","A3FAQHPVI8OUP0","img_art/17.jpg","4","","","","","","","","","","","","","","","","","","","","","","","","",""
"5732","","image-button-response","87","774549","0.0-85.0-0.0","A3FAQHPVI8OUP0","img_art/17.jpg","0","","","","","","","","","","","","","","","","","","","","","","","","",""
"null","","html-keyboard-response","88","775056","0.0-86.0","A3FAQHPVI8OUP0","<p style=""font-size: 48px;"">+</p>","","","","","null","allTrialResponses","500","1","6","img_art/17.jpg","-45","looks like preschool doodling","Adam,Malik,Nathaniel,Luke,Isaac,Jose","Very washed out.,-10,40,20","I love vague, dreamlike styles,50,40,20","I like the artistic sketching pattern.,24,220,20","it looks very intricate and colorful,50,20,20","The colors are soft.,32,280,20","Looks like a weird blurry heaven again! I dig,32,200,20","Jose","Looks like a weird blurry heaven again! I dig,32,200,20","Isaac","The colors are soft.,32,280,20","Adam","Very washed out.,-10,40,20","3"
"23555","","survey-text","89","798643","0.0-87.0-0.0","A3FAQHPVI8OUP0","","","","{""Q0"":""interesting contrast, but looks dark""}","","","","","","","","","","","","","","","","","","","","","","",""
"4653.5999999940395","","image-slider-response","90","803305","0.0-88.0","A3FAQHPVI8OUP0","","","","","8","","","","","","","","","","","","","","","","","","","","","",""
"null","","image-button-response","91","808323","0.0-89.0","A3FAQHPVI8OUP0","img_art/20.jpg","null","","","","","","","","","","","","","","","","","","","","","","","","",""
"2351","","image-button-response","92","810687","0.0-90.0","A3FAQHPVI8OUP0","img_art/20.jpg","1","","","","","","","","","","","","","","","","","","","","","","","","",""
"7773","","image-button-response","93","818466","0.0-91.0-0.0","A3FAQHPVI8OUP0","img_art/20.jpg","0","","","","","","","","","","","","","","","","","","","","","","","","",""
"10226","","image-button-response","94","828700","0.0-92.0-0.0","A3FAQHPVI8OUP0","img_art/20.jpg","3","","","","","","","","","","","","","","","","","","","","","","","","",""
"null","","html-keyboard-response","95","829205","0.0-93.0","A3FAQHPVI8OUP0","<p style=""font-size: 48px;"">+</p>","","","","","null","allTrialResponses","500","1","7","img_art/20.jpg","8","interesting contrast, but looks dark","Adam,Joshua,Shane,Alexis,Isaac,Jose","Melty picture. Reminiscent of Dali.,10,40,20","Reminds me of the Southwest; i.e. New Mexico or Arizona. It's interesting.,12,240,20","Feels like a town destroyed,-19,80,20","it is a bit disturbing, like a monster or ghost floating away from a bleak building,-8,140,20","It is abstract but it looks neat.,15,280,20","More dark colors and blurry objects.,13,200,20","Joshua","Reminds me of the Southwest; i.e. New Mexico or Arizona. It's interesting.,12,240,20","Adam","Melty picture. Reminiscent of Dali.,10,40,20","Alexis","it is a bit disturbing, like a monster or ghost floating away from a bleak building,-8,140,20","3"
"44239","","survey-text","96","873469","0.0-94.0-0.0","A3FAQHPVI8OUP0","","","","{""Q0"":""novelty wears off quickly""}","","","","","","","","","","","","","","","","","","","","","","",""
"3763.5999999940395","","image-slider-response","97","877238","0.0-95.0","A3FAQHPVI8OUP0","","","","","-7","","","","","","","","","","","","","","","","","","","","","",""
"null","","image-button-response","98","882253","0.0-96.0","A3FAQHPVI8OUP0","img_art/23.jpg","null","","","","","","","","","","","","","","","","","","","","","","","","",""
"931","","image-button-response","99","883196","0.0-97.0","A3FAQHPVI8OUP0","img_art/23.jpg","1","","","","","","","","","","","","","","","","","","","","","","","","",""
"11194","","image-button-response","100","894397","0.0-98.0-0.0","A3FAQHPVI8OUP0","img_art/23.jpg","3","","","","","","","","","","","","","","","","","","","","","","","","",""
"20087","","image-button-response","101","914496","0.0-99.0-0.0","A3FAQHPVI8OUP0","img_art/23.jpg","5","","","","","","","","","","","","","","","","","","","","","","","","",""
"null","","html-keyboard-response","102","915502","0.0-100.0","A3FAQHPVI8OUP0","<p style=""font-size: 48px;"">+</p>","","","","","null","allTrialResponses","1000","1","8","img_art/23.jpg","-7","novelty wears off quickly","Adam,Joshua,James,Alexis,Joseph,Christian","I like the color contrast, though I'm unable to tell what the white shapes are.,25,40,20","This one is interesting. Looks like people with maybe musical instruments?,11,240,20","I love the rainbow!,12,380,20","It looks like a parade of musicians full of excitement. Makes me feel upbeat,33,140,20","Like a wound that has been sutured. Pain, but also healing.,5,220,20","love the contrast (was this painted by a left-handed artist?),7,140,20","Joshua","This one is interesting. Looks like people with maybe musical instruments?,11,240,20","Alexis","It looks like a parade of musicians full of excitement. Makes me feel upbeat,33,140,20","Christian","love the contrast (was this painted by a left-handed artist?),7,140,20","3"
"23556","","survey-text","103","939087","0.0-101.0-0.0","A3FAQHPVI8OUP0","","","","{""Q0"":""looks like preschool artwork""}","","","","","","","","","","","","","","","","","","","","","","",""
"4847.20000000298","","image-slider-response","104","943941","0.0-102.0","A3FAQHPVI8OUP0","","","","","2","","","","","","","","","","","","","","","","","","","","","",""
"null","","image-button-response","105","948963","0.0-103.0","A3FAQHPVI8OUP0","img_art/26.jpg","null","","","","","","","","","","","","","","","","","","","","","","","","",""
"858","","image-button-response","106","949834","0.0-104.0","A3FAQHPVI8OUP0","img_art/26.jpg","2","","","","","","","","","","","","","","","","","","","","","","","","",""
"10929","","image-button-response","107","960771","0.0-105.0-0.0","A3FAQHPVI8OUP0","img_art/26.jpg","4","","","","","","","","","","","","","","","","","","","","","","","","",""
"5210","","image-button-response","108","965991","0.0-106.0-0.0","A3FAQHPVI8OUP0","img_art/26.jpg","0","","","","","","","","","","","","","","","","","","","","","","","","",""
"null","","html-keyboard-response","109","967494","0.0-107.0","A3FAQHPVI8OUP0","<p style=""font-size: 48px;"">+</p>","","","","","null","allTrialResponses","1500","1","9","img_art/26.jpg","2","looks like preschool artwork","Alexander,Joshua,Dakota,Alexis,Dylan,Christian","Confusing park picture.,8,120,20","This is boring.,-15,240,20","juvenile, faint and weak,-41,280,20","it makes me feel normal and calm, I like the busy city street,10,140,20","I like the colors but it is still a little boring,22,40,20","love the ""lowkey"" vibrant colors that are colorful but at the same time greyscale,12,140,20","Dakota","juvenile, faint and weak,-41,280,20","Dylan","I like the colors but it is still a little boring,22,40,20","Alexander","Confusing park picture.,8,120,20","3"
"17239","","survey-text","110","984746","0.0-108.0-0.0","A3FAQHPVI8OUP0","","","","{""Q0"":""reminds me of summer""}","","","","","","","","","","","","","","","","","","","","","","",""
"5318.29999999702","","image-slider-response","111","990071","0.0-109.0","A3FAQHPVI8OUP0","","","","","2","","","","","","","","","","","","","","","","","","","","","",""
"4096","","image-button-response","112","995103","0.0-110.0","A3FAQHPVI8OUP0","img_art/27.jpg","0","","","","","","","","","","","","","","","","","","","","","","","","",""
"5029","","image-button-response","113","1000147","0.0-111.0","A3FAQHPVI8OUP0","img_art/27.jpg","1","","","","","","","","","","","","","","","","","","","","","","","","",""
"1547","","image-button-response","114","1001701","0.0-112.0-0.0","A3FAQHPVI8OUP0","img_art/27.jpg","0","","","","","","","","","","","","","","","","","","","","","","","","",""
"13966","","image-button-response","115","1015675","0.0-113.0-0.0","A3FAQHPVI8OUP0","img_art/27.jpg","3","","","","","","","","","","","","","","","","","","","","","","","","",""
"null","","html-keyboard-response","116","1016682","0.0-114.0","A3FAQHPVI8OUP0","<p style=""font-size: 48px;"">+</p>","","","","","null","allTrialResponses","1000","1","10","img_art/27.jpg","2","reminds me of summer","Alexander,Juan,Dakota,Zachary,Dylan,Seth","Messy field of various plants.,-5,120,20","Colors make me think of fall, but I don't like how the picture was done or the weird lines across the background,6,260,20","feels like a bar scene, tucked away in the corner of a small town,-40,280,20","Color story is boring in nature, and I feel nothing but boredom from this piece.,-20,400,20","This is ugly and looks like a child did this,-36,40,20","I don't care for the green scribbles; not sure what they are. But I adore the colors in the background.,24,60,20","Juan","Colors make me think of fall, but I don't like how the picture was done or the weird lines across the background,6,260,20","Alexander","Messy field of various plants.,-5,120,20","Zachary","Color story is boring in nature, and I feel nothing but boredom from this piece.,-20,400,20","3"
"5402","","survey-text","117","1022117","0.0-115.0-0.0","A3FAQHPVI8OUP0","","","","{""Q0"":""our""}","","","","","","","","","","","","","","","","","","","","","","",""
"37514","","survey-text","118","1059636","0.0-116.0-0.0","A3FAQHPVI8OUP0","","","","{""Q0"":""looks like bird footprints in sand""}","","","","","","","","","","","","","","","","","","","","","","",""
"5002.100000008941","","image-slider-response","119","1064644","0.0-117.0","A3FAQHPVI8OUP0","","","","","2","","","","","","","","","","","","","","","","","","","","","",""
"3114","","image-button-response","120","1069659","0.0-118.0","A3FAQHPVI8OUP0","img_art/7.jpg","0","","","","","","","","","","","","","","","","","","","","","","","","",""
"1218","","image-button-response","121","1070890","0.0-119.0","A3FAQHPVI8OUP0","img_art/7.jpg","0","","","","","","","","","","","","","","","","","","","","","","","","",""
"11515","","image-button-response","122","1082412","0.0-120.0-0.0","A3FAQHPVI8OUP0","img_art/7.jpg","4","","","","","","","","","","","","","","","","","","","","","","","","",""
"2864","","image-button-response","123","1085286","0.0-121.0-0.0","A3FAQHPVI8OUP0","img_art/7.jpg","5","","","","","","","","","","","","","","","","","","","","","","","","",""
"null","","html-keyboard-response","124","1085790","0.0-122.0","A3FAQHPVI8OUP0","<p style=""font-size: 48px;"">+</p>","","","","","null","allTrialResponses","500","1","11","img_art/7.jpg","2","looks like bird footprints in sand","Alexander,Juan,Jorge,Zachary,Chase,Ian","Dead bugs on an insect battleground.,-10,120,20","This is borning and lifeless.,-50,260,20","time and change,1,180,20","Looks like a desert or another planet. While the color choices are narrow, it's still interesting because it is very natural.,12,400,20","Just looks like rocks or some kind of mineral.,0,120,20","This looks like a literal picture of the ground so I'm really not too sure about this one.,-42,260,20","Alexander","Dead bugs on an insect battleground.,-10,120,20","Chase","Just looks like rocks or some kind of mineral.,0,120,20","Ian","This looks like a literal picture of the ground so I'm really not too sure about this one.,-42,260,20","3"
"33055","","survey-text","125","1118889","0.0-123.0-0.0","A3FAQHPVI8OUP0","","","","{""Q0"":""A toddler with a couple crayons.""}","","","","","","","","","","","","","","","","","","","","","","",""
"4638.5","","image-slider-response","126","1123533","0.0-124.0","A3FAQHPVI8OUP0","","","","","-50","","","","","","","","","","","","","","","","","","","","","",""
"4370","","image-button-response","127","1128545","0.0-125.0","A3FAQHPVI8OUP0","img_art/3.jpg","0","","","","","","","","","","","","","","","","","","","","","","","","",""
"1154","","image-button-response","128","1129716","0.0-126.0","A3FAQHPVI8OUP0","img_art/3.jpg","0","","","","","","","","","","","","","","","","","","","","","","","","",""
"13871","","image-button-response","129","1143595","0.0-127.0-0.0","A3FAQHPVI8OUP0","img_art/3.jpg","2","","","","","","","","","","","","","","","","","","","","","","","","",""
"18637","","image-button-response","130","1162242","0.0-128.0-0.0","A3FAQHPVI8OUP0","img_art/3.jpg","5","","","","","","","","","","","","","","","","","","","","","","","","",""
"null","","html-keyboard-response","131","1163748","0.0-129.0","A3FAQHPVI8OUP0","<p style=""font-size: 48px;"">+</p>","","","","","null","allTrialResponses","1500","1","12","img_art/3.jpg","-50","A toddler with a couple crayons.","Alexander,Jeffrey,Dalton,Eric,Chase,Ian","Somewhere between a child's art and a poorly drawn battle map.,8,120,20","Associates with blood and crime scene,-12,40,20","Blood splatter and one black spot.,1,300,20","This piece makes me think it has a backstory or a reason which I like.,5,100,20","Looks like a bloody head with teeth.,-16,120,20","It just makes me think of blood splattered everywhere.,-31,260,20","Alexander","Somewhere between a child's art and a poorly drawn battle map.,8,120,20","Dalton","Blood splatter and one black spot.,1,300,20","Ian","It just makes me think of blood splattered everywhere.,-31,260,20","3"
"15063","","survey-text","132","1178847","0.0-130.0-0.0","A3FAQHPVI8OUP0","","","","{""Q0"":""dark but interesting waterfall""}","","","","","","","","","","","","","","","","","","","","","","",""
"4130.0999999940395","","image-slider-response","133","1182983","0.0-131.0","A3FAQHPVI8OUP0","","","","","18","","","","","","","","","","","","","","","","","","","","","",""
"null","","image-button-response","134","1188005","0.0-132.0","A3FAQHPVI8OUP0","img_art/24.jpg","null","","","","","","","","","","","","","","","","","","","","","","","","",""
"4941","","image-button-response","135","1192961","0.0-133.0","A3FAQHPVI8OUP0","img_art/24.jpg","3","","","","","","","","","","","","","","","","","","","","","","","","",""
"5095","","image-button-response","136","1198064","0.0-134.0-0.0","A3FAQHPVI8OUP0","img_art/24.jpg","0","","","","","","","","","","","","","","","","","","","","","","","","",""
"6290","","image-button-response","137","1204362","0.0-135.0-0.0","A3FAQHPVI8OUP0","img_art/24.jpg","1","","","","","","","","","","","","","","","","","","","","","","","","",""
"null","","html-keyboard-response","138","1205386","0.0-136.0","A3FAQHPVI8OUP0","<p style=""font-size: 48px;"">+</p>","","","","","null","allTrialResponses","1000","1","13","img_art/24.jpg","18","dark but interesting waterfall","Alexander,Grant,Dalton,Aaron,Thomas,Ian","Water through the fruit.,15,120,20","The colors look nice, but the painting bores me.,-20,200,20","i feel peace and wanting. i love waterfalls,50,300,20","I like how it evokes the feeling of being in a forest. The colors are pretty,31,20,20","Beautiful colors and texture,20,220,20","I find the colors work really well. It's very pretty but I have no idea as what it is.,34,260,20","Aaron","I like how it evokes the feeling of being in a forest. The colors are pretty,31,20,20","Alexander","Water through the fruit.,15,120,20","Grant","The colors look nice, but the painting bores me.,-20,200,20","3"
"27238","","survey-text","139","1232684","0.0-137.0-0.0","A3FAQHPVI8OUP0","","","","{""Q0"":""intricate but uninteresting""}","","","","","","","","","","","","","","","","","","","","","","",""
"4720.29999999702","","image-slider-response","140","1237410","0.0-138.0","A3FAQHPVI8OUP0","","","","","-35","","","","","","","","","","","","","","","","","","","","","",""
"null","","image-button-response","141","1242420","0.0-139.0","A3FAQHPVI8OUP0","img_art/18.jpg","null","","","","","","","","","","","","","","","","","","","","","","","","",""
"2551","","image-button-response","142","1244985","0.0-140.0","A3FAQHPVI8OUP0","img_art/18.jpg","2","","","","","","","","","","","","","","","","","","","","","","","","",""
"7916","","image-button-response","143","1252908","0.0-141.0-0.0","A3FAQHPVI8OUP0","img_art/18.jpg","0","","","","","","","","","","","","","","","","","","","","","","","","",""
"7023","","image-button-response","144","1259941","0.0-142.0-0.0","A3FAQHPVI8OUP0","img_art/18.jpg","5","","","","","","","","","","","","","","","","","","","","","","","","",""
"null","","html-keyboard-response","145","1260447","0.0-143.0","A3FAQHPVI8OUP0","<p style=""font-size: 48px;"">+</p>","","","","","null","allTrialResponses","500","1","14","img_art/18.jpg","-35","intricate but uninteresting","Alexander,Grant,Nicholas,Aaron,Austin,Angel","Ghostly sea adventure.,20,120,20","This is a very energetic painting, and brings to mind scenes of battle.,50,200,20","Id love to see this piece closer. So much extra details hidden it it.,50,240,20","I could spend a long time looking at it and see different things in the shapes.,21,20,20","Nice abstract art,50,240,20","Like riding into battle. A sense of confidence, but also trepidation for what's coming. Could be a personification of death.,-10,180,20","Nicholas","Id love to see this piece closer. So much extra details hidden it it.,50,240,20","Alexander","Ghostly sea adventure.,20,120,20","Angel","Like riding into battle. A sense of confidence, but also trepidation for what's coming. Could be a personification of death.,-10,180,20","3"
"39841","","survey-text","146","1300326","0.0-144.0-0.0","A3FAQHPVI8OUP0","","","","{""Q0"":""looks like a clam or a hippo's mouth""}","","","","","","","","","","","","","","","","","","","","","","",""
"4958.5","","image-slider-response","147","1305291","0.0-145.0","A3FAQHPVI8OUP0","","","","","-33","","","","","","","","","","","","","","","","","","","","","",""
"2692","","image-button-response","148","1310303","0.0-146.0","A3FAQHPVI8OUP0","img_art/9.jpg","0","","","","","","","","","","","","","","","","","","","","","","","","",""
"916","","image-button-response","149","1311231","0.0-147.0","A3FAQHPVI8OUP0","img_art/9.jpg","0","","","","","","","","","","","","","","","","","","","","","","","","",""
"13846","","image-button-response","150","1325085","0.0-148.0-0.0","A3FAQHPVI8OUP0","img_art/9.jpg","1","","","","","","","","","","","","","","","","","","","","","","","","",""
"10809","","image-button-response","151","1335904","0.0-149.0-0.0","A3FAQHPVI8OUP0","img_art/9.jpg","2","","","","","","","","","","","","","","","","","","","","","","","","",""
"null","","html-keyboard-response","152","1336911","0.0-150.0","A3FAQHPVI8OUP0","<p style=""font-size: 48px;"">+</p>","","","","","null","allTrialResponses","1000","1","15","img_art/9.jpg","-33","looks like a clam or a hippo's mouth","Alexander,Adrian,Nicholas,Caleb,Michael,Angel","The mouth of an ugly beast.,-25,120,20","Looks like my niece's doodles.,-50,60,20","Some nice colors but i do not like it,-18,240,20","Unfinished, weird composition.,-34,40,20","Looks like a young child drew it.,-45,140,20","This feels dreamy. Like I'm seeing inside someone's head while they're sleeping.,20,180,20","Alexander","The mouth of an ugly beast.,-25,120,20","Adrian","Looks like my niece's doodles.,-50,60,20","Nicholas","Some nice colors but i do not like it,-18,240,20","3"
"6000","","survey-text","153","1343019","0.0-151.0-0.0","A3FAQHPVI8OUP0","","","","{""Q0"":""course""}","","","","","","","","","","","","","","","","","","","","","","",""
"25927","","survey-text","154","1368952","0.0-152.0-0.0","A3FAQHPVI8OUP0","","","","{""Q0"":""looks like something violent""}","","","","","","","","","","","","","","","","","","","","","","",""
"7180.399999991059","","image-slider-response","155","1376141","0.0-153.0","A3FAQHPVI8OUP0","","","","","-13","","","","","","","","","","","","","","","","","","","","","",""
"null","","image-button-response","156","1381164","0.0-154.0","A3FAQHPVI8OUP0","img_art/29.jpg","null","","","","","","","","","","","","","","","","","","","","","","","","",""
"9072","","image-button-response","157","1390249","0.0-155.0","A3FAQHPVI8OUP0","img_art/29.jpg","2","","","","","","","","","","","","","","","","","","","","","","","","",""
"5854","","image-button-response","158","1396112","0.0-156.0-0.0","A3FAQHPVI8OUP0","img_art/29.jpg","5","","","","","","","","","","","","","","","","","","","","","","","","",""
"2612","","image-button-response","159","1398734","0.0-157.0-0.0","A3FAQHPVI8OUP0","img_art/29.jpg","3","","","","","","","","","","","","","","","","","","","","","","","","",""
"null","","html-keyboard-response","160","1399240","0.0-158.0","A3FAQHPVI8OUP0","<p style=""font-size: 48px;"">+</p>","","","","","null","allTrialResponses","500","1","16","img_art/29.jpg","-13","looks like something violent","Alexander,Adrian,Nicholas,Bradley,Jacob,Andrew","Tested and failed a lot of ideas.,-20,120,20","Again, ugly colors and I'm not a fan of abstract. This looks like the view into a garbage dump.,-50,60,20","I love this things almost hidden in it like paint brush and other details,50,240,20","It's creative. It's just not my thing.,-32,300,20","It looks cool but I don't really get what's going on, it looks too busy,0,340,20","It seems like there's anger in the painting.,-20,160,20","Nicholas","I love this things almost hidden in it like paint brush and other details,50,240,20","Andrew","It seems like there's anger in the painting.,-20,160,20","Bradley","It's creative. It's just not my thing.,-32,300,20","3"
"30816","","survey-text","161","1430115","0.0-159.0-0.0","A3FAQHPVI8OUP0","","","","{""Q0"":""bug people maybe?""}","","","","","","","","","","","","","","","","","","","","","","",""
"3544.2999999970198","","image-slider-response","162","1433665","0.0-160.0","A3FAQHPVI8OUP0","","","","","-48","","","","","","","","","","","","","","","","","","","","","",""
"null","","image-button-response","163","1438675","0.0-161.0","A3FAQHPVI8OUP0","img_art/28.jpg","null","","","","","","","","","","","","","","","","","","","","","","","","",""
"7560","","image-button-response","164","1446250","0.0-162.0","A3FAQHPVI8OUP0","img_art/28.jpg","5","","","","","","","","","","","","","","","","","","","","","","","","",""
"3536","","image-button-response","165","1449793","0.0-163.0-0.0","A3FAQHPVI8OUP0","img_art/28.jpg","0","","","","","","","","","","","","","","","","","","","","","","","","",""
"5767","","image-button-response","166","1455569","0.0-164.0-0.0","A3FAQHPVI8OUP0","img_art/28.jpg","1","","","","","","","","","","","","","","","","","","","","","","","","",""
"null","","html-keyboard-response","167","1456075","0.0-165.0","A3FAQHPVI8OUP0","<p style=""font-size: 48px;"">+</p>","","","","","null","allTrialResponses","500","1","17","img_art/28.jpg","-48","bug people maybe?","Marcus,Devin,Nicholas,Bradley,Jonathan,Andrew","This reminds me of internal organs.,-10,60,20","It is a bit drab,-10,380,20","Interesting and weird. Perfect conversational piece,33,240,20","I think this may have to do with humpty dumpty?,-7,300,20","The lack of color variance leaves it looking ugly even if I like the brush strokes,-10,140,20","Doesn't give me an emotional response,0,160,20","Andrew","Doesn't give me an emotional response,0,160,20","Marcus","This reminds me of internal organs.,-10,60,20","Devin","It is a bit drab,-10,380,20","3"
"74566","","survey-text","168","1530716","0.0-166.0-0.0","A3FAQHPVI8OUP0","","","","{""Q0"":""abstract, but interesting.  a child's life?""}","","","","","","","","","","","","","","","","","","","","","","",""
"3722.6000000089407","","image-slider-response","169","1534445","0.0-167.0","A3FAQHPVI8OUP0","","","","","28","","","","","","","","","","","","","","","","","","","","","",""
"null","","image-button-response","170","1539467","0.0-168.0","A3FAQHPVI8OUP0","img_art/16.jpg","null","","","","","","","","","","","","","","","","","","","","","","","","",""
"2836","","image-button-response","171","1542315","0.0-169.0","A3FAQHPVI8OUP0","img_art/16.jpg","2","","","","","","","","","","","","","","","","","","","","","","","","",""
"5112","","image-button-response","172","1547437","0.0-170.0-0.0","A3FAQHPVI8OUP0","img_art/16.jpg","4","","","","","","","","","","","","","","","","","","","","","","","","",""
"2746","","image-button-response","173","1550193","0.0-171.0-0.0","A3FAQHPVI8OUP0","img_art/16.jpg","5","","","","","","","","","","","","","","","","","","","","","","","","",""
"null","","html-keyboard-response","174","1551197","0.0-172.0","A3FAQHPVI8OUP0","<p style=""font-size: 48px;"">+</p>","","","","","null","allTrialResponses","1000","1","18","img_art/16.jpg","28","abstract, but interesting.  a child's life?","Marcus,Devin,Spencer,Derek,Jared,Andrew","Hate this, especially the jarring contrast of the super realistic teddybear face.,-50,60,20","That bear looks unfitting!,-8,380,20","Know it is a piece relating to children and gun violence. Sad,-30,120,20","I can't figure out the meaning of this painting but it is pleasant to look at,40,360,20","it looks psychotic,-31,400,20","It just makes me feel uncomfortable,-25,160,20","Spencer","Know it is a piece relating to children and gun violence. Sad,-30,120,20","Jared","it looks psychotic,-31,400,20","Andrew","It just makes me feel uncomfortable,-25,160,20","3"
"29068","","survey-text","175","1580324","0.0-173.0-0.0","A3FAQHPVI8OUP0","","","","{""Q0"":""drab and boring""}","","","","","","","","","","","","","","","","","","","","","","",""
"4176.70000000298","","image-slider-response","176","1584507","0.0-174.0","A3FAQHPVI8OUP0","","","","","-47","","","","","","","","","","","","","","","","","","","","","",""
"null","","image-button-response","177","1589537","0.0-175.0","A3FAQHPVI8OUP0","img_art/2.jpg","null","","","","","","","","","","","","","","","","","","","","","","","","",""
"849","","image-button-response","178","1590399","0.0-176.0","A3FAQHPVI8OUP0","img_art/2.jpg","1","","","","","","","","","","","","","","","","","","","","","","","","",""
"2265","","image-button-response","179","1592673","0.0-177.0-0.0","A3FAQHPVI8OUP0","img_art/2.jpg","2","","","","","","","","","","","","","","","","","","","","","","","","",""
"6129","","image-button-response","180","1598812","0.0-178.0-0.0","A3FAQHPVI8OUP0","img_art/2.jpg","5","","","","","","","","","","","","","","","","","","","","","","","","",""
"null","","html-keyboard-response","181","1599817","0.0-179.0","A3FAQHPVI8OUP0","<p style=""font-size: 48px;"">+</p>","","","","","null","allTrialResponses","1000","1","19","img_art/2.jpg","-47","drab and boring","Garrett,Kenneth,Spencer,Kyle,Jared,Andrew","I like this picture a little because the colors make it look a little vibrant.,10,180,20","I cant tell whats happening here and that shade of green is just not my thing.,-17,300,20","Kind of looks upside down, I need a focal point,-29,120,20","Color picks are a bad mesh with each other,-17,340,20","looks like a happy child,15,400,20","Doesn't give me a reaction,10,160,20","Kenneth","I cant tell whats happening here and that shade of green is just not my thing.,-17,300,20","Spencer","Kind of looks upside down, I need a focal point,-29,120,20","Andrew","Doesn't give me a reaction,10,160,20","3"
"29377","","survey-text","182","1629263","0.0-180.0-0.0","A3FAQHPVI8OUP0","","","","{""Q0"":""interesting brush strokes""}","","","","","","","","","","","","","","","","","","","","","","",""
"4060.6000000089407","","image-slider-response","183","1633330","0.0-181.0","A3FAQHPVI8OUP0","","","","","-47","","","","","","","","","","","","","","","","","","","","","",""
"null","","image-button-response","184","1638337","0.0-182.0","A3FAQHPVI8OUP0","img_art/30.jpg","null","","","","","","","","","","","","","","","","","","","","","","","","",""
"4007","","image-button-response","185","1642349","0.0-183.0","A3FAQHPVI8OUP0","img_art/30.jpg","3","","","","","","","","","","","","","","","","","","","","","","","","",""
"9753","","image-button-response","186","1652109","0.0-184.0-0.0","A3FAQHPVI8OUP0","img_art/30.jpg","5","","","","","","","","","","","","","","","","","","","","","","","","",""
"3448","","image-button-response","187","1655566","0.0-185.0-0.0","A3FAQHPVI8OUP0","img_art/30.jpg","4","","","","","","","","","","","","","","","","","","","","","","","","",""
"null","","html-keyboard-response","188","1656571","0.0-186.0","A3FAQHPVI8OUP0","<p style=""font-size: 48px;"">+</p>","","","","","null","allTrialResponses","1000","1","20","img_art/30.jpg","-47","interesting brush strokes","Jesus,Kenneth,Spencer,William,Jeremy,Andrew","I like the forefront design.,10,100,20","The red helps it to pop.,13,300,20","Interesting, almost an underworld of plant life,11,120,20","to dark and dreary,-28,380,20","Happy. Makes me think of childhood finger painting,49,60,20","It's a really interesting piece,20,160,20","William","to dark and dreary,-28,380,20","Andrew","It's a really interesting piece,20,160,20","Jeremy","Happy. Makes me think of childhood finger painting,49,60,20","3"
"5741","","survey-text","189","1662339","0.0-187.0-0.0","A3FAQHPVI8OUP0","","","","{""Q0"":""we""}","","","","","","","","","","","","","","","","","","","","","","",""
"19526","","survey-text","190","1681870","0.0-188.0-0.0","A3FAQHPVI8OUP0","","","","{""Q0"":""boring, but nice contrast""}","","","","","","","","","","","","","","","","","","","","","","",""
"4287.0999999940395","","image-slider-response","191","1686163","0.0-189.0","A3FAQHPVI8OUP0","","","","","-37","","","","","","","","","","","","","","","","","","","","","",""
"null","","image-button-response","192","1691186","0.0-190.0","A3FAQHPVI8OUP0","img_art/5.jpg","null","","","","","","","","","","","","","","","","","","","","","","","","",""
"3756","","image-button-response","193","1694955","0.0-191.0","A3FAQHPVI8OUP0","img_art/5.jpg","1","","","","","","","","","","","","","","","","","","","","","","","","",""
"5438","","image-button-response","194","1700401","0.0-192.0-0.0","A3FAQHPVI8OUP0","img_art/5.jpg","3","","","","","","","","","","","","","","","","","","","","","","","","",""
"4715","","image-button-response","195","1705126","0.0-193.0-0.0","A3FAQHPVI8OUP0","img_art/5.jpg","5","","","","","","","","","","","","","","","","","","","","","","","","",""
"null","","html-keyboard-response","196","1706131","0.0-194.0","A3FAQHPVI8OUP0","<p style=""font-size: 48px;"">+</p>","","","","","null","allTrialResponses","1000","1","21","img_art/5.jpg","-37","boring, but nice contrast","Gregory,Justin,Noah,William,Jeremy,Andrew","Don't really see it and yellow/pink don't go well together,-35,220,20","Although it's very simple, there's something about the colors that really draws the eye.,11,280,20","this feels like something I should like, but I'm not feeling the execution,-10,260,20","very boring and plain,-35,380,20","I don't hate it but I can't relate to it,1,60,20","Doesn't make me think anything,-1,160,20","Justin","Although it's very simple, there's something about the colors that really draws the eye.,11,280,20","William","very boring and plain,-35,380,20","Andrew","Doesn't make me think anything,-1,160,20","3"
"23965","","survey-text","197","1730117","0.0-195.0-0.0","A3FAQHPVI8OUP0","","","","{""Q0"":""looks dark and stormy""}","","","","","","","","","","","","","","","","","","","","","","",""
"6663.79999999702","","image-slider-response","198","1736790","0.0-196.0","A3FAQHPVI8OUP0","","","","","30","","","","","","","","","","","","","","","","","","","","","",""
"3497","","image-button-response","199","1741811","0.0-197.0","A3FAQHPVI8OUP0","img_art/21.jpg","0","","","","","","","","","","","","","","","","","","","","","","","","",""
"5109","","image-button-response","200","1746936","0.0-198.0","A3FAQHPVI8OUP0","img_art/21.jpg","2","","","","","","","","","","","","","","","","","","","","","","","","",""
"4740","","image-button-response","201","1751682","0.0-199.0-0.0","A3FAQHPVI8OUP0","img_art/21.jpg","0","","","","","","","","","","","","","","","","","","","","","","","","",""
"11572","","image-button-response","202","1763265","0.0-200.0-0.0","A3FAQHPVI8OUP0","img_art/21.jpg","4","","","","","","","","","","","","","","","","","","","","","","","","",""
"null","","html-keyboard-response","203","1763775","0.0-201.0","A3FAQHPVI8OUP0","<p style=""font-size: 48px;"">+</p>","","","","","null","allTrialResponses","500","1","22","img_art/21.jpg","30","looks dark and stormy","Blake,Justin,Brendan,William,Peter,Andrew","ocean and rocks at the beach,11,280,20","Alright. I like the colors.,5,280,20","looks like a sea during some war,27,340,20","like the colors,30,380,20","I like the two sides meeting, like a movie scene,15,320,20","I love the contrasting tones between the two sides,36,160,20","Brendan","looks like a sea during some war,27,340,20","Blake","ocean and rocks at the beach,11,280,20","Peter","I like the two sides meeting, like a movie scene,15,320,20","3"
"40175","","survey-text","204","1803993","0.0-202.0-0.0","A3FAQHPVI8OUP0","","","","{""Q0"":""abstract but interesting city scene""}","","","","","","","","","","","","","","","","","","","","","","",""
"3566.7000000029802","","image-slider-response","205","1807565","0.0-203.0","A3FAQHPVI8OUP0","","","","","35","","","","","","","","","","","","","","","","","","","","","",""
"4837","","image-button-response","206","1812576","0.0-204.0","A3FAQHPVI8OUP0","img_art/8.jpg","0","","","","","","","","","","","","","","","","","","","","","","","","",""
"5157","","image-button-response","207","1817749","0.0-205.0","A3FAQHPVI8OUP0","img_art/8.jpg","1","","","","","","","","","","","","","","","","","","","","","","","","",""
"5317","","image-button-response","208","1823074","0.0-206.0-0.0","A3FAQHPVI8OUP0","img_art/8.jpg","4","","","","","","","","","","","","","","","","","","","","","","","","",""
"3782","","image-button-response","209","1826864","0.0-207.0-0.0","A3FAQHPVI8OUP0","img_art/8.jpg","0","","","","","","","","","","","","","","","","","","","","","","","","",""
"null","","html-keyboard-response","210","1827369","0.0-208.0","A3FAQHPVI8OUP0","<p style=""font-size: 48px;"">+</p>","","","","","null","allTrialResponses","500","1","23","img_art/8.jpg","35","abstract but interesting city scene","Blake,Evan,Brendan,Cole,Peter,Logan","cold city controlled by evil gods,-17,280,20","I can't tell if this is supposed to portray just city life or a town crumbling,-5,140,20","beautiful buildings,32,340,20","Its abstract and interesting,24,200,20","I see water and structures that resemble Ancient Rome,15,320,20","a cute little cute with some protectors,25,360,20","Evan","I can't tell if this is supposed to portray just city life or a town crumbling,-5,140,20","Peter","I see water and structures that resemble Ancient Rome,15,320,20","Blake","cold city controlled by evil gods,-17,280,20","3"
"17018","","survey-text","211","1844436","0.0-209.0-0.0","A3FAQHPVI8OUP0","","","","{""Q0"":""reminds me of Death""}","","","","","","","","","","","","","","","","","","","","","","",""
"3975.3999999910593","","image-slider-response","212","1848417","0.0-210.0","A3FAQHPVI8OUP0","","","","","-33","","","","","","","","","","","","","","","","","","","","","",""
"null","","image-button-response","213","1853428","0.0-211.0","A3FAQHPVI8OUP0","img_art/25.jpg","null","","","","","","","","","","","","","","","","","","","","","","","","",""
"3891","","image-button-response","214","1857332","0.0-212.0","A3FAQHPVI8OUP0","img_art/25.jpg","0","","","","","","","","","","","","","","","","","","","","","","","","",""
"3855","","image-button-response","215","1861195","0.0-213.0-0.0","A3FAQHPVI8OUP0","img_art/25.jpg","3","","","","","","","","","","","","","","","","","","","","","","","","",""
"23619","","image-button-response","216","1884823","0.0-214.0-0.0","A3FAQHPVI8OUP0","img_art/25.jpg","2","","","","","","","","","","","","","","","","","","","","","","","","",""
"null","","html-keyboard-response","217","1886342","0.0-215.0","A3FAQHPVI8OUP0","<p style=""font-size: 48px;"">+</p>","","","","","null","allTrialResponses","1500","1","24","img_art/25.jpg","-33","reminds me of Death","Blake,Evan,Ethan,Antonio,Peter,Ryan","ugly color and very sad old lady,-45,280,20","I really like the green and the fact that it is tattered on the edges,23,140,20","The artist was daring to create this. Don't love the green and black combo though.,9,120,20","Makes me think of Baphomet, As above so below and is scary,-50,220,20","It's very mystical.,5,320,20","Reminds me of Mr. Burns on drugs in the Simpsons,-50,380,20","Blake","ugly color and very sad old lady,-45,280,20","Antonio","Makes me think of Baphomet, As above so below and is scary,-50,220,20","Ethan","The artist was daring to create this. Don't love the green and black combo though.,9,120,20","3"
"53907","","survey-text","218","1940288","0.0-216.0-0.0","A3FAQHPVI8OUP0","","","","{""Q0"":""tenement housing,I guess, which is boring anyway""}","","","","","","","","","","","","","","","","","","","","","","",""
"4264.4000000059605","","image-slider-response","219","1944558","0.0-217.0","A3FAQHPVI8OUP0","","","","","-46","","","","","","","","","","","","","","","","","","","","","",""
"3624","","image-button-response","220","1949569","0.0-218.0","A3FAQHPVI8OUP0","img_art/12.jpg","0","","","","","","","","","","","","","","","","","","","","","","","","",""
"3289","","image-button-response","221","1952874","0.0-219.0","A3FAQHPVI8OUP0","img_art/12.jpg","0","","","","","","","","","","","","","","","","","","","","","","","","",""
"16355","","image-button-response","222","1969237","0.0-220.0-0.0","A3FAQHPVI8OUP0","img_art/12.jpg","2","","","","","","","","","","","","","","","","","","","","","","","","",""
"9086","","image-button-response","223","1978333","0.0-221.0-0.0","A3FAQHPVI8OUP0","img_art/12.jpg","3","","","","","","","","","","","","","","","","","","","","","","","","",""
"null","","html-keyboard-response","224","1978841","0.0-222.0","A3FAQHPVI8OUP0","<p style=""font-size: 48px;"">+</p>","","","","","null","allTrialResponses","500","1","25","img_art/12.jpg","-46","tenement housing,I guess, which is boring anyway","Blake,Dustin,Ethan,Antonio,Kevin,Alejandro","negative feelings with these blocks,-20,280,20","Squares are rigid. I'm ambivalent.,1,20,20","The colors are ok. The piece reminds me of the 90s era, so I kinda like it!,-4,120,20","I like the colors in both sections, brights compared to neutrals. Each block has a different view. I think of the future,11,220,20","That is a warn quilt grama made.,11,320,20","I like the sectioned nature of the squares and curves. Not my favorite but still a good one.,27,80,20","Blake","negative feelings with these blocks,-20,280,20","Ethan","The colors are ok. The piece reminds me of the 90s era, so I kinda like it!,-4,120,20","Antonio","I like the colors in both sections, brights compared to neutrals. Each block has a different view. I think of the future,11,220,20","3"
"6291","","survey-text","225","1985223","0.0-223.0-0.0","A3FAQHPVI8OUP0","","","","{""Q0"":""table""}","","","","","","","","","","","","","","","","","","","","","","",""
"15262","","survey-text","226","2000492","0.0-224.0-0.0","A3FAQHPVI8OUP0","","","","{""Q0"":""soft, boring blobs""}","","","","","","","","","","","","","","","","","","","","","","",""
"4952.699999988079","","image-slider-response","227","2005449","0.0-225.0","A3FAQHPVI8OUP0","","","","","-50","","","","","","","","","","","","","","","","","","","","","",""
"null","","image-button-response","228","2010463","0.0-226.0","A3FAQHPVI8OUP0","img_art/1.jpg","null","","","","","","","","","","","","","","","","","","","","","","","","",""
"2762","","image-button-response","229","2013239","0.0-227.0","A3FAQHPVI8OUP0","img_art/1.jpg","2","","","","","","","","","","","","","","","","","","","","","","","","",""
"3021","","image-button-response","230","2016268","0.0-228.0-0.0","A3FAQHPVI8OUP0","img_art/1.jpg","4","","","","","","","","","","","","","","","","","","","","","","","","",""
"1239","","image-button-response","231","2017516","0.0-229.0-0.0","A3FAQHPVI8OUP0","img_art/1.jpg","5","","","","","","","","","","","","","","","","","","","","","","","","",""
"null","","html-keyboard-response","232","2018022","0.0-230.0","A3FAQHPVI8OUP0","<p style=""font-size: 48px;"">+</p>","","","","","null","allTrialResponses","500","1","26","img_art/1.jpg","-50","soft, boring blobs","Blake,Bryan,Ethan,Antonio,Hunter,Mark","colors that are fairly warm. its ok,8,280,20","Again, like the colors & abstractness.,29,400,20","This piece feels soft and romantic to me. I do not care for so much orange though.,3,120,20","Felt nothing in response to this painting,3,220,20","muddy and uninteresting,-16,240,20","It just doesn't speak to me.,0,80,20","Ethan","This piece feels soft and romantic to me. I do not care for so much orange though.,3,120,20","Hunter","muddy and uninteresting,-16,240,20","Mark","It just doesn't speak to me.,0,80,20","3"
"38166","","survey-text","233","2056210","0.0-231.0-0.0","A3FAQHPVI8OUP0","","","","{""Q0"":""abstract, but it draws the eye""}","","","","","","","","","","","","","","","","","","","","","","",""
"3242.4000000059605","","image-slider-response","234","2059459","0.0-232.0","A3FAQHPVI8OUP0","","","","","8","","","","","","","","","","","","","","","","","","","","","",""
"2710","","image-button-response","235","2064469","0.0-233.0","A3FAQHPVI8OUP0","img_art/11.jpg","0","","","","","","","","","","","","","","","","","","","","","","","","",""
"1757","","image-button-response","236","2066243","0.0-234.0","A3FAQHPVI8OUP0","img_art/11.jpg","1","","","","","","","","","","","","","","","","","","","","","","","","",""
"7530","","image-button-response","237","2073781","0.0-235.0-0.0","A3FAQHPVI8OUP0","img_art/11.jpg","5","","","","","","","","","","","","","","","","","","","","","","","","",""
"3892","","image-button-response","238","2077681","0.0-236.0-0.0","A3FAQHPVI8OUP0","img_art/11.jpg","0","","","","","","","","","","","","","","","","","","","","","","","","",""
"null","","html-keyboard-response","239","2078186","0.0-237.0","A3FAQHPVI8OUP0","<p style=""font-size: 48px;"">+</p>","","","","","null","allTrialResponses","500","1","27","img_art/11.jpg","8","abstract, but it draws the eye","Cameron,Isaiah,Ethan,Taylor,Hunter,Mark","futuristic arching railways,25,60,20","I feel excited, like I'm in the middle of a bustling city.,26,300,20","I don't care for the color combo. The wavy lines give dimension though.,-13,120,20","Busy, busy oceanside city.,-10,200,20","reminds me of home,5,240,20","My initial thought was roller coasters but I see ship masts on a cloudy day too.,35,80,20","Isaiah","I feel excited, like I'm in the middle of a bustling city.,26,300,20","Mark","My initial thought was roller coasters but I see ship masts on a cloudy day too.,35,80,20","Cameron","futuristic arching railways,25,60,20","3"
"15882","","survey-text","240","2094120","0.0-238.0-0.0","A3FAQHPVI8OUP0","","","","{""Q0"":""seems cold and wet""}","","","","","","","","","","","","","","","","","","","","","","",""
"4097.79999999702","","image-slider-response","241","2098225","0.0-239.0","A3FAQHPVI8OUP0","","","","","-41","","","","","","","","","","","","","","","","","","","","","",""
"null","","image-button-response","242","2103250","0.0-240.0","A3FAQHPVI8OUP0","img_art/13.jpg","null","","","","","","","","","","","","","","","","","","","","","","","","",""
"3006","","image-button-response","243","2106269","0.0-241.0","A3FAQHPVI8OUP0","img_art/13.jpg","2","","","","","","","","","","","","","","","","","","","","","","","","",""
"4768","","image-button-response","244","2111044","0.0-242.0-0.0","A3FAQHPVI8OUP0","img_art/13.jpg","5","","","","","","","","","","","","","","","","","","","","","","","","",""
"4284","","image-button-response","245","2115338","0.0-243.0-0.0","A3FAQHPVI8OUP0","img_art/13.jpg","0","","","","","","","","","","","","","","","","","","","","","","","","",""
"null","","html-keyboard-response","246","2116843","0.0-244.0","A3FAQHPVI8OUP0","<p style=""font-size: 48px;"">+</p>","","","","","null","allTrialResponses","1500","1","28","img_art/13.jpg","-41","seems cold and wet","Cameron,Isaiah,Paul,Scott,Jake,Mark","Like the use of color, not a fan of the splatter,29,60,20","The painting makes me feel awe and like I am very little. Like I am alone at the bottom of the ocean.,41,300,20","It's like any other splatter paint art piece, nothing special,1,300,20","I like the transition to other colors,24,20,20","It's too violent looking and there's too much contrast between the white/black.,-21,360,20","Raindrops on a window. Makes me feel like traveling.,31,80,20","Paul","It's like any other splatter paint art piece, nothing special,1,300,20","Mark","Raindrops on a window. Makes me feel like traveling.,31,80,20","Cameron","Like the use of color, not a fan of the splatter,29,60,20","3"
"38814","","survey-text","247","2155710","0.0-245.0-0.0","A3FAQHPVI8OUP0","","","","{""Q0"":""a still life until the artist changed his mind""}","","","","","","","","","","","","","","","","","","","","","","",""
"3851.2000000029802","","image-slider-response","248","2159567","0.0-246.0","A3FAQHPVI8OUP0","","","","","-26","","","","","","","","","","","","","","","","","","","","","",""
"3397","","image-button-response","249","2164578","0.0-247.0","A3FAQHPVI8OUP0","img_art/14.jpg","1","","","","","","","","","","","","","","","","","","","","","","","","",""
"7879","","image-button-response","250","2172473","0.0-248.0","A3FAQHPVI8OUP0","img_art/14.jpg","4","","","","","","","","","","","","","","","","","","","","","","","","",""
"3331","","image-button-response","251","2175812","0.0-249.0-0.0","A3FAQHPVI8OUP0","img_art/14.jpg","2","","","","","","","","","","","","","","","","","","","","","","","","",""
"4465","","image-button-response","252","2180286","0.0-250.0-0.0","A3FAQHPVI8OUP0","img_art/14.jpg","1","","","","","","","","","","","","","","","","","","","","","","","","",""
"null","","html-keyboard-response","253","2181794","0.0-251.0","A3FAQHPVI8OUP0","<p style=""font-size: 48px;"">+</p>","","","","","null","allTrialResponses","1500","1","29","img_art/14.jpg","-26","a still life until the artist changed his mind","Cameron,Cody,Paul,Colton,Daniel,Mark","cotton candy skies. pretty.,35,60,20","Don't love it.,-10,180,20","Just don't like it, maybe it's the bleeding colors on the left of the tree-looking thing in the center or the faded background,-10,300,20","mythical and nature like,37,220,20","Baby's room palette with tree confusion in a more confused substrate.,-15,320,20","Cute little plant.,15,80,20","Daniel","Baby's room palette with tree confusion in a more confused substrate.,-15,320,20","Paul","Just don't like it, maybe it's the bleeding colors on the left of the tree-looking thing in the center or the faded background,-10,300,20","Cody","Don't love it.,-10,180,20","3"
"28537","","survey-text","254","2210410","0.0-252.0-0.0","A3FAQHPVI8OUP0","","","","{""Q0"":""really boring and uninteresting""}","","","","","","","","","","","","","","","","","","","","","","",""
"4036.8999999910593","","image-slider-response","255","2214453","0.0-253.0","A3FAQHPVI8OUP0","","","","","-49","","","","","","","","","","","","","","","","","","","","","",""
"2716","","image-button-response","256","2219466","0.0-254.0","A3FAQHPVI8OUP0","img_art/6.jpg","0","","","","","","","","","","","","","","","","","","","","","","","","",""
"12274","","image-button-response","257","2231756","0.0-255.0","A3FAQHPVI8OUP0","img_art/6.jpg","5","","","","","","","","","","","","","","","","","","","","","","","","",""
"1206","","image-button-response","258","2232969","0.0-256.0-0.0","A3FAQHPVI8OUP0","img_art/6.jpg","0","","","","","","","","","","","","","","","","","","","","","","","","",""
"8790","","image-button-response","259","2241768","0.0-257.0-0.0","A3FAQHPVI8OUP0","img_art/6.jpg","2","","","","","","","","","","","","","","","","","","","","","","","","",""
"null","","html-keyboard-response","260","2243275","0.0-258.0","A3FAQHPVI8OUP0","<p style=""font-size: 48px;"">+</p>","","","","","null","allTrialResponses","1500","1","30","img_art/6.jpg","-49","really boring and uninteresting","Mason,Cody,Paul,Jack,Daniel,Stephen","kids book cover, uninteresting.,-10,100,20","Birds are cool but I don't love it,10,180,20","Maybe it's supposed to be a bird but it looks like a scary cloaked figure. it's just too simple and jarring,-23,300,20","I like the bottom half, but not the top,-7,320,20","Odd desert, nice sand color with headless bird,11,320,20","Good painting but too simple to care about it for very long.,-15,140,20","Stephen","Good painting but too simple to care about it for very long.,-15,140,20","Mason","kids book cover, uninteresting.,-10,100,20","Paul","Maybe it's supposed to be a bird but it looks like a scary cloaked figure. it's just too simple and jarring,-23,300,20","3"
"5326","","image-button-response_instructions","261","2248646","0.0-259.0","A3FAQHPVI8OUP0","","0","instructions","","","","","","","","","","","","","","","","","","","","","","","",""
"1964","","image-button-response","262","2250635","0.0-260.0","A3FAQHPVI8OUP0","","0","","","","","","","","","","","","","","","","","","","","","","","","",""
