"rt","url","trial_type","trial_index","time_elapsed","internal_node_id","participant_id","stimulus","button_pressed","Name","responses","response","key_press","variableName","fixationTime","condition","trial","photo","subjectRating","subjectResponse","agentsNames","agent_1_Response","agent_2_Response","agent_3_Response","agent_4_Response","agent_5_Response","agent_6_Response","kept_1_name","kept_1_response","kept_2_name","kept_2_response","kept_3_name","kept_3_response","errorCounter"
"7310","external_page_harvard.html","external-html","0","7373","0.0-0.0","A3GCYGO7UPKXO9","","","","","","","","","","","","","","","","","","","","","","","","","","",""
"1447","","image-button-response","1","8828","0.0-1.0","A3GCYGO7UPKXO9","","1","","","","","","","","","","","","","","","","","","","","","","","","",""
"2524","","image-button-response","2","11370","0.0-2.0-0.0","A3GCYGO7UPKXO9","","1","phone","","","","","","","","","","","","","","","","","","","","","","","",""
"6470","","survey-text","3","17845","0.0-3.0-0.0","A3GCYGO7UPKXO9","","","","{""Q0"":""A3GCYGO7UPKXO9""}","","","","","","","","","","","","","","","","","","","","","","",""
"14835","","image-button-response_instructions","4","32685","0.0-4.0","A3GCYGO7UPKXO9","","0","instructions","","","","","","","","","","","","","","","","","","","","","","","",""
"10622","","image-button-response_instructions","5","43311","0.0-5.0","A3GCYGO7UPKXO9","img_art/ins/popularity/ins1.png","0","instructions","","","","","","","","","","","","","","","","","","","","","","","",""
"7027","","image-button-response_instructions","6","50342","0.0-6.0","A3GCYGO7UPKXO9","img_art/ins/popularity/ins2.png","0","instructions","","","","","","","","","","","","","","","","","","","","","","","",""
"6179","","image-button-response_instructions","7","56525","0.0-7.0","A3GCYGO7UPKXO9","img_art/ins/popularity/ins2Extreme.png","0","instructions","","","","","","","","","","","","","","","","","","","","","","","",""
"23277","","image-button-response_instructions","8","79806","0.0-8.0","A3GCYGO7UPKXO9","img_art/ins/popularity/ins3KEEPpop.PNG","0","instructions","","","","","","","","","","","","","","","","","","","","","","","",""
"3678","","image-button-response_instructions","9","83489","0.0-9.0","A3GCYGO7UPKXO9","img_art/ins/popularity/ins3ANamepop.PNG","0","instructions","","","","","","","","","","","","","","","","","","","","","","","",""
"1591","","image-button-response_instructions","10","85084","0.0-10.0","A3GCYGO7UPKXO9","img_art/ins/popularity/ins3ARatingpop.png","0","instructions","","","","","","","","","","","","","","","","","","","","","","","",""
"1631","","image-button-response_instructions","11","86719","0.0-11.0","A3GCYGO7UPKXO9","img_art/ins/popularity/ins3ATextpop.png","0","instructions","","","","","","","","","","","","","","","","","","","","","","","",""
"1801","","image-button-response_instructions","12","88523","0.0-12.0","A3GCYGO7UPKXO9","img_art/ins/popularity/ins3ALikespop.png","0","instructions","","","","","","","","","","","","","","","","","","","","","","","",""
"27369","","image-button-response_instructions","13","115895","0.0-13.0","A3GCYGO7UPKXO9","img_art/ins/popularity/ins3KEEPpop.PNG","0","instructions","","","","","","","","","","","","","","","","","","","","","","","",""
"15904","","image-button-response_instructions","14","131803","0.0-14.0","A3GCYGO7UPKXO9","img_art/ins/popularity/ins3_5RED.png","0","instructions","","","","","","","","","","","","","","","","","","","","","","","",""
"4934","","image-button-response_instructions","15","136741","0.0-15.0","A3GCYGO7UPKXO9","img_art/ins/popularity/ins3KEEPpop.PNG","0","instructions","","","","","","","","","","","","","","","","","","","","","","","",""
"10455","","image-button-response_instructions","16","147201","0.0-16.0","A3GCYGO7UPKXO9","img_art/ins/popularity/ins4KEEPpop.PNG","0","instructions","","","","","","","","","","","","","","","","","","","","","","","",""
"40360","","image-button-response_instructions","17","187566","0.0-17.0","A3GCYGO7UPKXO9","img_art/ins/popularity/ins5KEEPpop.PNG","0","instructions","","","","","","","","","","","","","","","","","","","","","","","",""
"2399","","image-button-response_instructions","18","189968","0.0-18.0","A3GCYGO7UPKXO9","","0","instructions","","","","","","","","","","","","","","","","","","","","","","","",""
"6747","","survey-text","19","196767","0.0-19.0-0.0","A3GCYGO7UPKXO9","","","","{""Q0"":""but""}","","","","","","","","","","","","","","","","","","","","","","",""
"16787","","survey-text","20","213558","0.0-20.0-0.0","A3GCYGO7UPKXO9","","","","{""Q0"":""Very crowded and has no meaning.""}","","","","","","","","","","","","","","","","","","","","","","",""
"4110","","image-slider-response","21","217673","0.0-21.0","A3GCYGO7UPKXO9","","","","","-38","","","","","","","","","","","","","","","","","","","","","",""
"null","","image-button-response","22","222680","0.0-22.0","A3GCYGO7UPKXO9","img_art/ins/1.jpg","null","","","","","","","","","","","","","","","","","","","","","","","","",""
"3752","","image-button-response","23","226435","0.0-23.0","A3GCYGO7UPKXO9","img_art/ins/1.jpg","1","","","","","","","","","","","","","","","","","","","","","","","","",""
"6610","","image-button-response","24","233048","0.0-24.0-0.0","A3GCYGO7UPKXO9","img_art/ins/1.jpg","3","","","","","","","","","","","","","","","","","","","","","","","","",""
"10184","","image-button-response","25","243238","0.0-25.0-0.0","A3GCYGO7UPKXO9","img_art/ins/1.jpg","0","","","","","","","","","","","","","","","","","","","","","","","","",""
"null","","html-keyboard-response","26","244254","0.0-26.0","A3GCYGO7UPKXO9","<p style=""font-size: 48px;"">+</p>","","","","","null","allTrialResponses","1000","1","-2","img_art/ins/1.jpg","-38","Very crowded and has no meaning.","Allison,Ashley,Beth,Dora,Erika,Jen","looks like a lot of things going on in the mist,20,20,20","I just don't get why these type of art would be popular,-32,40,20","This color reminds me of poo,-46,60,20","looks like what my niece in 3rd grade did this afternoon,-50,80,20","I like the sophisticated brushwork,40,100,20","It reminds me of a candy land dream I had,36,120,20","Ashley","I just don't get why these type of art would be popular,-32,40,20","Dora","looks like what my niece in 3rd grade did this afternoon,-50,80,20","Allison","looks like a lot of things going on in the mist,20,20,20","0"
"20769","","survey-text","27","265039","0.0-27.0-0.0","A3GCYGO7UPKXO9","","","","{""Q0"":""I like how the colors are blending, reminds me of the fall season""}","","","","","","","","","","","","","","","","","","","","","","",""
"2450","","image-slider-response","28","267494","0.0-28.0","A3GCYGO7UPKXO9","","","","","22","","","","","","","","","","","","","","","","","","","","","",""
"null","","image-button-response","29","272502","0.0-29.0","A3GCYGO7UPKXO9","img_art/ins/2.jpg","null","","","","","","","","","","","","","","","","","","","","","","","","",""
"1838","","image-button-response","30","274342","0.0-30.0","A3GCYGO7UPKXO9","img_art/ins/2.jpg","2","","","","","","","","","","","","","","","","","","","","","","","","",""
"2324","","image-button-response","31","276670","0.0-31.0-0.0","A3GCYGO7UPKXO9","img_art/ins/2.jpg","4","","","","","","","","","","","","","","","","","","","","","","","","",""
"11332","","image-button-response","32","288007","0.0-32.0-0.0","A3GCYGO7UPKXO9","img_art/ins/2.jpg","3","","","","","","","","","","","","","","","","","","","","","","","","",""
"null","","html-keyboard-response","33","289523","0.0-33.0","A3GCYGO7UPKXO9","<p style=""font-size: 48px;"">+</p>","","","","","null","allTrialResponses","1500","1","-1","img_art/ins/2.jpg","22","I like how the colors are blending, reminds me of the fall season","Allison,Ashley,Jenna,Dora,Kara,Katie","I don't have strong feelings about this,10,20,20","Idk, it is just annoying,-32,40,20","One of my pet peevs,-48,140,20","looks too angry,-50,80,20","I like the blocks of color arrangements,30,160,20","too much color!,-28,180,20","Jenna","One of my pet peevs,-48,140,20","Kara","I like the blocks of color arrangements,30,160,20","Dora","looks too angry,-50,80,20","0"
"28058","","survey-text","34","317593","0.0-34.0-0.0","A3GCYGO7UPKXO9","","","","{""Q0"":""It's too blue and bright""}","","","","","","","","","","","","","","","","","","","","","","",""
"2829","","image-slider-response","35","320428","0.0-35.0","A3GCYGO7UPKXO9","","","","","-27","","","","","","","","","","","","","","","","","","","","","",""
"4365","","image-button-response","36","325434","0.0-36.0","A3GCYGO7UPKXO9","img_art/ins/3.jpg","1","","","","","","","","","","","","","","","","","","","","","","","","",""
"7074","","image-button-response","37","332512","0.0-37.0","A3GCYGO7UPKXO9","img_art/ins/3.jpg","1","","","","","","","","","","","","","","","","","","","","","","","","",""
"3631","","image-button-response","38","336146","0.0-38.0-0.0","A3GCYGO7UPKXO9","img_art/ins/3.jpg","5","","","","","","","","","","","","","","","","","","","","","","","","",""
"3320","","image-button-response","39","339472","0.0-39.0-0.0","A3GCYGO7UPKXO9","img_art/ins/3.jpg","0","","","","","","","","","","","","","","","","","","","","","","","","",""
"null","","html-keyboard-response","40","340484","0.0-40.0","A3GCYGO7UPKXO9","<p style=""font-size: 48px;"">+</p>","","","","","null","allTrialResponses","1000","1","0","img_art/ins/3.jpg","-27","It's too blue and bright","Leslie,Mary,Jenna,Dora,Kara,Rose","It's an alright work,15,200,20","I like the overlapping of brushes,41,220,20","looks like a murder room,-35,140,20","My worst nightmare,-42,80,20","calming blue is very nice,36,160,20","My daily routine, it's depressing,-20,240,20","Mary","I like the overlapping of brushes,41,220,20","Rose","My daily routine, it's depressing,-20,240,20","Leslie","It's an alright work,15,200,20","0"
"10085","","image-button-response_instructions","41","350579","0.0-41.0","A3GCYGO7UPKXO9","","0","instructions","","","","","","","","","","","","","","","","","","","","","","","",""
"11291","","survey-likert","42","361875","0.0-42.0-0.0","A3GCYGO7UPKXO9","","","","{""Q0"":"""",""Q1"":0,""Q2"":1}","","","","","","","","","","","","","","","","","","","","","","",""
"5653","","survey-text","43","367538","0.0-43.0-0.0","A3GCYGO7UPKXO9","","","","{""Q0"":""rock""}","","","","","","","","","","","","","","","","","","","","","","",""
"11425","","survey-text","44","378966","0.0-44.0-0.0","A3GCYGO7UPKXO9","","","","{""Q0"":""it looks like a child work""}","","","","","","","","","","","","","","","","","","","","","","",""
"2990","","image-slider-response","45","381962","0.0-45.0","A3GCYGO7UPKXO9","","","","","-38","","","","","","","","","","","","","","","","","","","","","",""
"2617","","image-button-response","46","387015","0.0-46.0","A3GCYGO7UPKXO9","img_art/27.jpg","0","","","","","","","","","","","","","","","","","","","","","","","","",""
"3751","","image-button-response","47","390767","0.0-47.0","A3GCYGO7UPKXO9","img_art/27.jpg","0","","","","","","","","","","","","","","","","","","","","","","","","",""
"13977","","image-button-response","48","404747","0.0-48.0-0.0","A3GCYGO7UPKXO9","img_art/27.jpg","5","","","","","","","","","","","","","","","","","","","","","","","","",""
"3432","","image-button-response","49","408185","0.0-49.0-0.0","A3GCYGO7UPKXO9","img_art/27.jpg","2","","","","","","","","","","","","","","","","","","","","","","","","",""
"null","","html-keyboard-response","50","408696","0.0-50.0","A3GCYGO7UPKXO9","<p style=""font-size: 48px;"">+</p>","","","","","null","allTrialResponses","500","1","1","img_art/27.jpg","-38","it looks like a child work","Alexandria,Caitlin,Alexis,Stephanie,Michelle,Meghan","it looks very simple and childlike,-31,80,20","Looks like a child added his own interpretation with a black marker.,-5,80,20","Too abstract, doesn't remind me of anything,-42,100,20","The black sketchy over the colors doesn't fit.,-4,300,20","very abstract, I don't understand it, but I like the bright, cheerful colors,14,280,20","again looks like childrens artwork,-40,220,20","Alexandria","it looks very simple and childlike,-31,80,20","Meghan","again looks like childrens artwork,-40,220,20","Alexis","Too abstract, doesn't remind me of anything,-42,100,20","0"
"24248","","survey-text","51","432952","0.0-51.0-0.0","A3GCYGO7UPKXO9","","","","{""Q0"":""The color within the painting makes no sense. ""}","","","","","","","","","","","","","","","","","","","","","","",""
"3002","","image-slider-response","52","435956","0.0-52.0","A3GCYGO7UPKXO9","","","","","-26","","","","","","","","","","","","","","","","","","","","","",""
"null","","image-button-response","53","440966","0.0-53.0","A3GCYGO7UPKXO9","img_art/26.jpg","null","","","","","","","","","","","","","","","","","","","","","","","","",""
"2972","","image-button-response","54","443940","0.0-54.0","A3GCYGO7UPKXO9","img_art/26.jpg","2","","","","","","","","","","","","","","","","","","","","","","","","",""
"4672","","image-button-response","55","448616","0.0-55.0-0.0","A3GCYGO7UPKXO9","img_art/26.jpg","3","","","","","","","","","","","","","","","","","","","","","","","","",""
"6066","","image-button-response","56","454687","0.0-56.0-0.0","A3GCYGO7UPKXO9","img_art/26.jpg","5","","","","","","","","","","","","","","","","","","","","","","","","",""
"null","","html-keyboard-response","57","455200","0.0-57.0","A3GCYGO7UPKXO9","<p style=""font-size: 48px;"">+</p>","","","","","null","allTrialResponses","500","1","2","img_art/26.jpg","-26","The color within the painting makes no sense. ","Alexandria,Kathryn,Alexis,Lindsey,Catherine,Meghan","makes me happy and reminds me of a paris courtyard,29,80,20","This piece feels pretty chill like it's just a normal day in the city.,10,140,20","Much too simple and without color for my taste,-33,100,20","I see a suburban neighborhood with townhouses and trees. Not a fan of the colors or style.,-16,400,20","Incomplete, The artist painted his impression of somthing he was thinking of,0,160,20","nothing really special, quite bland,1,220,20","Alexis","Much too simple and without color for my taste,-33,100,20","Lindsey","I see a suburban neighborhood with townhouses and trees. Not a fan of the colors or style.,-16,400,20","Meghan","nothing really special, quite bland,1,220,20","0"
"16890","","survey-text","58","472099","0.0-58.0-0.0","A3GCYGO7UPKXO9","","","","{""Q0"":""I like the blending of colors, it reminds me of the river.""}","","","","","","","","","","","","","","","","","","","","","","",""
"3326","","image-slider-response","59","475431","0.0-59.0","A3GCYGO7UPKXO9","","","","","26","","","","","","","","","","","","","","","","","","","","","",""
"null","","image-button-response","60","480446","0.0-60.0","A3GCYGO7UPKXO9","img_art/13.jpg","null","","","","","","","","","","","","","","","","","","","","","","","","",""
"3433","","image-button-response","61","483880","0.0-61.0","A3GCYGO7UPKXO9","img_art/13.jpg","2","","","","","","","","","","","","","","","","","","","","","","","","",""
"5856","","image-button-response","62","489741","0.0-62.0-0.0","A3GCYGO7UPKXO9","img_art/13.jpg","4","","","","","","","","","","","","","","","","","","","","","","","","",""
"1567","","image-button-response","63","491312","0.0-63.0-0.0","A3GCYGO7UPKXO9","img_art/13.jpg","5","","","","","","","","","","","","","","","","","","","","","","","","",""
"null","","html-keyboard-response","64","492825","0.0-64.0","A3GCYGO7UPKXO9","<p style=""font-size: 48px;"">+</p>","","","","","null","allTrialResponses","1500","1","3","img_art/13.jpg","26","I like the blending of colors, it reminds me of the river.","Angela,Emily,Alexis,Lindsey,Kelsey,Meghan","It's okay. Feels like a blander take on a Jackson Pollack,11,260,20","I don't car for it but it does seem organized and like it took considereably more skill that others.,9,40,20","Simple, but pleasing. The blue gradient is a favorite of mine,32,100,20","I find this oddly pleasant, but I object to this style. It's just a background with splatters. How is that art?,-5,400,20","its like the ocean,24,240,20","I like the transition to other colors,24,220,20","Alexis","Simple, but pleasing. The blue gradient is a favorite of mine,32,100,20","Kelsey","its like the ocean,24,240,20","Meghan","I like the transition to other colors,24,220,20","0"
"44046","","survey-text","65","536882","0.0-65.0-0.0","A3GCYGO7UPKXO9","","","","{""Q0"":""It looks sophisticated but yet annoying.""}","","","","","","","","","","","","","","","","","","","","","","",""
"2636","","image-slider-response","66","539524","0.0-66.0","A3GCYGO7UPKXO9","","","","","13","","","","","","","","","","","","","","","","","","","","","",""
"null","","image-button-response","67","544532","0.0-67.0","A3GCYGO7UPKXO9","img_art/17.jpg","null","","","","","","","","","","","","","","","","","","","","","","","","",""
"3126","","image-button-response","68","547660","0.0-68.0","A3GCYGO7UPKXO9","img_art/17.jpg","3","","","","","","","","","","","","","","","","","","","","","","","","",""
"7356","","image-button-response","69","555020","0.0-69.0-0.0","A3GCYGO7UPKXO9","img_art/17.jpg","2","","","","","","","","","","","","","","","","","","","","","","","","",""
"2356","","image-button-response","70","557380","0.0-70.0-0.0","A3GCYGO7UPKXO9","img_art/17.jpg","0","","","","","","","","","","","","","","","","","","","","","","","","",""
"null","","html-keyboard-response","71","557889","0.0-71.0","A3GCYGO7UPKXO9","<p style=""font-size: 48px;"">+</p>","","","","","null","allTrialResponses","500","1","4","img_art/17.jpg","13","It looks sophisticated but yet annoying.","Gabrielle,Jasmine,Alexis,Crystal,Kelsey,Meghan","nice composition and colors, fairy land,28,160,20","I like the use of color in this and how you can actually see shapes form. Seems thoughtful,22,340,20","Love the color and nature motif,36,100,20","Embodies beauty and complexity and in simplicity as well,50,300,20","this ones alright,10,240,20","pretty bland in coloring,1,220,20","Crystal","Embodies beauty and complexity and in simplicity as well,50,300,20","Alexis","Love the color and nature motif,36,100,20","Gabrielle","nice composition and colors, fairy land,28,160,20","0"
"17996","","survey-text","72","575894","0.0-72.0-0.0","A3GCYGO7UPKXO9","","","","{""Q0"":""It looks too messy and does not make any sense.""}","","","","","","","","","","","","","","","","","","","","","","",""
"2749","","image-slider-response","73","578648","0.0-73.0","A3GCYGO7UPKXO9","","","","","-27","","","","","","","","","","","","","","","","","","","","","",""
"null","","image-button-response","74","583653","0.0-74.0","A3GCYGO7UPKXO9","img_art/12.jpg","null","","","","","","","","","","","","","","","","","","","","","","","","",""
"3402","","image-button-response","75","587057","0.0-75.0","A3GCYGO7UPKXO9","img_art/12.jpg","4","","","","","","","","","","","","","","","","","","","","","","","","",""
"3802","","image-button-response","76","590862","0.0-76.0-0.0","A3GCYGO7UPKXO9","img_art/12.jpg","0","","","","","","","","","","","","","","","","","","","","","","","","",""
"11154","","image-button-response","77","602020","0.0-77.0-0.0","A3GCYGO7UPKXO9","img_art/12.jpg","3","","","","","","","","","","","","","","","","","","","","","","","","",""
"null","","html-keyboard-response","78","603530","0.0-78.0","A3GCYGO7UPKXO9","<p style=""font-size: 48px;"">+</p>","","","","","null","allTrialResponses","1500","1","5","img_art/12.jpg","-27","It looks too messy and does not make any sense.","Gabrielle,Kayla,Alexis,Crystal,Kimberly,Erin","seems too dark on top and too common on the bottom,-19,160,20","Yay! Lots of people, lots of lives.,25,180,20","I like the cubic feel.,11,100,20","I like the sectioned nature of the squares and curves. Not my favorite but still a good one.,27,300,20","Just not a fan, I can't figure out why,-17,260,20","City scape but palette is odd,4,120,20","Kimberly","Just not a fan, I can't figure out why,-17,260,20","Gabrielle","seems too dark on top and too common on the bottom,-19,160,20","Crystal","I like the sectioned nature of the squares and curves. Not my favorite but still a good one.,27,300,20","0"
"3804","","survey-text","79","607353","0.0-79.0-0.0","A3GCYGO7UPKXO9","","","","{""Q0"":""sky""}","","","","","","","","","","","","","","","","","","","","","","",""
"23299","","survey-text","80","630655","0.0-80.0-0.0","A3GCYGO7UPKXO9","","","","{""Q0"":""Too simple, not a fan of the colors""}","","","","","","","","","","","","","","","","","","","","","","",""
"3438","","image-slider-response","81","634098","0.0-81.0","A3GCYGO7UPKXO9","","","","","4","","","","","","","","","","","","","","","","","","","","","",""
"2958","","image-button-response","82","639107","0.0-82.0","A3GCYGO7UPKXO9","img_art/4.jpg","0","","","","","","","","","","","","","","","","","","","","","","","","",""
"5050","","image-button-response","83","644160","0.0-83.0","A3GCYGO7UPKXO9","img_art/4.jpg","4","","","","","","","","","","","","","","","","","","","","","","","","",""
"1366","","image-button-response","84","645531","0.0-84.0-0.0","A3GCYGO7UPKXO9","img_art/4.jpg","5","","","","","","","","","","","","","","","","","","","","","","","","",""
"6091","","image-button-response","85","651626","0.0-85.0-0.0","A3GCYGO7UPKXO9","img_art/4.jpg","1","","","","","","","","","","","","","","","","","","","","","","","","",""
"null","","html-keyboard-response","86","653138","0.0-86.0","A3GCYGO7UPKXO9","<p style=""font-size: 48px;"">+</p>","","","","","null","allTrialResponses","1500","1","6","img_art/4.jpg","4","Too simple, not a fan of the colors","Gabrielle,Haley,Paige,Crystal,Kimberly,Victoria","too childish, not really art in my world,-50,160,20","This image doesn't invoke anything in me,-9,220,20","the colors are calming,31,60,20","Looks like finger nails from the Guinness world record book.,-30,300,20","It's ok, theres nothing that draws me away from it I guess,0,260,20","dont like the colors,-31,400,20","Kimberly","It's ok, theres nothing that draws me away from it I guess,0,260,20","Victoria","dont like the colors,-31,400,20","Haley","This image doesn't invoke anything in me,-9,220,20","0"
"32304","","survey-text","87","685450","0.0-87.0-0.0","A3GCYGO7UPKXO9","","","","{""Q0"":""looks like needles and mold, means nothing to me""}","","","","","","","","","","","","","","","","","","","","","","",""
"3098","","image-slider-response","88","688551","0.0-88.0","A3GCYGO7UPKXO9","","","","","-35","","","","","","","","","","","","","","","","","","","","","",""
"null","","image-button-response","89","693560","0.0-89.0","A3GCYGO7UPKXO9","img_art/15.jpg","null","","","","","","","","","","","","","","","","","","","","","","","","",""
"3548","","image-button-response","90","697111","0.0-90.0","A3GCYGO7UPKXO9","img_art/15.jpg","3","","","","","","","","","","","","","","","","","","","","","","","","",""
"4557","","image-button-response","91","701670","0.0-91.0-0.0","A3GCYGO7UPKXO9","img_art/15.jpg","0","","","","","","","","","","","","","","","","","","","","","","","","",""
"1115","","image-button-response","92","702790","0.0-92.0-0.0","A3GCYGO7UPKXO9","img_art/15.jpg","0","","","","","","","","","","","","","","","","","","","","","","","","",""
"8008","","image-button-response","93","714266","0.0-92.1-0.1","A3GCYGO7UPKXO9","img_art/15.jpg","2","","","","","","","","","","","","","","","","","","","","","","","","",""
"null","","html-keyboard-response","94","715271","0.0-93.0","A3GCYGO7UPKXO9","<p style=""font-size: 48px;"">+</p>","","","","","null","allTrialResponses","1000","1","7","img_art/15.jpg","-35","looks like needles and mold, means nothing to me","Olivia,Haley,Briana,Sydney,Kimberly,Victoria","Black reminds me of darkness,-18,40,20","Interesting, and I don't dislike it.,9,220,20","It reminds me of when you look up into a tree,21,400,20","This picture is too confusing for me. I wouldn't want to stare at it to figure it out.,-10,320,20","it looks like lavender,10,260,20","makes me feel calm,40,400,20","Sydney","This picture is too confusing for me. I wouldn't want to stare at it to figure it out.,-10,320,20","Olivia","Black reminds me of darkness,-18,40,20","Briana","It reminds me of when you look up into a tree,21,400,20","2"
"18787","","survey-text","95","734069","0.0-94.0-0.0","A3GCYGO7UPKXO9","","","","{""Q0"":""It looks like the dessert, i like the calmness in it""}","","","","","","","","","","","","","","","","","","","","","","",""
"2611","","image-slider-response","96","736686","0.0-95.0","A3GCYGO7UPKXO9","","","","","10","","","","","","","","","","","","","","","","","","","","","",""
"1814","","image-button-response","97","741698","0.0-96.0","A3GCYGO7UPKXO9","img_art/7.jpg","0","","","","","","","","","","","","","","","","","","","","","","","","",""
"11864","","image-button-response","98","753564","0.0-97.0","A3GCYGO7UPKXO9","img_art/7.jpg","3","","","","","","","","","","","","","","","","","","","","","","","","",""
"1207","","image-button-response","99","754775","0.0-98.0-0.0","A3GCYGO7UPKXO9","img_art/7.jpg","0","","","","","","","","","","","","","","","","","","","","","","","","",""
"1063","","image-button-response","100","755842","0.0-99.0-0.0","A3GCYGO7UPKXO9","img_art/7.jpg","1","","","","","","","","","","","","","","","","","","","","","","","","",""
"null","","html-keyboard-response","101","757351","0.0-100.0","A3GCYGO7UPKXO9","<p style=""font-size: 48px;"">+</p>","","","","","null","allTrialResponses","1500","1","8","img_art/7.jpg","10","It looks like the dessert, i like the calmness in it","Olivia,Hailey,Briana,Sydney,Cynthia,Natalie","looking down on earth,19,40,20","hot desert with big rocks.,-19,200,20","Are these ancient cave paintings?,-7,400,20","This piece is really simple but the colors and texture work well together.,20,320,20","time and change,1,320,20","does not look good,-42,400,20","Sydney","This piece is really simple but the colors and texture work well together.,20,320,20","Olivia","looking down on earth,19,40,20","Hailey","hot desert with big rocks.,-19,200,20","2"
"14387","","survey-text","102","771749","0.0-101.0-0.0","A3GCYGO7UPKXO9","","","","{""Q0"":""Reminds of summer time and nature,""}","","","","","","","","","","","","","","","","","","","","","","",""
"4085","","image-slider-response","103","775839","0.0-102.0","A3GCYGO7UPKXO9","","","","","27","","","","","","","","","","","","","","","","","","","","","",""
"3866","","image-button-response","104","780847","0.0-103.0","A3GCYGO7UPKXO9","img_art/24.jpg","1","","","","","","","","","","","","","","","","","","","","","","","","",""
"13104","","image-button-response","105","793955","0.0-104.0","A3GCYGO7UPKXO9","img_art/24.jpg","1","","","","","","","","","","","","","","","","","","","","","","","","",""
"2076","","image-button-response","106","796035","0.0-105.0-0.0","A3GCYGO7UPKXO9","img_art/24.jpg","0","","","","","","","","","","","","","","","","","","","","","","","","",""
"3661","","image-button-response","107","799699","0.0-106.0-0.0","A3GCYGO7UPKXO9","img_art/24.jpg","3","","","","","","","","","","","","","","","","","","","","","","","","",""
"null","","html-keyboard-response","108","801208","0.0-107.0","A3GCYGO7UPKXO9","<p style=""font-size: 48px;"">+</p>","","","","","null","allTrialResponses","1500","1","9","img_art/24.jpg","27","Reminds of summer time and nature,","Olivia,Hailey,Maria,Sydney,Elizabeth,Jacqueline","tranquility in the stream,34,40,20","warm spring day after a rain. soft,20,200,20","this evokes a gutural reaction - it displeases me how similar it is to art I saw growing up,-30,120,20","I'm reminded of a waterfall, but I feel like it could've been better portrayed.,5,320,20","Evokes pleasant feelings,50,20,20","This one isn't that abstract. It clearly looks like a waterfall.,31,300,20","Hailey","warm spring day after a rain. soft,20,200,20","Olivia","tranquility in the stream,34,40,20","Sydney","I'm reminded of a waterfall, but I feel like it could've been better portrayed.,5,320,20","2"
"19230","","survey-text","109","820445","0.0-108.0-0.0","A3GCYGO7UPKXO9","","","","{""Q0"":""It looks like a small plant with ants around it""}","","","","","","","","","","","","","","","","","","","","","","",""
"2915","","image-slider-response","110","823365","0.0-109.0","A3GCYGO7UPKXO9","","","","","5","","","","","","","","","","","","","","","","","","","","","",""
"2076","","image-button-response","111","828376","0.0-110.0","A3GCYGO7UPKXO9","img_art/14.jpg","1","","","","","","","","","","","","","","","","","","","","","","","","",""
"11189","","image-button-response","112","839567","0.0-111.0","A3GCYGO7UPKXO9","img_art/14.jpg","1","","","","","","","","","","","","","","","","","","","","","","","","",""
"3338","","image-button-response","113","842908","0.0-112.0-0.0","A3GCYGO7UPKXO9","img_art/14.jpg","5","","","","","","","","","","","","","","","","","","","","","","","","",""
"5018","","image-button-response","114","847929","0.0-113.0-0.0","A3GCYGO7UPKXO9","img_art/14.jpg","0","","","","","","","","","","","","","","","","","","","","","","","","",""
"null","","html-keyboard-response","115","848940","0.0-114.0","A3GCYGO7UPKXO9","<p style=""font-size: 48px;"">+</p>","","","","","null","allTrialResponses","1000","1","10","img_art/14.jpg","5","It looks like a small plant with ants around it","Olivia,Hailey,Melissa,Sydney,Gabriela,Jessica","tree of life brings hope,7,40,20","fuzzy and confused. ok then well,16,200,20","makes me feel sad,-2,240,20","I'm imagining a flower bouquet with pretty colors which I like.,35,320,20","It looks like a table centerpiece,-22,140,20","I kind of like it!,6,400,20","Hailey","fuzzy and confused. ok then well,16,200,20","Jessica","I kind of like it!,6,400,20","Olivia","tree of life brings hope,7,40,20","2"
"3058","","survey-text","116","852020","0.0-115.0-0.0","A3GCYGO7UPKXO9","","","","{""Q0"":""our""}","","","","","","","","","","","","","","","","","","","","","","",""
"16916","","survey-text","117","868940","0.0-116.0-0.0","A3GCYGO7UPKXO9","","","","{""Q0"":""It is a work of a child with no real meaning""}","","","","","","","","","","","","","","","","","","","","","","",""
"2682","","image-slider-response","118","871627","0.0-117.0","A3GCYGO7UPKXO9","","","","","-29","","","","","","","","","","","","","","","","","","","","","",""
"3121","","image-button-response","119","876644","0.0-118.0","A3GCYGO7UPKXO9","img_art/2.jpg","1","","","","","","","","","","","","","","","","","","","","","","","","",""
"647","","image-button-response","120","877295","0.0-119.0","A3GCYGO7UPKXO9","img_art/2.jpg","1","","","","","","","","","","","","","","","","","","","","","","","","",""
"5922","","image-button-response","121","883220","0.0-120.0-0.0","A3GCYGO7UPKXO9","img_art/2.jpg","2","","","","","","","","","","","","","","","","","","","","","","","","",""
"1019","","image-button-response","122","884244","0.0-121.0-0.0","A3GCYGO7UPKXO9","img_art/2.jpg","5","","","","","","","","","","","","","","","","","","","","","","","","",""
"null","","html-keyboard-response","123","885763","0.0-122.0","A3GCYGO7UPKXO9","<p style=""font-size: 48px;"">+</p>","","","","","null","allTrialResponses","1500","1","11","img_art/2.jpg","-29","It is a work of a child with no real meaning","Olivia,Hailey,Margaret,Ashley,Laura,Jessica","i liked the bright colors,13,40,20","ugly green color and makes me sick,-29,200,20","doesn't do anything for me,-7,100,20","I think I can make out a face in there.,25,320,20","active and kinetic- simplified,14,320,20","I don't get the meaning of this piece either.,-13,400,20","Hailey","ugly green color and makes me sick,-29,200,20","Margaret","doesn't do anything for me,-7,100,20","Jessica","I don't get the meaning of this piece either.,-13,400,20","2"
"29942","","survey-text","124","915713","0.0-123.0-0.0","A3GCYGO7UPKXO9","","","","{""Q0"":""It's so dark and reminds me of music instruments for some reason""}","","","","","","","","","","","","","","","","","","","","","","",""
"4428","","image-slider-response","125","920147","0.0-124.0","A3GCYGO7UPKXO9","","","","","25","","","","","","","","","","","","","","","","","","","","","",""
"null","","image-button-response","126","925152","0.0-125.0","A3GCYGO7UPKXO9","img_art/10.jpg","null","","","","","","","","","","","","","","","","","","","","","","","","",""
"2535","","image-button-response","127","927688","0.0-126.0","A3GCYGO7UPKXO9","img_art/10.jpg","2","","","","","","","","","","","","","","","","","","","","","","","","",""
"223","","image-button-response","128","927914","0.0-127.0-0.0","A3GCYGO7UPKXO9","img_art/10.jpg","2","","","","","","","","","","","","","","","","","","","","","","","","",""
"5557","","image-button-response","129","936356","0.0-127.1-0.1","A3GCYGO7UPKXO9","img_art/10.jpg","4","","","","","","","","","","","","","","","","","","","","","","","","",""
"1575","","image-button-response","130","937936","0.0-128.0-0.0","A3GCYGO7UPKXO9","img_art/10.jpg","5","","","","","","","","","","","","","","","","","","","","","","","","",""
"null","","html-keyboard-response","131","938441","0.0-129.0","A3GCYGO7UPKXO9","<p style=""font-size: 48px;"">+</p>","","","","","null","allTrialResponses","500","1","12","img_art/10.jpg","25","It's so dark and reminds me of music instruments for some reason","Angelica,Hailey,Margaret,Samantha,Madison,Jessica","This is odd and ugly.,-9,280,20","a fast racetrack. go, go, go,5,200,20","I think this was going to be a guitar but then the artist got mad and gave up,-4,100,20","I like it but do not love it. It is sort of depressing,13,140,20","In proper lighting I might enjoy this,11,60,20","I feel like this has a cool concept behind it.,11,400,20","Margaret","I think this was going to be a guitar but then the artist got mad and gave up,-4,100,20","Madison","In proper lighting I might enjoy this,11,60,20","Jessica","I feel like this has a cool concept behind it.,11,400,20","4"
"29126","","survey-text","132","967578","0.0-130.0-0.0","A3GCYGO7UPKXO9","","","","{""Q0"":""It is weird and too confusing""}","","","","","","","","","","","","","","","","","","","","","","",""
"2953","","image-slider-response","133","970535","0.0-131.0","A3GCYGO7UPKXO9","","","","","-28","","","","","","","","","","","","","","","","","","","","","",""
"null","","image-button-response","134","975552","0.0-132.0","A3GCYGO7UPKXO9","img_art/16.jpg","null","","","","","","","","","","","","","","","","","","","","","","","","",""
"6283","","image-button-response","135","981838","0.0-133.0","A3GCYGO7UPKXO9","img_art/16.jpg","0","","","","","","","","","","","","","","","","","","","","","","","","",""
"4979","","image-button-response","136","986819","0.0-134.0-0.0","A3GCYGO7UPKXO9","img_art/16.jpg","5","","","","","","","","","","","","","","","","","","","","","","","","",""
"840","","image-button-response","137","987665","0.0-135.0-0.0","A3GCYGO7UPKXO9","img_art/16.jpg","3","","","","","","","","","","","","","","","","","","","","","","","","",""
"null","","html-keyboard-response","138","989182","0.0-136.0","A3GCYGO7UPKXO9","<p style=""font-size: 48px;"">+</p>","","","","","null","allTrialResponses","1500","1","13","img_art/16.jpg","-28","It is weird and too confusing","Rebecca,Lauren,Margaret,Breanna,Madison,Jessica","don't know how to feel, I mean I respect it but I honestly don't know about this,-12,100,20","The colored teddy bear clashes with the color scheme.,-20,340,20","i like how it incorporates mixed visual art with the photo of the bear and the drawings,30,100,20","The bear is terrifying,-50,380,20","Pop art, Tate Modern horse dung.,-50,60,20","Cool but the bear creeps me out?,8,400,20","Rebecca","don't know how to feel, I mean I respect it but I honestly don't know about this,-12,100,20","Jessica","Cool but the bear creeps me out?,8,400,20","Breanna","The bear is terrifying,-50,380,20","4"
"26084","","survey-text","139","1015278","0.0-137.0-0.0","A3GCYGO7UPKXO9","","","","{""Q0"":""I think I see the moon in a fall night""}","","","","","","","","","","","","","","","","","","","","","","",""
"2632","","image-slider-response","140","1017915","0.0-138.0","A3GCYGO7UPKXO9","","","","","21","","","","","","","","","","","","","","","","","","","","","",""
"null","","image-button-response","141","1022926","0.0-139.0","A3GCYGO7UPKXO9","img_art/22.jpg","null","","","","","","","","","","","","","","","","","","","","","","","","",""
"6825","","image-button-response","142","1029753","0.0-140.0","A3GCYGO7UPKXO9","img_art/22.jpg","4","","","","","","","","","","","","","","","","","","","","","","","","",""
"2428","","image-button-response","143","1032185","0.0-141.0-0.0","A3GCYGO7UPKXO9","img_art/22.jpg","5","","","","","","","","","","","","","","","","","","","","","","","","",""
"1787","","image-button-response","144","1033975","0.0-142.0-0.0","A3GCYGO7UPKXO9","img_art/22.jpg","1","","","","","","","","","","","","","","","","","","","","","","","","",""
"null","","html-keyboard-response","145","1034480","0.0-143.0","A3GCYGO7UPKXO9","<p style=""font-size: 48px;"">+</p>","","","","","null","allTrialResponses","500","1","14","img_art/22.jpg","21","I think I see the moon in a fall night","Rebecca,Megan,Alyssa,Breanna,Brooke,Jessica","colorful water (in front of castle?),17,100,20","Organic sun spot on a flexible grid,18,200,20","Its okay,it doesnt make me feel any sort of strong emotion,1,160,20","Makes me feel a bit anxious,6,380,20","Like this one, like a sunset,30,60,20","I like the mixing of the primary colors.,8,400,20","Brooke","Like this one, like a sunset,30,60,20","Jessica","I like the mixing of the primary colors.,8,400,20","Megan","Organic sun spot on a flexible grid,18,200,20","4"
"28713","","survey-text","146","1063205","0.0-144.0-0.0","A3GCYGO7UPKXO9","","","","{""Q0"":""blending of color is nice but i cannot make anything out of it""}","","","","","","","","","","","","","","","","","","","","","","",""
"3116","","image-slider-response","147","1066327","0.0-145.0","A3GCYGO7UPKXO9","","","","","2","","","","","","","","","","","","","","","","","","","","","",""
"null","","image-button-response","148","1071334","0.0-146.0","A3GCYGO7UPKXO9","img_art/28.jpg","null","","","","","","","","","","","","","","","","","","","","","","","","",""
"2412","","image-button-response","149","1073748","0.0-147.0","A3GCYGO7UPKXO9","img_art/28.jpg","2","","","","","","","","","","","","","","","","","","","","","","","","",""
"4132","","image-button-response","150","1077884","0.0-148.0-0.0","A3GCYGO7UPKXO9","img_art/28.jpg","3","","","","","","","","","","","","","","","","","","","","","","","","",""
"4307","","image-button-response","151","1082195","0.0-149.0-0.0","A3GCYGO7UPKXO9","img_art/28.jpg","5","","","","","","","","","","","","","","","","","","","","","","","","",""
"null","","html-keyboard-response","152","1083214","0.0-150.0","A3GCYGO7UPKXO9","<p style=""font-size: 48px;"">+</p>","","","","","null","allTrialResponses","1000","1","15","img_art/28.jpg","2","blending of color is nice but i cannot make anything out of it","Kelly,Megan,Erika,Mikayla,Brooke,Jessica","This one is too bleak, not a fan of the image or colors.,-28,220,20","Compact grey mess lack negative space,-10,200,20","Invokes curiosity, I want to know it's story.,15,100,20","It gives me weird vibes.,-25,300,20","dislike the colors. it looks like a bike, but misshapen wheels like it was wrecked.,-10,60,20","I can't tell what's going on but it looks a little bit more lively at least,7,400,20","Erika","Invokes curiosity, I want to know it's story.,15,100,20","Mikayla","It gives me weird vibes.,-25,300,20","Jessica","I can't tell what's going on but it looks a little bit more lively at least,7,400,20","4"
"5106","","survey-text","153","1088343","0.0-151.0-0.0","A3GCYGO7UPKXO9","","","","{""Q0"":""course""}","","","","","","","","","","","","","","","","","","","","","","",""
"15891","","survey-text","154","1104237","0.0-152.0-0.0","A3GCYGO7UPKXO9","","","","{""Q0"":""It looks like a ship surrounded by ghosts""}","","","","","","","","","","","","","","","","","","","","","","",""
"3454","","image-slider-response","155","1107696","0.0-153.0","A3GCYGO7UPKXO9","","","","","14","","","","","","","","","","","","","","","","","","","","","",""
"2538","","image-button-response","156","1112703","0.0-154.0","A3GCYGO7UPKXO9","img_art/18.jpg","0","","","","","","","","","","","","","","","","","","","","","","","","",""
"737","","image-button-response","157","1113443","0.0-155.0","A3GCYGO7UPKXO9","img_art/18.jpg","0","","","","","","","","","","","","","","","","","","","","","","","","",""
"7816","","image-button-response","158","1121262","0.0-156.0-0.0","A3GCYGO7UPKXO9","img_art/18.jpg","2","","","","","","","","","","","","","","","","","","","","","","","","",""
"2442","","image-button-response","159","1123709","0.0-157.0-0.0","A3GCYGO7UPKXO9","img_art/18.jpg","4","","","","","","","","","","","","","","","","","","","","","","","","",""
"null","","html-keyboard-response","160","1124726","0.0-158.0","A3GCYGO7UPKXO9","<p style=""font-size: 48px;"">+</p>","","","","","null","allTrialResponses","1000","1","16","img_art/18.jpg","14","It looks like a ship surrounded by ghosts","Claire,Cassandra,Erika,Mikayla,Michaela,Jessica","reminds me of greek mythology,22,260,20","I don't know...kind of a dissatified feeling inside.,-6,120,20","Gently chaotic and beautiful,40,100,20","Kinda boring. Not my favorite,-34,300,20","Reminds me of the four horsemen of the apocalypse,29,260,20","I think this looks pretty cool, I can see what's kind of going on here.,22,400,20","Claire","reminds me of greek mythology,22,260,20","Erika","Gently chaotic and beautiful,40,100,20","Michaela","Reminds me of the four horsemen of the apocalypse,29,260,20","4"
"50332","","survey-text","161","1175072","0.0-159.0-0.0","A3GCYGO7UPKXO9","","","","{""Q0"":""An Apocalyptic world ""}","","","","","","","","","","","","","","","","","","","","","","",""
"3405","","image-slider-response","162","1178483","0.0-160.0","A3GCYGO7UPKXO9","","","","","19","","","","","","","","","","","","","","","","","","","","","",""
"null","","image-button-response","163","1183501","0.0-161.0","A3GCYGO7UPKXO9","img_art/11.jpg","null","","","","","","","","","","","","","","","","","","","","","","","","",""
"6721","","image-button-response","164","1190224","0.0-162.0","A3GCYGO7UPKXO9","img_art/11.jpg","1","","","","","","","","","","","","","","","","","","","","","","","","",""
"1708","","image-button-response","165","1191936","0.0-163.0-0.0","A3GCYGO7UPKXO9","img_art/11.jpg","4","","","","","","","","","","","","","","","","","","","","","","","","",""
"12073","","image-button-response","166","1204014","0.0-164.0-0.0","A3GCYGO7UPKXO9","img_art/11.jpg","2","","","","","","","","","","","","","","","","","","","","","","","","",""
"null","","html-keyboard-response","167","1205524","0.0-165.0","A3GCYGO7UPKXO9","<p style=""font-size: 48px;"">+</p>","","","","","null","allTrialResponses","1500","1","17","img_art/11.jpg","19","An Apocalyptic world ","Claire,Katherine,Erika,Kylie,Michaela,Sabrina","the wavy lines are nice and pleasing,13,260,20","Makes me feel like my vision is breaking,19,120,20","I want to know which skyline the artist is depicting,26,100,20","This looks like a busy highway system along a suburban background,40,300,20","Reminds me of a city and how chaotic it can be,22,260,20","I love the city chaos from this,50,120,20","Katherine","Makes me feel like my vision is breaking,19,120,20","Michaela","Reminds me of a city and how chaotic it can be,22,260,20","Erika","I want to know which skyline the artist is depicting,26,100,20","4"
"43687","","survey-text","168","1249222","0.0-166.0-0.0","A3GCYGO7UPKXO9","","","","{""Q0"":""I see anceint structure and maybe batman,i do not understand it""}","","","","","","","","","","","","","","","","","","","","","","",""
"2406","","image-slider-response","169","1251632","0.0-167.0","A3GCYGO7UPKXO9","","","","","-21","","","","","","","","","","","","","","","","","","","","","",""
"3710","","image-button-response","170","1256637","0.0-168.0","A3GCYGO7UPKXO9","img_art/8.jpg","0","","","","","","","","","","","","","","","","","","","","","","","","",""
"1598","","image-button-response","171","1258239","0.0-169.0","A3GCYGO7UPKXO9","img_art/8.jpg","2","","","","","","","","","","","","","","","","","","","","","","","","",""
"5851","","image-button-response","172","1264094","0.0-170.0-0.0","A3GCYGO7UPKXO9","img_art/8.jpg","3","","","","","","","","","","","","","","","","","","","","","","","","",""
"1075","","image-button-response","173","1265173","0.0-171.0-0.0","A3GCYGO7UPKXO9","img_art/8.jpg","0","","","","","","","","","","","","","","","","","","","","","","","","",""
"null","","html-keyboard-response","174","1266185","0.0-172.0","A3GCYGO7UPKXO9","<p style=""font-size: 48px;"">+</p>","","","","","null","allTrialResponses","1000","1","18","img_art/8.jpg","-21","I see anceint structure and maybe batman,i do not understand it","Abigail,Katherine,Erika,Hannah,Michaela,Taylor","I did not like the face,-10,20,20","This is really cool, I love the fragments of faces,38,120,20","Striking, but not my taste,20,100,20","I don't understand it. Makes no sense to me.,5,240,20","It's too boxy for my taste,-10,260,20","Looks like it would be an interesting place to live,35,340,20","Erika","Striking, but not my taste,20,100,20","Hannah","I don't understand it. Makes no sense to me.,5,240,20","Abigail","I did not like the face,-10,20,20","4"
"20497","","survey-text","175","1286695","0.0-173.0-0.0","A3GCYGO7UPKXO9","","","","{""Q0"":""It looks like a city is under attack, I see smoke""}","","","","","","","","","","","","","","","","","","","","","","",""
"3163","","image-slider-response","176","1289864","0.0-174.0","A3GCYGO7UPKXO9","","","","","7","","","","","","","","","","","","","","","","","","","","","",""
"null","","image-button-response","177","1294872","0.0-175.0","A3GCYGO7UPKXO9","img_art/20.jpg","null","","","","","","","","","","","","","","","","","","","","","","","","",""
"685","","image-button-response","178","1295558","0.0-176.0","A3GCYGO7UPKXO9","img_art/20.jpg","2","","","","","","","","","","","","","","","","","","","","","","","","",""
"8047","","image-button-response","179","1303610","0.0-177.0-0.0","A3GCYGO7UPKXO9","img_art/20.jpg","4","","","","","","","","","","","","","","","","","","","","","","","","",""
"699","","image-button-response","180","1304313","0.0-178.0-0.0","A3GCYGO7UPKXO9","img_art/20.jpg","5","","","","","","","","","","","","","","","","","","","","","","","","",""
"null","","html-keyboard-response","181","1305317","0.0-179.0","A3GCYGO7UPKXO9","<p style=""font-size: 48px;"">+</p>","","","","","null","allTrialResponses","1000","1","19","img_art/20.jpg","7","It looks like a city is under attack, I see smoke","Abigail,Shannon,Erika,Hannah,Vanessa,Kaylee","A mountain vacation,46,20,20","I really like this. There are lots of objects the artist wanted to show and the colors are good.,38,220,20","The artist had very strong feelings, bold colors,28,100,20","Reminds me of the Southwest; i.e. New Mexico or Arizona. It's interesting.,12,240,20","I like the deep blues, but I don't like the way this picture makes me feel.,-13,380,20","i can see a car crash,13,200,20","Erika","The artist had very strong feelings, bold colors,28,100,20","Vanessa","I like the deep blues, but I don't like the way this picture makes me feel.,-13,380,20","Kaylee","i can see a car crash,13,200,20","4"
"34631","","survey-text","182","1339962","0.0-180.0-0.0","A3GCYGO7UPKXO9","","","","{""Q0"":""Looks like blood smears, too violent ""}","","","","","","","","","","","","","","","","","","","","","","",""
"3135","","image-slider-response","183","1343103","0.0-181.0","A3GCYGO7UPKXO9","","","","","-38","","","","","","","","","","","","","","","","","","","","","",""
"2153","","image-button-response","184","1348119","0.0-182.0","A3GCYGO7UPKXO9","img_art/3.jpg","0","","","","","","","","","","","","","","","","","","","","","","","","",""
"6382","","image-button-response","185","1354504","0.0-183.0","A3GCYGO7UPKXO9","img_art/3.jpg","3","","","","","","","","","","","","","","","","","","","","","","","","",""
"5400","","image-button-response","186","1359907","0.0-184.0-0.0","A3GCYGO7UPKXO9","img_art/3.jpg","0","","","","","","","","","","","","","","","","","","","","","","","","",""
"4740","","image-button-response","187","1364652","0.0-185.0-0.0","A3GCYGO7UPKXO9","img_art/3.jpg","4","","","","","","","","","","","","","","","","","","","","","","","","",""
"null","","html-keyboard-response","188","1365165","0.0-186.0","A3GCYGO7UPKXO9","<p style=""font-size: 48px;"">+</p>","","","","","null","allTrialResponses","500","1","20","img_art/3.jpg","-38","Looks like blood smears, too violent ","Allison,Katie,Erika,Danielle,Vanessa,Kaylee","Reminds me of a hot mess,-10,140,20","Messy. Looks like a children's drawing being passed off as expensive art. Too much red.,-50,160,20","Unaure what the artist  was doing, needs context,11,100,20","Looks like it was painted with blood, which I'm aware is an art style, but it just looks messy.,-20,340,20","It makes me think of just an angry scribble. There's no beauty to it for me.,-50,380,20","i really cant get it,-44,200,20","Danielle","Looks like it was painted with blood, which I'm aware is an art style, but it just looks messy.,-20,340,20","Allison","Reminds me of a hot mess,-10,140,20","Vanessa","It makes me think of just an angry scribble. There's no beauty to it for me.,-50,380,20","4"
"3196","","survey-text","189","1368387","0.0-187.0-0.0","A3GCYGO7UPKXO9","","","","{""Q0"":""we""}","","","","","","","","","","","","","","","","","","","","","","",""
"24950","","survey-text","190","1393340","0.0-188.0-0.0","A3GCYGO7UPKXO9","","","","{""Q0"":""I like the color variations. Though makes no sense still""}","","","","","","","","","","","","","","","","","","","","","","",""
"3211","","image-slider-response","191","1396557","0.0-189.0","A3GCYGO7UPKXO9","","","","","9","","","","","","","","","","","","","","","","","","","","","",""
"null","","image-button-response","192","1401576","0.0-190.0","A3GCYGO7UPKXO9","img_art/30.jpg","null","","","","","","","","","","","","","","","","","","","","","","","","",""
"2188","","image-button-response","193","1403766","0.0-191.0","A3GCYGO7UPKXO9","img_art/30.jpg","1","","","","","","","","","","","","","","","","","","","","","","","","",""
"5761","","image-button-response","194","1409531","0.0-192.0-0.0","A3GCYGO7UPKXO9","img_art/30.jpg","4","","","","","","","","","","","","","","","","","","","","","","","","",""
"2646","","image-button-response","195","1412180","0.0-193.0-0.0","A3GCYGO7UPKXO9","img_art/30.jpg","2","","","","","","","","","","","","","","","","","","","","","","","","",""
"null","","html-keyboard-response","196","1413691","0.0-194.0","A3GCYGO7UPKXO9","<p style=""font-size: 48px;"">+</p>","","","","","null","allTrialResponses","1500","1","21","img_art/30.jpg","9","I like the color variations. Though makes no sense still","Allison,Sophia,Jordan,Danielle,Vanessa,Kristen","Dislike the contrast here.,-5,140,20","Hmmm. I think the artist is trying to direct me to a spreadsheet?  (s/s),-10,280,20","cant see the meaning behind it,-20,20,20","It's okay. It should either have stuck to the grey-blue, or added more red. Seems unorganized (maybe that's the point?),-9,340,20","I like the red against the blue, but otherwise, it's not really my taste,4,380,20","makes me think of a tunnel filled with graffiti,19,280,20","Sophia","Hmmm. I think the artist is trying to direct me to a spreadsheet?  (s/s),-10,280,20","Vanessa","I like the red against the blue, but otherwise, it's not really my taste,4,380,20","Jordan","cant see the meaning behind it,-20,20,20","4"
"28161","","survey-text","197","1441866","0.0-195.0-0.0","A3GCYGO7UPKXO9","","","","{""Q0"":""Too much going on, water verses fire.""}","","","","","","","","","","","","","","","","","","","","","","",""
"2538","","image-slider-response","198","1444409","0.0-196.0","A3GCYGO7UPKXO9","","","","","-25","","","","","","","","","","","","","","","","","","","","","",""
"3192","","image-button-response","199","1449417","0.0-197.0","A3GCYGO7UPKXO9","img_art/21.jpg","0","","","","","","","","","","","","","","","","","","","","","","","","",""
"1242","","image-button-response","200","1450663","0.0-198.0","A3GCYGO7UPKXO9","img_art/21.jpg","0","","","","","","","","","","","","","","","","","","","","","","","","",""
"8159","","image-button-response","201","1458825","0.0-199.0-0.0","A3GCYGO7UPKXO9","img_art/21.jpg","5","","","","","","","","","","","","","","","","","","","","","","","","",""
"5756","","image-button-response","202","1464586","0.0-200.0-0.0","A3GCYGO7UPKXO9","img_art/21.jpg","1","","","","","","","","","","","","","","","","","","","","","","","","",""
"null","","html-keyboard-response","203","1466097","0.0-201.0","A3GCYGO7UPKXO9","<p style=""font-size: 48px;"">+</p>","","","","","null","allTrialResponses","1500","1","22","img_art/21.jpg","-25","Too much going on, water verses fire.","Sara,Sophia,Jordan,Kaitlyn,Vanessa,Grace","It looks confusing,-21,160,20","Indifferent toward this one.,6,280,20","Okay, I love the color schemes, I can't quite figure it out though,14,20,20","The division in the picture is pleasing but the random white dots are distracting,12,80,20","The colors and softness work together to make something that's lovely.,42,380,20","Like the colors, the cloudy, airy effects. Nice.,46,180,20","Sara","It looks confusing,-21,160,20","Grace","Like the colors, the cloudy, airy effects. Nice.,46,180,20","Sophia","Indifferent toward this one.,6,280,20","4"
"44941","","survey-text","204","1511053","0.0-202.0-0.0","A3GCYGO7UPKXO9","","","","{""Q0"":""Reminds me of pharaohs kings""}","","","","","","","","","","","","","","","","","","","","","","",""
"3276","","image-slider-response","205","1514333","0.0-203.0","A3GCYGO7UPKXO9","","","","","5","","","","","","","","","","","","","","","","","","","","","",""
"null","","image-button-response","206","1519339","0.0-204.0","A3GCYGO7UPKXO9","img_art/25.jpg","null","","","","","","","","","","","","","","","","","","","","","","","","",""
"2628","","image-button-response","207","1521968","0.0-205.0","A3GCYGO7UPKXO9","img_art/25.jpg","3","","","","","","","","","","","","","","","","","","","","","","","","",""
"2146","","image-button-response","208","1524118","0.0-206.0-0.0","A3GCYGO7UPKXO9","img_art/25.jpg","4","","","","","","","","","","","","","","","","","","","","","","","","",""
"6273","","image-button-response","209","1530395","0.0-207.0-0.0","A3GCYGO7UPKXO9","img_art/25.jpg","2","","","","","","","","","","","","","","","","","","","","","","","","",""
"null","","html-keyboard-response","210","1531401","0.0-208.0","A3GCYGO7UPKXO9","<p style=""font-size: 48px;"">+</p>","","","","","null","allTrialResponses","1000","1","23","img_art/25.jpg","5","Reminds me of pharaohs kings","Sara,Sophia,Molly,Jamie,Cheyenne,Grace","Green color is not my thing,-29,160,20","This one just has a dark feeling to me.,-50,280,20","Well-designed, interesting.,30,340,20","Cool color scheme and appears to be a statue of some type of revered god,40,320,20","It's nice but nothing special.,7,200,20","Scary. Something out of a Stephen King book/movie.,-31,180,20","Jamie","Cool color scheme and appears to be a statue of some type of revered god,40,320,20","Cheyenne","It's nice but nothing special.,7,200,20","Molly","Well-designed, interesting.,30,340,20","4"
"26492","","survey-text","211","1557907","0.0-209.0-0.0","A3GCYGO7UPKXO9","","","","{""Q0"":""Again, this looks like  a work of a child. ""}","","","","","","","","","","","","","","","","","","","","","","",""
"3386","","image-slider-response","212","1561297","0.0-210.0","A3GCYGO7UPKXO9","","","","","-31","","","","","","","","","","","","","","","","","","","","","",""
"null","","image-button-response","213","1566307","0.0-211.0","A3GCYGO7UPKXO9","img_art/9.jpg","null","","","","","","","","","","","","","","","","","","","","","","","","",""
"5694","","image-button-response","214","1572003","0.0-212.0","A3GCYGO7UPKXO9","img_art/9.jpg","3","","","","","","","","","","","","","","","","","","","","","","","","",""
"2609","","image-button-response","215","1574615","0.0-213.0-0.0","A3GCYGO7UPKXO9","img_art/9.jpg","4","","","","","","","","","","","","","","","","","","","","","","","","",""
"2892","","image-button-response","216","1577510","0.0-214.0-0.0","A3GCYGO7UPKXO9","img_art/9.jpg","5","","","","","","","","","","","","","","","","","","","","","","","","",""
"null","","html-keyboard-response","217","1578027","0.0-215.0","A3GCYGO7UPKXO9","<p style=""font-size: 48px;"">+</p>","","","","","null","allTrialResponses","500","1","24","img_art/9.jpg","-31","Again, this looks like  a work of a child. ","Diana,Brittany,Molly,Jamie,Cheyenne,Cassidy","I think it's sleeping beauty but I'm not sure. I didn't care for this piece.,-30,380,20","It reminds me of an illustration for a fairy tale.,19,40,20","I like the way the artist has painted his painting.,20,340,20","Mash up of colors and designs don't really go together,-5,320,20","Too much going on, don't know what the focus is,-11,200,20","The colors are okay, but this looks like someone scribbled with a crayon,1,140,20","Jamie","Mash up of colors and designs don't really go together,-5,320,20","Cheyenne","Too much going on, don't know what the focus is,-11,200,20","Cassidy","The colors are okay, but this looks like someone scribbled with a crayon,1,140,20","4"
"35927","","survey-text","218","1613970","0.0-216.0-0.0","A3GCYGO7UPKXO9","","","","{""Q0"":""I do not understand the while line in the middle, otherwise I like the colors""}","","","","","","","","","","","","","","","","","","","","","","",""
"3723","","image-slider-response","219","1617698","0.0-217.0","A3GCYGO7UPKXO9","","","","","14","","","","","","","","","","","","","","","","","","","","","",""
"null","","image-button-response","220","1622714","0.0-218.0","A3GCYGO7UPKXO9","img_art/23.jpg","null","","","","","","","","","","","","","","","","","","","","","","","","",""
"4710","","image-button-response","221","1627426","0.0-219.0","A3GCYGO7UPKXO9","img_art/23.jpg","3","","","","","","","","","","","","","","","","","","","","","","","","",""
"2329","","image-button-response","222","1629757","0.0-220.0-0.0","A3GCYGO7UPKXO9","img_art/23.jpg","4","","","","","","","","","","","","","","","","","","","","","","","","",""
"5803","","image-button-response","223","1635565","0.0-221.0-0.0","A3GCYGO7UPKXO9","img_art/23.jpg","1","","","","","","","","","","","","","","","","","","","","","","","","",""
"null","","html-keyboard-response","224","1636576","0.0-222.0","A3GCYGO7UPKXO9","<p style=""font-size: 48px;"">+</p>","","","","","null","allTrialResponses","1000","1","25","img_art/23.jpg","14","I do not understand the while line in the middle, otherwise I like the colors","Christina,Heather,Morgan,Jamie,Cheyenne,Cassidy","nice bright colors but looks like it's from the 90's,6,240,20","illegible wording with a graffiti background,1,260,20","Unicorns flying through a colorful space.,25,380,20","Reminds me of outer space and the stars,30,320,20","Solid colors but the white throws it off for me.,4,200,20","I like the colors, the tiny dots, and the contrast between the white and background,28,140,20","Jamie","Reminds me of outer space and the stars,30,320,20","Cheyenne","Solid colors but the white throws it off for me.,4,200,20","Heather","illegible wording with a graffiti background,1,260,20","4"
"4036","","survey-text","225","1640644","0.0-223.0-0.0","A3GCYGO7UPKXO9","","","","{""Q0"":""table""}","","","","","","","","","","","","","","","","","","","","","","",""
"24689","","survey-text","226","1665335","0.0-224.0-0.0","A3GCYGO7UPKXO9","","","","{""Q0"":""I really like the pink and yellow""}","","","","","","","","","","","","","","","","","","","","","","",""
"2971","","image-slider-response","227","1668311","0.0-225.0","A3GCYGO7UPKXO9","","","","","18","","","","","","","","","","","","","","","","","","","","","",""
"4881","","image-button-response","228","1673315","0.0-226.0","A3GCYGO7UPKXO9","img_art/5.jpg","2","","","","","","","","","","","","","","","","","","","","","","","","",""
"2186","","image-button-response","229","1675504","0.0-227.0","A3GCYGO7UPKXO9","img_art/5.jpg","4","","","","","","","","","","","","","","","","","","","","","","","","",""
"2862","","image-button-response","230","1678370","0.0-228.0-0.0","A3GCYGO7UPKXO9","img_art/5.jpg","2","","","","","","","","","","","","","","","","","","","","","","","","",""
"3168","","image-button-response","231","1681542","0.0-229.0-0.0","A3GCYGO7UPKXO9","img_art/5.jpg","1","","","","","","","","","","","","","","","","","","","","","","","","",""
"null","","html-keyboard-response","232","1683055","0.0-230.0","A3GCYGO7UPKXO9","<p style=""font-size: 48px;"">+</p>","","","","","null","allTrialResponses","1500","1","26","img_art/5.jpg","18","I really like the pink and yellow","Tiffany,Heather,Dominique,Jamie,Cheyenne,Leslie","I feel nothing looking at this.,-5,360,20","its something. i just dont know what it is.,1,260,20","It speaks volumes to some. It's also a conversational piece. And very different ideas,34,400,20","Don't really see it and yellow/pink don't go well together,-35,320,20","Very little going on.,-4,200,20","This elicits no reaction in me.,0,380,20","Cheyenne","Very little going on.,-4,200,20","Dominique","It speaks volumes to some. It's also a conversational piece. And very different ideas,34,400,20","Heather","its something. i just dont know what it is.,1,260,20","4"
"16279","","survey-text","233","1699349","0.0-231.0-0.0","A3GCYGO7UPKXO9","","","","{""Q0"":""it reminds me of a city in a crowded street""}","","","","","","","","","","","","","","","","","","","","","","",""
"2641","","image-slider-response","234","1701996","0.0-232.0","A3GCYGO7UPKXO9","","","","","18","","","","","","","","","","","","","","","","","","","","","",""
"2641","","image-button-response","235","1707012","0.0-233.0","A3GCYGO7UPKXO9","img_art/19.jpg","1","","","","","","","","","","","","","","","","","","","","","","","","",""
"1032","","image-button-response","236","1708045","0.0-234.0","A3GCYGO7UPKXO9","img_art/19.jpg","1","","","","","","","","","","","","","","","","","","","","","","","","",""
"6791","","image-button-response","237","1714840","0.0-235.0-0.0","A3GCYGO7UPKXO9","img_art/19.jpg","4","","","","","","","","","","","","","","","","","","","","","","","","",""
"1758","","image-button-response","238","1716603","0.0-236.0-0.0","A3GCYGO7UPKXO9","img_art/19.jpg","3","","","","","","","","","","","","","","","","","","","","","","","","",""
"null","","html-keyboard-response","239","1717111","0.0-237.0","A3GCYGO7UPKXO9","<p style=""font-size: 48px;"">+</p>","","","","","null","allTrialResponses","500","1","27","img_art/19.jpg","18","it reminds me of a city in a crowded street","Amanda,Heather,Dominique,Monica,Cheyenne,Andrea","Its just a nice painting, nothing too special but nothing negative,25,180,20","love the images I can pick out of this art,1,260,20","I really like the colors and feel of this one and alot of life,41,400,20","The shapes make me recall a city scene but it looks dirty,-22,360,20","Solid use of colors but wished it looked more realistic.,12,200,20","Feels like a cafe in Paris.,35,240,20","Heather","love the images I can pick out of this art,1,260,20","Cheyenne","Solid use of colors but wished it looked more realistic.,12,200,20","Monica","The shapes make me recall a city scene but it looks dirty,-22,360,20","4"
"17828","","survey-text","240","1734953","0.0-238.0-0.0","A3GCYGO7UPKXO9","","","","{""Q0"":""It looks like a painting project went wrong""}","","","","","","","","","","","","","","","","","","","","","","",""
"2489","","image-slider-response","241","1737447","0.0-239.0","A3GCYGO7UPKXO9","","","","","-20","","","","","","","","","","","","","","","","","","","","","",""
"2062","","image-button-response","242","1742459","0.0-240.0","A3GCYGO7UPKXO9","img_art/29.jpg","1","","","","","","","","","","","","","","","","","","","","","","","","",""
"799","","image-button-response","243","1743262","0.0-241.0","A3GCYGO7UPKXO9","img_art/29.jpg","1","","","","","","","","","","","","","","","","","","","","","","","","",""
"1761","","image-button-response","244","1745027","0.0-242.0-0.0","A3GCYGO7UPKXO9","img_art/29.jpg","3","","","","","","","","","","","","","","","","","","","","","","","","",""
"3600","","image-button-response","245","1748631","0.0-243.0-0.0","A3GCYGO7UPKXO9","img_art/29.jpg","5","","","","","","","","","","","","","","","","","","","","","","","","",""
"null","","html-keyboard-response","246","1749138","0.0-244.0","A3GCYGO7UPKXO9","<p style=""font-size: 48px;"">+</p>","","","","","null","allTrialResponses","500","1","28","img_art/29.jpg","-20","It looks like a painting project went wrong","Mary,Heather,Chelsea,Monica,Cheyenne,Savannah","I love the angry emotion to this art. I feel very drawn to it.,18,180,20","i dont know how it makes me feel.,1,260,20","It is intriguing but I don't like the red X.,6,180,20","There's too much black and it looks sloppy,-35,360,20","Really enjoy everything about this one.,50,200,20","Looks wrong. Like a real painting was vandalized.,-50,200,20","Heather","i dont know how it makes me feel.,1,260,20","Monica","There's too much black and it looks sloppy,-35,360,20","Savannah","Looks wrong. Like a real painting was vandalized.,-50,200,20","4"
"15602","","survey-text","247","1764756","0.0-245.0-0.0","A3GCYGO7UPKXO9","","","","{""Q0"":""Remind me of fall season , i like the colors""}","","","","","","","","","","","","","","","","","","","","","","",""
"2338","","image-slider-response","248","1767100","0.0-246.0","A3GCYGO7UPKXO9","","","","","15","","","","","","","","","","","","","","","","","","","","","",""
"1690","","image-button-response","249","1772117","0.0-247.0","A3GCYGO7UPKXO9","img_art/1.jpg","0","","","","","","","","","","","","","","","","","","","","","","","","",""
"1429","","image-button-response","250","1773548","0.0-248.0","A3GCYGO7UPKXO9","img_art/1.jpg","0","","","","","","","","","","","","","","","","","","","","","","","","",""
"2111","","image-button-response","251","1775663","0.0-249.0-0.0","A3GCYGO7UPKXO9","img_art/1.jpg","1","","","","","","","","","","","","","","","","","","","","","","","","",""
"2900","","image-button-response","252","1778565","0.0-250.0-0.0","A3GCYGO7UPKXO9","img_art/1.jpg","4","","","","","","","","","","","","","","","","","","","","","","","","",""
"null","","html-keyboard-response","253","1779571","0.0-251.0","A3GCYGO7UPKXO9","<p style=""font-size: 48px;"">+</p>","","","","","null","allTrialResponses","1000","1","29","img_art/1.jpg","15","Remind me of fall season , i like the colors","Erica,Heather,Jennifer,Monica,Chloe,Savannah","Makes me warm and relaxed,38,80,20","the colors are vibrant and beautiful,1,260,20","Bright and colorful without being overpowering,32,380,20","I like the yellow and purple but the large red spot reminds me of blood and isn't great,6,360,20","Powerful colors.,31,220,20","Its simply okay.,3,200,20","Erica","Makes me warm and relaxed,38,80,20","Heather","the colors are vibrant and beautiful,1,260,20","Chloe","Powerful colors.,31,220,20","4"
"11092","","survey-text","254","1790680","0.0-252.0-0.0","A3GCYGO7UPKXO9","","","","{""Q0"":""Looks like a bird in the dessert""}","","","","","","","","","","","","","","","","","","","","","","",""
"2640","","image-slider-response","255","1793326","0.0-253.0","A3GCYGO7UPKXO9","","","","","22","","","","","","","","","","","","","","","","","","","","","",""
"4192","","image-button-response","256","1798330","0.0-254.0","A3GCYGO7UPKXO9","img_art/6.jpg","0","","","","","","","","","","","","","","","","","","","","","","","","",""
"1147","","image-button-response","257","1799480","0.0-255.0","A3GCYGO7UPKXO9","img_art/6.jpg","0","","","","","","","","","","","","","","","","","","","","","","","","",""
"2270","","image-button-response","258","1801753","0.0-256.0-0.0","A3GCYGO7UPKXO9","img_art/6.jpg","2","","","","","","","","","","","","","","","","","","","","","","","","",""
"2773","","image-button-response","259","1804529","0.0-257.0-0.0","A3GCYGO7UPKXO9","img_art/6.jpg","4","","","","","","","","","","","","","","","","","","","","","","","","",""
"null","","html-keyboard-response","260","1805044","0.0-258.0","A3GCYGO7UPKXO9","<p style=""font-size: 48px;"">+</p>","","","","","null","allTrialResponses","500","1","30","img_art/6.jpg","22","Looks like a bird in the dessert","Erica,Heather,Isabella,Amber,Chloe,Bailey","positive because of bright colours and a bird,20,80,20","it looks like a stick holding a wig on a cliff,21,260,20","A bird standing in the sun,37,280,20","Something very simplistic about it. The colors mesh well.,10,200,20","Cute and evocative,11,220,20","Not my favorite, but I like the empty vibe and the imagination it invokes. A skinny girl with long legs, perhaps, looking over a cliff,9,360,20","Erica","positive because of bright colours and a bird,20,80,20","Isabella","A bird standing in the sun,37,280,20","Chloe","Cute and evocative,11,220,20","4"
"4103","","image-button-response_instructions","261","1809164","0.0-259.0","A3GCYGO7UPKXO9","","0","instructions","","","","","","","","","","","","","","","","","","","","","","","",""
