"rt","url","trial_type","trial_index","time_elapsed","internal_node_id","participant_id","stimulus","button_pressed","Name","responses","response","key_press","variableName","fixationTime","condition","trial","photo","subjectRating","subjectResponse","agentsNames","agent_1_Response","agent_2_Response","agent_3_Response","agent_4_Response","agent_5_Response","agent_6_Response","kept_1_name","kept_1_response","kept_2_name","kept_2_response","kept_3_name","kept_3_response","errorCounter"
"85801","external_page_harvard.html","external-html","0","85871","0.0-0.0","A3GO56JAHRU2Y1","","","","","","","","","","","","","","","","","","","","","","","","","","",""
"2339","","image-button-response","1","88212","0.0-1.0","A3GO56JAHRU2Y1","","1","","","","","","","","","","","","","","","","","","","","","","","","",""
"5826","","image-button-response","2","94044","0.0-2.0-0.0","A3GO56JAHRU2Y1","","1","phone","","","","","","","","","","","","","","","","","","","","","","","",""
"8061","","survey-text","3","102107","0.0-3.0-0.0","A3GO56JAHRU2Y1","","","","{""Q0"":""A3GO56JAHRU2Y1""}","","","","","","","","","","","","","","","","","","","","","","",""
"29790","","image-button-response_instructions","4","131899","0.0-4.0","A3GO56JAHRU2Y1","","0","instructions","","","","","","","","","","","","","","","","","","","","","","","",""
"25350","","image-button-response_instructions","5","157251","0.0-5.0","A3GO56JAHRU2Y1","img_art/ins/popularity/ins1.png","0","instructions","","","","","","","","","","","","","","","","","","","","","","","",""
"17542","","image-button-response_instructions","6","174795","0.0-6.0","A3GO56JAHRU2Y1","img_art/ins/popularity/ins2.png","0","instructions","","","","","","","","","","","","","","","","","","","","","","","",""
"21903","","image-button-response_instructions","7","196698","0.0-7.0","A3GO56JAHRU2Y1","img_art/ins/popularity/ins2Extreme.png","0","instructions","","","","","","","","","","","","","","","","","","","","","","","",""
"27110","","image-button-response_instructions","8","223810","0.0-8.0","A3GO56JAHRU2Y1","img_art/ins/popularity/ins3KEEPpop.PNG","0","instructions","","","","","","","","","","","","","","","","","","","","","","","",""
"13342","","image-button-response_instructions","9","237154","0.0-9.0","A3GO56JAHRU2Y1","img_art/ins/popularity/ins3ANamepop.PNG","0","instructions","","","","","","","","","","","","","","","","","","","","","","","",""
"20950","","image-button-response_instructions","10","258106","0.0-10.0","A3GO56JAHRU2Y1","img_art/ins/popularity/ins3ARatingpop.png","0","instructions","","","","","","","","","","","","","","","","","","","","","","","",""
"10727","","image-button-response_instructions","11","268833","0.0-11.0","A3GO56JAHRU2Y1","img_art/ins/popularity/ins3ATextpop.png","0","instructions","","","","","","","","","","","","","","","","","","","","","","","",""
"8399","","image-button-response_instructions","12","277234","0.0-12.0","A3GO56JAHRU2Y1","img_art/ins/popularity/ins3ALikespop.png","0","instructions","","","","","","","","","","","","","","","","","","","","","","","",""
"39798","","image-button-response_instructions","13","317033","0.0-13.0","A3GO56JAHRU2Y1","img_art/ins/popularity/ins3KEEPpop.PNG","0","instructions","","","","","","","","","","","","","","","","","","","","","","","",""
"55637","","image-button-response_instructions","14","372672","0.0-14.0","A3GO56JAHRU2Y1","img_art/ins/popularity/ins3_5RED.png","0","instructions","","","","","","","","","","","","","","","","","","","","","","","",""
"31143","","image-button-response_instructions","15","403816","0.0-15.0","A3GO56JAHRU2Y1","img_art/ins/popularity/ins3KEEPpop.PNG","0","instructions","","","","","","","","","","","","","","","","","","","","","","","",""
"44381","","image-button-response_instructions","16","448199","0.0-16.0","A3GO56JAHRU2Y1","img_art/ins/popularity/ins4KEEPpop.PNG","0","instructions","","","","","","","","","","","","","","","","","","","","","","","",""
"6398","","image-button-response_instructions","17","454599","0.0-17.0","A3GO56JAHRU2Y1","img_art/ins/popularity/ins5KEEPpop.PNG","0","instructions","","","","","","","","","","","","","","","","","","","","","","","",""
"2718","","image-button-response_instructions","18","457319","0.0-18.0","A3GO56JAHRU2Y1","","0","instructions","","","","","","","","","","","","","","","","","","","","","","","",""
"15676","","survey-text","19","473022","0.0-19.0-0.0","A3GO56JAHRU2Y1","","","","{""Q0"":""but""}","","","","","","","","","","","","","","","","","","","","","","",""
"22278","","survey-text","20","495302","0.0-20.0-0.0","A3GO56JAHRU2Y1","","","","{""Q0"":""It is bright with happy colors.""}","","","","","","","","","","","","","","","","","","","","","","",""
"7709.5","","image-slider-response","21","503015","0.0-21.0","A3GO56JAHRU2Y1","","","","","24","","","","","","","","","","","","","","","","","","","","","",""
"null","","image-button-response","22","508020","0.0-22.0","A3GO56JAHRU2Y1","img_art/ins/1.jpg","null","","","","","","","","","","","","","","","","","","","","","","","","",""
"20262","","image-button-response","23","528287","0.0-23.0","A3GO56JAHRU2Y1","img_art/ins/1.jpg","4","","","","","","","","","","","","","","","","","","","","","","","","",""
"3524","","image-button-response","24","531815","0.0-24.0-0.0","A3GO56JAHRU2Y1","img_art/ins/1.jpg","5","","","","","","","","","","","","","","","","","","","","","","","","",""
"9836","","image-button-response","25","541654","0.0-25.0-0.0","A3GO56JAHRU2Y1","img_art/ins/1.jpg","0","","","","","","","","","","","","","","","","","","","","","","","","",""
"null","","html-keyboard-response","26","542657","0.0-26.0","A3GO56JAHRU2Y1","<p style=""font-size: 48px;"">+</p>","","","","","null","allTrialResponses","1000","1","-2","img_art/ins/1.jpg","24","It is bright with happy colors.","Allison,Ashley,Beth,Dora,Erika,Jen","looks like a lot of things going on in the mist,20,20,20","I just don't get why these type of art would be popular,-32,40,20","This color reminds me of poo,-46,60,20","looks like what my niece in 3rd grade did this afternoon,-50,80,20","I like the sophisticated brushwork,40,100,20","It reminds me of a candy land dream I had,36,120,20","Erika","I like the sophisticated brushwork,40,100,20","Jen","It reminds me of a candy land dream I had,36,120,20","Allison","looks like a lot of things going on in the mist,20,20,20","0"
"28110","","survey-text","27","570773","0.0-27.0-0.0","A3GO56JAHRU2Y1","","","","{""Q0"":""I like the bright colors but not the gray.""}","","","","","","","","","","","","","","","","","","","","","","",""
"9390.099999999627","","image-slider-response","28","580165","0.0-28.0","A3GO56JAHRU2Y1","","","","","-23","","","","","","","","","","","","","","","","","","","","","",""
"null","","image-button-response","29","585168","0.0-29.0","A3GO56JAHRU2Y1","img_art/ins/2.jpg","null","","","","","","","","","","","","","","","","","","","","","","","","",""
"16825","","image-button-response","30","601997","0.0-30.0","A3GO56JAHRU2Y1","img_art/ins/2.jpg","0","","","","","","","","","","","","","","","","","","","","","","","","",""
"10438","","image-button-response","31","612437","0.0-31.0-0.0","A3GO56JAHRU2Y1","img_art/ins/2.jpg","2","","","","","","","","","","","","","","","","","","","","","","","","",""
"2861","","image-button-response","32","615300","0.0-32.0-0.0","A3GO56JAHRU2Y1","img_art/ins/2.jpg","0","","","","","","","","","","","","","","","","","","","","","","","","",""
"7910","","image-button-response","33","655588","0.0-32.1-0.1","A3GO56JAHRU2Y1","img_art/ins/2.jpg","3","","","","","","","","","","","","","","","","","","","","","","","","",""
"null","","html-keyboard-response","34","656097","0.0-33.0","A3GO56JAHRU2Y1","<p style=""font-size: 48px;"">+</p>","","","","","null","allTrialResponses","500","1","-1","img_art/ins/2.jpg","-23","I like the bright colors but not the gray.","Allison,Kara,Katie,Jenna,Erika,Jen","I don't have strong feelings about this,10,20,20","I like the blocks of color arrangements,30,160,20","too much color!,-28,180,20","One of my pet peevs,-48,140,20","I would never be able to compose a sophisticated pallete like this,48,100,20","It reminds me of a fireplace,36,120,20","Allison","I don't have strong feelings about this,10,20,20","Katie","too much color!,-28,180,20","Jenna","One of my pet peevs,-48,140,20","2"
"16739","","survey-text","35","672844","0.0-34.0-0.0","A3GO56JAHRU2Y1","","","","{""Q0"":""I love the blue but too abstract.""}","","","","","","","","","","","","","","","","","","","","","","",""
"6429.799999998882","","image-slider-response","36","679275","0.0-35.0","A3GO56JAHRU2Y1","","","","","-15","","","","","","","","","","","","","","","","","","","","","",""
"null","","image-button-response","37","684291","0.0-36.0","A3GO56JAHRU2Y1","img_art/ins/3.jpg","null","","","","","","","","","","","","","","","","","","","","","","","","",""
"6190","","image-button-response","38","690484","0.0-37.0","A3GO56JAHRU2Y1","img_art/ins/3.jpg","5","","","","","","","","","","","","","","","","","","","","","","","","",""
"5245","","image-button-response","39","695731","0.0-38.0-0.0","A3GO56JAHRU2Y1","img_art/ins/3.jpg","2","","","","","","","","","","","","","","","","","","","","","","","","",""
"6790","","image-button-response","40","702524","0.0-39.0-0.0","A3GO56JAHRU2Y1","img_art/ins/3.jpg","1","","","","","","","","","","","","","","","","","","","","","","","","",""
"null","","html-keyboard-response","41","703531","0.0-40.0","A3GO56JAHRU2Y1","<p style=""font-size: 48px;"">+</p>","","","","","null","allTrialResponses","1000","1","0","img_art/ins/3.jpg","-15","I love the blue but too abstract.","Allison,Leslie,Katie,Jenna,Mary,Rose","enjoy the different shades of blue,22,20,20","It's an alright work,15,200,20","It looks depressing,-26,180,20","looks like a murder room,-35,140,20","I like the overlapping of brushes,41,220,20","My daily routine, it's depressing,-20,240,20","Rose","My daily routine, it's depressing,-20,240,20","Katie","It looks depressing,-26,180,20","Leslie","It's an alright work,15,200,20","2"
"38951","","image-button-response_instructions","42","742491","0.0-41.0","A3GO56JAHRU2Y1","","0","instructions","","","","","","","","","","","","","","","","","","","","","","","",""
"15918","","survey-likert","43","758412","0.0-42.0-0.0","A3GO56JAHRU2Y1","","","","{""Q0"":"""",""Q1"":0,""Q2"":1}","","","","","","","","","","","","","","","","","","","","","","",""
"11498","","survey-text","44","769914","0.0-43.0-0.0","A3GO56JAHRU2Y1","","","","{""Q0"":""rock""}","","","","","","","","","","","","","","","","","","","","","","",""
"27902","","survey-text","45","797818","0.0-44.0-0.0","A3GO56JAHRU2Y1","","","","{""Q0"":""It seems sad and primitive.""}","","","","","","","","","","","","","","","","","","","","","","",""
"4101.800000000745","","image-slider-response","46","801922","0.0-45.0","A3GO56JAHRU2Y1","","","","","-15","","","","","","","","","","","","","","","","","","","","","",""
"null","","image-button-response","47","806953","0.0-46.0","A3GO56JAHRU2Y1","img_art/19.jpg","null","","","","","","","","","","","","","","","","","","","","","","","","",""
"6646","","image-button-response","48","813602","0.0-47.0","A3GO56JAHRU2Y1","img_art/19.jpg","3","","","","","","","","","","","","","","","","","","","","","","","","",""
"11813","","image-button-response","49","825418","0.0-48.0-0.0","A3GO56JAHRU2Y1","img_art/19.jpg","0","","","","","","","","","","","","","","","","","","","","","","","","",""
"9566","","image-button-response","50","834987","0.0-49.0-0.0","A3GO56JAHRU2Y1","img_art/19.jpg","2","","","","","","","","","","","","","","","","","","","","","","","","",""
"null","","html-keyboard-response","51","835504","0.0-50.0","A3GO56JAHRU2Y1","<p style=""font-size: 48px;"">+</p>","","","","","null","allTrialResponses","500","1","1","img_art/19.jpg","-15","It seems sad and primitive.","Morgan,Jennifer,Christina,Julia,Taylor,Destiny","Messy pantry full of food.,5,380,20","Very, very ugly and sloppy,-31,380,20","i like the colors and the way it looks like an actual scene,18,240,20","I like this style but don't really like the specific setting of the landscape,-7,40,20","It reminds me of sitting at a cafe on the side of a river.,45,340,20","this flow I just really like how everything blends but also doesn't,45,360,20","Julia","I like this style but don't really like the specific setting of the landscape,-7,40,20","Morgan","Messy pantry full of food.,5,380,20","Christina","i like the colors and the way it looks like an actual scene,18,240,20","2"
"26577","","survey-text","52","862090","0.0-51.0-0.0","A3GO56JAHRU2Y1","","","","{""Q0"":""It looks sad and angry.""}","","","","","","","","","","","","","","","","","","","","","","",""
"3718.2000000011176","","image-slider-response","53","865810","0.0-52.0","A3GO56JAHRU2Y1","","","","","-26","","","","","","","","","","","","","","","","","","","","","",""
"null","","image-button-response","54","870814","0.0-53.0","A3GO56JAHRU2Y1","img_art/25.jpg","null","","","","","","","","","","","","","","","","","","","","","","","","",""
"17993","","image-button-response","55","888812","0.0-54.0","A3GO56JAHRU2Y1","img_art/25.jpg","5","","","","","","","","","","","","","","","","","","","","","","","","",""
"11531","","image-button-response","56","900346","0.0-55.0-0.0","A3GO56JAHRU2Y1","img_art/25.jpg","0","","","","","","","","","","","","","","","","","","","","","","","","",""
"16988","","image-button-response","57","917337","0.0-56.0-0.0","A3GO56JAHRU2Y1","img_art/25.jpg","1","","","","","","","","","","","","","","","","","","","","","","","","",""
"null","","html-keyboard-response","58","918342","0.0-57.0","A3GO56JAHRU2Y1","<p style=""font-size: 48px;"">+</p>","","","","","null","allTrialResponses","1000","1","2","img_art/25.jpg","-26","It looks sad and angry.","Morgan,Leslie,Christina,Julia,Kelly,Miranda","Ancient gods above you.,20,380,20","I feel like I'm looking at something larger than myself.,30,380,20","nice colors and it looks like a native work,32,240,20","the color is pleasing and draws out the contrast of the lines,10,40,20","I love the color. I don't know what exactly is going on but I like it.,24,220,20","This looks cool but I don't really care for it. Some sort or religious figure?,16,320,20","Miranda","This looks cool but I don't really care for it. Some sort or religious figure?,16,320,20","Morgan","Ancient gods above you.,20,380,20","Leslie","I feel like I'm looking at something larger than myself.,30,380,20","2"
"23336","","survey-text","59","941688","0.0-58.0-0.0","A3GO56JAHRU2Y1","","","","{""Q0"":""It must be fallen trees or failed love.""}","","","","","","","","","","","","","","","","","","","","","","",""
"7646.5999999996275","","image-slider-response","60","949337","0.0-59.0","A3GO56JAHRU2Y1","","","","","-34","","","","","","","","","","","","","","","","","","","","","",""
"null","","image-button-response","61","954355","0.0-60.0","A3GO56JAHRU2Y1","img_art/4.jpg","null","","","","","","","","","","","","","","","","","","","","","","","","",""
"17586","","image-button-response","62","971944","0.0-61.0","A3GO56JAHRU2Y1","img_art/4.jpg","2","","","","","","","","","","","","","","","","","","","","","","","","",""
"4397","","image-button-response","63","976344","0.0-62.0-0.0","A3GO56JAHRU2Y1","img_art/4.jpg","3","","","","","","","","","","","","","","","","","","","","","","","","",""
"9333","","image-button-response","64","985680","0.0-63.0-0.0","A3GO56JAHRU2Y1","img_art/4.jpg","4","","","","","","","","","","","","","","","","","","","","","","","","",""
"null","","html-keyboard-response","65","986688","0.0-64.0","A3GO56JAHRU2Y1","<p style=""font-size: 48px;"">+</p>","","","","","null","allTrialResponses","1000","1","3","img_art/4.jpg","-34","It must be fallen trees or failed love.","Morgan,Leslie,Andrea,Shelby,Claire,Miranda","Pretzel noodles.,7,380,20","This elicits no reaction in me.,0,380,20","I think it speaks to familial closeness but the tonality is offputting to me.,-10,240,20","The colors feel a bit off to me,-10,240,20","I really don't like the colors,-26,260,20","I just don't understand this one at all, I do not like it,-43,320,20","Andrea","I think it speaks to familial closeness but the tonality is offputting to me.,-10,240,20","Shelby","The colors feel a bit off to me,-10,240,20","Claire","I really don't like the colors,-26,260,20","2"
"22422","","survey-text","66","1009119","0.0-65.0-0.0","A3GO56JAHRU2Y1","","","","{""Q0"":""It is a sad shipwreck.""}","","","","","","","","","","","","","","","","","","","","","","",""
"3110","","image-slider-response","67","1012231","0.0-66.0","A3GO56JAHRU2Y1","","","","","-33","","","","","","","","","","","","","","","","","","","","","",""
"null","","image-button-response","68","1017244","0.0-67.0","A3GO56JAHRU2Y1","img_art/10.jpg","null","","","","","","","","","","","","","","","","","","","","","","","","",""
"1545","","image-button-response","69","1018792","0.0-68.0","A3GO56JAHRU2Y1","img_art/10.jpg","1","","","","","","","","","","","","","","","","","","","","","","","","",""
"8182","","image-button-response","70","1026976","0.0-69.0-0.0","A3GO56JAHRU2Y1","img_art/10.jpg","5","","","","","","","","","","","","","","","","","","","","","","","","",""
"11637","","image-button-response","71","1038616","0.0-70.0-0.0","A3GO56JAHRU2Y1","img_art/10.jpg","4","","","","","","","","","","","","","","","","","","","","","","","","",""
"null","","html-keyboard-response","72","1040128","0.0-71.0","A3GO56JAHRU2Y1","<p style=""font-size: 48px;"">+</p>","","","","","null","allTrialResponses","1500","1","4","img_art/10.jpg","-33","It is a sad shipwreck.","Vanessa,Kimberly,Andrea,Shelby,Claire,Gabriela","It's interesting and my eyes keep being drawn to different parts of the picture.,11,380,20","Also too all over the place, I don't see any pattern or anything that's supposed to stand out,-19,260,20","Kraken, and I love it.,39,240,20","Love the monotonal texture,20,240,20","it looks very musical,24,260,20","It looks like a sea monster overtaking a ship,21,140,20","Kimberly","Also too all over the place, I don't see any pattern or anything that's supposed to stand out,-19,260,20","Gabriela","It looks like a sea monster overtaking a ship,21,140,20","Claire","it looks very musical,24,260,20","2"
"53723","","survey-text","73","1093862","0.0-72.0-0.0","A3GO56JAHRU2Y1","","","","{""Q0"":""This heart must be confusing but like the colors.""}","","","","","","","","","","","","","","","","","","","","","","",""
"4493.5","","image-slider-response","74","1098358","0.0-73.0","A3GO56JAHRU2Y1","","","","","-5","","","","","","","","","","","","","","","","","","","","","",""
"null","","image-button-response","75","1103376","0.0-74.0","A3GO56JAHRU2Y1","img_art/2.jpg","null","","","","","","","","","","","","","","","","","","","","","","","","",""
"8771","","image-button-response","76","1112150","0.0-75.0","A3GO56JAHRU2Y1","img_art/2.jpg","1","","","","","","","","","","","","","","","","","","","","","","","","",""
"1053","","image-button-response","77","1113206","0.0-76.0-0.0","A3GO56JAHRU2Y1","img_art/2.jpg","2","","","","","","","","","","","","","","","","","","","","","","","","",""
"10709","","image-button-response","78","1123918","0.0-77.0-0.0","A3GO56JAHRU2Y1","img_art/2.jpg","5","","","","","","","","","","","","","","","","","","","","","","","","",""
"null","","html-keyboard-response","79","1124935","0.0-78.0","A3GO56JAHRU2Y1","<p style=""font-size: 48px;"">+</p>","","","","","null","allTrialResponses","1000","1","5","img_art/2.jpg","-5","This heart must be confusing but like the colors.","Kelsey,Kimberly,Kylie,Diana,Claire,Gabriela","i dont like it, no thank you,-28,240,20","I like the green,13,260,20","Not very appealing,-5,300,20","I think I see people sitting in lawn chairs in a circle watching an event. Not really sure so I rated it lower.,-35,380,20","too blocky and don't like color combination,-32,260,20","The people look blurred together,-21,140,20","Kimberly","I like the green,13,260,20","Kylie","Not very appealing,-5,300,20","Gabriela","The people look blurred together,-21,140,20","2"
"6165","","survey-text","80","1131117","0.0-79.0-0.0","A3GO56JAHRU2Y1","","","","{""Q0"":""sky""}","","","","","","","","","","","","","","","","","","","","","","",""
"29814","","survey-text","81","1160933","0.0-80.0-0.0","A3GO56JAHRU2Y1","","","","{""Q0"":""We grew up and left Teddy behind.""}","","","","","","","","","","","","","","","","","","","","","","",""
"5062.199999999255","","image-slider-response","82","1165997","0.0-81.0","A3GO56JAHRU2Y1","","","","","-14","","","","","","","","","","","","","","","","","","","","","",""
"3558","","image-button-response","83","1171000","0.0-82.0","A3GO56JAHRU2Y1","img_art/16.jpg","0","","","","","","","","","","","","","","","","","","","","","","","","",""
"114","","image-button-response","84","1171117","0.0-83.0","A3GO56JAHRU2Y1","img_art/16.jpg","0","","","","","","","","","","","","","","","","","","","","","","","","",""
"8646","","image-button-response","85","1179766","0.0-84.0-0.0","A3GO56JAHRU2Y1","img_art/16.jpg","1","","","","","","","","","","","","","","","","","","","","","","","","",""
"4389","","image-button-response","86","1184157","0.0-85.0-0.0","A3GO56JAHRU2Y1","img_art/16.jpg","2","","","","","","","","","","","","","","","","","","","","","","","","",""
"null","","html-keyboard-response","87","1185162","0.0-86.0","A3GO56JAHRU2Y1","<p style=""font-size: 48px;"">+</p>","","","","","null","allTrialResponses","1000","1","6","img_art/16.jpg","-14","We grew up and left Teddy behind.","Kristen,Kimberly,Kylie,Abigail,Ashley,Gabriela","sad. desth of childhood,-5,280,20","Weird and creepy,-30,260,20","Mixed feelings. Warm and comfy yet somewhat violent. A stark contrast,0,300,20","The bear makes me very uncomfortable,-50,20,20","A lot fo these could abstract or childrens work.,23,320,20","It looks very generic, like items were pasted onto the background,-38,140,20","Kristen","sad. desth of childhood,-5,280,20","Kimberly","Weird and creepy,-30,260,20","Kylie","Mixed feelings. Warm and comfy yet somewhat violent. A stark contrast,0,300,20","2"
"30010","","survey-text","88","1215181","0.0-87.0-0.0","A3GO56JAHRU2Y1","","","","{""Q0"":""She sleeps and hides in a cocoon of love.""}","","","","","","","","","","","","","","","","","","","","","","",""
"4861.799999998882","","image-slider-response","89","1220045","0.0-88.0","A3GO56JAHRU2Y1","","","","","-4","","","","","","","","","","","","","","","","","","","","","",""
"null","","image-button-response","90","1225059","0.0-89.0","A3GO56JAHRU2Y1","img_art/9.jpg","null","","","","","","","","","","","","","","","","","","","","","","","","",""
"4054","","image-button-response","91","1229117","0.0-90.0","A3GO56JAHRU2Y1","img_art/9.jpg","0","","","","","","","","","","","","","","","","","","","","","","","","",""
"6061","","image-button-response","92","1235181","0.0-91.0-0.0","A3GO56JAHRU2Y1","img_art/9.jpg","4","","","","","","","","","","","","","","","","","","","","","","","","",""
"5558","","image-button-response","93","1240741","0.0-92.0-0.0","A3GO56JAHRU2Y1","img_art/9.jpg","5","","","","","","","","","","","","","","","","","","","","","","","","",""
"null","","html-keyboard-response","94","1241244","0.0-93.0","A3GO56JAHRU2Y1","<p style=""font-size: 48px;"">+</p>","","","","","null","allTrialResponses","500","1","7","img_art/9.jpg","-4","She sleeps and hides in a cocoon of love.","Kristen,Kimberly,Kylie,Sophia,Sarah,Kathryn","sleep, calm, safe,12,280,20","It's too all over the place,-37,260,20","Peaceful dreaming,40,300,20","Yikes. I'm not sure what to make of this one.,-14,280,20","I really like the color balance but the image is odd,-5,180,20","This feels dreamy. Like I'm seeing inside someone's head while they're sleeping.,20,140,20","Kristen","sleep, calm, safe,12,280,20","Sarah","I really like the color balance but the image is odd,-5,180,20","Kathryn","This feels dreamy. Like I'm seeing inside someone's head while they're sleeping.,20,140,20","2"
"21084","","survey-text","95","1262340","0.0-94.0-0.0","A3GO56JAHRU2Y1","","","","{""Q0"":""Rain and ice is forming.""}","","","","","","","","","","","","","","","","","","","","","","",""
"7926.0999999996275","","image-slider-response","96","1270268","0.0-95.0","A3GO56JAHRU2Y1","","","","","6","","","","","","","","","","","","","","","","","","","","","",""
"null","","image-button-response","97","1275282","0.0-96.0","A3GO56JAHRU2Y1","img_art/13.jpg","null","","","","","","","","","","","","","","","","","","","","","","","","",""
"5247","","image-button-response","98","1280532","0.0-97.0","A3GO56JAHRU2Y1","img_art/13.jpg","2","","","","","","","","","","","","","","","","","","","","","","","","",""
"8381","","image-button-response","99","1288916","0.0-98.0-0.0","A3GO56JAHRU2Y1","img_art/13.jpg","1","","","","","","","","","","","","","","","","","","","","","","","","",""
"9317","","image-button-response","100","1298236","0.0-99.0-0.0","A3GO56JAHRU2Y1","img_art/13.jpg","0","","","","","","","","","","","","","","","","","","","","","","","","",""
"null","","html-keyboard-response","101","1299744","0.0-100.0","A3GO56JAHRU2Y1","<p style=""font-size: 48px;"">+</p>","","","","","null","allTrialResponses","1500","1","8","img_art/13.jpg","6","Rain and ice is forming.","Kristen,Courtney,Lauren,Haley,Sarah,Kathryn","happy, serenity,30,280,20","Debree on top of a calm pond.,18,280,20","I like the color coordination between the foreground and background.,10,340,20","Nothing about this stands out to me,-10,220,20","this is an appealing mix of textures to me and the color scheme is harmonious,36,180,20","Reminds me of depression anxiety, but negativity is dampened by motion. It's trying to release itself through expression.,-10,140,20","Lauren","I like the color coordination between the foreground and background.,10,340,20","Courtney","Debree on top of a calm pond.,18,280,20","Kristen","happy, serenity,30,280,20","2"
"22682","","survey-text","102","1322435","0.0-101.0-0.0","A3GO56JAHRU2Y1","","","","{""Q0"":""I painted on the beach today.""}","","","","","","","","","","","","","","","","","","","","","","",""
"4038.300000000745","","image-slider-response","103","1326475","0.0-102.0","A3GO56JAHRU2Y1","","","","","3","","","","","","","","","","","","","","","","","","","","","",""
"null","","image-button-response","104","1331481","0.0-103.0","A3GO56JAHRU2Y1","img_art/14.jpg","null","","","","","","","","","","","","","","","","","","","","","","","","",""
"1543","","image-button-response","105","1333027","0.0-104.0","A3GO56JAHRU2Y1","img_art/14.jpg","2","","","","","","","","","","","","","","","","","","","","","","","","",""
"6118","","image-button-response","106","1339147","0.0-105.0-0.0","A3GO56JAHRU2Y1","img_art/14.jpg","5","","","","","","","","","","","","","","","","","","","","","","","","",""
"5598","","image-button-response","107","1344748","0.0-106.0-0.0","A3GO56JAHRU2Y1","img_art/14.jpg","3","","","","","","","","","","","","","","","","","","","","","","","","",""
"null","","html-keyboard-response","108","1345750","0.0-107.0","A3GO56JAHRU2Y1","<p style=""font-size: 48px;"">+</p>","","","","","null","allTrialResponses","1000","1","9","img_art/14.jpg","3","I painted on the beach today.","Kristen,Courtney,Lauren,Sara,Crystal,Heather","somewhat stressful, crazy,-3,280,20","The pirates ship is sinking.,27,280,20","I like how balanced the piece is with its symmetrical design.,20,340,20","It uplifts my mood due to the color scheme,32,160,20","It looks like a tree but the bleeding water colors lack borders and makes it hard to appreciate the message.,-41,300,20","nice simple art piece,2,260,20","Lauren","I like how balanced the piece is with its symmetrical design.,20,340,20","Heather","nice simple art piece,2,260,20","Sara","It uplifts my mood due to the color scheme,32,160,20","2"
"21499","","survey-text","109","1367258","0.0-108.0-0.0","A3GO56JAHRU2Y1","","","","{""Q0"":""I see horses on a cave painting.""}","","","","","","","","","","","","","","","","","","","","","","",""
"7389.799999998882","","image-slider-response","110","1374650","0.0-109.0","A3GO56JAHRU2Y1","","","","","-6","","","","","","","","","","","","","","","","","","","","","",""
"null","","image-button-response","111","1379659","0.0-110.0","A3GO56JAHRU2Y1","img_art/7.jpg","null","","","","","","","","","","","","","","","","","","","","","","","","",""
"7500","","image-button-response","112","1387162","0.0-111.0","A3GO56JAHRU2Y1","img_art/7.jpg","2","","","","","","","","","","","","","","","","","","","","","","","","",""
"10318","","image-button-response","113","1397483","0.0-112.0-0.0","A3GO56JAHRU2Y1","img_art/7.jpg","0","","","","","","","","","","","","","","","","","","","","","","","","",""
"7022","","image-button-response","114","1404507","0.0-113.0-0.0","A3GO56JAHRU2Y1","img_art/7.jpg","4","","","","","","","","","","","","","","","","","","","","","","","","",""
"null","","html-keyboard-response","115","1406010","0.0-114.0","A3GO56JAHRU2Y1","<p style=""font-size: 48px;"">+</p>","","","","","null","allTrialResponses","1500","1","10","img_art/7.jpg","-6","I see horses on a cave painting.","Madison,Brianna,Lauren,Sara,Savannah,Heather","Is this a painting, really? Very compelling if so, the texture work is incredible.,15,60,20","Looks plain and dull, sorry.,-31,20,20","I like how the image has a sense of history, since the style looks like it came from stone.,20,340,20","It feels cold and hard,-40,160,20","More saturated color, even more interpretations to have.,44,200,20","i dont like it. it looks like rocks,-40,260,20","Lauren","I like how the image has a sense of history, since the style looks like it came from stone.,20,340,20","Madison","Is this a painting, really? Very compelling if so, the texture work is incredible.,15,60,20","Savannah","More saturated color, even more interpretations to have.,44,200,20","2"
"6600","","survey-text","116","1412626","0.0-115.0-0.0","A3GO56JAHRU2Y1","","","","{""Q0"":""our""}","","","","","","","","","","","","","","","","","","","","","","",""
"17374","","survey-text","117","1430002","0.0-116.0-0.0","A3GO56JAHRU2Y1","","","","{""Q0"":""It was fun shopping today.""}","","","","","","","","","","","","","","","","","","","","","","",""
"3918.0999999996275","","image-slider-response","118","1433922","0.0-117.0","A3GO56JAHRU2Y1","","","","","6","","","","","","","","","","","","","","","","","","","","","",""
"null","","image-button-response","119","1438927","0.0-118.0","A3GO56JAHRU2Y1","img_art/5.jpg","null","","","","","","","","","","","","","","","","","","","","","","","","",""
"4392","","image-button-response","120","1443322","0.0-119.0","A3GO56JAHRU2Y1","img_art/5.jpg","3","","","","","","","","","","","","","","","","","","","","","","","","",""
"6526","","image-button-response","121","1449850","0.0-120.0-0.0","A3GO56JAHRU2Y1","img_art/5.jpg","0","","","","","","","","","","","","","","","","","","","","","","","","",""
"3413","","image-button-response","122","1453266","0.0-121.0-0.0","A3GO56JAHRU2Y1","img_art/5.jpg","2","","","","","","","","","","","","","","","","","","","","","","","","",""
"null","","html-keyboard-response","123","1453774","0.0-122.0","A3GO56JAHRU2Y1","<p style=""font-size: 48px;"">+</p>","","","","","null","allTrialResponses","500","1","11","img_art/5.jpg","6","It was fun shopping today.","Madison,Katie,Lauren,Monica,Savannah,Michelle","Bright and luminous,31,60,20","I don't get it at all. But, maybe it is the top portion of a piece of fruit.,-50,160,20","I like the simplicity of the design, but I can't tell what the image is trying to depict.,10,340,20","I like how simple it is and the pink brushstrokes are nice,27,360,20","Boring and appears low effort,-41,200,20","What is this? It looks like no effort was put into this work,-2,280,20","Monica","I like how simple it is and the pink brushstrokes are nice,27,360,20","Madison","Bright and luminous,31,60,20","Lauren","I like the simplicity of the design, but I can't tell what the image is trying to depict.,10,340,20","2"
"21219","","survey-text","124","1475001","0.0-123.0-0.0","A3GO56JAHRU2Y1","","","","{""Q0"":""I love the autumn foliage.""}","","","","","","","","","","","","","","","","","","","","","","",""
"3622.0999999996275","","image-slider-response","125","1478625","0.0-124.0","A3GO56JAHRU2Y1","","","","","15","","","","","","","","","","","","","","","","","","","","","",""
"null","","image-button-response","126","1483635","0.0-125.0","A3GO56JAHRU2Y1","img_art/27.jpg","null","","","","","","","","","","","","","","","","","","","","","","","","",""
"3852","","image-button-response","127","1487490","0.0-126.0","A3GO56JAHRU2Y1","img_art/27.jpg","4","","","","","","","","","","","","","","","","","","","","","","","","",""
"4221","","image-button-response","128","1491713","0.0-127.0-0.0","A3GO56JAHRU2Y1","img_art/27.jpg","1","","","","","","","","","","","","","","","","","","","","","","","","",""
"9718","","image-button-response","129","1501434","0.0-128.0-0.0","A3GO56JAHRU2Y1","img_art/27.jpg","3","","","","","","","","","","","","","","","","","","","","","","","","",""
"null","","html-keyboard-response","130","1501936","0.0-129.0","A3GO56JAHRU2Y1","<p style=""font-size: 48px;"">+</p>","","","","","null","allTrialResponses","500","1","12","img_art/27.jpg","15","I love the autumn foliage.","Madison,Erica,Lauren,Monica,Victoria,Breanna","The photographing is horribly distracting. I would feel more favorable toward the original colors/ brightness,1,60,20","I like the pictures but it is a lot of going on,10,80,20","Not a fan of the green; gives off the impression that someone else drew on it.,-20,340,20","It tries to remind me of the autumn season but it's grey and looks dirty,-5,360,20","reminds me of fall,33,400,20","Not too impressed with the work,6,380,20","Victoria","reminds me of fall,33,400,20","Erica","I like the pictures but it is a lot of going on,10,80,20","Monica","It tries to remind me of the autumn season but it's grey and looks dirty,-5,360,20","2"
"26694","","survey-text","131","1528640","0.0-130.0-0.0","A3GO56JAHRU2Y1","","","","{""Q0"":""I am dining on a big city street.""}","","","","","","","","","","","","","","","","","","","","","","",""
"5973.5999999996275","","image-slider-response","132","1534616","0.0-131.0","A3GO56JAHRU2Y1","","","","","-15","","","","","","","","","","","","","","","","","","","","","",""
"null","","image-button-response","133","1539633","0.0-132.0","A3GO56JAHRU2Y1","img_art/28.jpg","null","","","","","","","","","","","","","","","","","","","","","","","","",""
"565","","image-button-response","134","1540201","0.0-133.0","A3GO56JAHRU2Y1","img_art/28.jpg","3","","","","","","","","","","","","","","","","","","","","","","","","",""
"6078","","image-button-response","135","1546281","0.0-134.0-0.0","A3GO56JAHRU2Y1","img_art/28.jpg","4","","","","","","","","","","","","","","","","","","","","","","","","",""
"8069","","image-button-response","136","1554353","0.0-135.0-0.0","A3GO56JAHRU2Y1","img_art/28.jpg","2","","","","","","","","","","","","","","","","","","","","","","","","",""
"null","","html-keyboard-response","137","1554860","0.0-136.0","A3GO56JAHRU2Y1","<p style=""font-size: 48px;"">+</p>","","","","","null","allTrialResponses","500","1","13","img_art/28.jpg","-15","I am dining on a big city street.","Elizabeth,Erica,Grace,Monica,Victoria,Melissa","Not really exciting,23,20,20","Nothing calls my attention,15,80,20","A meeting in Old Jerusalem.,11,180,20","The dark colors make it look dirty and the shapes make me uncomfortable,-50,360,20","drab and dreary,-21,400,20","reminds me of kandinsky,14,240,20","Monica","The dark colors make it look dirty and the shapes make me uncomfortable,-50,360,20","Victoria","drab and dreary,-21,400,20","Grace","A meeting in Old Jerusalem.,11,180,20","2"
"20145","","survey-text","138","1575016","0.0-137.0-0.0","A3GO56JAHRU2Y1","","","","{""Q0"":""It must be a shipwreck.""}","","","","","","","","","","","","","","","","","","","","","","",""
"5830.0999999996275","","image-slider-response","139","1580847","0.0-138.0","A3GO56JAHRU2Y1","","","","","-12","","","","","","","","","","","","","","","","","","","","","",""
"null","","image-button-response","140","1585860","0.0-139.0","A3GO56JAHRU2Y1","img_art/18.jpg","null","","","","","","","","","","","","","","","","","","","","","","","","",""
"3097","","image-button-response","141","1588960","0.0-140.0","A3GO56JAHRU2Y1","img_art/18.jpg","4","","","","","","","","","","","","","","","","","","","","","","","","",""
"2765","","image-button-response","142","1591728","0.0-141.0-0.0","A3GO56JAHRU2Y1","img_art/18.jpg","5","","","","","","","","","","","","","","","","","","","","","","","","",""
"8773","","image-button-response","143","1600504","0.0-142.0-0.0","A3GO56JAHRU2Y1","img_art/18.jpg","3","","","","","","","","","","","","","","","","","","","","","","","","",""
"null","","html-keyboard-response","144","1601507","0.0-143.0","A3GO56JAHRU2Y1","<p style=""font-size: 48px;"">+</p>","","","","","null","allTrialResponses","1000","1","14","img_art/18.jpg","-12","It must be a shipwreck.","Jessica,Hannah,Grace,Monica,Victoria,Katelyn","I think this looks pretty cool, I can see what's kind of going on here.,22,400,20","Looks like ghost figures on a boat. It's okay.,7,240,20","First saw sailing ship in bad weather but then saw woman in upper left - not sure what I'm seeing.,21,180,20","It doesn't look like much, the colors are dark and it doesn't really make me feel anything.,-2,360,20","Makes me think of stormy oceans,20,400,20","It reminds me of ghosts on a boat. Makes me nervous.,-27,100,20","Victoria","Makes me think of stormy oceans,20,400,20","Katelyn","It reminds me of ghosts on a boat. Makes me nervous.,-27,100,20","Monica","It doesn't look like much, the colors are dark and it doesn't really make me feel anything.,-2,360,20","2"
"31649","","survey-text","145","1633167","0.0-144.0-0.0","A3GO56JAHRU2Y1","","","","{""Q0"":""It has happy colors in an abstract way.""}","","","","","","","","","","","","","","","","","","","","","","",""
"5150.0999999996275","","image-slider-response","146","1638319","0.0-145.0","A3GO56JAHRU2Y1","","","","","-2","","","","","","","","","","","","","","","","","","","","","",""
"4142","","image-button-response","147","1643328","0.0-146.0","A3GO56JAHRU2Y1","img_art/30.jpg","1","","","","","","","","","","","","","","","","","","","","","","","","",""
"6596","","image-button-response","148","1649928","0.0-147.0","A3GO56JAHRU2Y1","img_art/30.jpg","5","","","","","","","","","","","","","","","","","","","","","","","","",""
"11165","","image-button-response","149","1661095","0.0-148.0-0.0","A3GO56JAHRU2Y1","img_art/30.jpg","2","","","","","","","","","","","","","","","","","","","","","","","","",""
"4893","","image-button-response","150","1665991","0.0-149.0-0.0","A3GO56JAHRU2Y1","img_art/30.jpg","3","","","","","","","","","","","","","","","","","","","","","","","","",""
"null","","html-keyboard-response","151","1666503","0.0-150.0","A3GO56JAHRU2Y1","<p style=""font-size: 48px;"">+</p>","","","","","null","allTrialResponses","500","1","15","img_art/30.jpg","-2","It has happy colors in an abstract way.","Kaitlyn,Lindsey,Kaitlin,Monica,Victoria,Katelyn","Do not like the streaks,-14,80,20","Interesting. Not sure what I'm seeing but it makes me want to figure it out.,5,400,20","the different roads to take in life,10,60,20","It looked like a random scribble but I can see a person's face in it now and I think it's clever,13,360,20","to dark and dreary,-28,400,20","I do like the multi-dimensional aspect of this piece,10,100,20","Katelyn","I do like the multi-dimensional aspect of this piece,10,100,20","Kaitlin","the different roads to take in life,10,60,20","Monica","It looked like a random scribble but I can see a person's face in it now and I think it's clever,13,360,20","2"
"6452","","survey-text","152","1672975","0.0-151.0-0.0","A3GO56JAHRU2Y1","","","","{""Q0"":""course""}","","","","","","","","","","","","","","","","","","","","","","",""
"28533","","survey-text","153","1701510","0.0-152.0-0.0","A3GO56JAHRU2Y1","","","","{""Q0"":""It has blocks and a circle of happy colors.""}","","","","","","","","","","","","","","","","","","","","","","",""
"2886.5999999996275","","image-slider-response","154","1704398","0.0-153.0","A3GO56JAHRU2Y1","","","","","12","","","","","","","","","","","","","","","","","","","","","",""
"null","","image-button-response","155","1709401","0.0-154.0","A3GO56JAHRU2Y1","img_art/22.jpg","null","","","","","","","","","","","","","","","","","","","","","","","","",""
"122","","image-button-response","156","1709526","0.0-155.0","A3GO56JAHRU2Y1","img_art/22.jpg","2","","","","","","","","","","","","","","","","","","","","","","","","",""
"5399","","image-button-response","157","1714927","0.0-156.0-0.0","A3GO56JAHRU2Y1","img_art/22.jpg","3","","","","","","","","","","","","","","","","","","","","","","","","",""
"3309","","image-button-response","158","1718238","0.0-157.0-0.0","A3GO56JAHRU2Y1","img_art/22.jpg","4","","","","","","","","","","","","","","","","","","","","","","","","",""
"null","","html-keyboard-response","159","1719749","0.0-158.0","A3GO56JAHRU2Y1","<p style=""font-size: 48px;"">+</p>","","","","","null","allTrialResponses","1500","1","16","img_art/22.jpg","12","It has blocks and a circle of happy colors.","Cassandra,Jasmine,Kaitlin,Monica,Mackenzie,Katelyn","Don't like it...too much red,-17,120,20","I appreciate the artistic effort but it's not for me,0,340,20","This represents the hopes in my life.,21,60,20","I really like the bright colors and sunset feel,31,360,20","Different shapes within the image make it interesting to look at,20,20,20","I usually dont like blurry pieces but the colors are amazing in this,14,100,20","Kaitlin","This represents the hopes in my life.,21,60,20","Monica","I really like the bright colors and sunset feel,31,360,20","Mackenzie","Different shapes within the image make it interesting to look at,20,20,20","2"
"35934","","survey-text","160","1755693","0.0-159.0-0.0","A3GO56JAHRU2Y1","","","","{""Q0"":""It is a preschooler's scribbles with a red crayon.""}","","","","","","","","","","","","","","","","","","","","","","",""
"4006","","image-slider-response","161","1759701","0.0-160.0","A3GO56JAHRU2Y1","","","","","-22","","","","","","","","","","","","","","","","","","","","","",""
"2662","","image-button-response","162","1764719","0.0-161.0","A3GO56JAHRU2Y1","img_art/3.jpg","0","","","","","","","","","","","","","","","","","","","","","","","","",""
"2339","","image-button-response","163","1767061","0.0-162.0","A3GO56JAHRU2Y1","img_art/3.jpg","0","","","","","","","","","","","","","","","","","","","","","","","","",""
"3702","","image-button-response","164","1770765","0.0-163.0-0.0","A3GO56JAHRU2Y1","img_art/3.jpg","1","","","","","","","","","","","","","","","","","","","","","","","","",""
"3086","","image-button-response","165","1773854","0.0-164.0-0.0","A3GO56JAHRU2Y1","img_art/3.jpg","3","","","","","","","","","","","","","","","","","","","","","","","","",""
"null","","html-keyboard-response","166","1774356","0.0-165.0","A3GO56JAHRU2Y1","<p style=""font-size: 48px;"">+</p>","","","","","null","allTrialResponses","500","1","17","img_art/3.jpg","-22","It is a preschooler's scribbles with a red crayon.","Stephanie,Danielle,Kaitlin,Monica,Mackenzie,Hailey","I think of an angry child,-50,300,20","Looks like it was painted with blood, which I'm aware is an art style, but it just looks messy.,-20,340,20","good choice of color,12,60,20","It looks like random scribbles by a child and not appealing,-38,360,20","I like the simplicity of it.,20,20,20","painted by a 2 year old. cold and boring,-30,200,20","Stephanie","I think of an angry child,-50,300,20","Danielle","Looks like it was painted with blood, which I'm aware is an art style, but it just looks messy.,-20,340,20","Monica","It looks like random scribbles by a child and not appealing,-38,360,20","2"
"22694","","survey-text","167","1797061","0.0-166.0-0.0","A3GO56JAHRU2Y1","","","","{""Q0"":""An ancient city is being observed.""}","","","","","","","","","","","","","","","","","","","","","","",""
"5414.0999999996275","","image-slider-response","168","1802477","0.0-167.0","A3GO56JAHRU2Y1","","","","","-7","","","","","","","","","","","","","","","","","","","","","",""
"null","","image-button-response","169","1807487","0.0-168.0","A3GO56JAHRU2Y1","img_art/8.jpg","null","","","","","","","","","","","","","","","","","","","","","","","","",""
"9082","","image-button-response","170","1816573","0.0-169.0","A3GO56JAHRU2Y1","img_art/8.jpg","0","","","","","","","","","","","","","","","","","","","","","","","","",""
"3175","","image-button-response","171","1819750","0.0-170.0-0.0","A3GO56JAHRU2Y1","img_art/8.jpg","3","","","","","","","","","","","","","","","","","","","","","","","","",""
"14277","","image-button-response","172","1834029","0.0-171.0-0.0","A3GO56JAHRU2Y1","img_art/8.jpg","4","","","","","","","","","","","","","","","","","","","","","","","","",""
"null","","html-keyboard-response","173","1835044","0.0-172.0","A3GO56JAHRU2Y1","<p style=""font-size: 48px;"">+</p>","","","","","null","allTrialResponses","1000","1","18","img_art/8.jpg","-7","An ancient city is being observed.","Stephanie,Danielle,Natalie,Monica,Laura,Mary","I like the colors and geometrical shapes but the face in the sky makes it look scary,-10,300,20","Enjoy this, it looks like a rushing water pool, surrounded by mountains and buildings, hiding details such as faces.,30,340,20","looks nice, like the details,25,400,20","The faces in the upper left show agony and contrast with the geometric shapes too much,-31,360,20","chaotic and disassembled,-8,320,20","Very inspiring piece. I love how it's at angle. It gives it character.,23,180,20","Stephanie","I like the colors and geometrical shapes but the face in the sky makes it look scary,-10,300,20","Monica","The faces in the upper left show agony and contrast with the geometric shapes too much,-31,360,20","Laura","chaotic and disassembled,-8,320,20","2"
"17429","","survey-text","174","1852484","0.0-173.0-0.0","A3GO56JAHRU2Y1","","","","{""Q0"":""It is a forest top in autumn.""}","","","","","","","","","","","","","","","","","","","","","","",""
"3230.199999999255","","image-slider-response","175","1855716","0.0-174.0","A3GO56JAHRU2Y1","","","","","13","","","","","","","","","","","","","","","","","","","","","",""
"null","","image-button-response","176","1860726","0.0-175.0","A3GO56JAHRU2Y1","img_art/1.jpg","null","","","","","","","","","","","","","","","","","","","","","","","","",""
"5300","","image-button-response","177","1866028","0.0-176.0","A3GO56JAHRU2Y1","img_art/1.jpg","0","","","","","","","","","","","","","","","","","","","","","","","","",""
"6286","","image-button-response","178","1872317","0.0-177.0-0.0","A3GO56JAHRU2Y1","img_art/1.jpg","1","","","","","","","","","","","","","","","","","","","","","","","","",""
"10678","","image-button-response","179","1882997","0.0-178.0-0.0","A3GO56JAHRU2Y1","img_art/1.jpg","2","","","","","","","","","","","","","","","","","","","","","","","","",""
"null","","html-keyboard-response","180","1883503","0.0-179.0","A3GO56JAHRU2Y1","<p style=""font-size: 48px;"">+</p>","","","","","null","allTrialResponses","500","1","19","img_art/1.jpg","13","It is a forest top in autumn.","Stephanie,Chloe,Erin,Monica,Laura,Anna","Pretty colors. Fall day in the East Coast of USA.,42,300,20","Powerful colors.,31,220,20","Love the coloration and abstract figures,18,120,20","I like the yellow and purple but the large red spot reminds me of blood and isn't great,6,360,20","soft and touchable, muddled,15,320,20","The colors are nice but that's all it is,21,300,20","Stephanie","Pretty colors. Fall day in the East Coast of USA.,42,300,20","Chloe","Powerful colors.,31,220,20","Erin","Love the coloration and abstract figures,18,120,20","2"
"17082","","survey-text","181","1900596","0.0-180.0-0.0","A3GO56JAHRU2Y1","","","","{""Q0"":""It is a cold, snowy day in the city.""}","","","","","","","","","","","","","","","","","","","","","","",""
"3198","","image-slider-response","182","1903796","0.0-181.0","A3GO56JAHRU2Y1","","","","","6","","","","","","","","","","","","","","","","","","","","","",""
"null","","image-button-response","183","1908813","0.0-182.0","A3GO56JAHRU2Y1","img_art/26.jpg","null","","","","","","","","","","","","","","","","","","","","","","","","",""
"10197","","image-button-response","184","1919012","0.0-183.0","A3GO56JAHRU2Y1","img_art/26.jpg","0","","","","","","","","","","","","","","","","","","","","","","","","",""
"6886","","image-button-response","185","1925900","0.0-184.0-0.0","A3GO56JAHRU2Y1","img_art/26.jpg","2","","","","","","","","","","","","","","","","","","","","","","","","",""
"1501","","image-button-response","186","1927404","0.0-185.0-0.0","A3GO56JAHRU2Y1","img_art/26.jpg","5","","","","","","","","","","","","","","","","","","","","","","","","",""
"null","","html-keyboard-response","187","1928412","0.0-186.0","A3GO56JAHRU2Y1","<p style=""font-size: 48px;"">+</p>","","","","","null","allTrialResponses","1000","1","20","img_art/26.jpg","6","It is a cold, snowy day in the city.","Stephanie,Chloe,Erin,Sierra,Alexandra,Amanda","Day just begun in the city and the stores are opening their doors.,41,300,20","Not great use of space and brush strokes seem indistinct/accidental,-30,220,20","City scene in a park,23,120,20","soothing and subtle,1,260,20","I like the colors but it is still a little boring,22,60,20","Pleasant to look at,28,180,20","Stephanie","Day just begun in the city and the stores are opening their doors.,41,300,20","Erin","City scene in a park,23,120,20","Amanda","Pleasant to look at,28,180,20","2"
"5356","","survey-text","188","1933787","0.0-187.0-0.0","A3GO56JAHRU2Y1","","","","{""Q0"":""we""}","","","","","","","","","","","","","","","","","","","","","","",""
"22485","","survey-text","189","1956275","0.0-188.0-0.0","A3GO56JAHRU2Y1","","","","{""Q0"":""It is a town near a river.""}","","","","","","","","","","","","","","","","","","","","","","",""
"4494.299999998882","","image-slider-response","190","1960771","0.0-189.0","A3GO56JAHRU2Y1","","","","","-3","","","","","","","","","","","","","","","","","","","","","",""
"null","","image-button-response","191","1965784","0.0-190.0","A3GO56JAHRU2Y1","img_art/20.jpg","null","","","","","","","","","","","","","","","","","","","","","","","","",""
"16000","","image-button-response","192","1981786","0.0-191.0","A3GO56JAHRU2Y1","img_art/20.jpg","1","","","","","","","","","","","","","","","","","","","","","","","","",""
"4486","","image-button-response","193","1986275","0.0-192.0-0.0","A3GO56JAHRU2Y1","img_art/20.jpg","2","","","","","","","","","","","","","","","","","","","","","","","","",""
"5598","","image-button-response","194","1991874","0.0-193.0-0.0","A3GO56JAHRU2Y1","img_art/20.jpg","0","","","","","","","","","","","","","","","","","","","","","","","","",""
"null","","html-keyboard-response","195","1992389","0.0-194.0","A3GO56JAHRU2Y1","<p style=""font-size: 48px;"">+</p>","","","","","null","allTrialResponses","500","1","21","img_art/20.jpg","-3","It is a town near a river.","Stephanie,Brittany,Erin,Mariah,Nicole,Amanda","Looks like an old gold mining down now deserted.,11,300,20","The colors and the scene depicted is interesting.,13,40,20","Dark frame overpowers the image,-6,120,20","It feels like it ""almost"" several things.,-10,140,20","This one feels scary in a bad way,-30,20,20","Too negative looks like a car and plane crash,-50,180,20","Brittany","The colors and the scene depicted is interesting.,13,40,20","Erin","Dark frame overpowers the image,-6,120,20","Stephanie","Looks like an old gold mining down now deserted.,11,300,20","2"
"21401","","survey-text","196","2013802","0.0-195.0-0.0","A3GO56JAHRU2Y1","","","","{""Q0"":""The crow perched atop a fence.""}","","","","","","","","","","","","","","","","","","","","","","",""
"3894.300000000745","","image-slider-response","197","2017698","0.0-196.0","A3GO56JAHRU2Y1","","","","","2","","","","","","","","","","","","","","","","","","","","","",""
"null","","image-button-response","198","2022701","0.0-197.0","A3GO56JAHRU2Y1","img_art/6.jpg","null","","","","","","","","","","","","","","","","","","","","","","","","",""
"8515","","image-button-response","199","2031218","0.0-198.0","A3GO56JAHRU2Y1","img_art/6.jpg","2","","","","","","","","","","","","","","","","","","","","","","","","",""
"7077","","image-button-response","200","2038298","0.0-199.0-0.0","A3GO56JAHRU2Y1","img_art/6.jpg","4","","","","","","","","","","","","","","","","","","","","","","","","",""
"1941","","image-button-response","201","2040242","0.0-200.0-0.0","A3GO56JAHRU2Y1","img_art/6.jpg","0","","","","","","","","","","","","","","","","","","","","","","","","",""
"null","","html-keyboard-response","202","2041753","0.0-201.0","A3GO56JAHRU2Y1","<p style=""font-size: 48px;"">+</p>","","","","","null","allTrialResponses","1500","1","22","img_art/6.jpg","2","The crow perched atop a fence.","Stephanie,Brittany,Erin,Caitlin,Meghan,Alexa","Nevermore!  A black raven sitting on a pumpkin. Halloween,-35,300,20","It's alright. I imagined the peach from James and the Giant Peach.,1,40,20","Blackbird in the desert,27,120,20","A crow on one leg?,-10,80,20","reminds me of a bird,31,220,20","Too basic for me,-20,40,20","Erin","Blackbird in the desert,27,120,20","Meghan","reminds me of a bird,31,220,20","Stephanie","Nevermore!  A black raven sitting on a pumpkin. Halloween,-35,300,20","2"
"24909","","survey-text","203","2066673","0.0-202.0-0.0","A3GO56JAHRU2Y1","","","","{""Q0"":""It is dancing among the autumn leaves.""}","","","","","","","","","","","","","","","","","","","","","","",""
"7430","","image-slider-response","204","2074105","0.0-203.0","A3GO56JAHRU2Y1","","","","","10","","","","","","","","","","","","","","","","","","","","","",""
"null","","image-button-response","205","2079112","0.0-204.0","A3GO56JAHRU2Y1","img_art/23.jpg","null","","","","","","","","","","","","","","","","","","","","","","","","",""
"6223","","image-button-response","206","2085338","0.0-205.0","A3GO56JAHRU2Y1","img_art/23.jpg","3","","","","","","","","","","","","","","","","","","","","","","","","",""
"2532","","image-button-response","207","2087873","0.0-206.0-0.0","A3GO56JAHRU2Y1","img_art/23.jpg","4","","","","","","","","","","","","","","","","","","","","","","","","",""
"6526","","image-button-response","208","2094402","0.0-207.0-0.0","A3GO56JAHRU2Y1","img_art/23.jpg","2","","","","","","","","","","","","","","","","","","","","","","","","",""
"null","","html-keyboard-response","209","2095906","0.0-208.0","A3GO56JAHRU2Y1","<p style=""font-size: 48px;"">+</p>","","","","","null","allTrialResponses","1500","1","23","img_art/23.jpg","10","It is dancing among the autumn leaves.","Stephanie,Kayla,Erin,Briana,Meghan,Jordan","This makes me think of an orchestra playing a forth of july song,12,300,20","Like a wound that has been sutured. Pain, but also healing.,5,180,20","Confetti dancer,-7,120,20","White in the middle look like people dancing naked,19,400,20","reminds me of an album cover,36,220,20","NO, I don't get it,-50,20,20","Briana","White in the middle look like people dancing naked,19,400,20","Meghan","reminds me of an album cover,36,220,20","Erin","Confetti dancer,-7,120,20","2"
"26378","","survey-text","210","2122297","0.0-209.0-0.0","A3GO56JAHRU2Y1","","","","{""Q0"":""X marks the spot not to shoot.""}","","","","","","","","","","","","","","","","","","","","","","",""
"3085.9000000003725","","image-slider-response","211","2125385","0.0-210.0","A3GO56JAHRU2Y1","","","","","-12","","","","","","","","","","","","","","","","","","","","","",""
"null","","image-button-response","212","2130387","0.0-211.0","A3GO56JAHRU2Y1","img_art/29.jpg","null","","","","","","","","","","","","","","","","","","","","","","","","",""
"18442","","image-button-response","213","2148833","0.0-212.0","A3GO56JAHRU2Y1","img_art/29.jpg","2","","","","","","","","","","","","","","","","","","","","","","","","",""
"5021","","image-button-response","214","2153856","0.0-213.0-0.0","A3GO56JAHRU2Y1","img_art/29.jpg","0","","","","","","","","","","","","","","","","","","","","","","","","",""
"8006","","image-button-response","215","2161865","0.0-214.0-0.0","A3GO56JAHRU2Y1","img_art/29.jpg","5","","","","","","","","","","","","","","","","","","","","","","","","",""
"null","","html-keyboard-response","216","2162378","0.0-215.0","A3GO56JAHRU2Y1","<p style=""font-size: 48px;"">+</p>","","","","","null","allTrialResponses","500","1","24","img_art/29.jpg","-12","X marks the spot not to shoot.","Katherine,Alexandria,Erin,Briana,Meghan,Alexis","I think the grey and red inspire negative feelings but it's not the worst thing.,13,120,20","it is difficult to look at but you can't look away,-25,80,20","Red X is scary, like the bricks,7,120,20","Looks like someone trying to make something they dont understand,-36,400,20","feels random and not thoughtout,-37,220,20","The black color is great, but I'm really not a fan of this hectic style,-40,100,20","Erin","Red X is scary, like the bricks,7,120,20","Katherine","I think the grey and red inspire negative feelings but it's not the worst thing.,13,120,20","Alexis","The black color is great, but I'm really not a fan of this hectic style,-40,100,20","2"
"28919","","survey-text","217","2191312","0.0-216.0-0.0","A3GO56JAHRU2Y1","","","","{""Q0"":""The trees die and lose their branches.""}","","","","","","","","","","","","","","","","","","","","","","",""
"3238.300000000745","","image-slider-response","218","2194552","0.0-217.0","A3GO56JAHRU2Y1","","","","","-10","","","","","","","","","","","","","","","","","","","","","",""
"null","","image-button-response","219","2199554","0.0-218.0","A3GO56JAHRU2Y1","img_art/15.jpg","null","","","","","","","","","","","","","","","","","","","","","","","","",""
"5555","","image-button-response","220","2205113","0.0-219.0","A3GO56JAHRU2Y1","img_art/15.jpg","4","","","","","","","","","","","","","","","","","","","","","","","","",""
"5077","","image-button-response","221","2210192","0.0-220.0-0.0","A3GO56JAHRU2Y1","img_art/15.jpg","5","","","","","","","","","","","","","","","","","","","","","","","","",""
"7213","","image-button-response","222","2217408","0.0-221.0-0.0","A3GO56JAHRU2Y1","img_art/15.jpg","0","","","","","","","","","","","","","","","","","","","","","","","","",""
"null","","html-keyboard-response","223","2217914","0.0-222.0","A3GO56JAHRU2Y1","<p style=""font-size: 48px;"">+</p>","","","","","null","allTrialResponses","500","1","25","img_art/15.jpg","-10","The trees die and lose their branches.","Katherine,Megan,Erin,Caroline,Angela,Alexis","black dots too ant-like,-25,120,20","Dark, drab asymmetrical floral piece,-26,200,20","Neat to explore meaning, blue is interesting,11,120,20","Makes me think of a bush and flowers and spring and happy warm times,25,100,20","Interesting, but don't really like it. Gloomy.,-10,260,20","Not a fan of abstract, but the black is very striking,10,100,20","Angela","Interesting, but don't really like it. Gloomy.,-10,260,20","Alexis","Not a fan of abstract, but the black is very striking,10,100,20","Katherine","black dots too ant-like,-25,120,20","2"
"6340","","survey-text","224","2224279","0.0-223.0-0.0","A3GO56JAHRU2Y1","","","","{""Q0"":""table""}","","","","","","","","","","","","","","","","","","","","","","",""
"21095","","survey-text","225","2245375","0.0-224.0-0.0","A3GO56JAHRU2Y1","","","","{""Q0"":""It is a foggy morning on the mountaintop. ""}","","","","","","","","","","","","","","","","","","","","","","",""
"3750","","image-slider-response","226","2249127","0.0-225.0","A3GO56JAHRU2Y1","","","","","5","","","","","","","","","","","","","","","","","","","","","",""
"null","","image-button-response","227","2254131","0.0-226.0","A3GO56JAHRU2Y1","img_art/21.jpg","null","","","","","","","","","","","","","","","","","","","","","","","","",""
"4602","","image-button-response","228","2258736","0.0-227.0","A3GO56JAHRU2Y1","img_art/21.jpg","3","","","","","","","","","","","","","","","","","","","","","","","","",""
"13749","","image-button-response","229","2272487","0.0-228.0-0.0","A3GO56JAHRU2Y1","img_art/21.jpg","0","","","","","","","","","","","","","","","","","","","","","","","","",""
"4541","","image-button-response","230","2277032","0.0-229.0-0.0","A3GO56JAHRU2Y1","img_art/21.jpg","5","","","","","","","","","","","","","","","","","","","","","","","","",""
"null","","html-keyboard-response","231","2278542","0.0-230.0","A3GO56JAHRU2Y1","<p style=""font-size: 48px;"">+</p>","","","","","null","allTrialResponses","1500","1","26","img_art/21.jpg","5","It is a foggy morning on the mountaintop. ","Katherine,Bailey,Emily,Amy,Angela,Alexis","I can't explain why this struck me as absolutely gorgeous. Like the clashing between 2 different worlds,43,120,20","Looks like two ships on fire. Cool image.,12,360,20","What's the point?,-30,40,20","A landscape that leaves me inspired and hopeful.,20,220,20","I feel like I'm looking at two different paintings mashed together in the middle.,20,260,20","I love this. Reminds me of a coast. The colors flow beautifully,40,100,20","Amy","A landscape that leaves me inspired and hopeful.,20,220,20","Katherine","I can't explain why this struck me as absolutely gorgeous. Like the clashing between 2 different worlds,43,120,20","Alexis","I love this. Reminds me of a coast. The colors flow beautifully,40,100,20","2"
"25778","","survey-text","232","2304334","0.0-231.0-0.0","A3GO56JAHRU2Y1","","","","{""Q0"":""It is a tunnel with trees overhead.""}","","","","","","","","","","","","","","","","","","","","","","",""
"4134.0999999996275","","image-slider-response","233","2308470","0.0-232.0","A3GO56JAHRU2Y1","","","","","-4","","","","","","","","","","","","","","","","","","","","","",""
"null","","image-button-response","234","2313488","0.0-233.0","A3GO56JAHRU2Y1","img_art/17.jpg","null","","","","","","","","","","","","","","","","","","","","","","","","",""
"11195","","image-button-response","235","2324686","0.0-234.0","A3GO56JAHRU2Y1","img_art/17.jpg","4","","","","","","","","","","","","","","","","","","","","","","","","",""
"2390","","image-button-response","236","2327079","0.0-235.0-0.0","A3GO56JAHRU2Y1","img_art/17.jpg","3","","","","","","","","","","","","","","","","","","","","","","","","",""
"5629","","image-button-response","237","2332710","0.0-236.0-0.0","A3GO56JAHRU2Y1","img_art/17.jpg","2","","","","","","","","","","","","","","","","","","","","","","","","",""
"null","","html-keyboard-response","238","2334214","0.0-237.0","A3GO56JAHRU2Y1","<p style=""font-size: 48px;"">+</p>","","","","","null","allTrialResponses","1500","1","27","img_art/17.jpg","-4","It is a tunnel with trees overhead.","Katherine,Jacqueline,Jamie,Amy,Shannon,Alexis","Looks like a weird blurry heaven again! I dig,32,120,20","It's okay, I just don't see much too it.,7,300,20","Looks like some fantasy tree. Nice,30,320,20","peaceful. contemplative. balanced. old,10,220,20","I like the way the colors were used behind the tree. Makes the image colorful and interesting.,30,220,20","Love the color and nature motif,36,100,20","Shannon","I like the way the colors were used behind the tree. Makes the image colorful and interesting.,30,220,20","Amy","peaceful. contemplative. balanced. old,10,220,20","Jamie","Looks like some fantasy tree. Nice,30,320,20","2"
"28913","","survey-text","239","2363141","0.0-238.0-0.0","A3GO56JAHRU2Y1","","","","{""Q0"":""The waterfall cascades down the mountain.""}","","","","","","","","","","","","","","","","","","","","","","",""
"4726","","image-slider-response","240","2367869","0.0-239.0","A3GO56JAHRU2Y1","","","","","20","","","","","","","","","","","","","","","","","","","","","",""
"null","","image-button-response","241","2372887","0.0-240.0","A3GO56JAHRU2Y1","img_art/24.jpg","null","","","","","","","","","","","","","","","","","","","","","","","","",""
"1332","","image-button-response","242","2374222","0.0-241.0","A3GO56JAHRU2Y1","img_art/24.jpg","4","","","","","","","","","","","","","","","","","","","","","","","","",""
"4550","","image-button-response","243","2378774","0.0-242.0-0.0","A3GO56JAHRU2Y1","img_art/24.jpg","0","","","","","","","","","","","","","","","","","","","","","","","","",""
"2782","","image-button-response","244","2381558","0.0-243.0-0.0","A3GO56JAHRU2Y1","img_art/24.jpg","2","","","","","","","","","","","","","","","","","","","","","","","","",""
"null","","html-keyboard-response","245","2382575","0.0-244.0","A3GO56JAHRU2Y1","<p style=""font-size: 48px;"">+</p>","","","","","null","allTrialResponses","1000","1","28","img_art/24.jpg","20","The waterfall cascades down the mountain.","Dominique,Cassidy,Jamie,Amy,Shannon,Autumn","Spending a day in nature,21,400,20","I don't even know. It's just kind of meh,1,140,20","Beautiful waterfall with nice colors,40,320,20","The contorted angles of the flowing water upset the harmony,-20,220,20","I like the way the colors are put together, and I can imagine this picture in real life.,40,220,20","Very cute amateur piece.,18,340,20","Shannon","I like the way the colors are put together, and I can imagine this picture in real life.,40,220,20","Dominique","Spending a day in nature,21,400,20","Jamie","Beautiful waterfall with nice colors,40,320,20","2"
"21176","","survey-text","246","2403765","0.0-245.0-0.0","A3GO56JAHRU2Y1","","","","{""Q0"":""I see bridges in a big city.""}","","","","","","","","","","","","","","","","","","","","","","",""
"6238.300000000745","","image-slider-response","247","2410005","0.0-246.0","A3GO56JAHRU2Y1","","","","","-9","","","","","","","","","","","","","","","","","","","","","",""
"3543","","image-button-response","248","2415022","0.0-247.0","A3GO56JAHRU2Y1","img_art/11.jpg","3","","","","","","","","","","","","","","","","","","","","","","","","",""
"1091","","image-button-response","249","2416117","0.0-248.0","A3GO56JAHRU2Y1","img_art/11.jpg","3","","","","","","","","","","","","","","","","","","","","","","","","",""
"4078","","image-button-response","250","2420198","0.0-249.0-0.0","A3GO56JAHRU2Y1","img_art/11.jpg","4","","","","","","","","","","","","","","","","","","","","","","","","",""
"10893","","image-button-response","251","2431094","0.0-250.0-0.0","A3GO56JAHRU2Y1","img_art/11.jpg","5","","","","","","","","","","","","","","","","","","","","","","","","",""
"null","","html-keyboard-response","252","2432106","0.0-251.0","A3GO56JAHRU2Y1","<p style=""font-size: 48px;"">+</p>","","","","","null","allTrialResponses","1000","1","29","img_art/11.jpg","-9","I see bridges in a big city.","Dominique,Mikayla,Jamie,Makayla,Shannon,Catherine","Looks like a familiar area,31,400,20","Scary again. Not a fan.,-23,300,20","Looks like a cityscape,25,320,20","Smoggy, oily, industrial. Don't like,1,80,20","This looks like a bridge that has plenty of color.,10,220,20","Busy city life. transportation, anxiety.,10,160,20","Makayla","Smoggy, oily, industrial. Don't like,1,80,20","Shannon","This looks like a bridge that has plenty of color.,10,220,20","Catherine","Busy city life. transportation, anxiety.,10,160,20","2"
"26516","","survey-text","253","2458636","0.0-252.0-0.0","A3GO56JAHRU2Y1","","","","{""Q0"":""I see blocks of people and cities.""}","","","","","","","","","","","","","","","","","","","","","","",""
"3718","","image-slider-response","254","2462356","0.0-253.0","A3GO56JAHRU2Y1","","","","","-5","","","","","","","","","","","","","","","","","","","","","",""
"null","","image-button-response","255","2467374","0.0-254.0","A3GO56JAHRU2Y1","img_art/12.jpg","null","","","","","","","","","","","","","","","","","","","","","","","","",""
"3796","","image-button-response","256","2471173","0.0-255.0","A3GO56JAHRU2Y1","img_art/12.jpg","5","","","","","","","","","","","","","","","","","","","","","","","","",""
"2077","","image-button-response","257","2473253","0.0-256.0-0.0","A3GO56JAHRU2Y1","img_art/12.jpg","3","","","","","","","","","","","","","","","","","","","","","","","","",""
"9221","","image-button-response","258","2482477","0.0-257.0-0.0","A3GO56JAHRU2Y1","img_art/12.jpg","0","","","","","","","","","","","","","","","","","","","","","","","","",""
"null","","html-keyboard-response","259","2482990","0.0-258.0","A3GO56JAHRU2Y1","<p style=""font-size: 48px;"">+</p>","","","","","null","allTrialResponses","500","1","30","img_art/12.jpg","-5","I see blocks of people and cities.","Olivia,Tiffany,Samantha,Makayla,Shannon,Catherine","feels cluttered,-11,40,20","The painting makes me uncomfortable. The smears in the boxes feel like a giant mess.,-16,360,20","It is interesting but seems like some cheap painting from like walmart,24,140,20","Reminds me Early 2000's decor, don't favor it,-10,80,20","This image doesn't have anything going on. The top half is really ugly, I kind of like the bottom a little.,-20,220,20","confused. stages of a persons life from beginning positive to ending negative.,-10,160,20","Catherine","confused. stages of a persons life from beginning positive to ending negative.,-10,160,20","Makayla","Reminds me Early 2000's decor, don't favor it,-10,80,20","Olivia","feels cluttered,-11,40,20","2"
"10512","","image-button-response_instructions","260","2493516","0.0-259.0","A3GO56JAHRU2Y1","","0","instructions","","","","","","","","","","","","","","","","","","","","","","","",""
"2146","","image-button-response","261","2495668","0.0-260.0","A3GO56JAHRU2Y1","","0","","","","","","","","","","","","","","","","","","","","","","","","",""
