"rt","url","trial_type","trial_index","time_elapsed","internal_node_id","participant_id","stimulus","button_pressed","Name","responses","response","key_press","variableName","fixationTime","condition","trial","photo","subjectRating","subjectResponse","agentsNames","agent_1_Response","agent_2_Response","agent_3_Response","agent_4_Response","agent_5_Response","agent_6_Response","kept_1_name","kept_1_response","kept_2_name","kept_2_response","kept_3_name","kept_3_response","errorCounter"
"5467","external_page_harvard.html","external-html","0","5474","0.0-0.0","A3I2PT6W0FP7BR","","","","","","","","","","","","","","","","","","","","","","","","","","",""
"1721","","image-button-response","1","7197","0.0-1.0","A3I2PT6W0FP7BR","","0","","","","","","","","","","","","","","","","","","","","","","","","",""
"2257","","image-button-response","2","9461","0.0-2.0-0.0","A3I2PT6W0FP7BR","","1","phone","","","","","","","","","","","","","","","","","","","","","","","",""
"4640","","survey-text","3","14104","0.0-3.0-0.0","A3I2PT6W0FP7BR","","","","{""Q0"":""A3I2PT6W0FP7BR""}","","","","","","","","","","","","","","","","","","","","","","",""
"7648","","image-button-response_instructions","4","21757","0.0-4.0","A3I2PT6W0FP7BR","","0","instructions","","","","","","","","","","","","","","","","","","","","","","","",""
"21249","","image-button-response_instructions","5","43009","0.0-5.0","A3I2PT6W0FP7BR","img_art/ins/popularity/ins1.png","0","instructions","","","","","","","","","","","","","","","","","","","","","","","",""
"8220","","image-button-response_instructions","6","51231","0.0-6.0","A3I2PT6W0FP7BR","img_art/ins/popularity/ins2.png","0","instructions","","","","","","","","","","","","","","","","","","","","","","","",""
"7986","","image-button-response_instructions","7","59221","0.0-7.0","A3I2PT6W0FP7BR","img_art/ins/popularity/ins2Extreme.png","0","instructions","","","","","","","","","","","","","","","","","","","","","","","",""
"11228","","image-button-response_instructions","8","70452","0.0-8.0","A3I2PT6W0FP7BR","img_art/ins/popularity/ins3KEEPpop.PNG","0","instructions","","","","","","","","","","","","","","","","","","","","","","","",""
"8819","","image-button-response_instructions","9","79274","0.0-9.0","A3I2PT6W0FP7BR","img_art/ins/popularity/ins3ANamepop.PNG","0","instructions","","","","","","","","","","","","","","","","","","","","","","","",""
"6176","","image-button-response_instructions","10","85453","0.0-10.0","A3I2PT6W0FP7BR","img_art/ins/popularity/ins3ARatingpop.png","0","instructions","","","","","","","","","","","","","","","","","","","","","","","",""
"3630","","image-button-response_instructions","11","89087","0.0-11.0","A3I2PT6W0FP7BR","img_art/ins/popularity/ins3ATextpop.png","0","instructions","","","","","","","","","","","","","","","","","","","","","","","",""
"6450","","image-button-response_instructions","12","95539","0.0-12.0","A3I2PT6W0FP7BR","img_art/ins/popularity/ins3ALikespop.png","0","instructions","","","","","","","","","","","","","","","","","","","","","","","",""
"19755","","image-button-response_instructions","13","115297","0.0-13.0","A3I2PT6W0FP7BR","img_art/ins/popularity/ins3KEEPpop.PNG","0","instructions","","","","","","","","","","","","","","","","","","","","","","","",""
"9095","","image-button-response_instructions","14","124394","0.0-14.0","A3I2PT6W0FP7BR","img_art/ins/popularity/ins3_5RED.png","0","instructions","","","","","","","","","","","","","","","","","","","","","","","",""
"8162","","image-button-response_instructions","15","132557","0.0-15.0","A3I2PT6W0FP7BR","img_art/ins/popularity/ins3KEEPpop.PNG","0","instructions","","","","","","","","","","","","","","","","","","","","","","","",""
"12275","","image-button-response_instructions","16","144833","0.0-16.0","A3I2PT6W0FP7BR","img_art/ins/popularity/ins4KEEPpop.PNG","0","instructions","","","","","","","","","","","","","","","","","","","","","","","",""
"6949","","image-button-response_instructions","17","151784","0.0-17.0","A3I2PT6W0FP7BR","img_art/ins/popularity/ins5KEEPpop.PNG","0","instructions","","","","","","","","","","","","","","","","","","","","","","","",""
"3109","","image-button-response_instructions","18","154895","0.0-18.0","A3I2PT6W0FP7BR","","0","instructions","","","","","","","","","","","","","","","","","","","","","","","",""
"10188","","survey-text","19","165099","0.0-19.0-0.0","A3I2PT6W0FP7BR","","","","{""Q0"":""but""}","","","","","","","","","","","","","","","","","","","","","","",""
"33747","","survey-text","20","198849","0.0-20.0-0.0","A3I2PT6W0FP7BR","","","","{""Q0"":""Not really something I like""}","","","","","","","","","","","","","","","","","","","","","","",""
"7764.79999999702","","image-slider-response","21","206619","0.0-21.0","A3I2PT6W0FP7BR","","","","","-27","","","","","","","","","","","","","","","","","","","","","",""
"null","","image-button-response","22","211627","0.0-22.0","A3I2PT6W0FP7BR","img_art/ins/1.jpg","null","","","","","","","","","","","","","","","","","","","","","","","","",""
"8710","","image-button-response","23","220339","0.0-23.0","A3I2PT6W0FP7BR","img_art/ins/1.jpg","4","","","","","","","","","","","","","","","","","","","","","","","","",""
"26193","","image-button-response","24","246534","0.0-24.0-0.0","A3I2PT6W0FP7BR","img_art/ins/1.jpg","0","","","","","","","","","","","","","","","","","","","","","","","","",""
"3180","","image-button-response","25","249717","0.0-25.0-0.0","A3I2PT6W0FP7BR","img_art/ins/1.jpg","2","","","","","","","","","","","","","","","","","","","","","","","","",""
"null","","html-keyboard-response","26","250231","0.0-26.0","A3I2PT6W0FP7BR","<p style=""font-size: 48px;"">+</p>","","","","","null","allTrialResponses","500","1","-2","img_art/ins/1.jpg","-27","Not really something I like","Adam,Alex,Ben,Carl,Daniel,Jack","Seems like doodles,-20,20,20","very creative work.,36,40,20","This color reminds me of poo,-46,60,20","very calming artwork,42,80,20","It looks like a murder scene.,-48,100,20","I like the sophisticated brushwork,40,120,20","Daniel","It looks like a murder scene.,-48,100,20","Adam","Seems like doodles,-20,20,20","Ben","This color reminds me of poo,-46,60,20","0"
"138471","","survey-text","27","388706","0.0-27.0-0.0","A3I2PT6W0FP7BR","","","","{""Q0"":""Not to bad. Like the colors.""}","","","","","","","","","","","","","","","","","","","","","","",""
"6423.79999999702","","image-slider-response","28","395135","0.0-28.0","A3I2PT6W0FP7BR","","","","","13","","","","","","","","","","","","","","","","","","","","","",""
"null","","image-button-response","29","400147","0.0-29.0","A3I2PT6W0FP7BR","img_art/ins/2.jpg","null","","","","","","","","","","","","","","","","","","","","","","","","",""
"300","","image-button-response","30","400451","0.0-30.0","A3I2PT6W0FP7BR","img_art/ins/2.jpg","1","","","","","","","","","","","","","","","","","","","","","","","","",""
"5194","","image-button-response","31","405650","0.0-31.0-0.0","A3I2PT6W0FP7BR","img_art/ins/2.jpg","4","","","","","","","","","","","","","","","","","","","","","","","","",""
"10113","","image-button-response","32","415767","0.0-32.0-0.0","A3I2PT6W0FP7BR","img_art/ins/2.jpg","0","","","","","","","","","","","","","","","","","","","","","","","","",""
"null","","html-keyboard-response","33","416771","0.0-33.0","A3I2PT6W0FP7BR","<p style=""font-size: 48px;"">+</p>","","","","","null","allTrialResponses","1000","1","-1","img_art/ins/2.jpg","13","Not to bad. Like the colors.","Adam,John,Ben,James,Daniel,Kyle","too much color,-18,20,20","love the texture of paint,48,160,20","meaningless painting,-45,60,20","looks too angry,-50,140,20","One of my pet peevs,-48,100,20","Idk, it is just annoying,-32,180,20","John","love the texture of paint,48,160,20","Daniel","One of my pet peevs,-48,100,20","Adam","too much color,-18,20,20","0"
"46990","","survey-text","34","463764","0.0-34.0-0.0","A3I2PT6W0FP7BR","","","","{""Q0"":""love the brightness of the colors""}","","","","","","","","","","","","","","","","","","","","","","",""
"5601.5","","image-slider-response","35","469369","0.0-35.0","A3I2PT6W0FP7BR","","","","","30","","","","","","","","","","","","","","","","","","","","","",""
"3237","","image-button-response","36","474373","0.0-36.0","A3I2PT6W0FP7BR","img_art/ins/3.jpg","1","","","","","","","","","","","","","","","","","","","","","","","","",""
"706","","image-button-response","37","475083","0.0-37.0","A3I2PT6W0FP7BR","img_art/ins/3.jpg","3","","","","","","","","","","","","","","","","","","","","","","","","",""
"2531","","image-button-response","38","477618","0.0-38.0-0.0","A3I2PT6W0FP7BR","img_art/ins/3.jpg","5","","","","","","","","","","","","","","","","","","","","","","","","",""
"8733","","image-button-response","39","486356","0.0-39.0-0.0","A3I2PT6W0FP7BR","img_art/ins/3.jpg","1","","","","","","","","","","","","","","","","","","","","","","","","",""
"null","","html-keyboard-response","40","487859","0.0-40.0","A3I2PT6W0FP7BR","<p style=""font-size: 48px;"">+</p>","","","","","null","allTrialResponses","1500","1","0","img_art/ins/3.jpg","30","love the brightness of the colors","Adam,John,Ron,Mike,Daniel,Sam","My daily routine, it's depressing,-20,20,20","I like the overlapping of brushes,41,160,20","It looks depressing,-26,220,20","enjoy the different shades of blue,22,200,20","looks like a murder room,-35,100,20","I can feel a rainy day from this painting,18,240,20","Mike","enjoy the different shades of blue,22,200,20","Sam","I can feel a rainy day from this painting,18,240,20","John","I like the overlapping of brushes,41,160,20","0"
"8689","","image-button-response_instructions","41","496552","0.0-41.0","A3I2PT6W0FP7BR","","0","instructions","","","","","","","","","","","","","","","","","","","","","","","",""
"14589","","survey-likert","42","511145","0.0-42.0-0.0","A3I2PT6W0FP7BR","","","","{""Q0"":"""",""Q1"":0,""Q2"":1}","","","","","","","","","","","","","","","","","","","","","","",""
"7019","","survey-text","43","518170","0.0-43.0-0.0","A3I2PT6W0FP7BR","","","","{""Q0"":""rock""}","","","","","","","","","","","","","","","","","","","","","","",""
"27070","","survey-text","44","545241","0.0-44.0-0.0","A3I2PT6W0FP7BR","","","","{""Q0"":""unique I like it""}","","","","","","","","","","","","","","","","","","","","","","",""
"5803.60000000149","","image-slider-response","45","551049","0.0-45.0","A3I2PT6W0FP7BR","","","","","32","","","","","","","","","","","","","","","","","","","","","",""
"null","","image-button-response","46","556069","0.0-46.0","A3I2PT6W0FP7BR","img_art/17.jpg","null","","","","","","","","","","","","","","","","","","","","","","","","",""
"382","","image-button-response","47","556453","0.0-47.0","A3I2PT6W0FP7BR","img_art/17.jpg","1","","","","","","","","","","","","","","","","","","","","","","","","",""
"1882","","image-button-response","48","558337","0.0-48.0-0.0","A3I2PT6W0FP7BR","img_art/17.jpg","2","","","","","","","","","","","","","","","","","","","","","","","","",""
"4695","","image-button-response","49","563035","0.0-49.0-0.0","A3I2PT6W0FP7BR","img_art/17.jpg","4","","","","","","","","","","","","","","","","","","","","","","","","",""
"null","","html-keyboard-response","50","564047","0.0-50.0","A3I2PT6W0FP7BR","<p style=""font-size: 48px;"">+</p>","","","","","null","allTrialResponses","1000","1","1","img_art/17.jpg","32","unique I like it","Charles,Miguel,Brandon,Thomas,Jack,Matthew","I like the trees, but the doors less so,19,100,20","Looks awesome .,33,160,20","Love the color and nature motif,36,320,20","Colors and composition are beautiful. I would hang this in my home.,50,220,20","stunning. makes me feel happy, hopeful, serene, and a little wistful.,50,320,20","taste the rainbow, feel the flavor.,23,120,20","Miguel","Looks awesome .,33,160,20","Brandon","Love the color and nature motif,36,320,20","Jack","stunning. makes me feel happy, hopeful, serene, and a little wistful.,50,320,20","0"
"23067","","survey-text","51","587118","0.0-51.0-0.0","A3I2PT6W0FP7BR","","","","{""Q0"":""Looks like a bees nest""}","","","","","","","","","","","","","","","","","","","","","","",""
"7652","","image-slider-response","52","594774","0.0-52.0","A3I2PT6W0FP7BR","","","","","-13","","","","","","","","","","","","","","","","","","","","","",""
"null","","image-button-response","53","599780","0.0-53.0","A3I2PT6W0FP7BR","img_art/5.jpg","null","","","","","","","","","","","","","","","","","","","","","","","","",""
"3707","","image-button-response","54","603490","0.0-54.0","A3I2PT6W0FP7BR","img_art/5.jpg","1","","","","","","","","","","","","","","","","","","","","","","","","",""
"2627","","image-button-response","55","606120","0.0-55.0-0.0","A3I2PT6W0FP7BR","img_art/5.jpg","2","","","","","","","","","","","","","","","","","","","","","","","","",""
"1901","","image-button-response","56","608024","0.0-56.0-0.0","A3I2PT6W0FP7BR","img_art/5.jpg","3","","","","","","","","","","","","","","","","","","","","","","","","",""
"null","","html-keyboard-response","57","608528","0.0-57.0","A3I2PT6W0FP7BR","<p style=""font-size: 48px;"">+</p>","","","","","null","allTrialResponses","500","1","2","img_art/5.jpg","-13","Looks like a bees nest","Dakota,Miguel,Brandon,Cole,Jack,Jeffrey","fresh and fun - bright and active,16,280,20","Appealing but shapeless,24,160,20","Kindergarten art. I really don't like this style.,-50,320,20","It looks like a poorly drawn pear,17,200,20","it's okay. the colors are eye catching, but that's about it.,3,320,20","positive colours; yellow calls attention,6,40,20","Miguel","Appealing but shapeless,24,160,20","Brandon","Kindergarten art. I really don't like this style.,-50,320,20","Cole","It looks like a poorly drawn pear,17,200,20","0"
"27845","","survey-text","58","636381","0.0-58.0-0.0","A3I2PT6W0FP7BR","","","","{""Q0"":""Nicely done""}","","","","","","","","","","","","","","","","","","","","","","",""
"4983.19999999553","","image-slider-response","59","641366","0.0-59.0","A3I2PT6W0FP7BR","","","","","30","","","","","","","","","","","","","","","","","","","","","",""
"null","","image-button-response","60","646372","0.0-60.0","A3I2PT6W0FP7BR","img_art/11.jpg","null","","","","","","","","","","","","","","","","","","","","","","","","",""
"4139","","image-button-response","61","650513","0.0-61.0","A3I2PT6W0FP7BR","img_art/11.jpg","4","","","","","","","","","","","","","","","","","","","","","","","","",""
"1871","","image-button-response","62","652386","0.0-62.0-0.0","A3I2PT6W0FP7BR","img_art/11.jpg","5","","","","","","","","","","","","","","","","","","","","","","","","",""
"2338","","image-button-response","63","654727","0.0-63.0-0.0","A3I2PT6W0FP7BR","img_art/11.jpg","1","","","","","","","","","","","","","","","","","","","","","","","","",""
"null","","html-keyboard-response","64","655242","0.0-64.0","A3I2PT6W0FP7BR","<p style=""font-size: 48px;"">+</p>","","","","","null","allTrialResponses","500","1","3","img_art/11.jpg","30","Nicely done","Vincent,Miguel,Brandon,Cole,Isaiah,Adam","Looks like a familiar area,31,360,20","Good but not eye catching,14,160,20","Don't like cityscapes, which this picture reminds me of,-29,320,20","Grays arent my thing,-25,200,20","I feel excited, like I'm in the middle of a bustling city.,26,300,20","Kind of reminds me of DNA.,9,40,20","Isaiah","I feel excited, like I'm in the middle of a bustling city.,26,300,20","Adam","Kind of reminds me of DNA.,9,40,20","Miguel","Good but not eye catching,14,160,20","0"
"29405","","survey-text","65","684651","0.0-65.0-0.0","A3I2PT6W0FP7BR","","","","{""Q0"":""love the brightness of the colors""}","","","","","","","","","","","","","","","","","","","","","","",""
"4647.69999999553","","image-slider-response","66","689304","0.0-66.0","A3I2PT6W0FP7BR","","","","","30","","","","","","","","","","","","","","","","","","","","","",""
"4983","","image-button-response","67","694309","0.0-67.0","A3I2PT6W0FP7BR","img_art/28.jpg","2","","","","","","","","","","","","","","","","","","","","","","","","",""
"2873","","image-button-response","68","697186","0.0-68.0","A3I2PT6W0FP7BR","img_art/28.jpg","4","","","","","","","","","","","","","","","","","","","","","","","","",""
"1150","","image-button-response","69","698337","0.0-69.0-0.0","A3I2PT6W0FP7BR","img_art/28.jpg","3","","","","","","","","","","","","","","","","","","","","","","","","",""
"4832","","image-button-response","70","703172","0.0-70.0-0.0","A3I2PT6W0FP7BR","img_art/28.jpg","2","","","","","","","","","","","","","","","","","","","","","","","","",""
"null","","html-keyboard-response","71","704190","0.0-71.0","A3I2PT6W0FP7BR","<p style=""font-size: 48px;"">+</p>","","","","","null","allTrialResponses","1000","1","4","img_art/28.jpg","30","love the brightness of the colors","Jorge,Miguel,Malik,Zachary,Isaiah,Adam","nostalgic from a memory,11,180,20","Looks yucky and poor.,-33,160,20","Invokes curiosity, I want to know it's story.,15,40,20","Too muted and bland. I like my art to be vivid.,-11,400,20","It makes me feel happy, and a little anxious.,50,300,20","Dislike the colors.,-20,40,20","Isaiah","It makes me feel happy, and a little anxious.,50,300,20","Zachary","Too muted and bland. I like my art to be vivid.,-11,400,20","Malik","Invokes curiosity, I want to know it's story.,15,40,20","0"
"20349","","survey-text","72","724546","0.0-72.0-0.0","A3I2PT6W0FP7BR","","","","{""Q0"":""Nice modern art""}","","","","","","","","","","","","","","","","","","","","","","",""
"4932.60000000149","","image-slider-response","73","729481","0.0-73.0","A3I2PT6W0FP7BR","","","","","27","","","","","","","","","","","","","","","","","","","","","",""
"null","","image-button-response","74","734486","0.0-74.0","A3I2PT6W0FP7BR","img_art/6.jpg","null","","","","","","","","","","","","","","","","","","","","","","","","",""
"4722","","image-button-response","75","739211","0.0-75.0","A3I2PT6W0FP7BR","img_art/6.jpg","5","","","","","","","","","","","","","","","","","","","","","","","","",""
"1568","","image-button-response","76","740784","0.0-76.0-0.0","A3I2PT6W0FP7BR","img_art/6.jpg","3","","","","","","","","","","","","","","","","","","","","","","","","",""
"1319","","image-button-response","77","742107","0.0-77.0-0.0","A3I2PT6W0FP7BR","img_art/6.jpg","4","","","","","","","","","","","","","","","","","","","","","","","","",""
"null","","html-keyboard-response","78","743114","0.0-78.0","A3I2PT6W0FP7BR","<p style=""font-size: 48px;"">+</p>","","","","","null","allTrialResponses","1000","1","5","img_art/6.jpg","27","Nice modern art","Christian,Alejandro,Malik,Zachary,Isaiah,Sean","??????? fake floating leaf? headless bird,-28,140,20","Gives me a feeling of solitude and nothingness,11,80,20","Lonesome in nature,13,40,20","Reminds me of a plant poking through the soil. It reminds me of new life.,31,400,20","The painting makes me happy. Like I'm looking at a little bird.,6,300,20","reminds me a giant peach,19,40,20","Sean","reminds me a giant peach,19,40,20","Zachary","Reminds me of a plant poking through the soil. It reminds me of new life.,31,400,20","Isaiah","The painting makes me happy. Like I'm looking at a little bird.,6,300,20","0"
"8386","","survey-text","79","751506","0.0-79.0-0.0","A3I2PT6W0FP7BR","","","","{""Q0"":""sky""}","","","","","","","","","","","","","","","","","","","","","","",""
"32350","","survey-text","80","783860","0.0-80.0-0.0","A3I2PT6W0FP7BR","","","","{""Q0"":""very unique, I like it""}","","","","","","","","","","","","","","","","","","","","","","",""
"6292.89999999851","","image-slider-response","81","790155","0.0-81.0","A3I2PT6W0FP7BR","","","","","26","","","","","","","","","","","","","","","","","","","","","",""
"null","","image-button-response","82","795162","0.0-82.0","A3I2PT6W0FP7BR","img_art/10.jpg","null","","","","","","","","","","","","","","","","","","","","","","","","",""
"4963","","image-button-response","83","800129","0.0-83.0","A3I2PT6W0FP7BR","img_art/10.jpg","5","","","","","","","","","","","","","","","","","","","","","","","","",""
"1145","","image-button-response","84","801277","0.0-84.0-0.0","A3I2PT6W0FP7BR","img_art/10.jpg","3","","","","","","","","","","","","","","","","","","","","","","","","",""
"1699","","image-button-response","85","802980","0.0-85.0-0.0","A3I2PT6W0FP7BR","img_art/10.jpg","0","","","","","","","","","","","","","","","","","","","","","","","","",""
"null","","html-keyboard-response","86","804483","0.0-86.0","A3I2PT6W0FP7BR","<p style=""font-size: 48px;"">+</p>","","","","","null","allTrialResponses","1500","1","6","img_art/10.jpg","26","very unique, I like it","Austin,Lucas,John,Zachary,Isaiah,Sean","Has an air of mystery around it,39,240,20","For me, it looks like a giant ship on the sea and it's astonishing.,30,380,20","Bleak and uninteresting,-10,120,20","Reminds me of a terrarium with cacti inside. It reminds me of home.,27,400,20","I feel little to no emotion looking at this painting.,0,300,20","I see a rollercoaster,23,40,20","Sean","I see a rollercoaster,23,40,20","Zachary","Reminds me of a terrarium with cacti inside. It reminds me of home.,27,400,20","Austin","Has an air of mystery around it,39,240,20","0"
"31539","","survey-text","87","836028","0.0-87.0-0.0","A3I2PT6W0FP7BR","","","","{""Q0"":""I love the brush strokes""}","","","","","","","","","","","","","","","","","","","","","","",""
"7810.29999999702","","image-slider-response","88","843842","0.0-88.0","A3I2PT6W0FP7BR","","","","","41","","","","","","","","","","","","","","","","","","","","","",""
"4586","","image-button-response","89","848853","0.0-89.0","A3I2PT6W0FP7BR","img_art/30.jpg","3","","","","","","","","","","","","","","","","","","","","","","","","",""
"1508","","image-button-response","90","850366","0.0-90.0","A3I2PT6W0FP7BR","img_art/30.jpg","0","","","","","","","","","","","","","","","","","","","","","","","","",""
"5723","","image-button-response","91","856092","0.0-91.0-0.0","A3I2PT6W0FP7BR","img_art/30.jpg","1","","","","","","","","","","","","","","","","","","","","","","","","",""
"2395","","image-button-response","92","858492","0.0-92.0-0.0","A3I2PT6W0FP7BR","img_art/30.jpg","3","","","","","","","","","","","","","","","","","","","","","","","","",""
"null","","html-keyboard-response","93","859501","0.0-93.0","A3I2PT6W0FP7BR","<p style=""font-size: 48px;"">+</p>","","","","","null","allTrialResponses","1000","1","7","img_art/30.jpg","41","I love the brush strokes","Austin,Daniel,Cameron,Zachary,Shane,Sean","Love the bold brush strokes and the illusion it creates,50,240,20","10 year old 10 minute project ""Fun with Painting"",-42,320,20","Like the color and style,31,60,20","I like this one because I am a mom and it reminds me of a child finger-painting.,20,400,20","I like the back but the red lines in the front distress me,-7,80,20","the colors look nice,19,40,20","Austin","Love the bold brush strokes and the illusion it creates,50,240,20","Daniel","10 year old 10 minute project ""Fun with Painting"",-42,320,20","Zachary","I like this one because I am a mom and it reminds me of a child finger-painting.,20,400,20","0"
"23604","","survey-text","94","883111","0.0-94.0-0.0","A3I2PT6W0FP7BR","","","","{""Q0"":""Plain Jane, Could be better""}","","","","","","","","","","","","","","","","","","","","","","",""
"5167.69999999553","","image-slider-response","95","888282","0.0-95.0","A3I2PT6W0FP7BR","","","","","-22","","","","","","","","","","","","","","","","","","","","","",""
"4787","","image-button-response","96","893295","0.0-96.0","A3I2PT6W0FP7BR","img_art/14.jpg","1","","","","","","","","","","","","","","","","","","","","","","","","",""
"7248","","image-button-response","97","900545","0.0-97.0","A3I2PT6W0FP7BR","img_art/14.jpg","3","","","","","","","","","","","","","","","","","","","","","","","","",""
"3862","","image-button-response","98","904412","0.0-98.0-0.0","A3I2PT6W0FP7BR","img_art/14.jpg","1","","","","","","","","","","","","","","","","","","","","","","","","",""
"2939","","image-button-response","99","907355","0.0-99.0-0.0","A3I2PT6W0FP7BR","img_art/14.jpg","2","","","","","","","","","","","","","","","","","","","","","","","","",""
"null","","html-keyboard-response","100","907857","0.0-100.0","A3I2PT6W0FP7BR","<p style=""font-size: 48px;"">+</p>","","","","","null","allTrialResponses","500","1","8","img_art/14.jpg","-22","Plain Jane, Could be better","Austin,Daniel,Corey,Zachary,Carlos,Dalton","Love the abstractness of this painting,39,240,20","Baby's room palette with tree confusion in a more confused substrate.,-15,320,20","its okay. pretty bland but looks like nature,8,260,20","Did not evoke much feeling except confusion. I am not sure what to make of this one.,-20,400,20","The lighting feels like spring.,20,80,20","nice simple art piece,2,300,20","Zachary","Did not evoke much feeling except confusion. I am not sure what to make of this one.,-20,400,20","Daniel","Baby's room palette with tree confusion in a more confused substrate.,-15,320,20","Corey","its okay. pretty bland but looks like nature,8,260,20","0"
"33690","","survey-text","101","941550","0.0-101.0-0.0","A3I2PT6W0FP7BR","","","","{""Q0"":""Looks like a bunch of dull nothing.""}","","","","","","","","","","","","","","","","","","","","","","",""
"27760.90000000596","","image-slider-response","102","969316","0.0-102.0","A3I2PT6W0FP7BR","","","","","-27","","","","","","","","","","","","","","","","","","","","","",""
"3501","","image-button-response","103","974321","0.0-103.0","A3I2PT6W0FP7BR","img_art/3.jpg","2","","","","","","","","","","","","","","","","","","","","","","","","",""
"677","","image-button-response","104","975000","0.0-104.0","A3I2PT6W0FP7BR","img_art/3.jpg","1","","","","","","","","","","","","","","","","","","","","","","","","",""
"4355","","image-button-response","105","979360","0.0-105.0-0.0","A3I2PT6W0FP7BR","img_art/3.jpg","3","","","","","","","","","","","","","","","","","","","","","","","","",""
"6472","","image-button-response","106","985837","0.0-106.0-0.0","A3I2PT6W0FP7BR","img_art/3.jpg","2","","","","","","","","","","","","","","","","","","","","","","","","",""
"null","","html-keyboard-response","107","987342","0.0-107.0","A3I2PT6W0FP7BR","<p style=""font-size: 48px;"">+</p>","","","","","null","allTrialResponses","1500","1","9","img_art/3.jpg","-27","Looks like a bunch of dull nothing.","Samuel,Daniel,Corey,Zachary,Kevin,Angel","confusing taking over,-15,400,20","5 min scribble by a 3 year old,-46,320,20","seems distressing. a blood scene,-3,260,20","Too red and chaotic. Not calming.,-41,400,20","That just looks like a mess..,-18,320,20","This gives me a negative feeling, like someone trying to scratch out their flaws. I see low self-esteem.,-20,180,20","Daniel","5 min scribble by a 3 year old,-46,320,20","Zachary","Too red and chaotic. Not calming.,-41,400,20","Corey","seems distressing. a blood scene,-3,260,20","0"
"32607","","survey-text","108","1019956","0.0-108.0-0.0","A3I2PT6W0FP7BR","","","","{""Q0"":""reminds me of outer space.""}","","","","","","","","","","","","","","","","","","","","","","",""
"8946.60000000149","","image-slider-response","109","1028904","0.0-109.0","A3I2PT6W0FP7BR","","","","","1","","","","","","","","","","","","","","","","","","","","","",""
"3055","","image-button-response","110","1033912","0.0-110.0","A3I2PT6W0FP7BR","img_art/23.jpg","0","","","","","","","","","","","","","","","","","","","","","","","","",""
"1030","","image-button-response","111","1034944","0.0-111.0","A3I2PT6W0FP7BR","img_art/23.jpg","2","","","","","","","","","","","","","","","","","","","","","","","","",""
"2139","","image-button-response","112","1037086","0.0-112.0-0.0","A3I2PT6W0FP7BR","img_art/23.jpg","0","","","","","","","","","","","","","","","","","","","","","","","","",""
"772","","image-button-response","113","1037863","0.0-113.0-0.0","A3I2PT6W0FP7BR","img_art/23.jpg","0","","","","","","","","","","","","","","","","","","","","","","","","",""
"1152","","image-button-response","114","1043980","0.0-113.1-0.1","A3I2PT6W0FP7BR","img_art/23.jpg","3","","","","","","","","","","","","","","","","","","","","","","","","",""
"null","","html-keyboard-response","115","1044993","0.0-114.0","A3I2PT6W0FP7BR","<p style=""font-size: 48px;"">+</p>","","","","","null","allTrialResponses","1000","1","10","img_art/23.jpg","1","reminds me of outer space.","Patrick,Daniel,Corey,Zachary,William,Evan","Beautiful color scheme,21,280,20","Too busy with color with warrior lineup,0,320,20","white reminds me of screamo music band tshirts when they have their name in the unreadable lettering,-9,260,20","Vivid colors and the white in the middle looks like people dancing.,31,400,20","enjoy the colors,23,380,20","It feels exciting,23,140,20","Corey","white reminds me of screamo music band tshirts when they have their name in the unreadable lettering,-9,260,20","Patrick","Beautiful color scheme,21,280,20","Zachary","Vivid colors and the white in the middle looks like people dancing.,31,400,20","2"
"8074","","survey-text","116","1053073","0.0-115.0-0.0","A3I2PT6W0FP7BR","","","","{""Q0"":""our""}","","","","","","","","","","","","","","","","","","","","","","",""
"48516","","survey-text","117","1101591","0.0-116.0-0.0","A3I2PT6W0FP7BR","","","","{""Q0"":""can't like the surface of mars.""}","","","","","","","","","","","","","","","","","","","","","","",""
"3870.60000000149","","image-slider-response","118","1105466","0.0-117.0","A3I2PT6W0FP7BR","","","","","-25","","","","","","","","","","","","","","","","","","","","","",""
"3098","","image-button-response","119","1110476","0.0-118.0","A3I2PT6W0FP7BR","img_art/7.jpg","1","","","","","","","","","","","","","","","","","","","","","","","","",""
"1518","","image-button-response","120","1112000","0.0-119.0","A3I2PT6W0FP7BR","img_art/7.jpg","1","","","","","","","","","","","","","","","","","","","","","","","","",""
"1571","","image-button-response","121","1113576","0.0-120.0-0.0","A3I2PT6W0FP7BR","img_art/7.jpg","0","","","","","","","","","","","","","","","","","","","","","","","","",""
"7103","","image-button-response","122","1120683","0.0-121.0-0.0","A3I2PT6W0FP7BR","img_art/7.jpg","4","","","","","","","","","","","","","","","","","","","","","","","","",""
"null","","html-keyboard-response","123","1121693","0.0-122.0","A3I2PT6W0FP7BR","<p style=""font-size: 48px;"">+</p>","","","","","null","allTrialResponses","1000","1","11","img_art/7.jpg","-25","can't like the surface of mars.","Patrick,Chase,Corey,Zachary,Connor,Bradley","It feels cold and hard,-40,280,20","Just looks like rocks or some kind of mineral.,0,120,20","looks like a close up of irritated skin under a microscope,-49,260,20","Looks like a desert or another planet. While the color choices are narrow, it's still interesting because it is very natural.,12,400,20","Color is bland and looks damaged,-37,240,20","Is this cookie dough?  Yum!,-10,300,20","Chase","Just looks like rocks or some kind of mineral.,0,120,20","Patrick","It feels cold and hard,-40,280,20","Connor","Color is bland and looks damaged,-37,240,20","2"
"42070","","survey-text","124","1163767","0.0-123.0-0.0","A3I2PT6W0FP7BR","","","","{""Q0"":""looks very ugly.""}","","","","","","","","","","","","","","","","","","","","","","",""
"5736.70000000298","","image-slider-response","125","1169507","0.0-124.0","A3I2PT6W0FP7BR","","","","","-18","","","","","","","","","","","","","","","","","","","","","",""
"4850","","image-button-response","126","1174520","0.0-125.0","A3I2PT6W0FP7BR","img_art/1.jpg","2","","","","","","","","","","","","","","","","","","","","","","","","",""
"1748","","image-button-response","127","1176272","0.0-126.0","A3I2PT6W0FP7BR","img_art/1.jpg","2","","","","","","","","","","","","","","","","","","","","","","","","",""
"4301","","image-button-response","128","1180576","0.0-127.0-0.0","A3I2PT6W0FP7BR","img_art/1.jpg","0","","","","","","","","","","","","","","","","","","","","","","","","",""
"551","","image-button-response","129","1181129","0.0-128.0-0.0","A3I2PT6W0FP7BR","img_art/1.jpg","0","","","","","","","","","","","","","","","","","","","","","","","","",""
"1331","","image-button-response","130","1186164","0.0-128.1-0.1","A3I2PT6W0FP7BR","img_art/1.jpg","4","","","","","","","","","","","","","","","","","","","","","","","","",""
"null","","html-keyboard-response","131","1187679","0.0-129.0","A3I2PT6W0FP7BR","<p style=""font-size: 48px;"">+</p>","","","","","null","allTrialResponses","1500","1","12","img_art/1.jpg","-18","looks very ugly.","Patrick,Chase,Jake,Bryce,Connor,Gabriel","I feel uneasy looking at this,-41,280,20","It's alright but lacks any depth.,-5,120,20","This is ugly with bad colors.,-6,360,20","Again kind a boring.,-38,20,20","Love the coloration and abstract figures,18,240,20","this ones alright,10,160,20","Jake","This is ugly with bad colors.,-6,360,20","Patrick","I feel uneasy looking at this,-41,280,20","Connor","Love the coloration and abstract figures,18,240,20","4"
"35056","","survey-text","132","1222742","0.0-130.0-0.0","A3I2PT6W0FP7BR","","","","{""Q0"":""Very confusing also to bland.""}","","","","","","","","","","","","","","","","","","","","","","",""
"4076.10000000149","","image-slider-response","133","1226821","0.0-131.0","A3I2PT6W0FP7BR","","","","","-20","","","","","","","","","","","","","","","","","","","","","",""
"2875","","image-button-response","134","1231831","0.0-132.0","A3I2PT6W0FP7BR","img_art/15.jpg","0","","","","","","","","","","","","","","","","","","","","","","","","",""
"941","","image-button-response","135","1232775","0.0-133.0","A3I2PT6W0FP7BR","img_art/15.jpg","0","","","","","","","","","","","","","","","","","","","","","","","","",""
"2538","","image-button-response","136","1235315","0.0-134.0-0.0","A3I2PT6W0FP7BR","img_art/15.jpg","2","","","","","","","","","","","","","","","","","","","","","","","","",""
"3365","","image-button-response","137","1238683","0.0-135.0-0.0","A3I2PT6W0FP7BR","img_art/15.jpg","5","","","","","","","","","","","","","","","","","","","","","","","","",""
"null","","html-keyboard-response","138","1239197","0.0-136.0","A3I2PT6W0FP7BR","<p style=""font-size: 48px;"">+</p>","","","","","null","allTrialResponses","500","1","13","img_art/15.jpg","-20","Very confusing also to bland.","Patrick,Trevor,Jake,Anthony,Connor,Isaac","I don't like the black dots,-19,280,20","I really like the colors,14,280,20","This looks odd and was not well executed.,-3,360,20","This piece isn't particularly attractive, but it's not ugly either.,1,200,20","Neat to explore meaning, blue is interesting,11,240,20","The colors are too busy.,-39,280,20","Patrick","I don't like the black dots,-19,280,20","Jake","This looks odd and was not well executed.,-3,360,20","Isaac","The colors are too busy.,-39,280,20","4"
"24687","","survey-text","139","1263887","0.0-137.0-0.0","A3I2PT6W0FP7BR","","","","{""Q0"":""nice and modern.""}","","","","","","","","","","","","","","","","","","","","","","",""
"5086.4000000059605","","image-slider-response","140","1268976","0.0-138.0","A3I2PT6W0FP7BR","","","","","18","","","","","","","","","","","","","","","","","","","","","",""
"4409","","image-button-response","141","1273995","0.0-139.0","A3I2PT6W0FP7BR","img_art/4.jpg","3","","","","","","","","","","","","","","","","","","","","","","","","",""
"1217","","image-button-response","142","1275217","0.0-140.0","A3I2PT6W0FP7BR","img_art/4.jpg","3","","","","","","","","","","","","","","","","","","","","","","","","",""
"8223","","image-button-response","143","1283444","0.0-141.0-0.0","A3I2PT6W0FP7BR","img_art/4.jpg","5","","","","","","","","","","","","","","","","","","","","","","","","",""
"2048","","image-button-response","144","1285496","0.0-142.0-0.0","A3I2PT6W0FP7BR","img_art/4.jpg","2","","","","","","","","","","","","","","","","","","","","","","","","",""
"null","","html-keyboard-response","145","1286499","0.0-143.0","A3I2PT6W0FP7BR","<p style=""font-size: 48px;"">+</p>","","","","","null","allTrialResponses","1000","1","14","img_art/4.jpg","18","nice and modern.","Patrick,Tristan,Jake,Marcus,Jason,Isaac","Random swirls again,-30,280,20","disturbing and uncomfortable.,10,300,20","This is ugly in color and in terms of the shape on it.,-32,360,20","Really like the colors, but don't like the object/squiggle in darker gold and black,4,60,20","I don't understand this at all,3,20,20","The colors remind me of McDonalds.,-41,280,20","Marcus","Really like the colors, but don't like the object/squiggle in darker gold and black,4,60,20","Isaac","The colors remind me of McDonalds.,-41,280,20","Jake","This is ugly in color and in terms of the shape on it.,-32,360,20","4"
"48394","","survey-text","146","1334901","0.0-144.0-0.0","A3I2PT6W0FP7BR","","","","{""Q0"":""looks like a lady sleeping. I love it""}","","","","","","","","","","","","","","","","","","","","","","",""
"8838.90000000596","","image-slider-response","147","1343744","0.0-145.0","A3I2PT6W0FP7BR","","","","","50","","","","","","","","","","","","","","","","","","","","","",""
"null","","image-button-response","148","1348750","0.0-146.0","A3I2PT6W0FP7BR","img_art/9.jpg","null","","","","","","","","","","","","","","","","","","","","","","","","",""
"31291","","image-button-response","149","1380043","0.0-147.0","A3I2PT6W0FP7BR","img_art/9.jpg","3","","","","","","","","","","","","","","","","","","","","","","","","",""
"1314","","image-button-response","150","1381361","0.0-148.0-0.0","A3I2PT6W0FP7BR","img_art/9.jpg","4","","","","","","","","","","","","","","","","","","","","","","","","",""
"1337","","image-button-response","151","1382699","0.0-149.0-0.0","A3I2PT6W0FP7BR","img_art/9.jpg","5","","","","","","","","","","","","","","","","","","","","","","","","",""
"null","","html-keyboard-response","152","1383213","0.0-150.0","A3I2PT6W0FP7BR","<p style=""font-size: 48px;"">+</p>","","","","","null","allTrialResponses","500","1","15","img_art/9.jpg","50","looks like a lady sleeping. I love it","Taylor,Jesse,Jake,Marcus,Nathan,Isaac","Caveman. Not for my walls.,-5,200,20","The lack of concrete form kind of turns me off,-2,80,20","The colors and image is ugly.,-7,360,20","This painting feels too jumbled for me to like it.,-12,60,20","Looks like a child's drawing,-40,200,20","I don't like the obvious lines of colored pencil on the border.,-24,280,20","Marcus","This painting feels too jumbled for me to like it.,-12,60,20","Nathan","Looks like a child's drawing,-40,200,20","Isaac","I don't like the obvious lines of colored pencil on the border.,-24,280,20","4"
"13497","","survey-text","153","1396718","0.0-151.0-0.0","A3I2PT6W0FP7BR","","","","{""Q0"":""course""}","","","","","","","","","","","","","","","","","","","","","","",""
"43739","","survey-text","154","1440461","0.0-152.0-0.0","A3I2PT6W0FP7BR","","","","{""Q0"":""I love it. Looks like google earth shot.""}","","","","","","","","","","","","","","","","","","","","","","",""
"4029.8000000044703","","image-slider-response","155","1444494","0.0-153.0","A3I2PT6W0FP7BR","","","","","50","","","","","","","","","","","","","","","","","","","","","",""
"3297","","image-button-response","156","1449500","0.0-154.0","A3I2PT6W0FP7BR","img_art/29.jpg","0","","","","","","","","","","","","","","","","","","","","","","","","",""
"752","","image-button-response","157","1450254","0.0-155.0","A3I2PT6W0FP7BR","img_art/29.jpg","0","","","","","","","","","","","","","","","","","","","","","","","","",""
"12100","","image-button-response","158","1462358","0.0-156.0-0.0","A3I2PT6W0FP7BR","img_art/29.jpg","3","","","","","","","","","","","","","","","","","","","","","","","","",""
"1892","","image-button-response","159","1464253","0.0-157.0-0.0","A3I2PT6W0FP7BR","img_art/29.jpg","2","","","","","","","","","","","","","","","","","","","","","","","","",""
"null","","html-keyboard-response","160","1465255","0.0-158.0","A3I2PT6W0FP7BR","<p style=""font-size: 48px;"">+</p>","","","","","null","allTrialResponses","1000","1","16","img_art/29.jpg","50","I love it. Looks like google earth shot.","Alex,Richard,Noah,Marcus,Nathan,Isaac","The texture really stands out, this is an interesting composition,6,100,20","it's OK, no clue to what's going on but good use of light and dark,4,340,20","the mixed medium / collage annoys me,-19,260,20","I would like this piece better without the red X across it,-10,60,20","Quite ugly in my opinion,-30,200,20","It is intriguing but I don't like the red X.,6,280,20","Alex","The texture really stands out, this is an interesting composition,6,100,20","Marcus","I would like this piece better without the red X across it,-10,60,20","Noah","the mixed medium / collage annoys me,-19,260,20","4"
"58561","","survey-text","161","1523823","0.0-159.0-0.0","A3I2PT6W0FP7BR","","","","{""Q0"":""Very nice work, nice colors""}","","","","","","","","","","","","","","","","","","","","","","",""
"8708.39999999851","","image-slider-response","162","1532532","0.0-160.0","A3I2PT6W0FP7BR","","","","","36","","","","","","","","","","","","","","","","","","","","","",""
"null","","image-button-response","163","1537535","0.0-161.0","A3I2PT6W0FP7BR","img_art/24.jpg","null","","","","","","","","","","","","","","","","","","","","","","","","",""
"420","","image-button-response","164","1537960","0.0-162.0","A3I2PT6W0FP7BR","img_art/24.jpg","4","","","","","","","","","","","","","","","","","","","","","","","","",""
"1561","","image-button-response","165","1539526","0.0-163.0-0.0","A3I2PT6W0FP7BR","img_art/24.jpg","5","","","","","","","","","","","","","","","","","","","","","","","","",""
"3163","","image-button-response","166","1542693","0.0-164.0-0.0","A3I2PT6W0FP7BR","img_art/24.jpg","0","","","","","","","","","","","","","","","","","","","","","","","","",""
"null","","html-keyboard-response","167","1543198","0.0-165.0","A3I2PT6W0FP7BR","<p style=""font-size: 48px;"">+</p>","","","","","null","allTrialResponses","500","1","17","img_art/24.jpg","36","Very nice work, nice colors","Alex,Joseph,Noah,Marcus,Antonio,Derek","Looks like a waterfall or a brook, the colors are very nice,15,100,20","It looks like a poor dead bunny in a field of flowers. I don't want the bunny to be dead.,-37,220,20","this evokes a gutural reaction - it displeases me how similar it is to art I saw growing up,-30,260,20","Love the colors in this work, and the sense of motion in the water,36,60,20","Waterfalls and spring and gives me a sense of renewal,34,220,20","I absolutely adore this painting. The colors, designs, everything. It's phenomenal,50,360,20","Antonio","Waterfalls and spring and gives me a sense of renewal,34,220,20","Derek","I absolutely adore this painting. The colors, designs, everything. It's phenomenal,50,360,20","Alex","Looks like a waterfall or a brook, the colors are very nice,15,100,20","4"
"38123","","survey-text","168","1581328","0.0-166.0-0.0","A3I2PT6W0FP7BR","","","","{""Q0"":""Blatantly dull and fugly ""}","","","","","","","","","","","","","","","","","","","","","","",""
"4972.39999999851","","image-slider-response","169","1586303","0.0-167.0","A3I2PT6W0FP7BR","","","","","-50","","","","","","","","","","","","","","","","","","","","","",""
"4510","","image-button-response","170","1591308","0.0-168.0","A3I2PT6W0FP7BR","img_art/12.jpg","3","","","","","","","","","","","","","","","","","","","","","","","","",""
"2760","","image-button-response","171","1594070","0.0-169.0","A3I2PT6W0FP7BR","img_art/12.jpg","0","","","","","","","","","","","","","","","","","","","","","","","","",""
"2036","","image-button-response","172","1596107","0.0-170.0-0.0","A3I2PT6W0FP7BR","img_art/12.jpg","3","","","","","","","","","","","","","","","","","","","","","","","","",""
"2263","","image-button-response","173","1598375","0.0-171.0-0.0","A3I2PT6W0FP7BR","img_art/12.jpg","2","","","","","","","","","","","","","","","","","","","","","","","","",""
"null","","html-keyboard-response","174","1598886","0.0-172.0","A3I2PT6W0FP7BR","<p style=""font-size: 48px;"">+</p>","","","","","null","allTrialResponses","500","1","18","img_art/12.jpg","-50","Blatantly dull and fugly ","Alex,Mark,Robert,Scott,Antonio,Derek","eww hate everything about this, looks like it belongs in a dentist's office,-14,100,20","It just feels like a jigsaw puzzle,-4,80,20","I like the pattern to it.,31,360,20","I don't like the pattern or color choice,-41,20,20","I like the colors in both sections, brights compared to neutrals. Each block has a different view. I think of the future,11,220,20","I love the pattern and this looks like it took a good deal of effort,35,360,20","Alex","eww hate everything about this, looks like it belongs in a dentist's office,-14,100,20","Scott","I don't like the pattern or color choice,-41,20,20","Robert","I like the pattern to it.,31,360,20","4"
"42611","","survey-text","175","1641504","0.0-173.0-0.0","A3I2PT6W0FP7BR","","","","{""Q0"":""Lots and Lots of talent.""}","","","","","","","","","","","","","","","","","","","","","","",""
"4712.39999999851","","image-slider-response","176","1646217","0.0-174.0","A3I2PT6W0FP7BR","","","","","43","","","","","","","","","","","","","","","","","","","","","",""
"null","","image-button-response","177","1651226","0.0-175.0","A3I2PT6W0FP7BR","img_art/19.jpg","null","","","","","","","","","","","","","","","","","","","","","","","","",""
"2656","","image-button-response","178","1653883","0.0-176.0","A3I2PT6W0FP7BR","img_art/19.jpg","0","","","","","","","","","","","","","","","","","","","","","","","","",""
"1020","","image-button-response","179","1654905","0.0-177.0-0.0","A3I2PT6W0FP7BR","img_art/19.jpg","0","","","","","","","","","","","","","","","","","","","","","","","","",""
"1532","","image-button-response","180","1660744","0.0-177.1-0.1","A3I2PT6W0FP7BR","img_art/19.jpg","1","","","","","","","","","","","","","","","","","","","","","","","","",""
"1317","","image-button-response","181","1662065","0.0-178.0-0.0","A3I2PT6W0FP7BR","img_art/19.jpg","2","","","","","","","","","","","","","","","","","","","","","","","","",""
"null","","html-keyboard-response","182","1663070","0.0-179.0","A3I2PT6W0FP7BR","<p style=""font-size: 48px;"">+</p>","","","","","null","allTrialResponses","1000","1","19","img_art/19.jpg","43","Lots and Lots of talent.","Alex,Brett,Robert,Scott,Michael,Caleb","I like the water but again, the small lines with no detail are irritating,3,100,20","Reminds me of a quaint little town I once visited in Italy,50,360,20","A dreary town in the fall.,-4,360,20","looks like a shopping center,20,20,20","Loks like an amature did it, Not pleasing.,-45,140,20","Watercolor abstract? Strange.,1,40,20","Alex","I like the water but again, the small lines with no detail are irritating,3,100,20","Brett","Reminds me of a quaint little town I once visited in Italy,50,360,20","Robert","A dreary town in the fall.,-4,360,20","6"
"25102","","survey-text","183","1688179","0.0-180.0-0.0","A3I2PT6W0FP7BR","","","","{""Q0"":""I like it for some unknown reason.""}","","","","","","","","","","","","","","","","","","","","","","",""
"7718.5","","image-slider-response","184","1695900","0.0-181.0","A3I2PT6W0FP7BR","","","","","27","","","","","","","","","","","","","","","","","","","","","",""
"null","","image-button-response","185","1700911","0.0-182.0","A3I2PT6W0FP7BR","img_art/22.jpg","null","","","","","","","","","","","","","","","","","","","","","","","","",""
"7819","","image-button-response","186","1708733","0.0-183.0","A3I2PT6W0FP7BR","img_art/22.jpg","5","","","","","","","","","","","","","","","","","","","","","","","","",""
"1474","","image-button-response","187","1710211","0.0-184.0-0.0","A3I2PT6W0FP7BR","img_art/22.jpg","5","","","","","","","","","","","","","","","","","","","","","","","","",""
"1686","","image-button-response","188","1714488","0.0-184.1-0.1","A3I2PT6W0FP7BR","img_art/22.jpg","3","","","","","","","","","","","","","","","","","","","","","","","","",""
"1240","","image-button-response","189","1715729","0.0-185.0-0.0","A3I2PT6W0FP7BR","img_art/22.jpg","4","","","","","","","","","","","","","","","","","","","","","","","","",""
"null","","html-keyboard-response","190","1716237","0.0-186.0","A3I2PT6W0FP7BR","<p style=""font-size: 48px;"">+</p>","","","","","null","allTrialResponses","500","1","20","img_art/22.jpg","27","I like it for some unknown reason.","Alex,Brett,Robert,James,Jeremy,Dustin","Not a huge fan of the blocks, also very abstract, I have no idea what it is,8,100,20","Climate change in a big city,35,360,20","I don't get much of a reaction.,11,360,20","Like the black key and the rainbow color theme.,31,380,20","Happy. I like to colors,33,60,20","Too much red. The red/yellow/orange make me think of heat/fire, which makes me anxious.,-10,20,20","Dustin","Too much red. The red/yellow/orange make me think of heat/fire, which makes me anxious.,-10,20,20","James","Like the black key and the rainbow color theme.,31,380,20","Jeremy","Happy. I like to colors,33,60,20","8"
"6825","","survey-text","191","1723072","0.0-187.0-0.0","A3I2PT6W0FP7BR","","","","{""Q0"":""we""}","","","","","","","","","","","","","","","","","","","","","","",""
"45744","","survey-text","192","1768819","0.0-188.0-0.0","A3I2PT6W0FP7BR","","","","{""Q0"":""Nice, Kind of scary.""}","","","","","","","","","","","","","","","","","","","","","","",""
"9075.60000000149","","image-slider-response","193","1777899","0.0-189.0","A3I2PT6W0FP7BR","","","","","43","","","","","","","","","","","","","","","","","","","","","",""
"null","","image-button-response","194","1782906","0.0-190.0","A3I2PT6W0FP7BR","img_art/13.jpg","null","","","","","","","","","","","","","","","","","","","","","","","","",""
"17979","","image-button-response","195","1800889","0.0-191.0","A3I2PT6W0FP7BR","img_art/13.jpg","4","","","","","","","","","","","","","","","","","","","","","","","","",""
"1850","","image-button-response","196","1802743","0.0-192.0-0.0","A3I2PT6W0FP7BR","img_art/13.jpg","3","","","","","","","","","","","","","","","","","","","","","","","","",""
"2348","","image-button-response","197","1805096","0.0-193.0-0.0","A3I2PT6W0FP7BR","img_art/13.jpg","0","","","","","","","","","","","","","","","","","","","","","","","","",""
"null","","html-keyboard-response","198","1806112","0.0-194.0","A3I2PT6W0FP7BR","<p style=""font-size: 48px;"">+</p>","","","","","null","allTrialResponses","1000","1","21","img_art/13.jpg","43","Nice, Kind of scary.","Victor,Jared,Jesus,James,Jeremy,Dustin","Great color balance. I like the splatter, and how the vertical lines go from sharper to more blended.,31,340,20","the blues are soothing but the splatters are too much,-3,400,20","I enjoy the cool colors mixed together,31,100,20","This is a very cool painting, something an art teacher or professor would own.,22,380,20","Pleased. I like to combination of colors,17,60,20","Cool and calming colors. I like splatter art.,10,20,20","Jeremy","Pleased. I like to combination of colors,17,60,20","James","This is a very cool painting, something an art teacher or professor would own.,22,380,20","Victor","Great color balance. I like the splatter, and how the vertical lines go from sharper to more blended.,31,340,20","8"
"27935","","survey-text","199","1834051","0.0-195.0-0.0","A3I2PT6W0FP7BR","","","","{""Q0"":""Looks like a scene from the abyss""}","","","","","","","","","","","","","","","","","","","","","","",""
"3151.39999999851","","image-slider-response","200","1837205","0.0-196.0","A3I2PT6W0FP7BR","","","","","12","","","","","","","","","","","","","","","","","","","","","",""
"1685","","image-button-response","201","1842225","0.0-197.0","A3I2PT6W0FP7BR","img_art/21.jpg","1","","","","","","","","","","","","","","","","","","","","","","","","",""
"359","","image-button-response","202","1842588","0.0-198.0","A3I2PT6W0FP7BR","img_art/21.jpg","1","","","","","","","","","","","","","","","","","","","","","","","","",""
"1745","","image-button-response","203","1844336","0.0-199.0-0.0","A3I2PT6W0FP7BR","img_art/21.jpg","2","","","","","","","","","","","","","","","","","","","","","","","","",""
"3755","","image-button-response","204","1848096","0.0-200.0-0.0","A3I2PT6W0FP7BR","img_art/21.jpg","5","","","","","","","","","","","","","","","","","","","","","","","","",""
"null","","html-keyboard-response","205","1849599","0.0-201.0","A3I2PT6W0FP7BR","<p style=""font-size: 48px;"">+</p>","","","","","null","allTrialResponses","1500","1","22","img_art/21.jpg","12","Looks like a scene from the abyss","Victor,Benjamin,Adrian,James,Jeremy,Luis","I really like these colors together and their placement. The dabs of white are a nice contrast to the soft blending,10,340,20","sunset after the rain,49,260,20","I like this piece more the more I look at. Still wouldn't want it in my home, though.,8,60,20","Don't really lean either way.,1,380,20","the picture is boring,1,60,20","I like the representation of love and hate in this,43,400,20","Benjamin","sunset after the rain,49,260,20","Adrian","I like this piece more the more I look at. Still wouldn't want it in my home, though.,8,60,20","Luis","I like the representation of love and hate in this,43,400,20","8"
"27810","","survey-text","206","1877416","0.0-202.0-0.0","A3I2PT6W0FP7BR","","","","{""Q0"":""Unique but nice in a way.""}","","","","","","","","","","","","","","","","","","","","","","",""
"3920.6999999955297","","image-slider-response","207","1881339","0.0-203.0","A3I2PT6W0FP7BR","","","","","24","","","","","","","","","","","","","","","","","","","","","",""
"null","","image-button-response","208","1886346","0.0-204.0","A3I2PT6W0FP7BR","img_art/27.jpg","null","","","","","","","","","","","","","","","","","","","","","","","","",""
"15875","","image-button-response","209","1902224","0.0-205.0","A3I2PT6W0FP7BR","img_art/27.jpg","4","","","","","","","","","","","","","","","","","","","","","","","","",""
"169","","image-button-response","210","1902398","0.0-206.0-0.0","A3I2PT6W0FP7BR","img_art/27.jpg","4","","","","","","","","","","","","","","","","","","","","","","","","",""
"1264","","image-button-response","211","1908534","0.0-206.1-0.1","A3I2PT6W0FP7BR","img_art/27.jpg","0","","","","","","","","","","","","","","","","","","","","","","","","",""
"1157","","image-button-response","212","1909694","0.0-207.0-0.0","A3I2PT6W0FP7BR","img_art/27.jpg","1","","","","","","","","","","","","","","","","","","","","","","","","",""
"null","","html-keyboard-response","213","1910705","0.0-208.0","A3I2PT6W0FP7BR","<p style=""font-size: 48px;"">+</p>","","","","","null","allTrialResponses","1000","1","23","img_art/27.jpg","24","Unique but nice in a way.","Nicholas,Benjamin,Adrian,Ryan,Mason,Luis","I like all it has going but i wouldnt put it in my house unless my child did it,25,240,20","I like the colors.,6,260,20","Looks like my niece's doodles.,-50,60,20","I love the childish aspect to it,37,380,20","dont like it, don't hate it, meh.,2,100,20","Love the representation of home,22,400,20","Mason","dont like it, don't hate it, meh.,2,100,20","Nicholas","I like all it has going but i wouldnt put it in my house unless my child did it,25,240,20","Benjamin","I like the colors.,6,260,20","10"
"28049","","survey-text","214","1938762","0.0-209.0-0.0","A3I2PT6W0FP7BR","","","","{""Q0"":""Dull. I hate it.""}","","","","","","","","","","","","","","","","","","","","","","",""
"5083.5","","image-slider-response","215","1943848","0.0-210.0","A3I2PT6W0FP7BR","","","","","-50","","","","","","","","","","","","","","","","","","","","","",""
"3972","","image-button-response","216","1948853","0.0-211.0","A3I2PT6W0FP7BR","img_art/2.jpg","5","","","","","","","","","","","","","","","","","","","","","","","","",""
"738","","image-button-response","217","1949593","0.0-212.0","A3I2PT6W0FP7BR","img_art/2.jpg","5","","","","","","","","","","","","","","","","","","","","","","","","",""
"2648","","image-button-response","218","1952242","0.0-213.0-0.0","A3I2PT6W0FP7BR","img_art/2.jpg","2","","","","","","","","","","","","","","","","","","","","","","","","",""
"4688","","image-button-response","219","1956935","0.0-214.0-0.0","A3I2PT6W0FP7BR","img_art/2.jpg","3","","","","","","","","","","","","","","","","","","","","","","","","",""
"null","","html-keyboard-response","220","1957445","0.0-215.0","A3I2PT6W0FP7BR","<p style=""font-size: 48px;"">+</p>","","","","","null","allTrialResponses","500","1","24","img_art/2.jpg","-50","Dull. I hate it.","Nicholas,Benjamin,David,Cody,Mason,Colton","Cute and happy,22,240,20","bright and happy,20,260,20","I feel that its too abstract for me to understand what I'm looking at.,-15,340,20","Don't love the colors,-30,180,20","retro, amateurish, not a fan of the colors together.,-10,100,20","too blocky and don't like color combination,-32,220,20","Colton","too blocky and don't like color combination,-32,220,20","David","I feel that its too abstract for me to understand what I'm looking at.,-15,340,20","Cody","Don't love the colors,-30,180,20","10"
"28560","","survey-text","221","1986012","0.0-216.0-0.0","A3I2PT6W0FP7BR","","","","{""Q0"":""Dull but awesome.""}","","","","","","","","","","","","","","","","","","","","","","",""
"4428.5999999940395","","image-slider-response","222","1990443","0.0-217.0","A3I2PT6W0FP7BR","","","","","37","","","","","","","","","","","","","","","","","","","","","",""
"null","","image-button-response","223","1995458","0.0-218.0","A3I2PT6W0FP7BR","img_art/16.jpg","null","","","","","","","","","","","","","","","","","","","","","","","","",""
"1365","","image-button-response","224","1996826","0.0-219.0","A3I2PT6W0FP7BR","img_art/16.jpg","1","","","","","","","","","","","","","","","","","","","","","","","","",""
"1383","","image-button-response","225","1998213","0.0-220.0-0.0","A3I2PT6W0FP7BR","img_art/16.jpg","2","","","","","","","","","","","","","","","","","","","","","","","","",""
"2373","","image-button-response","226","2000589","0.0-221.0-0.0","A3I2PT6W0FP7BR","img_art/16.jpg","4","","","","","","","","","","","","","","","","","","","","","","","","",""
"null","","html-keyboard-response","227","2001596","0.0-222.0","A3I2PT6W0FP7BR","<p style=""font-size: 48px;"">+</p>","","","","","null","allTrialResponses","1000","1","25","img_art/16.jpg","37","Dull but awesome.","Christopher,Kenneth,David,Cody,Joshua,Colton","i don't like the collage aspect,-25,160,20","Looks like someone got really high and did a bad photoshop job.,-27,300,20","The colored teddy bear clashes with the color scheme.,-20,340,20","Kind of creepyyyyyy,-41,180,20","This is weird and a little creepy.,6,240,20","the materials used are interesting,30,220,20","Kenneth","Looks like someone got really high and did a bad photoshop job.,-27,300,20","David","The colored teddy bear clashes with the color scheme.,-20,340,20","Joshua","This is weird and a little creepy.,6,240,20","10"
"11273","","survey-text","228","2012877","0.0-223.0-0.0","A3I2PT6W0FP7BR","","","","{""Q0"":""table""}","","","","","","","","","","","","","","","","","","","","","","",""
"44751","","survey-text","229","2057632","0.0-224.0-0.0","A3I2PT6W0FP7BR","","","","{""Q0"":""I don't like it. Period!""}","","","","","","","","","","","","","","","","","","","","","","",""
"5365.89999999851","","image-slider-response","230","2063002","0.0-225.0","A3I2PT6W0FP7BR","","","","","-50","","","","","","","","","","","","","","","","","","","","","",""
"2534","","image-button-response","231","2068019","0.0-226.0","A3I2PT6W0FP7BR","img_art/20.jpg","0","","","","","","","","","","","","","","","","","","","","","","","","",""
"2581","","image-button-response","232","2070604","0.0-227.0","A3I2PT6W0FP7BR","img_art/20.jpg","5","","","","","","","","","","","","","","","","","","","","","","","","",""
"2442","","image-button-response","233","2073048","0.0-228.0-0.0","A3I2PT6W0FP7BR","img_art/20.jpg","0","","","","","","","","","","","","","","","","","","","","","","","","",""
"3868","","image-button-response","234","2076917","0.0-229.0-0.0","A3I2PT6W0FP7BR","img_art/20.jpg","4","","","","","","","","","","","","","","","","","","","","","","","","",""
"null","","html-keyboard-response","235","2077425","0.0-230.0","A3I2PT6W0FP7BR","<p style=""font-size: 48px;"">+</p>","","","","","null","allTrialResponses","500","1","26","img_art/20.jpg","-50","I don't like it. Period!","Luke,Kenneth,David,Stephen,Joshua,Jonathan","it looks like a car crash which is depressing,-19,20,20","I want to like this more, but i wish it was more detailed. It's hard for me to see what it is.,5,300,20","I like how the image is depicting a scene.,10,340,20","Liked the background,15,140,20","Reminds me of the Southwest; i.e. New Mexico or Arizona. It's interesting.,12,240,20","This one feels scary in a bad way,-30,140,20","Jonathan","This one feels scary in a bad way,-30,140,20","Luke","it looks like a car crash which is depressing,-19,20,20","Joshua","Reminds me of the Southwest; i.e. New Mexico or Arizona. It's interesting.,12,240,20","10"
"19395","","survey-text","236","2096827","0.0-231.0-0.0","A3I2PT6W0FP7BR","","","","{""Q0"":""terrible and dull""}","","","","","","","","","","","","","","","","","","","","","","",""
"4041.60000000149","","image-slider-response","237","2100873","0.0-232.0","A3I2PT6W0FP7BR","","","","","-25","","","","","","","","","","","","","","","","","","","","","",""
"4715","","image-button-response","238","2105876","0.0-233.0","A3I2PT6W0FP7BR","img_art/26.jpg","1","","","","","","","","","","","","","","","","","","","","","","","","",""
"713","","image-button-response","239","2106591","0.0-234.0","A3I2PT6W0FP7BR","img_art/26.jpg","1","","","","","","","","","","","","","","","","","","","","","","","","",""
"2689","","image-button-response","240","2109285","0.0-235.0-0.0","A3I2PT6W0FP7BR","img_art/26.jpg","2","","","","","","","","","","","","","","","","","","","","","","","","",""
"3295","","image-button-response","241","2112583","0.0-236.0-0.0","A3I2PT6W0FP7BR","img_art/26.jpg","4","","","","","","","","","","","","","","","","","","","","","","","","",""
"null","","html-keyboard-response","242","2114096","0.0-237.0","A3I2PT6W0FP7BR","<p style=""font-size: 48px;"">+</p>","","","","","null","allTrialResponses","1500","1","27","img_art/26.jpg","-25","terrible and dull","Luke,Garrett,Jacob,Tyler,Joshua,Jonathan","makes me happy and reminds me of a paris courtyard,29,20,20","I like that it looks like an actual picture and isn't just random colors.,25,180,20","It doesn't look so vibrant, I'm not sure what feelings they were trying to capture,-41,340,20","Colors look glum; photograph is not properly contrasted and does not reflect the appropriate amount of natural light.,-10,320,20","This is boring.,-15,240,20","It's relaxing to look at but I wish it was just a little more defined,20,140,20","Garrett","I like that it looks like an actual picture and isn't just random colors.,25,180,20","Jacob","It doesn't look so vibrant, I'm not sure what feelings they were trying to capture,-41,340,20","Joshua","This is boring.,-15,240,20","10"
"21975","","survey-text","243","2136080","0.0-238.0-0.0","A3I2PT6W0FP7BR","","","","{""Q0"":""Very nice. I like it.""}","","","","","","","","","","","","","","","","","","","","","","",""
"3958.7999999970198","","image-slider-response","244","2140042","0.0-239.0","A3I2PT6W0FP7BR","","","","","26","","","","","","","","","","","","","","","","","","","","","",""
"3243","","image-button-response","245","2145047","0.0-240.0","A3I2PT6W0FP7BR","img_art/18.jpg","0","","","","","","","","","","","","","","","","","","","","","","","","",""
"718","","image-button-response","246","2145768","0.0-241.0","A3I2PT6W0FP7BR","img_art/18.jpg","2","","","","","","","","","","","","","","","","","","","","","","","","",""
"1847","","image-button-response","247","2147617","0.0-242.0-0.0","A3I2PT6W0FP7BR","img_art/18.jpg","0","","","","","","","","","","","","","","","","","","","","","","","","",""
"3221","","image-button-response","248","2150841","0.0-243.0-0.0","A3I2PT6W0FP7BR","img_art/18.jpg","4","","","","","","","","","","","","","","","","","","","","","","","","",""
"null","","html-keyboard-response","249","2151355","0.0-244.0","A3I2PT6W0FP7BR","<p style=""font-size: 48px;"">+</p>","","","","","null","allTrialResponses","500","1","28","img_art/18.jpg","26","Very nice. I like it.","Brian,Garrett,Jacob,Shawn,Joshua,Blake","Very classy, I feel like it's the apocalypse.,25,380,20","I think its supposed to be a boat and the boat looks kind of interesting to me.,10,180,20","I think this looks pretty cool, I can see what's kind of going on here.,22,340,20","Evocative but cheesy.,-20,100,20","Looks like ghost figures on a boat. It's okay.,7,240,20","i like the colors. outerspace,21,280,20","Jacob","I think this looks pretty cool, I can see what's kind of going on here.,22,340,20","Brian","Very classy, I feel like it's the apocalypse.,25,380,20","Joshua","Looks like ghost figures on a boat. It's okay.,7,240,20","10"
"25412","","survey-text","250","2176774","0.0-245.0-0.0","A3I2PT6W0FP7BR","","","","{""Q0"":""Totally cool in every way.""}","","","","","","","","","","","","","","","","","","","","","","",""
"6009.19999999553","","image-slider-response","251","2182787","0.0-246.0","A3I2PT6W0FP7BR","","","","","50","","","","","","","","","","","","","","","","","","","","","",""
"null","","image-button-response","252","2187805","0.0-247.0","A3I2PT6W0FP7BR","img_art/8.jpg","null","","","","","","","","","","","","","","","","","","","","","","","","",""
"17147","","image-button-response","253","2204955","0.0-248.0","A3I2PT6W0FP7BR","img_art/8.jpg","2","","","","","","","","","","","","","","","","","","","","","","","","",""
"3309","","image-button-response","254","2208268","0.0-249.0-0.0","A3I2PT6W0FP7BR","img_art/8.jpg","5","","","","","","","","","","","","","","","","","","","","","","","","",""
"1487","","image-button-response","255","2209758","0.0-250.0-0.0","A3I2PT6W0FP7BR","img_art/8.jpg","3","","","","","","","","","","","","","","","","","","","","","","","","",""
"null","","html-keyboard-response","256","2211260","0.0-251.0","A3I2PT6W0FP7BR","<p style=""font-size: 48px;"">+</p>","","","","","null","allTrialResponses","1500","1","29","img_art/8.jpg","50","Totally cool in every way.","Brian,Spencer,Jacob,Edward,Joshua,Paul","it's a little too classical for my tastes,-25,380,20","Nice formats, I just don't like it much,-16,120,20","Very cool! I like this piece,9,340,20","It's too boxy for my taste,-10,60,20","I don't understand it. Makes no sense to me.,5,240,20","The faces in the upper left show agony and contrast with the geometric shapes too much,-31,300,20","Jacob","Very cool! I like this piece,9,340,20","Paul","The faces in the upper left show agony and contrast with the geometric shapes too much,-31,300,20","Edward","It's too boxy for my taste,-10,60,20","10"
"24705","","survey-text","257","2235971","0.0-252.0-0.0","A3I2PT6W0FP7BR","","","","{""Q0"":""Nice. Lots of talent.""}","","","","","","","","","","","","","","","","","","","","","","",""
"4747.80000000447","","image-slider-response","258","2240723","0.0-253.0","A3I2PT6W0FP7BR","","","","","42","","","","","","","","","","","","","","","","","","","","","",""
"null","","image-button-response","259","2245740","0.0-254.0","A3I2PT6W0FP7BR","img_art/25.jpg","null","","","","","","","","","","","","","","","","","","","","","","","","",""
"6813","","image-button-response","260","2252555","0.0-255.0","A3I2PT6W0FP7BR","img_art/25.jpg","2","","","","","","","","","","","","","","","","","","","","","","","","",""
"2955","","image-button-response","261","2255514","0.0-256.0-0.0","A3I2PT6W0FP7BR","img_art/25.jpg","0","","","","","","","","","","","","","","","","","","","","","","","","",""
"2948","","image-button-response","262","2258467","0.0-257.0-0.0","A3I2PT6W0FP7BR","img_art/25.jpg","4","","","","","","","","","","","","","","","","","","","","","","","","",""
"null","","html-keyboard-response","263","2259478","0.0-258.0","A3I2PT6W0FP7BR","<p style=""font-size: 48px;"">+</p>","","","","","null","allTrialResponses","1000","1","30","img_art/25.jpg","42","Nice. Lots of talent.","Bryan,Mitchell,Jacob,Edward,Elijah,Paul","Scary. Something out of a Stephen King book/movie.,-31,400,20","culture, tradition. Village people with an honored elder.,40,180,20","I really like how the lines form this piece.,8,340,20","It looks like people worshipping a statue,33,60,20","Makes me feel intrigued,13,80,20","The skeletal figure is a bit scary,-12,300,20","Jacob","I really like how the lines form this piece.,8,340,20","Bryan","Scary. Something out of a Stephen King book/movie.,-31,400,20","Elijah","Makes me feel intrigued,13,80,20","10"
"7881","","image-button-response_instructions","264","2267366","0.0-259.0","A3I2PT6W0FP7BR","","0","instructions","","","","","","","","","","","","","","","","","","","","","","","",""
"2200","","image-button-response","265","2269575","0.0-260.0","A3I2PT6W0FP7BR","","0","","","","","","","","","","","","","","","","","","","","","","","","",""
