"rt","url","trial_type","trial_index","time_elapsed","internal_node_id","participant_id","stimulus","button_pressed","Name","responses","response","key_press","variableName","fixationTime","condition","trial","photo","subjectRating","subjectResponse","agentsNames","agent_1_Response","agent_2_Response","agent_3_Response","agent_4_Response","agent_5_Response","agent_6_Response","kept_1_name","kept_1_response","kept_2_name","kept_2_response","kept_3_name","kept_3_response","errorCounter"
"37475","external_page_harvard.html","external-html","0","38031","0.0-0.0","A3IS08UMHHOZW8","","","","","","","","","","","","","","","","","","","","","","","","","","",""
"2867","","image-button-response","1","40900","0.0-1.0","A3IS08UMHHOZW8","","0","","","","","","","","","","","","","","","","","","","","","","","","",""
"5800","","image-button-response","2","46708","0.0-2.0-0.0","A3IS08UMHHOZW8","","1","phone","","","","","","","","","","","","","","","","","","","","","","","",""
"24622","","survey-text","3","71332","0.0-3.0-0.0","A3IS08UMHHOZW8","","","","{""Q0"":""A3IS08UMHHOZW8""}","","","","","","","","","","","","","","","","","","","","","","",""
"5444","","image-button-response_instructions","4","76780","0.0-4.0","A3IS08UMHHOZW8","","0","instructions","","","","","","","","","","","","","","","","","","","","","","","",""
"59670","","image-button-response_instructions","5","136453","0.0-5.0","A3IS08UMHHOZW8","img_art/ins/popularity/ins1.png","0","instructions","","","","","","","","","","","","","","","","","","","","","","","",""
"15509","","image-button-response_instructions","6","151964","0.0-6.0","A3IS08UMHHOZW8","img_art/ins/popularity/ins2.png","0","instructions","","","","","","","","","","","","","","","","","","","","","","","",""
"10157","","image-button-response_instructions","7","162124","0.0-7.0","A3IS08UMHHOZW8","img_art/ins/popularity/ins2Extreme.png","0","instructions","","","","","","","","","","","","","","","","","","","","","","","",""
"55453","","image-button-response_instructions","8","217580","0.0-8.0","A3IS08UMHHOZW8","img_art/ins/popularity/ins3KEEPpop.PNG","0","instructions","","","","","","","","","","","","","","","","","","","","","","","",""
"22126","","image-button-response_instructions","9","239708","0.0-9.0","A3IS08UMHHOZW8","img_art/ins/popularity/ins3ANamepop.PNG","0","instructions","","","","","","","","","","","","","","","","","","","","","","","",""
"12222","","image-button-response_instructions","10","251932","0.0-10.0","A3IS08UMHHOZW8","img_art/ins/popularity/ins3ARatingpop.png","0","instructions","","","","","","","","","","","","","","","","","","","","","","","",""
"13590","","image-button-response_instructions","11","265524","0.0-11.0","A3IS08UMHHOZW8","img_art/ins/popularity/ins3ATextpop.png","0","instructions","","","","","","","","","","","","","","","","","","","","","","","",""
"27326","","image-button-response_instructions","12","292852","0.0-12.0","A3IS08UMHHOZW8","img_art/ins/popularity/ins3ALikespop.png","0","instructions","","","","","","","","","","","","","","","","","","","","","","","",""
"43134","","image-button-response_instructions","13","335988","0.0-13.0","A3IS08UMHHOZW8","img_art/ins/popularity/ins3KEEPpop.PNG","0","instructions","","","","","","","","","","","","","","","","","","","","","","","",""
"67655","","image-button-response_instructions","14","403645","0.0-14.0","A3IS08UMHHOZW8","img_art/ins/popularity/ins3_5RED.png","0","instructions","","","","","","","","","","","","","","","","","","","","","","","",""
"3422","","image-button-response_instructions","15","407068","0.0-15.0","A3IS08UMHHOZW8","img_art/ins/popularity/ins3KEEPpop.PNG","0","instructions","","","","","","","","","","","","","","","","","","","","","","","",""
"20303","","image-button-response_instructions","16","427372","0.0-16.0","A3IS08UMHHOZW8","img_art/ins/popularity/ins4KEEPpop.PNG","0","instructions","","","","","","","","","","","","","","","","","","","","","","","",""
"16198","","image-button-response_instructions","17","443572","0.0-17.0","A3IS08UMHHOZW8","img_art/ins/popularity/ins5KEEPpop.PNG","0","instructions","","","","","","","","","","","","","","","","","","","","","","","",""
"8263","","image-button-response_instructions","18","451836","0.0-18.0","A3IS08UMHHOZW8","","0","instructions","","","","","","","","","","","","","","","","","","","","","","","",""
"9890","","survey-text","19","461764","0.0-19.0-0.0","A3IS08UMHHOZW8","","","","{""Q0"":""but""}","","","","","","","","","","","","","","","","","","","","","","",""
"17069","","survey-text","20","478836","0.0-20.0-0.0","A3IS08UMHHOZW8","","","","{""Q0"":""I like the art.""}","","","","","","","","","","","","","","","","","","","","","","",""
"12148.299999999814","","image-slider-response","21","490988","0.0-21.0","A3IS08UMHHOZW8","","","","","27","","","","","","","","","","","","","","","","","","","","","",""
"null","","image-button-response","22","496005","0.0-22.0","A3IS08UMHHOZW8","img_art/ins/1.jpg","null","","","","","","","","","","","","","","","","","","","","","","","","",""
"4236","","image-button-response","23","500245","0.0-23.0","A3IS08UMHHOZW8","img_art/ins/1.jpg","1","","","","","","","","","","","","","","","","","","","","","","","","",""
"2860","","image-button-response","24","503108","0.0-24.0-0.0","A3IS08UMHHOZW8","img_art/ins/1.jpg","1","","","","","","","","","","","","","","","","","","","","","","","","",""
"1038","","image-button-response","25","519597","0.0-24.1-0.1","A3IS08UMHHOZW8","img_art/ins/1.jpg","3","","","","","","","","","","","","","","","","","","","","","","","","",""
"4235","","image-button-response","26","523837","0.0-25.0-0.0","A3IS08UMHHOZW8","img_art/ins/1.jpg","5","","","","","","","","","","","","","","","","","","","","","","","","",""
"null","","html-keyboard-response","27","524348","0.0-26.0","A3IS08UMHHOZW8","<p style=""font-size: 48px;"">+</p>","","","","","null","allTrialResponses","500","1","-2","img_art/ins/1.jpg","27","I like the art.","Adam,Alex,Ben,Carl,Daniel,Jack","Seems like doodles,-20,20,20","very creative work.,36,40,20","This color reminds me of poo,-46,60,20","very calming artwork,42,80,20","It looks like a murder scene.,-48,100,20","I like the sophisticated brushwork,40,120,20","Alex","very creative work.,36,40,20","Carl","very calming artwork,42,80,20","Jack","I like the sophisticated brushwork,40,120,20","2"
"23599","","survey-text","28","547956","0.0-27.0-0.0","A3IS08UMHHOZW8","","","","{""Q0"":""I like the color blending.""}","","","","","","","","","","","","","","","","","","","","","","",""
"6789.299999999814","","image-slider-response","29","554748","0.0-28.0","A3IS08UMHHOZW8","","","","","12","","","","","","","","","","","","","","","","","","","","","",""
"4405","","image-button-response","30","559756","0.0-29.0","A3IS08UMHHOZW8","img_art/ins/2.jpg","1","","","","","","","","","","","","","","","","","","","","","","","","",""
"4109","","image-button-response","31","563869","0.0-30.0","A3IS08UMHHOZW8","img_art/ins/2.jpg","1","","","","","","","","","","","","","","","","","","","","","","","","",""
"4596","","image-button-response","32","568469","0.0-31.0-0.0","A3IS08UMHHOZW8","img_art/ins/2.jpg","3","","","","","","","","","","","","","","","","","","","","","","","","",""
"2261","","image-button-response","33","570733","0.0-32.0-0.0","A3IS08UMHHOZW8","img_art/ins/2.jpg","4","","","","","","","","","","","","","","","","","","","","","","","","",""
"null","","html-keyboard-response","34","571742","0.0-33.0","A3IS08UMHHOZW8","<p style=""font-size: 48px;"">+</p>","","","","","null","allTrialResponses","1000","1","-1","img_art/ins/2.jpg","12","I like the color blending.","James,Alex,Kyle,Carl,John,Jack","looks too angry,-50,140,20","I like the blocks of color arrangements,30,40,20","Idk, it is just annoying,-32,180,20","I can feel the artist's passion in it,45,80,20","love the texture of paint,48,160,20","I would never be able to compose a sophisticated pallete like this,48,120,20","Alex","I like the blocks of color arrangements,30,40,20","Carl","I can feel the artist's passion in it,45,80,20","John","love the texture of paint,48,160,20","2"
"19604","","survey-text","35","591356","0.0-34.0-0.0","A3IS08UMHHOZW8","","","","{""Q0"":""I love the blue blend.""}","","","","","","","","","","","","","","","","","","","","","","",""
"4981.700000000186","","image-slider-response","36","596341","0.0-35.0","A3IS08UMHHOZW8","","","","","26","","","","","","","","","","","","","","","","","","","","","",""
"1965","","image-button-response","37","601351","0.0-36.0","A3IS08UMHHOZW8","img_art/ins/3.jpg","1","","","","","","","","","","","","","","","","","","","","","","","","",""
"1353","","image-button-response","38","602709","0.0-37.0","A3IS08UMHHOZW8","img_art/ins/3.jpg","1","","","","","","","","","","","","","","","","","","","","","","","","",""
"1062","","image-button-response","39","603772","0.0-38.0-0.0","A3IS08UMHHOZW8","img_art/ins/3.jpg","0","","","","","","","","","","","","","","","","","","","","","","","","",""
"2830","","image-button-response","40","606605","0.0-39.0-0.0","A3IS08UMHHOZW8","img_art/ins/3.jpg","0","","","","","","","","","","","","","","","","","","","","","","","","",""
"1446","","image-button-response","41","613229","0.0-39.1-0.1","A3IS08UMHHOZW8","img_art/ins/3.jpg","0","","","","","","","","","","","","","","","","","","","","","","","","",""
"2062","","image-button-response","42","619085","0.0-39.2-0.2","A3IS08UMHHOZW8","img_art/ins/3.jpg","3","","","","","","","","","","","","","","","","","","","","","","","","",""
"null","","html-keyboard-response","43","620087","0.0-40.0","A3IS08UMHHOZW8","<p style=""font-size: 48px;"">+</p>","","","","","null","allTrialResponses","1000","1","0","img_art/ins/3.jpg","26","I love the blue blend.","Mike,Alex,Ron,Carl,John,Sam","enjoy the different shades of blue,22,200,20","calming blue is very nice,36,40,20","It looks depressing,-26,220,20","It's an alright work,15,80,20","I like the overlapping of brushes,41,160,20","I can feel a rainy day from this painting,18,240,20","Alex","calming blue is very nice,36,40,20","Mike","enjoy the different shades of blue,22,200,20","Carl","It's an alright work,15,80,20","6"
"10095","","image-button-response_instructions","44","630188","0.0-41.0","A3IS08UMHHOZW8","","0","instructions","","","","","","","","","","","","","","","","","","","","","","","",""
"16390","","survey-likert","45","646581","0.0-42.0-0.0","A3IS08UMHHOZW8","","","","{""Q0"":"""",""Q1"":0,""Q2"":1}","","","","","","","","","","","","","","","","","","","","","","",""
"6126","","survey-text","46","652716","0.0-43.0-0.0","A3IS08UMHHOZW8","","","","{""Q0"":""rock""}","","","","","","","","","","","","","","","","","","","","","","",""
"34406","","survey-text","47","687124","0.0-44.0-0.0","A3IS08UMHHOZW8","","","","{""Q0"":""I like the colors blend.""}","","","","","","","","","","","","","","","","","","","","","","",""
"4957","","image-slider-response","48","692084","0.0-45.0","A3IS08UMHHOZW8","","","","","8","","","","","","","","","","","","","","","","","","","","","",""
"3985","","image-button-response","49","697133","0.0-46.0","A3IS08UMHHOZW8","img_art/14.jpg","0","","","","","","","","","","","","","","","","","","","","","","","","",""
"2175","","image-button-response","50","699316","0.0-47.0","A3IS08UMHHOZW8","img_art/14.jpg","1","","","","","","","","","","","","","","","","","","","","","","","","",""
"3533","","image-button-response","51","702852","0.0-48.0-0.0","A3IS08UMHHOZW8","img_art/14.jpg","2","","","","","","","","","","","","","","","","","","","","","","","","",""
"3269","","image-button-response","52","706124","0.0-49.0-0.0","A3IS08UMHHOZW8","img_art/14.jpg","3","","","","","","","","","","","","","","","","","","","","","","","","",""
"null","","html-keyboard-response","53","707126","0.0-50.0","A3IS08UMHHOZW8","<p style=""font-size: 48px;"">+</p>","","","","","null","allTrialResponses","1000","1","1","img_art/14.jpg","8","I like the colors blend.","Joseph,Evan,Luke,Andrew,Scott,Jake","I like that it looks like plants on a table, which reminds me of life.,4,220,20","I like the sharpness of the lines,20,140,20","looks like it's symbolizing rebirth which is hopeful,22,20,20","Makes me think of my plants growing,11,160,20","its okay nothing special,11,20,20","This is poorly done and not aesthetically appealing.,-2,360,20","Evan","I like the sharpness of the lines,20,140,20","Luke","looks like it's symbolizing rebirth which is hopeful,22,20,20","Andrew","Makes me think of my plants growing,11,160,20","6"
"17588","","survey-text","54","724723","0.0-51.0-0.0","A3IS08UMHHOZW8","","","","{""Q0"":""I love the drawings.""}","","","","","","","","","","","","","","","","","","","","","","",""
"6397.299999999814","","image-slider-response","55","731123","0.0-52.0","A3IS08UMHHOZW8","","","","","45","","","","","","","","","","","","","","","","","","","","","",""
"null","","image-button-response","56","736127","0.0-53.0","A3IS08UMHHOZW8","img_art/16.jpg","null","","","","","","","","","","","","","","","","","","","","","","","","",""
"1753","","image-button-response","57","737884","0.0-54.0","A3IS08UMHHOZW8","img_art/16.jpg","0","","","","","","","","","","","","","","","","","","","","","","","","",""
"6838","","image-button-response","58","744724","0.0-55.0-0.0","A3IS08UMHHOZW8","img_art/16.jpg","2","","","","","","","","","","","","","","","","","","","","","","","","",""
"3333","","image-button-response","59","748060","0.0-56.0-0.0","A3IS08UMHHOZW8","img_art/16.jpg","5","","","","","","","","","","","","","","","","","","","","","","","","",""
"null","","html-keyboard-response","60","748563","0.0-57.0","A3IS08UMHHOZW8","<p style=""font-size: 48px;"">+</p>","","","","","null","allTrialResponses","500","1","2","img_art/16.jpg","45","I love the drawings.","Timothy,Evan,Luke,Andrew,Cody,David","This feels like images of a painful childhood,-50,240,20","I do not like this dark and twisted portrayal of childhood,-42,140,20","while simple, it seems to have a deeper meaning on childhood,33,20,20","It just makes me feel uncomfortable,-25,160,20","Kind of creepyyyyyy,-41,180,20","The colored teddy bear clashes with the color scheme.,-20,340,20","Timothy","This feels like images of a painful childhood,-50,240,20","Luke","while simple, it seems to have a deeper meaning on childhood,33,20,20","David","The colored teddy bear clashes with the color scheme.,-20,340,20","6"
"13407","","survey-text","61","761979","0.0-58.0-0.0","A3IS08UMHHOZW8","","","","{""Q0"":""I love the drawings.""}","","","","","","","","","","","","","","","","","","","","","","",""
"5373.399999999441","","image-slider-response","62","767355","0.0-59.0","A3IS08UMHHOZW8","","","","","50","","","","","","","","","","","","","","","","","","","","","",""
"3581","","image-button-response","63","772381","0.0-60.0","A3IS08UMHHOZW8","img_art/24.jpg","1","","","","","","","","","","","","","","","","","","","","","","","","",""
"1051","","image-button-response","64","773436","0.0-61.0","A3IS08UMHHOZW8","img_art/24.jpg","1","","","","","","","","","","","","","","","","","","","","","","","","",""
"2685","","image-button-response","65","776123","0.0-62.0-0.0","A3IS08UMHHOZW8","img_art/24.jpg","0","","","","","","","","","","","","","","","","","","","","","","","","",""
"5318","","image-button-response","66","781444","0.0-63.0-0.0","A3IS08UMHHOZW8","img_art/24.jpg","2","","","","","","","","","","","","","","","","","","","","","","","","",""
"null","","html-keyboard-response","67","782468","0.0-64.0","A3IS08UMHHOZW8","<p style=""font-size: 48px;"">+</p>","","","","","null","allTrialResponses","1000","1","3","img_art/24.jpg","50","I love the drawings.","Timothy,Marcus,Luke,Garrett,Steven,David","Earthy wonderful, love everything about it,50,240,20","Love the colors in this work, and the sense of motion in the water,36,60,20","very colorful and intricate and makes me feel at peace,50,20,20","I like the way the colors are put together, and I can imagine this picture in real life.,40,180,20","It's beautiful! I love it! I see a waterfall, and they are my favorite things in the world,50,160,20","Invokes a strong sense of nature, since the piece can interpreted as a stream or an abstracted bird.,40,340,20","Marcus","Love the colors in this work, and the sense of motion in the water,36,60,20","Timothy","Earthy wonderful, love everything about it,50,240,20","Luke","very colorful and intricate and makes me feel at peace,50,20,20","6"
"11246","","survey-text","68","793723","0.0-65.0-0.0","A3IS08UMHHOZW8","","","","{""Q0"":""Looks creepy""}","","","","","","","","","","","","","","","","","","","","","","",""
"5796.799999999814","","image-slider-response","69","799523","0.0-66.0","A3IS08UMHHOZW8","","","","","-33","","","","","","","","","","","","","","","","","","","","","",""
"4982","","image-button-response","70","804526","0.0-67.0","A3IS08UMHHOZW8","img_art/25.jpg","1","","","","","","","","","","","","","","","","","","","","","","","","",""
"3723","","image-button-response","71","808252","0.0-68.0","A3IS08UMHHOZW8","img_art/25.jpg","2","","","","","","","","","","","","","","","","","","","","","","","","",""
"1494","","image-button-response","72","809747","0.0-69.0-0.0","A3IS08UMHHOZW8","img_art/25.jpg","1","","","","","","","","","","","","","","","","","","","","","","","","",""
"5773","","image-button-response","73","815523","0.0-70.0-0.0","A3IS08UMHHOZW8","img_art/25.jpg","0","","","","","","","","","","","","","","","","","","","","","","","","",""
"null","","html-keyboard-response","74","816027","0.0-71.0","A3IS08UMHHOZW8","<p style=""font-size: 48px;"">+</p>","","","","","null","allTrialResponses","500","1","4","img_art/25.jpg","-33","Looks creepy","Timothy,Marcus,Luke,Jonathan,Nathan,Noah","This makes me feel uneasy,-20,240,20","Ugly green color and don't like it at all,-30,60,20","the contrasting colors are very interesting,24,20,20","This painting is cool but it gives off an evil vibe,-10,140,20","I like it, a bit cryptic and obscene, I enjoy that,30,200,20","I find it enjoyable - mainly because it is not art I ever expected to see,16,260,20","Luke","the contrasting colors are very interesting,24,20,20","Marcus","Ugly green color and don't like it at all,-30,60,20","Timothy","This makes me feel uneasy,-20,240,20","6"
"7326","","survey-text","75","823363","0.0-72.0-0.0","A3IS08UMHHOZW8","","","","{""Q0"":""Looks creepy""}","","","","","","","","","","","","","","","","","","","","","","",""
"8309.399999999441","","image-slider-response","76","831676","0.0-73.0","A3IS08UMHHOZW8","","","","","-40","","","","","","","","","","","","","","","","","","","","","",""
"2669","","image-button-response","77","836680","0.0-74.0","A3IS08UMHHOZW8","img_art/28.jpg","0","","","","","","","","","","","","","","","","","","","","","","","","",""
"1945","","image-button-response","78","838628","0.0-75.0","A3IS08UMHHOZW8","img_art/28.jpg","1","","","","","","","","","","","","","","","","","","","","","","","","",""
"2622","","image-button-response","79","841252","0.0-76.0-0.0","A3IS08UMHHOZW8","img_art/28.jpg","2","","","","","","","","","","","","","","","","","","","","","","","","",""
"1309","","image-button-response","80","842564","0.0-77.0-0.0","A3IS08UMHHOZW8","img_art/28.jpg","0","","","","","","","","","","","","","","","","","","","","","","","","",""
"null","","html-keyboard-response","81","844066","0.0-78.0","A3IS08UMHHOZW8","<p style=""font-size: 48px;"">+</p>","","","","","null","allTrialResponses","1500","1","5","img_art/28.jpg","-40","Looks creepy","Timothy,Marcus,Luke,Hunter,Derek,Gregory","This one gives me an uneasy feeling,-10,240,20","This reminds me of internal organs.,-10,60,20","no clear colors or meaning to evoke emotions,-15,20,20","reminds me of kandinsky,14,240,20","The colors are dull but there's some kind of nostalgic essence of this painting,15,360,20","Gloomy colors and picture,5,220,20","Marcus","This reminds me of internal organs.,-10,60,20","Luke","no clear colors or meaning to evoke emotions,-15,20,20","Timothy","This one gives me an uneasy feeling,-10,240,20","6"
"6815","","survey-text","82","850900","0.0-79.0-0.0","A3IS08UMHHOZW8","","","","{""Q0"":""sky""}","","","","","","","","","","","","","","","","","","","","","","",""
"5502","","survey-text","83","856404","0.0-80.0-0.0","A3IS08UMHHOZW8","","","","{""Q0"":""I love the drawings.""}","","","","","","","","","","","","","","","","","","","","","","",""
"4669.5","","image-slider-response","84","861076","0.0-81.0","A3IS08UMHHOZW8","","","","","34","","","","","","","","","","","","","","","","","","","","","",""
"null","","image-button-response","85","866089","0.0-82.0","A3IS08UMHHOZW8","img_art/18.jpg","null","","","","","","","","","","","","","","","","","","","","","","","","",""
"424","","image-button-response","86","866516","0.0-83.0","A3IS08UMHHOZW8","img_art/18.jpg","0","","","","","","","","","","","","","","","","","","","","","","","","",""
"1982","","image-button-response","87","868500","0.0-84.0-0.0","A3IS08UMHHOZW8","img_art/18.jpg","1","","","","","","","","","","","","","","","","","","","","","","","","",""
"8989","","image-button-response","88","877492","0.0-85.0-0.0","A3IS08UMHHOZW8","img_art/18.jpg","3","","","","","","","","","","","","","","","","","","","","","","","","",""
"null","","html-keyboard-response","89","878995","0.0-86.0","A3IS08UMHHOZW8","<p style=""font-size: 48px;"">+</p>","","","","","null","allTrialResponses","1500","1","6","img_art/18.jpg","34","I love the drawings.","Timothy,Marcus,Luke,Dalton,Dustin,Alex","This gives a very ominous feeling,-30,240,20","like the grays and contrast of the yellow. This piece feels a bit angry,10,60,20","the harsh lines with the smooth lines makes me think of wild animals,20,20,20","i like the colors in the picture and can make out my own images,42,300,20","Looks messy. Reminds me of a battle or war. I have an unpleasant feeling the more I look.,-20,20,20","The small lines elicit a very nauseating response for some reason, too Dali like for me,-19,100,20","Timothy","This gives a very ominous feeling,-30,240,20","Marcus","like the grays and contrast of the yellow. This piece feels a bit angry,10,60,20","Dalton","i like the colors in the picture and can make out my own images,42,300,20","6"
"11464","","survey-text","90","890467","0.0-87.0-0.0","A3IS08UMHHOZW8","","","","{""Q0"":""It looks creative.""}","","","","","","","","","","","","","","","","","","","","","","",""
"3637.5999999996275","","image-slider-response","91","894107","0.0-88.0","A3IS08UMHHOZW8","","","","","24","","","","","","","","","","","","","","","","","","","","","",""
"3182","","image-button-response","92","899123","0.0-89.0","A3IS08UMHHOZW8","img_art/11.jpg","0","","","","","","","","","","","","","","","","","","","","","","","","",""
"1500","","image-button-response","93","900628","0.0-90.0","A3IS08UMHHOZW8","img_art/11.jpg","1","","","","","","","","","","","","","","","","","","","","","","","","",""
"2389","","image-button-response","94","903019","0.0-91.0-0.0","A3IS08UMHHOZW8","img_art/11.jpg","2","","","","","","","","","","","","","","","","","","","","","","","","",""
"2853","","image-button-response","95","905876","0.0-92.0-0.0","A3IS08UMHHOZW8","img_art/11.jpg","3","","","","","","","","","","","","","","","","","","","","","","","","",""
"null","","html-keyboard-response","96","906886","0.0-93.0","A3IS08UMHHOZW8","<p style=""font-size: 48px;"">+</p>","","","","","null","allTrialResponses","1000","1","7","img_art/11.jpg","24","It looks creative.","Timothy,Marcus,Elijah,Dalton,Trevor,Spencer","The movement in this one is extremely pleasent,40,240,20","I like this one very much, especially the shades of gray.,30,60,20","Very cool, makes me feel good,39,80,20","looks like highways and homes and lives intertwining.,27,300,20","I like how it looks like buildings but i'm not a fan of colors,20,280,20","Even with the colors, it is dreary to me,-32,120,20","Marcus","I like this one very much, especially the shades of gray.,30,60,20","Elijah","Very cool, makes me feel good,39,80,20","Dalton","looks like highways and homes and lives intertwining.,27,300,20","6"
"17659","","survey-text","97","924555","0.0-94.0-0.0","A3IS08UMHHOZW8","","","","{""Q0"":""I don't understand the drawings.""}","","","","","","","","","","","","","","","","","","","","","","",""
"4685.4000000003725","","image-slider-response","98","929243","0.0-95.0","A3IS08UMHHOZW8","","","","","-34","","","","","","","","","","","","","","","","","","","","","",""
"3397","","image-button-response","99","934251","0.0-96.0","A3IS08UMHHOZW8","img_art/10.jpg","0","","","","","","","","","","","","","","","","","","","","","","","","",""
"4796","","image-button-response","100","939052","0.0-97.0","A3IS08UMHHOZW8","img_art/10.jpg","4","","","","","","","","","","","","","","","","","","","","","","","","",""
"3285","","image-button-response","101","942340","0.0-98.0-0.0","A3IS08UMHHOZW8","img_art/10.jpg","5","","","","","","","","","","","","","","","","","","","","","","","","",""
"1901","","image-button-response","102","944244","0.0-99.0-0.0","A3IS08UMHHOZW8","img_art/10.jpg","0","","","","","","","","","","","","","","","","","","","","","","","","",""
"null","","html-keyboard-response","103","944746","0.0-100.0","A3IS08UMHHOZW8","<p style=""font-size: 48px;"">+</p>","","","","","null","allTrialResponses","500","1","8","img_art/10.jpg","-34","I don't understand the drawings.","Caleb,Marcus,Elijah,Dalton,Devin,Connor","This is a scribble of a mad man. Appears low effort.,-33,40,20","This makes me think of a city, specifically London.,20,60,20","Makes me feel amazed,23,80,20","for some reason reminds me of music,2,300,20","Looks a bit as though someone ran over it?,-13,380,20","Cello music instrument,11,240,20","Devin","Looks a bit as though someone ran over it?,-13,380,20","Connor","Cello music instrument,11,240,20","Caleb","This is a scribble of a mad man. Appears low effort.,-33,40,20","6"
"15625","","survey-text","104","960380","0.0-101.0-0.0","A3IS08UMHHOZW8","","","","{""Q0"":""The color are too much.""}","","","","","","","","","","","","","","","","","","","","","","",""
"3629.699999999255","","image-slider-response","105","964012","0.0-102.0","A3IS08UMHHOZW8","","","","","-32","","","","","","","","","","","","","","","","","","","","","",""
"null","","image-button-response","106","969022","0.0-103.0","A3IS08UMHHOZW8","img_art/23.jpg","null","","","","","","","","","","","","","","","","","","","","","","","","",""
"1763","","image-button-response","107","970788","0.0-104.0","A3IS08UMHHOZW8","img_art/23.jpg","3","","","","","","","","","","","","","","","","","","","","","","","","",""
"2477","","image-button-response","108","973268","0.0-105.0-0.0","A3IS08UMHHOZW8","img_art/23.jpg","4","","","","","","","","","","","","","","","","","","","","","","","","",""
"1317","","image-button-response","109","974589","0.0-106.0-0.0","A3IS08UMHHOZW8","img_art/23.jpg","5","","","","","","","","","","","","","","","","","","","","","","","","",""
"null","","html-keyboard-response","110","975593","0.0-107.0","A3IS08UMHHOZW8","<p style=""font-size: 48px;"">+</p>","","","","","null","allTrialResponses","1000","1","9","img_art/23.jpg","-32","The color are too much.","Caleb,Patrick,Jason,Adrian,Devin,Connor","Very colorful. Nice contrasts.,26,40,20","Beautiful color scheme,21,280,20","Interesting contrast,9,20,20","Too much contrasting colors together. I hate it.,-50,60,20","background is great but the white is a bit weird,3,380,20","Confetti dancer,-7,240,20","Adrian","Too much contrasting colors together. I hate it.,-50,60,20","Devin","background is great but the white is a bit weird,3,380,20","Connor","Confetti dancer,-7,240,20","6"
"11793","","survey-text","111","987395","0.0-108.0-0.0","A3IS08UMHHOZW8","","","","{""Q0"":""Looks creepy""}","","","","","","","","","","","","","","","","","","","","","","",""
"4925.4000000003725","","image-slider-response","112","992324","0.0-109.0","A3IS08UMHHOZW8","","","","","-31","","","","","","","","","","","","","","","","","","","","","",""
"3333","","image-button-response","113","997328","0.0-110.0","A3IS08UMHHOZW8","img_art/5.jpg","1","","","","","","","","","","","","","","","","","","","","","","","","",""
"2530","","image-button-response","114","999860","0.0-111.0","A3IS08UMHHOZW8","img_art/5.jpg","1","","","","","","","","","","","","","","","","","","","","","","","","",""
"3861","","image-button-response","115","1003724","0.0-112.0-0.0","A3IS08UMHHOZW8","img_art/5.jpg","3","","","","","","","","","","","","","","","","","","","","","","","","",""
"1772","","image-button-response","116","1005500","0.0-113.0-0.0","A3IS08UMHHOZW8","img_art/5.jpg","4","","","","","","","","","","","","","","","","","","","","","","","","",""
"null","","html-keyboard-response","117","1007015","0.0-114.0","A3IS08UMHHOZW8","<p style=""font-size: 48px;"">+</p>","","","","","null","allTrialResponses","1500","1","10","img_art/5.jpg","-31","Looks creepy","Ethan,Malik,Tanner,Adrian,Devin,Connor","This piece has a good flow. I like the yellow with black combo.,11,120,20","Not sure what I'm looking at,-16,40,20","sharp, painful yet playful,-5,180,20","Black bit reminds me of a giant splinter. Yellow bit reminds me of urine. I hate it.,-50,60,20","A bit too messy in my eyes,-4,380,20","Flame, candle, wind,30,240,20","Malik","Not sure what I'm looking at,-16,40,20","Adrian","Black bit reminds me of a giant splinter. Yellow bit reminds me of urine. I hate it.,-50,60,20","Devin","A bit too messy in my eyes,-4,380,20","6"
"5475","","survey-text","118","1012508","0.0-115.0-0.0","A3IS08UMHHOZW8","","","","{""Q0"":""our""}","","","","","","","","","","","","","","","","","","","","","","",""
"10526","","survey-text","119","1023036","0.0-116.0-0.0","A3IS08UMHHOZW8","","","","{""Q0"":""I hate it.""}","","","","","","","","","","","","","","","","","","","","","","",""
"4276.799999999814","","image-slider-response","120","1027316","0.0-117.0","A3IS08UMHHOZW8","","","","","-48","","","","","","","","","","","","","","","","","","","","","",""
"1660","","image-button-response","121","1032321","0.0-118.0","A3IS08UMHHOZW8","img_art/9.jpg","0","","","","","","","","","","","","","","","","","","","","","","","","",""
"1911","","image-button-response","122","1034236","0.0-119.0","A3IS08UMHHOZW8","img_art/9.jpg","2","","","","","","","","","","","","","","","","","","","","","","","","",""
"1125","","image-button-response","123","1035364","0.0-120.0-0.0","A3IS08UMHHOZW8","img_art/9.jpg","0","","","","","","","","","","","","","","","","","","","","","","","","",""
"6261","","image-button-response","124","1041629","0.0-121.0-0.0","A3IS08UMHHOZW8","img_art/9.jpg","5","","","","","","","","","","","","","","","","","","","","","","","","",""
"null","","html-keyboard-response","125","1042645","0.0-122.0","A3IS08UMHHOZW8","<p style=""font-size: 48px;"">+</p>","","","","","null","allTrialResponses","1000","1","11","img_art/9.jpg","-48","I hate it.","Shane,Malik,Brandon,Adrian,Devin,Alejandro","Angry beast mouth,-37,80,20","Colorful and expressive,15,40,20","I like the sense of forboding, the green creates a claustrophobic feeling,10,320,20","Looks like my niece's doodles.,-50,60,20","I really like the colors and details.,8,380,20","Evokes triumph of a mountain over powering a drowning sea,24,80,20","Brandon","I like the sense of forboding, the green creates a claustrophobic feeling,10,320,20","Shane","Angry beast mouth,-37,80,20","Alejandro","Evokes triumph of a mountain over powering a drowning sea,24,80,20","6"
"6171","","survey-text","126","1048828","0.0-123.0-0.0","A3IS08UMHHOZW8","","","","{""Q0"":""Looks creepy""}","","","","","","","","","","","","","","","","","","","","","","",""
"3261.7999999998137","","image-slider-response","127","1052092","0.0-124.0","A3IS08UMHHOZW8","","","","","-47","","","","","","","","","","","","","","","","","","","","","",""
"3181","","image-button-response","128","1057096","0.0-125.0","A3IS08UMHHOZW8","img_art/21.jpg","0","","","","","","","","","","","","","","","","","","","","","","","","",""
"3552","","image-button-response","129","1060653","0.0-126.0","A3IS08UMHHOZW8","img_art/21.jpg","3","","","","","","","","","","","","","","","","","","","","","","","","",""
"3908","","image-button-response","130","1064564","0.0-127.0-0.0","A3IS08UMHHOZW8","img_art/21.jpg","5","","","","","","","","","","","","","","","","","","","","","","","","",""
"1821","","image-button-response","131","1066388","0.0-128.0-0.0","A3IS08UMHHOZW8","img_art/21.jpg","0","","","","","","","","","","","","","","","","","","","","","","","","",""
"null","","html-keyboard-response","132","1067891","0.0-129.0","A3IS08UMHHOZW8","<p style=""font-size: 48px;"">+</p>","","","","","null","allTrialResponses","1500","1","12","img_art/21.jpg","-47","Looks creepy","Shane,Isaac,Brandon,Brendan,Vincent,Alejandro","It reminds me of war, red blood and dark blue reminds me of an army,-20,80,20","I like the colors. It looks dramatic.,5,280,20","I love this. Reminds me of a coast. The colors flow beautifully,40,320,20","looks like a sea during some war,27,340,20","Love the colors have to say this is my favorite above all,37,360,20","Feels like a clash between land and sea,31,80,20","Brendan","looks like a sea during some war,27,340,20","Alejandro","Feels like a clash between land and sea,31,80,20","Shane","It reminds me of war, red blood and dark blue reminds me of an army,-20,80,20","6"
"20725","","survey-text","133","1088628","0.0-130.0-0.0","A3IS08UMHHOZW8","","","","{""Q0"":""Too many colors. I hate it.""}","","","","","","","","","","","","","","","","","","","","","","",""
"7829.299999999814","","image-slider-response","134","1096460","0.0-131.0","A3IS08UMHHOZW8","","","","","-38","","","","","","","","","","","","","","","","","","","","","",""
"2548","","image-button-response","135","1101466","0.0-132.0","A3IS08UMHHOZW8","img_art/12.jpg","0","","","","","","","","","","","","","","","","","","","","","","","","",""
"1815","","image-button-response","136","1103285","0.0-133.0","A3IS08UMHHOZW8","img_art/12.jpg","1","","","","","","","","","","","","","","","","","","","","","","","","",""
"2716","","image-button-response","137","1106004","0.0-134.0-0.0","A3IS08UMHHOZW8","img_art/12.jpg","1","","","","","","","","","","","","","","","","","","","","","","","","",""
"1598","","image-button-response","138","1112756","0.0-134.1-0.1","A3IS08UMHHOZW8","img_art/12.jpg","3","","","","","","","","","","","","","","","","","","","","","","","","",""
"13372","","image-button-response","139","1126132","0.0-135.0-0.0","A3IS08UMHHOZW8","img_art/12.jpg","4","","","","","","","","","","","","","","","","","","","","","","","","",""
"null","","html-keyboard-response","140","1127136","0.0-136.0","A3IS08UMHHOZW8","<p style=""font-size: 48px;"">+</p>","","","","","null","allTrialResponses","1000","1","13","img_art/12.jpg","-38","Too many colors. I hate it.","Shane,Jack,Tristan,Brendan,Christian,Alejandro","Something you would see in a government building hallway,3,80,20","interesting, but feels like someone cut up a picture and pasted it together wrong. want to see the original,15,320,20","Quite lovely with depth and possibility.,21,300,20","wtf is that i dont get it,-50,340,20","so many different available interpretations for this, would love to closer.,24,140,20","I like the sectioned nature of the squares and curves. Not my favorite but still a good one.,27,80,20","Jack","interesting, but feels like someone cut up a picture and pasted it together wrong. want to see the original,15,320,20","Brendan","wtf is that i dont get it,-50,340,20","Christian","so many different available interpretations for this, would love to closer.,24,140,20","8"
"20959","","survey-text","141","1148108","0.0-137.0-0.0","A3IS08UMHHOZW8","","","","{""Q0"":""I don't understand it.""}","","","","","","","","","","","","","","","","","","","","","","",""
"3797.2000000001863","","image-slider-response","142","1151908","0.0-138.0","A3IS08UMHHOZW8","","","","","-39","","","","","","","","","","","","","","","","","","","","","",""
"4581","","image-button-response","143","1156913","0.0-139.0","A3IS08UMHHOZW8","img_art/4.jpg","1","","","","","","","","","","","","","","","","","","","","","","","","",""
"1272","","image-button-response","144","1158188","0.0-140.0","A3IS08UMHHOZW8","img_art/4.jpg","1","","","","","","","","","","","","","","","","","","","","","","","","",""
"4606","","image-button-response","145","1162796","0.0-141.0-0.0","A3IS08UMHHOZW8","img_art/4.jpg","3","","","","","","","","","","","","","","","","","","","","","","","","",""
"2164","","image-button-response","146","1164964","0.0-142.0-0.0","A3IS08UMHHOZW8","img_art/4.jpg","4","","","","","","","","","","","","","","","","","","","","","","","","",""
"null","","html-keyboard-response","147","1165467","0.0-143.0","A3IS08UMHHOZW8","<p style=""font-size: 48px;"">+</p>","","","","","null","allTrialResponses","500","1","14","img_art/4.jpg","-39","I don't understand it.","Kevin,Jack,Stephen,Brendan,Christian,Charles","A leaning trophy,-9,320,20","creepy, looks like a deformed hand, but the background is pretty,5,320,20","Just doesn't look nice.,-40,140,20","just a scuffed hand,-15,340,20","no sorry i can't really understand,-18,140,20","It's ok, theres nothing that draws me away from it I guess,0,100,20","Jack","creepy, looks like a deformed hand, but the background is pretty,5,320,20","Brendan","just a scuffed hand,-15,340,20","Christian","no sorry i can't really understand,-18,140,20","8"
"6172","","survey-text","148","1171652","0.0-144.0-0.0","A3IS08UMHHOZW8","","","","{""Q0"":""It looks creative.""}","","","","","","","","","","","","","","","","","","","","","","",""
"3957.5","","image-slider-response","149","1175612","0.0-145.0","A3IS08UMHHOZW8","","","","","36","","","","","","","","","","","","","","","","","","","","","",""
"4909","","image-button-response","150","1180616","0.0-146.0","A3IS08UMHHOZW8","img_art/13.jpg","0","","","","","","","","","","","","","","","","","","","","","","","","",""
"1272","","image-button-response","151","1181892","0.0-147.0","A3IS08UMHHOZW8","img_art/13.jpg","1","","","","","","","","","","","","","","","","","","","","","","","","",""
"8037","","image-button-response","152","1189932","0.0-148.0-0.0","A3IS08UMHHOZW8","img_art/13.jpg","5","","","","","","","","","","","","","","","","","","","","","","","","",""
"1828","","image-button-response","153","1191764","0.0-149.0-0.0","A3IS08UMHHOZW8","img_art/13.jpg","0","","","","","","","","","","","","","","","","","","","","","","","","",""
"null","","html-keyboard-response","154","1192771","0.0-150.0","A3IS08UMHHOZW8","<p style=""font-size: 48px;"">+</p>","","","","","null","allTrialResponses","1000","1","15","img_art/13.jpg","36","It looks creative.","James,Jack,Chase,Brendan,Christian,Robert","This is a very cool painting, something an art teacher or professor would own.,22,380,20","exciting & chaotic. love the colors.,50,320,20","Seems a little cold but I like the neuron looking splatters.,10,120,20","its crazy to the point that i cant get it,-28,340,20","love the style but not very novel,9,140,20","Raindrops splashing on the window.,50,360,20","Jack","exciting & chaotic. love the colors.,50,320,20","Robert","Raindrops splashing on the window.,50,360,20","James","This is a very cool painting, something an art teacher or professor would own.,22,380,20","8"
"8314","","survey-text","155","1201107","0.0-151.0-0.0","A3IS08UMHHOZW8","","","","{""Q0"":""course""}","","","","","","","","","","","","","","","","","","","","","","",""
"5758","","survey-text","156","1206867","0.0-152.0-0.0","A3IS08UMHHOZW8","","","","{""Q0"":""It looks creative.""}","","","","","","","","","","","","","","","","","","","","","","",""
"3317.7000000001863","","image-slider-response","157","1210187","0.0-153.0","A3IS08UMHHOZW8","","","","","19","","","","","","","","","","","","","","","","","","","","","",""
"2286","","image-button-response","158","1215191","0.0-154.0","A3IS08UMHHOZW8","img_art/27.jpg","0","","","","","","","","","","","","","","","","","","","","","","","","",""
"2121","","image-button-response","159","1217316","0.0-155.0","A3IS08UMHHOZW8","img_art/27.jpg","1","","","","","","","","","","","","","","","","","","","","","","","","",""
"3030","","image-button-response","160","1220348","0.0-156.0-0.0","A3IS08UMHHOZW8","img_art/27.jpg","2","","","","","","","","","","","","","","","","","","","","","","","","",""
"7205","","image-button-response","161","1227556","0.0-157.0-0.0","A3IS08UMHHOZW8","img_art/27.jpg","0","","","","","","","","","","","","","","","","","","","","","","","","",""
"null","","html-keyboard-response","162","1228059","0.0-158.0","A3IS08UMHHOZW8","<p style=""font-size: 48px;"">+</p>","","","","","null","allTrialResponses","500","1","16","img_art/27.jpg","19","It looks creative.","James,Jack,Jordan,Cole,Angel,Robert","This painting is very unique,21,380,20","the green & white scribbles feel childlike. perhaps the quality of the photo, but the colors are gloomy.,-13,320,20","Looks like a little kids drawing,20,160,20","Unfinished something?,-30,200,20","Makes me think of Japanese food. I perceive it as comfortable and healthy.,20,180,20","The black sketchy over the colors doesn't fit.,-4,360,20","Jack","the green & white scribbles feel childlike. perhaps the quality of the photo, but the colors are gloomy.,-13,320,20","Jordan","Looks like a little kids drawing,20,160,20","James","This painting is very unique,21,380,20","8"
"5821","","survey-text","163","1233891","0.0-159.0-0.0","A3IS08UMHHOZW8","","","","{""Q0"":""I don't understand it.""}","","","","","","","","","","","","","","","","","","","","","","",""
"3341.600000000559","","image-slider-response","164","1237235","0.0-160.0","A3IS08UMHHOZW8","","","","","-35","","","","","","","","","","","","","","","","","","","","","",""
"null","","image-button-response","165","1242239","0.0-161.0","A3IS08UMHHOZW8","img_art/29.jpg","null","","","","","","","","","","","","","","","","","","","","","","","","",""
"1378","","image-button-response","166","1243620","0.0-162.0","A3IS08UMHHOZW8","img_art/29.jpg","3","","","","","","","","","","","","","","","","","","","","","","","","",""
"1941","","image-button-response","167","1245565","0.0-163.0-0.0","A3IS08UMHHOZW8","img_art/29.jpg","4","","","","","","","","","","","","","","","","","","","","","","","","",""
"1579","","image-button-response","168","1247149","0.0-164.0-0.0","A3IS08UMHHOZW8","img_art/29.jpg","5","","","","","","","","","","","","","","","","","","","","","","","","",""
"null","","html-keyboard-response","169","1248152","0.0-165.0","A3IS08UMHHOZW8","<p style=""font-size: 48px;"">+</p>","","","","","null","allTrialResponses","1000","1","17","img_art/29.jpg","-35","I don't understand it.","James,Jack,Jordan,Peter,Lucas,Miguel","It has a red X on there, and x's mean bad in my perspective,-29,380,20","risks well taken. the brush is hilarious. feels like an artist's frustration, which is relatable.,50,320,20","Messy and disorganized, to odark,-31,160,20","Looks like a jail cell,-15,320,20","Looks kinda scary.,25,380,20","It's too messy.,-25,160,20","Peter","Looks like a jail cell,-15,320,20","Lucas","Looks kinda scary.,25,380,20","Miguel","It's too messy.,-25,160,20","8"
"10430","","survey-text","170","1258596","0.0-166.0-0.0","A3IS08UMHHOZW8","","","","{""Q0"":""Looks creepy""}","","","","","","","","","","","","","","","","","","","","","","",""
"3813","","image-slider-response","171","1262411","0.0-167.0","A3IS08UMHHOZW8","","","","","-29","","","","","","","","","","","","","","","","","","","","","",""
"3054","","image-button-response","172","1267415","0.0-168.0","A3IS08UMHHOZW8","img_art/26.jpg","1","","","","","","","","","","","","","","","","","","","","","","","","",""
"2290","","image-button-response","173","1269708","0.0-169.0","A3IS08UMHHOZW8","img_art/26.jpg","2","","","","","","","","","","","","","","","","","","","","","","","","",""
"1237","","image-button-response","174","1270948","0.0-170.0-0.0","A3IS08UMHHOZW8","img_art/26.jpg","1","","","","","","","","","","","","","","","","","","","","","","","","",""
"4621","","image-button-response","175","1275572","0.0-171.0-0.0","A3IS08UMHHOZW8","img_art/26.jpg","5","","","","","","","","","","","","","","","","","","","","","","","","",""
"null","","html-keyboard-response","176","1276575","0.0-172.0","A3IS08UMHHOZW8","<p style=""font-size: 48px;"">+</p>","","","","","null","allTrialResponses","1000","1","18","img_art/26.jpg","-29","Looks creepy","Antonio,Jorge,Logan,Peter,Lucas,Miguel","Calming and relaxing,28,220,20","dull and boring,-6,180,20","I really love pastels and they're just being dimmed down too much here,-3,360,20","Reminds me of a European street, I desire to walk in this picture,28,320,20","Nothing to say.,0,380,20","Murky, messy, kid like.,-45,160,20","Logan","I really love pastels and they're just being dimmed down too much here,-3,360,20","Jorge","dull and boring,-6,180,20","Miguel","Murky, messy, kid like.,-45,160,20","8"
"24738","","survey-text","177","1301324","0.0-173.0-0.0","A3IS08UMHHOZW8","","","","{""Q0"":""I hate the color blending.""}","","","","","","","","","","","","","","","","","","","","","","",""
"3293.699999999255","","image-slider-response","178","1304620","0.0-174.0","A3IS08UMHHOZW8","","","","","-36","","","","","","","","","","","","","","","","","","","","","",""
"null","","image-button-response","179","1309631","0.0-175.0","A3IS08UMHHOZW8","img_art/15.jpg","null","","","","","","","","","","","","","","","","","","","","","","","","",""
"5969","","image-button-response","180","1315604","0.0-176.0","A3IS08UMHHOZW8","img_art/15.jpg","4","","","","","","","","","","","","","","","","","","","","","","","","",""
"1981","","image-button-response","181","1317588","0.0-177.0-0.0","A3IS08UMHHOZW8","img_art/15.jpg","5","","","","","","","","","","","","","","","","","","","","","","","","",""
"12061","","image-button-response","182","1329652","0.0-178.0-0.0","A3IS08UMHHOZW8","img_art/15.jpg","3","","","","","","","","","","","","","","","","","","","","","","","","",""
"null","","html-keyboard-response","183","1331156","0.0-179.0","A3IS08UMHHOZW8","<p style=""font-size: 48px;"">+</p>","","","","","null","allTrialResponses","1500","1","19","img_art/15.jpg","-36","I hate the color blending.","Thomas,Jorge,Logan,Carlos,Nathaniel,Miguel","Interesting, and I don't dislike it.,9,220,20","interested in this transformation,20,180,20","I couldn't tell you why but I'm really into this,39,360,20","It is visually appealing, stark and simple but natural.,41,80,20","This is passable, but personally it just has nothing I'd like to see.,-14,220,20","Simple but not good,-34,160,20","Nathaniel","This is passable, but personally it just has nothing I'd like to see.,-14,220,20","Miguel","Simple but not good,-34,160,20","Carlos","It is visually appealing, stark and simple but natural.,41,80,20","8"
"8083","","survey-text","184","1339252","0.0-180.0-0.0","A3IS08UMHHOZW8","","","","{""Q0"":""I don't understand it.""}","","","","","","","","","","","","","","","","","","","","","","",""
"3861.2999999998137","","image-slider-response","185","1343115","0.0-181.0","A3IS08UMHHOZW8","","","","","-34","","","","","","","","","","","","","","","","","","","","","",""
"null","","image-button-response","186","1348120","0.0-182.0","A3IS08UMHHOZW8","img_art/22.jpg","null","","","","","","","","","","","","","","","","","","","","","","","","",""
"2345","","image-button-response","187","1350468","0.0-183.0","A3IS08UMHHOZW8","img_art/22.jpg","2","","","","","","","","","","","","","","","","","","","","","","","","",""
"2934","","image-button-response","188","1353404","0.0-184.0-0.0","A3IS08UMHHOZW8","img_art/22.jpg","4","","","","","","","","","","","","","","","","","","","","","","","","",""
"53","","image-button-response","189","1353460","0.0-185.0-0.0","A3IS08UMHHOZW8","img_art/22.jpg","4","","","","","","","","","","","","","","","","","","","","","","","","",""
"1286","","image-button-response","190","1361876","0.0-185.1-0.1","A3IS08UMHHOZW8","img_art/22.jpg","5","","","","","","","","","","","","","","","","","","","","","","","","",""
"null","","html-keyboard-response","191","1363378","0.0-186.0","A3IS08UMHHOZW8","<p style=""font-size: 48px;"">+</p>","","","","","null","allTrialResponses","1500","1","20","img_art/22.jpg","-34","I don't understand it.","Grant,Dylan,Nicholas,Carlos,Nathaniel,Miguel","The way the colors seem to be reflected is a bit mesmerizing.,10,200,20","The colors in this picture are nice.,32,40,20","Pretty colors but something seems sinister about it,25,240,20","The colors are pleasant, the shapes are inviting.,21,80,20","Looks like a giant blob,-45,220,20","Same az the last one?,-49,160,20","Nicholas","Pretty colors but something seems sinister about it,25,240,20","Nathaniel","Looks like a giant blob,-45,220,20","Miguel","Same az the last one?,-49,160,20","10"
"4619","","survey-text","192","1368019","0.0-187.0-0.0","A3IS08UMHHOZW8","","","","{""Q0"":""we""}","","","","","","","","","","","","","","","","","","","","","","",""
"6429","","survey-text","193","1374451","0.0-188.0-0.0","A3IS08UMHHOZW8","","","","{""Q0"":""I love the blue blend.""}","","","","","","","","","","","","","","","","","","","","","","",""
"4270.0999999996275","","image-slider-response","194","1378723","0.0-189.0","A3IS08UMHHOZW8","","","","","32","","","","","","","","","","","","","","","","","","","","","",""
"2558","","image-button-response","195","1383740","0.0-190.0","A3IS08UMHHOZW8","img_art/30.jpg","0","","","","","","","","","","","","","","","","","","","","","","","","",""
"7779","","image-button-response","196","1391524","0.0-191.0","A3IS08UMHHOZW8","img_art/30.jpg","4","","","","","","","","","","","","","","","","","","","","","","","","",""
"5604","","image-button-response","197","1397131","0.0-192.0-0.0","A3IS08UMHHOZW8","img_art/30.jpg","0","","","","","","","","","","","","","","","","","","","","","","","","",""
"4684","","image-button-response","198","1401819","0.0-193.0-0.0","A3IS08UMHHOZW8","img_art/30.jpg","1","","","","","","","","","","","","","","","","","","","","","","","","",""
"null","","html-keyboard-response","199","1402323","0.0-194.0","A3IS08UMHHOZW8","<p style=""font-size: 48px;"">+</p>","","","","","null","allTrialResponses","500","1","21","img_art/30.jpg","32","I love the blue blend.","Kyle,Brian,Nicholas,Jesse,Nathaniel,Miguel","Pretty neutral about this one,0,340,20","this is probably part of a neat series, but the abstraction doesn't speak to me,-17,380,20","Too much like childrens finger paint. I dont like the smear of blended colors,-50,240,20","I do like the multi-dimensional aspect of this piece,10,80,20","No my favorite, but I do like the long strokes of color,11,220,20","Absolutely messy,-31,160,20","Nathaniel","No my favorite, but I do like the long strokes of color,11,220,20","Kyle","Pretty neutral about this one,0,340,20","Brian","this is probably part of a neat series, but the abstraction doesn't speak to me,-17,380,20","10"
"4913","","survey-text","200","1407251","0.0-195.0-0.0","A3IS08UMHHOZW8","","","","{""Q0"":""I don't understand it.""}","","","","","","","","","","","","","","","","","","","","","","",""
"4429.5","","image-slider-response","201","1411683","0.0-196.0","A3IS08UMHHOZW8","","","","","-31","","","","","","","","","","","","","","","","","","","","","",""
"null","","image-button-response","202","1416698","0.0-197.0","A3IS08UMHHOZW8","img_art/20.jpg","null","","","","","","","","","","","","","","","","","","","","","","","","",""
"3838","","image-button-response","203","1420539","0.0-198.0","A3IS08UMHHOZW8","img_art/20.jpg","4","","","","","","","","","","","","","","","","","","","","","","","","",""
"1669","","image-button-response","204","1422212","0.0-199.0-0.0","A3IS08UMHHOZW8","img_art/20.jpg","5","","","","","","","","","","","","","","","","","","","","","","","","",""
"2990","","image-button-response","205","1425203","0.0-200.0-0.0","A3IS08UMHHOZW8","img_art/20.jpg","1","","","","","","","","","","","","","","","","","","","","","","","","",""
"null","","html-keyboard-response","206","1426207","0.0-201.0","A3IS08UMHHOZW8","<p style=""font-size: 48px;"">+</p>","","","","","null","allTrialResponses","1000","1","22","img_art/20.jpg","-31","I don't understand it.","Kyle,Brian,Mason,Devon,Nathaniel,Jose","This one is okay but I don't really care for it,5,340,20","The colors are nice, and the shapes conjure the decay of the city in the face of natural entropy,19,380,20","Very cool, and calming (again) Love it.,47,100,20","i can feel the intensity in this,11,400,20","A bit hectic, but it does have a bit of coolness to it,6,220,20","More dark colors and blurry objects.,13,200,20","Nathaniel","A bit hectic, but it does have a bit of coolness to it,6,220,20","Jose","More dark colors and blurry objects.,13,200,20","Brian","The colors are nice, and the shapes conjure the decay of the city in the face of natural entropy,19,380,20","10"
"19847","","survey-text","207","1446067","0.0-202.0-0.0","A3IS08UMHHOZW8","","","","{""Q0"":""Its a kid drawing.""}","","","","","","","","","","","","","","","","","","","","","","",""
"5053.5","","image-slider-response","208","1451124","0.0-203.0","A3IS08UMHHOZW8","","","","","-19","","","","","","","","","","","","","","","","","","","","","",""
"2373","","image-button-response","209","1456127","0.0-204.0","A3IS08UMHHOZW8","img_art/6.jpg","0","","","","","","","","","","","","","","","","","","","","","","","","",""
"1922","","image-button-response","210","1458052","0.0-205.0","A3IS08UMHHOZW8","img_art/6.jpg","2","","","","","","","","","","","","","","","","","","","","","","","","",""
"1293","","image-button-response","211","1459348","0.0-206.0-0.0","A3IS08UMHHOZW8","img_art/6.jpg","1","","","","","","","","","","","","","","","","","","","","","","","","",""
"3132","","image-button-response","212","1462484","0.0-207.0-0.0","A3IS08UMHHOZW8","img_art/6.jpg","4","","","","","","","","","","","","","","","","","","","","","","","","",""
"null","","html-keyboard-response","213","1463488","0.0-208.0","A3IS08UMHHOZW8","<p style=""font-size: 48px;"">+</p>","","","","","null","allTrialResponses","1000","1","23","img_art/6.jpg","-19","Its a kid drawing.","Anthony,Brian,Jacob,Shawn,Nathaniel,Jose","I am neutral towards this piece.,0,200,20","this is too simple for me,-34,380,20","Is this a leaf?,4,340,20","Cute and evocative,11,100,20","Not my favorite, but I like the empty vibe and the imagination it invokes. A skinny girl with long legs, perhaps, looking over a cliff,9,220,20","This could be so many different things. I saw a bird first but then it looks like a needle going into skin,34,200,20","Jacob","Is this a leaf?,4,340,20","Brian","this is too simple for me,-34,380,20","Nathaniel","Not my favorite, but I like the empty vibe and the imagination it invokes. A skinny girl with long legs, perhaps, looking over a cliff,9,220,20","10"
"5406","","survey-text","214","1468907","0.0-209.0-0.0","A3IS08UMHHOZW8","","","","{""Q0"":""Looks creepy""}","","","","","","","","","","","","","","","","","","","","","","",""
"3997.399999999441","","image-slider-response","215","1472907","0.0-210.0","A3IS08UMHHOZW8","","","","","-38","","","","","","","","","","","","","","","","","","","","","",""
"3214","","image-button-response","216","1477916","0.0-211.0","A3IS08UMHHOZW8","img_art/19.jpg","0","","","","","","","","","","","","","","","","","","","","","","","","",""
"1851","","image-button-response","217","1479772","0.0-212.0","A3IS08UMHHOZW8","img_art/19.jpg","1","","","","","","","","","","","","","","","","","","","","","","","","",""
"4614","","image-button-response","218","1484388","0.0-213.0-0.0","A3IS08UMHHOZW8","img_art/19.jpg","4","","","","","","","","","","","","","","","","","","","","","","","","",""
"2117","","image-button-response","219","1486508","0.0-214.0-0.0","A3IS08UMHHOZW8","img_art/19.jpg","5","","","","","","","","","","","","","","","","","","","","","","","","",""
"null","","html-keyboard-response","220","1487523","0.0-215.0","A3IS08UMHHOZW8","<p style=""font-size: 48px;"">+</p>","","","","","null","allTrialResponses","1000","1","24","img_art/19.jpg","-38","Looks creepy","Samuel,Brian,Jacob,Mark,Nathaniel,Ian","city life energy,8,400,20","I like this style but don't really like the specific setting of the landscape,-7,380,20","Vibrant and colorful,13,340,20","Feels like a cafe in Paris.,35,80,20","Horrible. Squiggly lines everywhere.,-50,220,20","It looks cool but at the time looks like it was done by a talented 5 year old.,13,260,20","Brian","I like this style but don't really like the specific setting of the landscape,-7,380,20","Nathaniel","Horrible. Squiggly lines everywhere.,-50,220,20","Ian","It looks cool but at the time looks like it was done by a talented 5 year old.,13,260,20","10"
"9762","","survey-text","221","1497299","0.0-216.0-0.0","A3IS08UMHHOZW8","","","","{""Q0"":""I don't understand it.""}","","","","","","","","","","","","","","","","","","","","","","",""
"4109.5","","image-slider-response","222","1501411","0.0-217.0","A3IS08UMHHOZW8","","","","","-28","","","","","","","","","","","","","","","","","","","","","",""
"3534","","image-button-response","223","1506415","0.0-218.0","A3IS08UMHHOZW8","img_art/17.jpg","1","","","","","","","","","","","","","","","","","","","","","","","","",""
"1106","","image-button-response","224","1507524","0.0-219.0","A3IS08UMHHOZW8","img_art/17.jpg","0","","","","","","","","","","","","","","","","","","","","","","","","",""
"1982","","image-button-response","225","1509508","0.0-220.0-0.0","A3IS08UMHHOZW8","img_art/17.jpg","2","","","","","","","","","","","","","","","","","","","","","","","","",""
"2565","","image-button-response","226","1512076","0.0-221.0-0.0","A3IS08UMHHOZW8","img_art/17.jpg","1","","","","","","","","","","","","","","","","","","","","","","","","",""
"null","","html-keyboard-response","227","1513581","0.0-222.0","A3IS08UMHHOZW8","<p style=""font-size: 48px;"">+</p>","","","","","null","allTrialResponses","1500","1","25","img_art/17.jpg","-28","I don't understand it.","Colton,Brian,Sean,Cameron,Nathaniel,Ian","its whimsical and light,50,220,20","I'm not into paintings of trees,-18,380,20","my response to the picture is that it looks beautiful,27,40,20","doorways and trees are pleasant,30,60,20","I like the artistic sketching pattern.,24,220,20","It seems a little dark but it is very beautiful,28,260,20","Colton","its whimsical and light,50,220,20","Sean","my response to the picture is that it looks beautiful,27,40,20","Brian","I'm not into paintings of trees,-18,380,20","10"
"6470","","survey-text","228","1520075","0.0-223.0-0.0","A3IS08UMHHOZW8","","","","{""Q0"":""table""}","","","","","","","","","","","","","","","","","","","","","","",""
"7550","","survey-text","229","1527627","0.0-224.0-0.0","A3IS08UMHHOZW8","","","","{""Q0"":""I love the blue blend.""}","","","","","","","","","","","","","","","","","","","","","","",""
"3949.2000000001863","","image-slider-response","230","1531579","0.0-225.0","A3IS08UMHHOZW8","","","","","35","","","","","","","","","","","","","","","","","","","","","",""
"2574","","image-button-response","231","1536595","0.0-226.0","A3IS08UMHHOZW8","img_art/8.jpg","0","","","","","","","","","","","","","","","","","","","","","","","","",""
"773","","image-button-response","232","1537372","0.0-227.0","A3IS08UMHHOZW8","img_art/8.jpg","1","","","","","","","","","","","","","","","","","","","","","","","","",""
"1398","","image-button-response","233","1538772","0.0-228.0-0.0","A3IS08UMHHOZW8","img_art/8.jpg","2","","","","","","","","","","","","","","","","","","","","","","","","",""
"4397","","image-button-response","234","1543172","0.0-229.0-0.0","A3IS08UMHHOZW8","img_art/8.jpg","3","","","","","","","","","","","","","","","","","","","","","","","","",""
"null","","html-keyboard-response","235","1543678","0.0-230.0","A3IS08UMHHOZW8","<p style=""font-size: 48px;"">+</p>","","","","","null","allTrialResponses","500","1","26","img_art/8.jpg","35","I love the blue blend.","Colton,Brian,Sean,John,Matthew,Daniel","looks like an aerial view, very pretty,32,220,20","it's a little too classical for my tastes,-25,380,20","looks nice, like the details,25,40,20","I like how the more you like at it there are more things to discover.Very creative.,33,120,20","Escher? Dali? Could be their lovechild?,50,120,20","Cortez's influence with fair color choices,10,320,20","Brian","it's a little too classical for my tastes,-25,380,20","Sean","looks nice, like the details,25,40,20","John","I like how the more you like at it there are more things to discover.Very creative.,33,120,20","10"
"11315","","survey-text","236","1555003","0.0-231.0-0.0","A3IS08UMHHOZW8","","","","{""Q0"":""I hate it.""}","","","","","","","","","","","","","","","","","","","","","","",""
"4437.100000000559","","image-slider-response","237","1559443","0.0-232.0","A3IS08UMHHOZW8","","","","","-34","","","","","","","","","","","","","","","","","","","","","",""
"null","","image-button-response","238","1564455","0.0-233.0","A3IS08UMHHOZW8","img_art/3.jpg","null","","","","","","","","","","","","","","","","","","","","","","","","",""
"8346","","image-button-response","239","1572804","0.0-234.0","A3IS08UMHHOZW8","img_art/3.jpg","2","","","","","","","","","","","","","","","","","","","","","","","","",""
"2189","","image-button-response","240","1574996","0.0-235.0-0.0","A3IS08UMHHOZW8","img_art/3.jpg","3","","","","","","","","","","","","","","","","","","","","","","","","",""
"5012","","image-button-response","241","1580012","0.0-236.0-0.0","A3IS08UMHHOZW8","img_art/3.jpg","4","","","","","","","","","","","","","","","","","","","","","","","","",""
"null","","html-keyboard-response","242","1580522","0.0-237.0","A3IS08UMHHOZW8","<p style=""font-size: 48px;"">+</p>","","","","","null","allTrialResponses","500","1","27","img_art/3.jpg","-34","I hate it.","Alexander,Brian,Sean,John,Bryan,Richard","Somewhere between a child's art and a poorly drawn battle map.,8,120,20","this is a very nice emotion,27,380,20","my response to the picture is a lot of red, danger,,-21,40,20","Looks like someone spilled ketchup and forgot to clean it up,-30,120,20","Just no. I love red but this looks like blood splatter on a wall from a horrific killing.,-45,400,20","7th grade art, not much effort to do this.,-39,340,20","Sean","my response to the picture is a lot of red, danger,,-21,40,20","John","Looks like someone spilled ketchup and forgot to clean it up,-30,120,20","Bryan","Just no. I love red but this looks like blood splatter on a wall from a horrific killing.,-45,400,20","10"
"5715","","survey-text","243","1586251","0.0-238.0-0.0","A3IS08UMHHOZW8","","","","{""Q0"":""I don't understand it.""}","","","","","","","","","","","","","","","","","","","","","","",""
"3693.5","","image-slider-response","244","1589947","0.0-239.0","A3IS08UMHHOZW8","","","","","-35","","","","","","","","","","","","","","","","","","","","","",""
"4742","","image-button-response","245","1594956","0.0-240.0","A3IS08UMHHOZW8","img_art/2.jpg","0","","","","","","","","","","","","","","","","","","","","","","","","",""
"2804","","image-button-response","246","1597764","0.0-241.0","A3IS08UMHHOZW8","img_art/2.jpg","1","","","","","","","","","","","","","","","","","","","","","","","","",""
"1862","","image-button-response","247","1599628","0.0-242.0-0.0","A3IS08UMHHOZW8","img_art/2.jpg","2","","","","","","","","","","","","","","","","","","","","","","","","",""
"4341","","image-button-response","248","1603972","0.0-243.0-0.0","A3IS08UMHHOZW8","img_art/2.jpg","3","","","","","","","","","","","","","","","","","","","","","","","","",""
"null","","html-keyboard-response","249","1605476","0.0-244.0","A3IS08UMHHOZW8","<p style=""font-size: 48px;"">+</p>","","","","","null","allTrialResponses","1500","1","28","img_art/2.jpg","-35","I don't understand it.","Eric,Zachary,Sean,John,Bryan,Victor","I like the color, but I feel like I see a creepy face which I dislike.,-5,100,20","I am not a fan of the color story. I am confused by the piece and therefore do not like it.,-21,400,20","looks like a bunch of gibberish,-39,40,20","Its meh. Doesnt illicit any strong feelings in me,1,120,20","Like the colors but reminds me of a kids show done in cubism.,0,400,20","It's interesting. The chunks of black here and there are nice,13,340,20","Zachary","I am not a fan of the color story. I am confused by the piece and therefore do not like it.,-21,400,20","Sean","looks like a bunch of gibberish,-39,40,20","John","Its meh. Doesnt illicit any strong feelings in me,1,120,20","10"
"8527","","survey-text","250","1614019","0.0-245.0-0.0","A3IS08UMHHOZW8","","","","{""Q0"":""Its dull.""}","","","","","","","","","","","","","","","","","","","","","","",""
"3421.7999999998137","","image-slider-response","251","1617444","0.0-246.0","A3IS08UMHHOZW8","","","","","-44","","","","","","","","","","","","","","","","","","","","","",""
"3276","","image-button-response","252","1622458","0.0-247.0","A3IS08UMHHOZW8","img_art/7.jpg","0","","","","","","","","","","","","","","","","","","","","","","","","",""
"774","","image-button-response","253","1623236","0.0-248.0","A3IS08UMHHOZW8","img_art/7.jpg","1","","","","","","","","","","","","","","","","","","","","","","","","",""
"1534","","image-button-response","254","1624772","0.0-249.0-0.0","A3IS08UMHHOZW8","img_art/7.jpg","2","","","","","","","","","","","","","","","","","","","","","","","","",""
"2469","","image-button-response","255","1627244","0.0-250.0-0.0","A3IS08UMHHOZW8","img_art/7.jpg","4","","","","","","","","","","","","","","","","","","","","","","","","",""
"null","","html-keyboard-response","256","1627746","0.0-251.0","A3IS08UMHHOZW8","<p style=""font-size: 48px;"">+</p>","","","","","null","allTrialResponses","500","1","29","img_art/7.jpg","-44","Its dull.","Paul,Zachary,Sean,John,Edward,Juan","It looks like bloody scabs on skin, I don't like it,-42,300,20","Looks like a desert or another planet. While the color choices are narrow, it's still interesting because it is very natural.,12,400,20","does not look good,-42,40,20","It looks like someone took a picture of a muddy ground and called it art.,-41,120,20","It looks like maybe some seeds?,14,60,20","This is borning and lifeless.,-50,260,20","Zachary","Looks like a desert or another planet. While the color choices are narrow, it's still interesting because it is very natural.,12,400,20","Sean","does not look good,-42,40,20","Edward","It looks like maybe some seeds?,14,60,20","10"
"10351","","survey-text","257","1638107","0.0-252.0-0.0","A3IS08UMHHOZW8","","","","{""Q0"":""I don't understand it.""}","","","","","","","","","","","","","","","","","","","","","","",""
"3534","","image-slider-response","258","1641643","0.0-253.0","A3IS08UMHHOZW8","","","","","-33","","","","","","","","","","","","","","","","","","","","","",""
"4718","","image-button-response","259","1646656","0.0-254.0","A3IS08UMHHOZW8","img_art/1.jpg","1","","","","","","","","","","","","","","","","","","","","","","","","",""
"1360","","image-button-response","260","1648020","0.0-255.0","A3IS08UMHHOZW8","img_art/1.jpg","1","","","","","","","","","","","","","","","","","","","","","","","","",""
"2430","","image-button-response","261","1650452","0.0-256.0-0.0","A3IS08UMHHOZW8","img_art/1.jpg","2","","","","","","","","","","","","","","","","","","","","","","","","",""
"2325","","image-button-response","262","1652780","0.0-257.0-0.0","A3IS08UMHHOZW8","img_art/1.jpg","4","","","","","","","","","","","","","","","","","","","","","","","","",""
"null","","html-keyboard-response","263","1654285","0.0-258.0","A3IS08UMHHOZW8","<p style=""font-size: 48px;"">+</p>","","","","","null","allTrialResponses","1500","1","30","img_art/1.jpg","-33","I don't understand it.","Bryce,Zachary,Sean,Dakota,Edward,Bradley","Again kind a boring.,-38,20,20","While I like the colors, I find nothing interesting or thought provoking about it.,10,400,20","my reaction is that the picture is that Ive seen it before,-14,40,20","soft and touchable, muddled,15,280,20","That one piece in the middle gives it depth and it's really neat,21,60,20","This is a great piece that has a lot more going on the longer you look at it. I like it!,30,300,20","Zachary","While I like the colors, I find nothing interesting or thought provoking about it.,10,400,20","Sean","my reaction is that the picture is that Ive seen it before,-14,40,20","Edward","That one piece in the middle gives it depth and it's really neat,21,60,20","10"
"7847","","image-button-response_instructions","264","1662148","0.0-259.0","A3IS08UMHHOZW8","","0","instructions","","","","","","","","","","","","","","","","","","","","","","","",""
"2735","","image-button-response","265","1664891","0.0-260.0","A3IS08UMHHOZW8","","0","","","","","","","","","","","","","","","","","","","","","","","","",""
