"rt","url","trial_type","trial_index","time_elapsed","internal_node_id","participant_id","stimulus","button_pressed","Name","responses","response","key_press","variableName","fixationTime","condition","trial","photo","subjectRating","subjectResponse","agentsNames","agent_1_Response","agent_2_Response","agent_3_Response","agent_4_Response","agent_5_Response","agent_6_Response","kept_1_name","kept_1_response","kept_2_name","kept_2_response","kept_3_name","kept_3_response","errorCounter"
"208394","external_page_harvard.html","external-html","0","208786","0.0-0.0","A3JZNUBAIASMKA","","","","","","","","","","","","","","","","","","","","","","","","","","",""
"1781","","image-button-response","1","210573","0.0-1.0","A3JZNUBAIASMKA","","0","","","","","","","","","","","","","","","","","","","","","","","","",""
"3698","","image-button-response","2","214281","0.0-2.0-0.0","A3JZNUBAIASMKA","","1","phone","","","","","","","","","","","","","","","","","","","","","","","",""
"2974","","survey-text","3","217258","0.0-3.0-0.0","A3JZNUBAIASMKA","","","","{""Q0"":""A3JZNUBAIASMKA""}","","","","","","","","","","","","","","","","","","","","","","",""
"18130","","image-button-response_instructions","4","235394","0.0-4.0","A3JZNUBAIASMKA","","0","instructions","","","","","","","","","","","","","","","","","","","","","","","",""
"10253","","image-button-response_instructions","5","245651","0.0-5.0","A3JZNUBAIASMKA","img_art/ins/popularity/ins1.png","0","instructions","","","","","","","","","","","","","","","","","","","","","","","",""
"4780","","image-button-response_instructions","6","250440","0.0-6.0","A3JZNUBAIASMKA","img_art/ins/popularity/ins2.png","0","instructions","","","","","","","","","","","","","","","","","","","","","","","",""
"4697","","image-button-response_instructions","7","255141","0.0-7.0","A3JZNUBAIASMKA","img_art/ins/popularity/ins2Extreme.png","0","instructions","","","","","","","","","","","","","","","","","","","","","","","",""
"5869","","image-button-response_instructions","8","261013","0.0-8.0","A3JZNUBAIASMKA","img_art/ins/popularity/ins3KEEPpop.PNG","0","instructions","","","","","","","","","","","","","","","","","","","","","","","",""
"3548","","image-button-response_instructions","9","264562","0.0-9.0","A3JZNUBAIASMKA","img_art/ins/popularity/ins3ANamepop.PNG","0","instructions","","","","","","","","","","","","","","","","","","","","","","","",""
"3466","","image-button-response_instructions","10","268047","0.0-10.0","A3JZNUBAIASMKA","img_art/ins/popularity/ins3ARatingpop.png","0","instructions","","","","","","","","","","","","","","","","","","","","","","","",""
"4653","","image-button-response_instructions","11","272717","0.0-11.0","A3JZNUBAIASMKA","img_art/ins/popularity/ins3ATextpop.png","0","instructions","","","","","","","","","","","","","","","","","","","","","","","",""
"1937","","image-button-response_instructions","12","274662","0.0-12.0","A3JZNUBAIASMKA","img_art/ins/popularity/ins3ALikespop.png","0","instructions","","","","","","","","","","","","","","","","","","","","","","","",""
"1728","","image-button-response_instructions","13","276392","0.0-13.0","A3JZNUBAIASMKA","img_art/ins/popularity/ins3KEEPpop.PNG","0","instructions","","","","","","","","","","","","","","","","","","","","","","","",""
"2960","","image-button-response_instructions","14","279355","0.0-14.0","A3JZNUBAIASMKA","img_art/ins/popularity/ins3_5RED.png","0","instructions","","","","","","","","","","","","","","","","","","","","","","","",""
"9284","","image-button-response_instructions","15","288649","0.0-15.0","A3JZNUBAIASMKA","img_art/ins/popularity/ins3KEEPpop.PNG","0","instructions","","","","","","","","","","","","","","","","","","","","","","","",""
"21958","","image-button-response_instructions","16","310609","0.0-16.0","A3JZNUBAIASMKA","img_art/ins/popularity/ins4KEEPpop.PNG","0","instructions","","","","","","","","","","","","","","","","","","","","","","","",""
"2611","","image-button-response_instructions","17","313221","0.0-17.0","A3JZNUBAIASMKA","img_art/ins/popularity/ins5KEEPpop.PNG","0","instructions","","","","","","","","","","","","","","","","","","","","","","","",""
"24039","","image-button-response_instructions","18","337265","0.0-18.0","A3JZNUBAIASMKA","","0","instructions","","","","","","","","","","","","","","","","","","","","","","","",""
"7417","","survey-text","19","344739","0.0-19.0-0.0","A3JZNUBAIASMKA","","","","{""Q0"":""BUT""}","","","","","","","","","","","","","","","","","","","","","","",""
"4186","","survey-text","20","356596","0.0-19.1-0.1","A3JZNUBAIASMKA","","","","{""Q0"":""but""}","","","","","","","","","","","","","","","","","","","","","","",""
"16934","","survey-text","21","373537","0.0-20.0-0.0","A3JZNUBAIASMKA","","","","{""Q0"":""good""}","","","","","","","","","","","","","","","","","","","","","","",""
"10109","","survey-text","22","385691","0.0-20.1-0.1","A3JZNUBAIASMKA","","","","{""Q0"":""good one""}","","","","","","","","","","","","","","","","","","","","","","",""
"8479","","image-slider-response","23","394187","0.0-21.0","A3JZNUBAIASMKA","","","","","45","","","","","","","","","","","","","","","","","","","","","",""
"3820","","image-button-response","24","399204","0.0-22.0","A3JZNUBAIASMKA","img_art/ins/1.jpg","3","","","","","","","","","","","","","","","","","","","","","","","","",""
"121","","image-button-response","25","399339","0.0-23.0","A3JZNUBAIASMKA","img_art/ins/1.jpg","2","","","","","","","","","","","","","","","","","","","","","","","","",""
"364","","image-button-response","26","399714","0.0-24.0-0.0","A3JZNUBAIASMKA","img_art/ins/1.jpg","1","","","","","","","","","","","","","","","","","","","","","","","","",""
"428","","image-button-response","27","400155","0.0-25.0-0.0","A3JZNUBAIASMKA","img_art/ins/1.jpg","0","","","","","","","","","","","","","","","","","","","","","","","","",""
"null","","html-keyboard-response","28","401161","0.0-26.0","A3JZNUBAIASMKA","<p style=""font-size: 48px;"">+</p>","","","","","null","allTrialResponses","1000","1","-2","img_art/ins/1.jpg","45","good one","Adam,Alex,Ben,Carl,Daniel,Jack","Seems like doodles,-20,20,20","very creative work.,36,40,20","This color reminds me of poo,-46,60,20","very calming artwork,42,80,20","It looks like a murder scene.,-48,100,20","I like the sophisticated brushwork,40,120,20","Ben","This color reminds me of poo,-46,60,20","Alex","very creative work.,36,40,20","Adam","Seems like doodles,-20,20,20","1"
"1952","","survey-text","29","403136","0.0-27.0-0.0","A3JZNUBAIASMKA","","","","{""Q0"":""good one""}","","","","","","","","","","","","","","","","","","","","","","",""
"2335","","image-slider-response","30","405474","0.0-28.0","A3JZNUBAIASMKA","","","","","33","","","","","","","","","","","","","","","","","","","","","",""
"1525","","image-button-response","31","410624","0.0-29.0","A3JZNUBAIASMKA","img_art/ins/2.jpg","1","","","","","","","","","","","","","","","","","","","","","","","","",""
"8497","","image-button-response","32","419123","0.0-30.0","A3JZNUBAIASMKA","img_art/ins/2.jpg","4","","","","","","","","","","","","","","","","","","","","","","","","",""
"176","","image-button-response","33","419303","0.0-31.0-0.0","A3JZNUBAIASMKA","img_art/ins/2.jpg","4","","","","","","","","","","","","","","","","","","","","","","","","",""
"1649","","image-button-response","34","426449","0.0-31.1-0.1","A3JZNUBAIASMKA","img_art/ins/2.jpg","5","","","","","","","","","","","","","","","","","","","","","","","","",""
"1858","","image-button-response","35","428319","0.0-32.0-0.0","A3JZNUBAIASMKA","img_art/ins/2.jpg","2","","","","","","","","","","","","","","","","","","","","","","","","",""
"null","","html-keyboard-response","36","429824","0.0-33.0","A3JZNUBAIASMKA","<p style=""font-size: 48px;"">+</p>","","","","","null","allTrialResponses","1500","1","-1","img_art/ins/2.jpg","33","good one","Adam,Alex,Ben,James,John,Kyle","too much color,-18,20,20","I like the blocks of color arrangements,30,40,20","meaningless painting,-45,60,20","looks too angry,-50,140,20","love the texture of paint,48,160,20","Idk, it is just annoying,-32,180,20","John","love the texture of paint,48,160,20","Kyle","Idk, it is just annoying,-32,180,20","Ben","meaningless painting,-45,60,20","3"
"3213","","survey-text","37","433047","0.0-34.0-0.0","A3JZNUBAIASMKA","","","","{""Q0"":""good one""}","","","","","","","","","","","","","","","","","","","","","","",""
"3757","","image-slider-response","38","436813","0.0-35.0","A3JZNUBAIASMKA","","","","","23","","","","","","","","","","","","","","","","","","","","","",""
"2043","","image-button-response","39","442641","0.0-36.0","A3JZNUBAIASMKA","img_art/ins/3.jpg","2","","","","","","","","","","","","","","","","","","","","","","","","",""
"1641","","image-button-response","40","444285","0.0-37.0","A3JZNUBAIASMKA","img_art/ins/3.jpg","0","","","","","","","","","","","","","","","","","","","","","","","","",""
"3837","","image-button-response","41","448143","0.0-38.0-0.0","A3JZNUBAIASMKA","img_art/ins/3.jpg","2","","","","","","","","","","","","","","","","","","","","","","","","",""
"1623","","image-button-response","42","449771","0.0-39.0-0.0","A3JZNUBAIASMKA","img_art/ins/3.jpg","3","","","","","","","","","","","","","","","","","","","","","","","","",""
"null","","html-keyboard-response","43","450773","0.0-40.0","A3JZNUBAIASMKA","<p style=""font-size: 48px;"">+</p>","","","","","null","allTrialResponses","1000","1","0","img_art/ins/3.jpg","23","good one","Sam,Ron,Ben,Mike,John,Kyle","I can feel a rainy day from this painting,18,240,20","It looks depressing,-26,220,20","This thing gives me anxiety,-41,60,20","enjoy the different shades of blue,22,200,20","I like the overlapping of brushes,41,160,20","It looks like a playground for bats,-36,180,20","Sam","I can feel a rainy day from this painting,18,240,20","Ben","This thing gives me anxiety,-41,60,20","Mike","enjoy the different shades of blue,22,200,20","3"
"3767","","image-button-response_instructions","44","454555","0.0-41.0","A3JZNUBAIASMKA","","0","instructions","","","","","","","","","","","","","","","","","","","","","","","",""
"23074","","survey-likert","45","477633","0.0-42.0-0.0","A3JZNUBAIASMKA","","","","{""Q0"":"""",""Q1"":0,""Q2"":1}","","","","","","","","","","","","","","","","","","","","","","",""
"6252","","survey-text","46","483891","0.0-43.0-0.0","A3JZNUBAIASMKA","","","","{""Q0"":""rock""}","","","","","","","","","","","","","","","","","","","","","","",""
"3468","","survey-text","47","487375","0.0-44.0-0.0","A3JZNUBAIASMKA","","","","{""Q0"":""good one""}","","","","","","","","","","","","","","","","","","","","","","",""
"3386","","image-slider-response","48","490766","0.0-45.0","A3JZNUBAIASMKA","","","","","25","","","","","","","","","","","","","","","","","","","","","",""
"1097","","image-button-response","49","495813","0.0-46.0","A3JZNUBAIASMKA","img_art/26.jpg","1","","","","","","","","","","","","","","","","","","","","","","","","",""
"1531","","image-button-response","50","497360","0.0-47.0","A3JZNUBAIASMKA","img_art/26.jpg","3","","","","","","","","","","","","","","","","","","","","","","","","",""
"714","","image-button-response","51","498096","0.0-48.0-0.0","A3JZNUBAIASMKA","img_art/26.jpg","4","","","","","","","","","","","","","","","","","","","","","","","","",""
"1884","","image-button-response","52","499989","0.0-49.0-0.0","A3JZNUBAIASMKA","img_art/26.jpg","2","","","","","","","","","","","","","","","","","","","","","","","","",""
"null","","html-keyboard-response","53","500499","0.0-50.0","A3JZNUBAIASMKA","<p style=""font-size: 48px;"">+</p>","","","","","null","allTrialResponses","500","1","1","img_art/26.jpg","25","good one","James,Shawn,Austin,Logan,Luke,Kyle","This picture is ok; just a normal city,11,380,20","Not great use of space and brush strokes seem indistinct/accidental,-30,100,20","Like the soft blend of colors,26,240,20","I really love pastels and they're just being dimmed down too much here,-3,360,20","makes me happy and reminds me of a paris courtyard,29,20,20","This seems like a quiet painting,11,340,20","Logan","I really love pastels and they're just being dimmed down too much here,-3,360,20","Luke","makes me happy and reminds me of a paris courtyard,29,20,20","Austin","Like the soft blend of colors,26,240,20","3"
"2529","","survey-text","54","503036","0.0-51.0-0.0","A3JZNUBAIASMKA","","","","{""Q0"":""good one""}","","","","","","","","","","","","","","","","","","","","","","",""
"3398","","image-slider-response","55","506442","0.0-52.0","A3JZNUBAIASMKA","","","","","46","","","","","","","","","","","","","","","","","","","","","",""
"null","","image-button-response","56","511450","0.0-53.0","A3JZNUBAIASMKA","img_art/16.jpg","null","","","","","","","","","","","","","","","","","","","","","","","","",""
"1671","","image-button-response","57","513134","0.0-54.0","A3JZNUBAIASMKA","img_art/16.jpg","3","","","","","","","","","","","","","","","","","","","","","","","","",""
"778","","image-button-response","58","513915","0.0-55.0-0.0","A3JZNUBAIASMKA","img_art/16.jpg","4","","","","","","","","","","","","","","","","","","","","","","","","",""
"1331","","image-button-response","59","515262","0.0-56.0-0.0","A3JZNUBAIASMKA","img_art/16.jpg","2","","","","","","","","","","","","","","","","","","","","","","","","",""
"null","","html-keyboard-response","60","515773","0.0-57.0","A3JZNUBAIASMKA","<p style=""font-size: 48px;"">+</p>","","","","","null","allTrialResponses","500","1","2","img_art/16.jpg","46","good one","Scott,Jeremy,Austin,Logan,Luke,Paul","feels chaotic and morbid,-39,20,20","very disturbed seening a gun in the same picture as a teddy bear,-50,60,20","Picture seems unique,12,240,20","what is this doing for anyone. If you connect with this you're literally lying to yourself. pretentious,-50,360,20","while simple, it seems to have a deeper meaning on childhood,33,20,20","Don't know if there's a meaning but I like how seemingly random objects were stuck together and called art,20,300,20","Logan","what is this doing for anyone. If you connect with this you're literally lying to yourself. pretentious,-50,360,20","Luke","while simple, it seems to have a deeper meaning on childhood,33,20,20","Austin","Picture seems unique,12,240,20","3"
"4348","","survey-text","61","520134","0.0-58.0-0.0","A3JZNUBAIASMKA","","","","{""Q0"":""good one""}","","","","","","","","","","","","","","","","","","","","","","",""
"2715","","image-slider-response","62","522855","0.0-59.0","A3JZNUBAIASMKA","","","","","25","","","","","","","","","","","","","","","","","","","","","",""
"1412","","image-button-response","63","527878","0.0-60.0","A3JZNUBAIASMKA","img_art/23.jpg","5","","","","","","","","","","","","","","","","","","","","","","","","",""
"767","","image-button-response","64","528649","0.0-61.0","A3JZNUBAIASMKA","img_art/23.jpg","1","","","","","","","","","","","","","","","","","","","","","","","","",""
"607","","image-button-response","65","529258","0.0-62.0-0.0","A3JZNUBAIASMKA","img_art/23.jpg","0","","","","","","","","","","","","","","","","","","","","","","","","",""
"1083","","image-button-response","66","530353","0.0-63.0-0.0","A3JZNUBAIASMKA","img_art/23.jpg","2","","","","","","","","","","","","","","","","","","","","","","","","",""
"null","","html-keyboard-response","67","531358","0.0-64.0","A3JZNUBAIASMKA","<p style=""font-size: 48px;"">+</p>","","","","","null","allTrialResponses","1000","1","3","img_art/23.jpg","25","good one","Brian,Nicholas,Austin,Logan,Luke,Tanner","this looks like a pop rock album cover,-10,380,20","The more i look at it the more i like it  the dots of color and very interesting,50,240,20","Fantastic blend of color and forms,43,240,20","This looks like the cover art for a scene band,-29,360,20","makes me happy and want to dance,43,20,20","fsiries, happy, spiritual,16,180,20","Nicholas","The more i look at it the more i like it  the dots of color and very interesting,50,240,20","Brian","this looks like a pop rock album cover,-10,380,20","Austin","Fantastic blend of color and forms,43,240,20","3"
"5934","","survey-text","68","537305","0.0-65.0-0.0","A3JZNUBAIASMKA","","","","{""Q0"":""good one""}","","","","","","","","","","","","","","","","","","","","","","",""
"3377","","image-slider-response","69","540703","0.0-66.0","A3JZNUBAIASMKA","","","","","41","","","","","","","","","","","","","","","","","","","","","",""
"3316","","image-button-response","70","545720","0.0-67.0","A3JZNUBAIASMKA","img_art/8.jpg","2","","","","","","","","","","","","","","","","","","","","","","","","",""
"883","","image-button-response","71","546615","0.0-68.0","A3JZNUBAIASMKA","img_art/8.jpg","5","","","","","","","","","","","","","","","","","","","","","","","","",""
"851","","image-button-response","72","547472","0.0-69.0-0.0","A3JZNUBAIASMKA","img_art/8.jpg","4","","","","","","","","","","","","","","","","","","","","","","","","",""
"1538","","image-button-response","73","549026","0.0-70.0-0.0","A3JZNUBAIASMKA","img_art/8.jpg","2","","","","","","","","","","","","","","","","","","","","","","","","",""
"null","","html-keyboard-response","74","549529","0.0-71.0","A3JZNUBAIASMKA","<p style=""font-size: 48px;"">+</p>","","","","","null","allTrialResponses","500","1","4","img_art/8.jpg","41","good one","Brian,Nicholas,Austin,Nathaniel,Adrian,Richard","it's a little too classical for my tastes,-25,380,20","The face bothers me,-25,240,20","Very unique and different,31,240,20","Not a fan of abstract looking pieces with too many focal points. The tunnel and face, for example,-31,220,20","Pleasant colors, lots of interest. Not sure what's going on but I like it.,20,60,20","lots going on with great use of lots of color and geometry,24,340,20","Richard","lots going on with great use of lots of color and geometry,24,340,20","Adrian","Pleasant colors, lots of interest. Not sure what's going on but I like it.,20,60,20","Austin","Very unique and different,31,240,20","3"
"7104","","survey-text","75","556647","0.0-72.0-0.0","A3JZNUBAIASMKA","","","","{""Q0"":""good one""}","","","","","","","","","","","","","","","","","","","","","","",""
"4910","","image-slider-response","76","561570","0.0-73.0","A3JZNUBAIASMKA","","","","","5","","","","","","","","","","","","","","","","","","","","","",""
"3381","","image-button-response","77","566580","0.0-74.0","A3JZNUBAIASMKA","img_art/3.jpg","5","","","","","","","","","","","","","","","","","","","","","","","","",""
"25401","","image-button-response","78","591988","0.0-75.0","A3JZNUBAIASMKA","img_art/3.jpg","1","","","","","","","","","","","","","","","","","","","","","","","","",""
"1291","","image-button-response","79","593286","0.0-76.0-0.0","A3JZNUBAIASMKA","img_art/3.jpg","3","","","","","","","","","","","","","","","","","","","","","","","","",""
"646","","image-button-response","80","593935","0.0-77.0-0.0","A3JZNUBAIASMKA","img_art/3.jpg","5","","","","","","","","","","","","","","","","","","","","","","","","",""
"null","","html-keyboard-response","81","595438","0.0-78.0","A3JZNUBAIASMKA","<p style=""font-size: 48px;"">+</p>","","","","","null","allTrialResponses","1500","1","5","img_art/3.jpg","5","good one","Nathan,Corey,Austin,Juan,Adrian,Richard","Looks like it was painted with blood, which I'm aware is an art style, but it just looks messy.,-20,200,20","seems distressing. a blood scene,-3,260,20","It doesn't invoke any excitement,-21,240,20","It makes me think of just an angry scribble. There's no beauty to it for me.,-50,260,20","Angry red crayons, like a child throwing a tantrum. No thanks.,-10,60,20","7th grade art, not much effort to do this.,-39,340,20","Corey","seems distressing. a blood scene,-3,260,20","Juan","It makes me think of just an angry scribble. There's no beauty to it for me.,-50,260,20","Richard","7th grade art, not much effort to do this.,-39,340,20","3"
"5526","","survey-text","82","601001","0.0-79.0-0.0","A3JZNUBAIASMKA","","","","{""Q0"":""sky""}","","","","","","","","","","","","","","","","","","","","","","",""
"3008","","survey-text","83","604028","0.0-80.0-0.0","A3JZNUBAIASMKA","","","","{""Q0"":""good one""}","","","","","","","","","","","","","","","","","","","","","","",""
"2834","","image-slider-response","84","606865","0.0-81.0","A3JZNUBAIASMKA","","","","","28","","","","","","","","","","","","","","","","","","","","","",""
"1116","","image-button-response","85","612726","0.0-82.0","A3JZNUBAIASMKA","img_art/19.jpg","5","","","","","","","","","","","","","","","","","","","","","","","","",""
"1114","","image-button-response","86","613845","0.0-83.0","A3JZNUBAIASMKA","img_art/19.jpg","2","","","","","","","","","","","","","","","","","","","","","","","","",""
"1502","","image-button-response","87","615351","0.0-84.0-0.0","A3JZNUBAIASMKA","img_art/19.jpg","4","","","","","","","","","","","","","","","","","","","","","","","","",""
"613","","image-button-response","88","615975","0.0-85.0-0.0","A3JZNUBAIASMKA","img_art/19.jpg","5","","","","","","","","","","","","","","","","","","","","","","","","",""
"null","","html-keyboard-response","89","617478","0.0-86.0","A3JZNUBAIASMKA","<p style=""font-size: 48px;"">+</p>","","","","","null","allTrialResponses","1500","1","6","img_art/19.jpg","28","good one","Jorge,Corey,Ian,Juan,Jared,Richard","confused and emotional,-4,180,20","i think it is ugly and hate the colors,-35,260,20","It looks cool but at the time looks like it was done by a talented 5 year old.,13,260,20","Again, this is too abstract.,-10,260,20","green and orange are my favorite colors.  this cityscape feels warm,34,400,20","not professional looking but not bad either,13,340,20","Ian","It looks cool but at the time looks like it was done by a talented 5 year old.,13,260,20","Jared","green and orange are my favorite colors.  this cityscape feels warm,34,400,20","Richard","not professional looking but not bad either,13,340,20","3"
"3299","","survey-text","90","620789","0.0-87.0-0.0","A3JZNUBAIASMKA","","","","{""Q0"":""good one""}","","","","","","","","","","","","","","","","","","","","","","",""
"6812","","image-slider-response","91","627604","0.0-88.0","A3JZNUBAIASMKA","","","","","20","","","","","","","","","","","","","","","","","","","","","",""
"2809","","image-button-response","92","632616","0.0-89.0","A3JZNUBAIASMKA","img_art/5.jpg","1","","","","","","","","","","","","","","","","","","","","","","","","",""
"860","","image-button-response","93","633485","0.0-90.0","A3JZNUBAIASMKA","img_art/5.jpg","4","","","","","","","","","","","","","","","","","","","","","","","","",""
"665","","image-button-response","94","634154","0.0-91.0-0.0","A3JZNUBAIASMKA","img_art/5.jpg","5","","","","","","","","","","","","","","","","","","","","","","","","",""
"1031","","image-button-response","95","635193","0.0-92.0-0.0","A3JZNUBAIASMKA","img_art/5.jpg","2","","","","","","","","","","","","","","","","","","","","","","","","",""
"null","","html-keyboard-response","96","636696","0.0-93.0","A3JZNUBAIASMKA","<p style=""font-size: 48px;"">+</p>","","","","","null","allTrialResponses","1500","1","7","img_art/5.jpg","20","good one","Elijah,Eric,Ian,Matthew,Jared,Richard","Makes me feel weird,-16,80,20","I'm reminded of a volcano with weird colors.,-5,100,20","This either looks like a bell or aliens finishing the pyramids,-34,260,20","I like the simple shapes and colors.,23,120,20","i dont like the yellow or the shape,-26,400,20","looks like a 2nd grader did it,-50,340,20","Jared","i dont like the yellow or the shape,-26,400,20","Richard","looks like a 2nd grader did it,-50,340,20","Ian","This either looks like a bell or aliens finishing the pyramids,-34,260,20","3"
"2678","","survey-text","97","639387","0.0-94.0-0.0","A3JZNUBAIASMKA","","","","{""Q0"":""good one""}","","","","","","","","","","","","","","","","","","","","","","",""
"15096","","image-slider-response","98","654488","0.0-95.0","A3JZNUBAIASMKA","","","","","25","","","","","","","","","","","","","","","","","","","","","",""
"4898","","image-button-response","99","659507","0.0-96.0","A3JZNUBAIASMKA","img_art/15.jpg","4","","","","","","","","","","","","","","","","","","","","","","","","",""
"5773","","image-button-response","100","665287","0.0-97.0","A3JZNUBAIASMKA","img_art/15.jpg","3","","","","","","","","","","","","","","","","","","","","","","","","",""
"965","","image-button-response","101","666258","0.0-98.0-0.0","A3JZNUBAIASMKA","img_art/15.jpg","5","","","","","","","","","","","","","","","","","","","","","","","","",""
"538","","image-button-response","102","666801","0.0-99.0-0.0","A3JZNUBAIASMKA","img_art/15.jpg","4","","","","","","","","","","","","","","","","","","","","","","","","",""
"null","","html-keyboard-response","103","668313","0.0-100.0","A3JZNUBAIASMKA","<p style=""font-size: 48px;"">+</p>","","","","","null","allTrialResponses","1500","1","8","img_art/15.jpg","25","good one","Jose,Thomas,Ian,Derek,Jared,Richard","black dots too ant-like,-25,200,20","Interesting, and I don't dislike it.,9,220,20","This gives a skin crawling feeling. Like something that you could see under a mircoscope,10,260,20","Although it looks a bit bland in terms of color, I really like the print/pattern,25,360,20","i cant find somthing ilike about it,-31,400,20","dark and provoking,-50,340,20","Derek","Although it looks a bit bland in terms of color, I really like the print/pattern,25,360,20","Richard","dark and provoking,-50,340,20","Jared","i cant find somthing ilike about it,-31,400,20","3"
"6214","","survey-text","104","674546","0.0-101.0-0.0","A3JZNUBAIASMKA","","","","{""Q0"":""good one""}","","","","","","","","","","","","","","","","","","","","","","",""
"3183","","image-slider-response","105","677733","0.0-102.0","A3JZNUBAIASMKA","","","","","21","","","","","","","","","","","","","","","","","","","","","",""
"1091","","image-button-response","106","682750","0.0-103.0","A3JZNUBAIASMKA","img_art/25.jpg","4","","","","","","","","","","","","","","","","","","","","","","","","",""
"808","","image-button-response","107","683564","0.0-104.0","A3JZNUBAIASMKA","img_art/25.jpg","3","","","","","","","","","","","","","","","","","","","","","","","","",""
"612","","image-button-response","108","684180","0.0-105.0-0.0","A3JZNUBAIASMKA","img_art/25.jpg","5","","","","","","","","","","","","","","","","","","","","","","","","",""
"337","","image-button-response","109","684526","0.0-106.0-0.0","A3JZNUBAIASMKA","img_art/25.jpg","4","","","","","","","","","","","","","","","","","","","","","","","","",""
"null","","html-keyboard-response","110","685029","0.0-107.0","A3JZNUBAIASMKA","<p style=""font-size: 48px;"">+</p>","","","","","null","allTrialResponses","500","1","9","img_art/25.jpg","21","good one","Antonio,Cody,Bradley,Derek,Jared,Richard","Makes me think of Baphomet, As above so below and is scary,-50,220,20","Like the colors and the figure,30,180,20","This one just has a dark feeling to me.,-50,300,20","It's really neat and cool looking,20,360,20","the green is serene. the figure is scare crow like,7,400,20","interesting pattern and color choice, kind of unusual,2,340,20","Derek","It's really neat and cool looking,20,360,20","Richard","interesting pattern and color choice, kind of unusual,2,340,20","Jared","the green is serene. the figure is scare crow like,7,400,20","3"
"2463","","survey-text","111","687507","0.0-108.0-0.0","A3JZNUBAIASMKA","","","","{""Q0"":""good one""}","","","","","","","","","","","","","","","","","","","","","","",""
"3537","","image-slider-response","112","691048","0.0-109.0","A3JZNUBAIASMKA","","","","","15","","","","","","","","","","","","","","","","","","","","","",""
"2745","","image-button-response","113","696053","0.0-110.0","A3JZNUBAIASMKA","img_art/6.jpg","5","","","","","","","","","","","","","","","","","","","","","","","","",""
"824","","image-button-response","114","696882","0.0-111.0","A3JZNUBAIASMKA","img_art/6.jpg","3","","","","","","","","","","","","","","","","","","","","","","","","",""
"516","","image-button-response","115","697402","0.0-112.0-0.0","A3JZNUBAIASMKA","img_art/6.jpg","4","","","","","","","","","","","","","","","","","","","","","","","","",""
"492","","image-button-response","116","697898","0.0-113.0-0.0","A3JZNUBAIASMKA","img_art/6.jpg","5","","","","","","","","","","","","","","","","","","","","","","","","",""
"null","","html-keyboard-response","117","699400","0.0-114.0","A3JZNUBAIASMKA","<p style=""font-size: 48px;"">+</p>","","","","","null","allTrialResponses","1500","1","10","img_art/6.jpg","15","good one","Dustin,Anthony,Christian,Derek,Jared,Richard","I like the warmth of the orange. But, I feel like it's a partial view. I'm frustrated I can't see the entirety.,-20,20,20","I am neutral towards this piece.,0,200,20","??????? fake floating leaf? headless bird,-28,140,20","Too basic for me,-20,360,20","simplistic. i love orange and green and i love the subject,50,400,20","simplistic but reminds me of a crow in a field,-10,340,20","Derek","Too basic for me,-20,360,20","Jared","simplistic. i love orange and green and i love the subject,50,400,20","Richard","simplistic but reminds me of a crow in a field,-10,340,20","3"
"4122","","survey-text","118","703562","0.0-115.0-0.0","A3JZNUBAIASMKA","","","","{""Q0"":""our""}","","","","","","","","","","","","","","","","","","","","","","",""
"3182","","survey-text","119","706746","0.0-116.0-0.0","A3JZNUBAIASMKA","","","","{""Q0"":""good one""}","","","","","","","","","","","","","","","","","","","","","","",""
"3328","","image-slider-response","120","710081","0.0-117.0","A3JZNUBAIASMKA","","","","","23","","","","","","","","","","","","","","","","","","","","","",""
"null","","image-button-response","121","715095","0.0-118.0","A3JZNUBAIASMKA","img_art/30.jpg","null","","","","","","","","","","","","","","","","","","","","","","","","",""
"945","","image-button-response","122","716044","0.0-119.0","A3JZNUBAIASMKA","img_art/30.jpg","4","","","","","","","","","","","","","","","","","","","","","","","","",""
"641","","image-button-response","123","716691","0.0-120.0-0.0","A3JZNUBAIASMKA","img_art/30.jpg","5","","","","","","","","","","","","","","","","","","","","","","","","",""
"464","","image-button-response","124","717161","0.0-121.0-0.0","A3JZNUBAIASMKA","img_art/30.jpg","3","","","","","","","","","","","","","","","","","","","","","","","","",""
"null","","html-keyboard-response","125","717673","0.0-122.0","A3JZNUBAIASMKA","<p style=""font-size: 48px;"">+</p>","","","","","null","allTrialResponses","500","1","11","img_art/30.jpg","23","good one","Jack,Christopher,Travis,Derek,Jared,Richard","love the movement of the brush strokes. very interesting piece.,38,320,20","looks simple, I can't see a lot of care going into this,-33,160,20","I didn't like this...it looks like someone just finger painted it.,-10,260,20","Looks quite basic but the colors are nice and there is a wildness about it that I love,0,360,20","i dont like how the colors are mixed,-6,400,20","looks very childish, like your kid did it,-33,340,20","Jared","i dont like how the colors are mixed,-6,400,20","Richard","looks very childish, like your kid did it,-33,340,20","Derek","Looks quite basic but the colors are nice and there is a wildness about it that I love,0,360,20","3"
"2691","","survey-text","126","720385","0.0-123.0-0.0","A3JZNUBAIASMKA","","","","{""Q0"":""good one""}","","","","","","","","","","","","","","","","","","","","","","",""
"3221","","image-slider-response","127","723610","0.0-124.0","A3JZNUBAIASMKA","","","","","20","","","","","","","","","","","","","","","","","","","","","",""
"null","","image-button-response","128","728627","0.0-125.0","A3JZNUBAIASMKA","img_art/14.jpg","null","","","","","","","","","","","","","","","","","","","","","","","","",""
"696","","image-button-response","129","729327","0.0-126.0","A3JZNUBAIASMKA","img_art/14.jpg","1","","","","","","","","","","","","","","","","","","","","","","","","",""
"632","","image-button-response","130","729964","0.0-127.0-0.0","A3JZNUBAIASMKA","img_art/14.jpg","3","","","","","","","","","","","","","","","","","","","","","","","","",""
"406","","image-button-response","131","730378","0.0-128.0-0.0","A3JZNUBAIASMKA","img_art/14.jpg","4","","","","","","","","","","","","","","","","","","","","","","","","",""
"null","","html-keyboard-response","132","731407","0.0-129.0","A3JZNUBAIASMKA","<p style=""font-size: 48px;"">+</p>","","","","","null","allTrialResponses","1000","1","12","img_art/14.jpg","20","good one","Bryce,Samuel,David,Derek,Jared,Richard","The red looks like blood and im not a huge fan,15,20,20","tree of life brings hope,7,400,20","I like how balanced the piece is with its symmetrical design.,20,340,20","Very abstract and colorful,40,360,20","it put me on edge.,-11,400,20","the colors are peaceful and nature colors, soft,37,340,20","Samuel","tree of life brings hope,7,400,20","Derek","Very abstract and colorful,40,360,20","Jared","it put me on edge.,-11,400,20","3"
"2828","","survey-text","133","734257","0.0-130.0-0.0","A3JZNUBAIASMKA","","","","{""Q0"":""good one""}","","","","","","","","","","","","","","","","","","","","","","",""
"2848","","image-slider-response","134","737118","0.0-131.0","A3JZNUBAIASMKA","","","","","38","","","","","","","","","","","","","","","","","","","","","",""
"null","","image-button-response","135","742127","0.0-132.0","A3JZNUBAIASMKA","img_art/10.jpg","null","","","","","","","","","","","","","","","","","","","","","","","","",""
"2294","","image-button-response","136","744438","0.0-133.0","A3JZNUBAIASMKA","img_art/10.jpg","5","","","","","","","","","","","","","","","","","","","","","","","","",""
"481","","image-button-response","137","744935","0.0-134.0-0.0","A3JZNUBAIASMKA","img_art/10.jpg","4","","","","","","","","","","","","","","","","","","","","","","","","",""
"601","","image-button-response","138","745542","0.0-135.0-0.0","A3JZNUBAIASMKA","img_art/10.jpg","3","","","","","","","","","","","","","","","","","","","","","","","","",""
"null","","html-keyboard-response","139","746048","0.0-136.0","A3JZNUBAIASMKA","<p style=""font-size: 48px;"">+</p>","","","","","null","allTrialResponses","500","1","13","img_art/10.jpg","38","good one","Gabriel,Samuel,Malik,Derek,Jared,Zachary","reminds me of a violin,9,160,20","feeling the turmoil and ride,12,400,20","Good texture, expressive,18,40,20","Cute and has a vintage feel to it,45,360,20","it just doesnt appeal to me.,-10,400,20","Reminds me of a terrarium with cacti inside. It reminds me of home.,27,400,20","Zachary","Reminds me of a terrarium with cacti inside. It reminds me of home.,27,400,20","Jared","it just doesnt appeal to me.,-10,400,20","Derek","Cute and has a vintage feel to it,45,360,20","3"
"8983","","survey-text","140","755043","0.0-137.0-0.0","A3JZNUBAIASMKA","","","","{""Q0"":""good one""}","","","","","","","","","","","","","","","","","","","","","","",""
"2685","","image-slider-response","141","757730","0.0-138.0","A3JZNUBAIASMKA","","","","","8","","","","","","","","","","","","","","","","","","","","","",""
"null","","image-button-response","142","762737","0.0-139.0","A3JZNUBAIASMKA","img_art/21.jpg","null","","","","","","","","","","","","","","","","","","","","","","","","",""
"730","","image-button-response","143","763472","0.0-140.0","A3JZNUBAIASMKA","img_art/21.jpg","4","","","","","","","","","","","","","","","","","","","","","","","","",""
"543","","image-button-response","144","764020","0.0-141.0-0.0","A3JZNUBAIASMKA","img_art/21.jpg","3","","","","","","","","","","","","","","","","","","","","","","","","",""
"485","","image-button-response","145","764517","0.0-142.0-0.0","A3JZNUBAIASMKA","img_art/21.jpg","5","","","","","","","","","","","","","","","","","","","","","","","","",""
"null","","html-keyboard-response","146","765019","0.0-143.0","A3JZNUBAIASMKA","<p style=""font-size: 48px;"">+</p>","","","","","null","allTrialResponses","500","1","14","img_art/21.jpg","8","good one","Alejandro,Adam,Benjamin,Derek,Jared,Zachary","Feels like a clash between land and sea,31,80,20","I like color mix here,15,40,20","sunset after the rain,49,260,20","I love the colors in this painting,30,360,20","i like the way the colors divide the canvas.,16,400,20","Looks like a body of water during a sunset. I like this piece.,21,400,20","Jared","i like the way the colors divide the canvas.,16,400,20","Derek","I love the colors in this painting,30,360,20","Zachary","Looks like a body of water during a sunset. I like this piece.,21,400,20","3"
"3055","","survey-text","147","768092","0.0-144.0-0.0","A3JZNUBAIASMKA","","","","{""Q0"":""good one""}","","","","","","","","","","","","","","","","","","","","","","",""
"4674","","image-slider-response","148","772768","0.0-145.0","A3JZNUBAIASMKA","","","","","20","","","","","","","","","","","","","","","","","","","","","",""
"4298","","image-button-response","149","777783","0.0-146.0","A3JZNUBAIASMKA","img_art/18.jpg","4","","","","","","","","","","","","","","","","","","","","","","","","",""
"852","","image-button-response","150","778645","0.0-147.0","A3JZNUBAIASMKA","img_art/18.jpg","3","","","","","","","","","","","","","","","","","","","","","","","","",""
"373","","image-button-response","151","779023","0.0-148.0-0.0","A3JZNUBAIASMKA","img_art/18.jpg","4","","","","","","","","","","","","","","","","","","","","","","","","",""
"500","","image-button-response","152","779525","0.0-149.0-0.0","A3JZNUBAIASMKA","img_art/18.jpg","5","","","","","","","","","","","","","","","","","","","","","","","","",""
"null","","html-keyboard-response","153","781051","0.0-150.0","A3JZNUBAIASMKA","<p style=""font-size: 48px;"">+</p>","","","","","null","allTrialResponses","1500","1","15","img_art/18.jpg","20","good one","Tyler,Dakota,Mark,Derek,Jared,Zachary","Pleasant design and composition, unpleasant theme and focus.,-19,320,20","afraid and anxious,21,280,20","I see an artistic representation of the riding of last of the four horseman. Its stunning.,45,80,20","Very wild and abstract. I love it and would definitely hang this up in my home,50,360,20","it looks like people,9,400,20","This one seems rather ghoulish to me.,-41,400,20","Derek","Very wild and abstract. I love it and would definitely hang this up in my home,50,360,20","Jared","it looks like people,9,400,20","Zachary","This one seems rather ghoulish to me.,-41,400,20","3"
"15170","","survey-text","154","796246","0.0-151.0-0.0","A3JZNUBAIASMKA","","","","{""Q0"":""course""}","","","","","","","","","","","","","","","","","","","","","","",""
"2589","","survey-text","155","798840","0.0-152.0-0.0","A3JZNUBAIASMKA","","","","{""Q0"":""good one""}","","","","","","","","","","","","","","","","","","","","","","",""
"2464","","image-slider-response","156","801309","0.0-153.0","A3JZNUBAIASMKA","","","","","16","","","","","","","","","","","","","","","","","","","","","",""
"null","","image-button-response","157","806330","0.0-154.0","A3JZNUBAIASMKA","img_art/11.jpg","null","","","","","","","","","","","","","","","","","","","","","","","","",""
"8386","","image-button-response","158","814718","0.0-155.0","A3JZNUBAIASMKA","img_art/11.jpg","3","","","","","","","","","","","","","","","","","","","","","","","","",""
"506","","image-button-response","159","815242","0.0-156.0-0.0","A3JZNUBAIASMKA","img_art/11.jpg","4","","","","","","","","","","","","","","","","","","","","","","","","",""
"942","","image-button-response","160","816202","0.0-157.0-0.0","A3JZNUBAIASMKA","img_art/11.jpg","0","","","","","","","","","","","","","","","","","","","","","","","","",""
"null","","html-keyboard-response","161","817721","0.0-158.0","A3JZNUBAIASMKA","<p style=""font-size: 48px;"">+</p>","","","","","null","allTrialResponses","1500","1","16","img_art/11.jpg","16","good one","Brett,Garrett,Jake,Derek,Jared,Zachary","This looks like a busy highway system along a suburban background,40,360,20","This looks like a bridge that has plenty of color.,10,180,20","This is very unappealing.,-11,360,20","There's a lot going on in this painting but it is pleasing and neat looking,31,360,20","i like the colors and patters and waves,5,400,20","Makes me think of a futuristic scene of vehicles flying in the sky in a city.,36,400,20","Derek","There's a lot going on in this painting but it is pleasing and neat looking,31,360,20","Jared","i like the colors and patters and waves,5,400,20","Brett","This looks like a busy highway system along a suburban background,40,360,20","3"
"3109","","survey-text","162","820850","0.0-159.0-0.0","A3JZNUBAIASMKA","","","","{""Q0"":""good one""}","","","","","","","","","","","","","","","","","","","","","","",""
"2836","","image-slider-response","163","823689","0.0-160.0","A3JZNUBAIASMKA","","","","","15","","","","","","","","","","","","","","","","","","","","","",""
"null","","image-button-response","164","829634","0.0-161.0","A3JZNUBAIASMKA","img_art/12.jpg","null","","","","","","","","","","","","","","","","","","","","","","","","",""
"4004","","image-button-response","165","833642","0.0-162.0","A3JZNUBAIASMKA","img_art/12.jpg","4","","","","","","","","","","","","","","","","","","","","","","","","",""
"566","","image-button-response","166","834215","0.0-163.0-0.0","A3JZNUBAIASMKA","img_art/12.jpg","3","","","","","","","","","","","","","","","","","","","","","","","","",""
"980","","image-button-response","167","835200","0.0-164.0-0.0","A3JZNUBAIASMKA","img_art/12.jpg","1","","","","","","","","","","","","","","","","","","","","","","","","",""
"null","","html-keyboard-response","168","836205","0.0-165.0","A3JZNUBAIASMKA","<p style=""font-size: 48px;"">+</p>","","","","","null","allTrialResponses","1000","1","17","img_art/12.jpg","15","good one","Brett,Brandon,Joseph,Derek,Jared,Jonathan","Night and day, light and dark,35,360,20","I like the cubic feel.,11,320,20","Yay! Lots of people, lots of lives.,25,220,20","I love the pattern and this looks like it took a good deal of effort,35,360,20","i dont see the point.,-19,400,20","I like all the squares and the colors but it feels too cluttered to me,20,140,20","Jared","i dont see the point.,-19,400,20","Derek","I love the pattern and this looks like it took a good deal of effort,35,360,20","Brandon","I like the cubic feel.,11,320,20","3"
"2824","","survey-text","169","839048","0.0-166.0-0.0","A3JZNUBAIASMKA","","","","{""Q0"":""good one""}","","","","","","","","","","","","","","","","","","","","","","",""
"8889","","image-slider-response","170","847942","0.0-167.0","A3JZNUBAIASMKA","","","","","19","","","","","","","","","","","","","","","","","","","","","",""
"null","","image-button-response","171","852960","0.0-168.0","A3JZNUBAIASMKA","img_art/27.jpg","null","","","","","","","","","","","","","","","","","","","","","","","","",""
"10152","","image-button-response","172","863198","0.0-169.0","A3JZNUBAIASMKA","img_art/27.jpg","1","","","","","","","","","","","","","","","","","","","","","","","","",""
"2226","","image-button-response","173","865433","0.0-170.0-0.0","A3JZNUBAIASMKA","img_art/27.jpg","4","","","","","","","","","","","","","","","","","","","","","","","","",""
"462","","image-button-response","174","865911","0.0-171.0-0.0","A3JZNUBAIASMKA","img_art/27.jpg","3","","","","","","","","","","","","","","","","","","","","","","","","",""
"null","","html-keyboard-response","175","867421","0.0-172.0","A3JZNUBAIASMKA","<p style=""font-size: 48px;"">+</p>","","","","","null","allTrialResponses","1500","1","18","img_art/27.jpg","19","good one","Dalton,Brandon,Devin,Derek,Jared,Marcus","looks like a garden in between two storms.,33,300,20","Too abstract, doesn't remind me of anything,-42,320,20","Looks like the green bits were added on later,-1,380,20","I love the mood of this painting,30,360,20","meh. it is neutral to me.,1,400,20","It's okay. Not really interesting to me.,-10,60,20","Brandon","Too abstract, doesn't remind me of anything,-42,320,20","Jared","meh. it is neutral to me.,1,400,20","Derek","I love the mood of this painting,30,360,20","3"
"2411","","survey-text","176","869850","0.0-173.0-0.0","A3JZNUBAIASMKA","","","","{""Q0"":""good one""}","","","","","","","","","","","","","","","","","","","","","","",""
"10447","","image-slider-response","177","880298","0.0-174.0","A3JZNUBAIASMKA","","","","","-1","","","","","","","","","","","","","","","","","","","","","",""
"null","","image-button-response","178","885315","0.0-175.0","A3JZNUBAIASMKA","img_art/9.jpg","null","","","","","","","","","","","","","","","","","","","","","","","","",""
"746","","image-button-response","179","886073","0.0-176.0","A3JZNUBAIASMKA","img_art/9.jpg","1","","","","","","","","","","","","","","","","","","","","","","","","",""
"919","","image-button-response","180","886995","0.0-177.0-0.0","A3JZNUBAIASMKA","img_art/9.jpg","4","","","","","","","","","","","","","","","","","","","","","","","","",""
"738","","image-button-response","181","887739","0.0-178.0-0.0","A3JZNUBAIASMKA","img_art/9.jpg","5","","","","","","","","","","","","","","","","","","","","","","","","",""
"null","","html-keyboard-response","182","888241","0.0-179.0","A3JZNUBAIASMKA","<p style=""font-size: 48px;"">+</p>","","","","","null","allTrialResponses","500","1","19","img_art/9.jpg","-1","good one","Connor,Brandon,Blake,Derek,Jared,Isaiah","Framing is overwhelming,-35,240,20","I like the sense of forboding, the green creates a claustrophobic feeling,10,320,20","looks like a woman in bed and its ok,8,280,20","It's wild and chaotic but also beautiful and has some kind of calming factor about it,20,360,20","it looks like a lady resting. it is soothing.,4,400,20","The piece of art makes me happy, it reminds me of a lively carnival.,15,300,20","Brandon","I like the sense of forboding, the green creates a claustrophobic feeling,10,320,20","Jared","it looks like a lady resting. it is soothing.,4,400,20","Isaiah","The piece of art makes me happy, it reminds me of a lively carnival.,15,300,20","3"
"3540","","survey-text","183","891800","0.0-180.0-0.0","A3JZNUBAIASMKA","","","","{""Q0"":""good one""}","","","","","","","","","","","","","","","","","","","","","","",""
"3154","","image-slider-response","184","894960","0.0-181.0","A3JZNUBAIASMKA","","","","","34","","","","","","","","","","","","","","","","","","","","","",""
"4796","","image-button-response","185","899970","0.0-182.0","A3JZNUBAIASMKA","img_art/24.jpg","1","","","","","","","","","","","","","","","","","","","","","","","","",""
"1411","","image-button-response","186","901386","0.0-183.0","A3JZNUBAIASMKA","img_art/24.jpg","1","","","","","","","","","","","","","","","","","","","","","","","","",""
"501","","image-button-response","187","901891","0.0-184.0-0.0","A3JZNUBAIASMKA","img_art/24.jpg","4","","","","","","","","","","","","","","","","","","","","","","","","",""
"360","","image-button-response","188","902257","0.0-185.0-0.0","A3JZNUBAIASMKA","img_art/24.jpg","3","","","","","","","","","","","","","","","","","","","","","","","","",""
"null","","html-keyboard-response","189","903261","0.0-186.0","A3JZNUBAIASMKA","<p style=""font-size: 48px;"">+</p>","","","","","null","allTrialResponses","1000","1","20","img_art/24.jpg","34","good one","Joshua,Brandon,Shane,Lucas,Jared,Isaiah","It's okay but don't love it.,7,240,20","Simple. Not too abstract. Love the different flower colors.,20,320,20","A peaceful day by the river,42,80,20","Extraordinary and unusual.,30,380,20","i like that the water seems in motion,6,400,20","I feel relaxed and happy, looking at the stream, but it feels hollow, like something is fake.,5,300,20","Brandon","Simple. Not too abstract. Love the different flower colors.,20,320,20","Jared","i like that the water seems in motion,6,400,20","Lucas","Extraordinary and unusual.,30,380,20","3"
"8514","","survey-text","190","911808","0.0-187.0-0.0","A3JZNUBAIASMKA","","","","{""Q0"":""we""}","","","","","","","","","","","","","","","","","","","","","","",""
"6971","","survey-text","191","918790","0.0-188.0-0.0","A3JZNUBAIASMKA","","","","{""Q0"":""good one""}","","","","","","","","","","","","","","","","","","","","","","",""
"2537","","image-slider-response","192","921334","0.0-189.0","A3JZNUBAIASMKA","","","","","12","","","","","","","","","","","","","","","","","","","","","",""
"null","","image-button-response","193","926346","0.0-190.0","A3JZNUBAIASMKA","img_art/28.jpg","null","","","","","","","","","","","","","","","","","","","","","","","","",""
"815","","image-button-response","194","927173","0.0-191.0","A3JZNUBAIASMKA","img_art/28.jpg","1","","","","","","","","","","","","","","","","","","","","","","","","",""
"1090","","image-button-response","195","928279","0.0-192.0-0.0","A3JZNUBAIASMKA","img_art/28.jpg","3","","","","","","","","","","","","","","","","","","","","","","","","",""
"453","","image-button-response","196","928740","0.0-193.0-0.0","A3JZNUBAIASMKA","img_art/28.jpg","4","","","","","","","","","","","","","","","","","","","","","","","","",""
"null","","html-keyboard-response","197","930246","0.0-194.0","A3JZNUBAIASMKA","<p style=""font-size: 48px;"">+</p>","","","","","null","allTrialResponses","1500","1","21","img_art/28.jpg","12","good one","Hunter,Brandon,Jesse,Lucas,Jared,Jordan","reminds me of kandinsky,14,240,20","Interesting. I like the ""old woman"" on the left. Lots of different entities to look at,21,320,20","Just all blurs together for me. No substance.,-23,80,20","This painting is mysterious, it makes me curious.,5,380,20","i like the colors and the shapes look like people,20,400,20","A messy bed room,-7,160,20","Brandon","Interesting. I like the ""old woman"" on the left. Lots of different entities to look at,21,320,20","Lucas","This painting is mysterious, it makes me curious.,5,380,20","Jared","i like the colors and the shapes look like people,20,400,20","3"
"2924","","survey-text","198","933193","0.0-195.0-0.0","A3JZNUBAIASMKA","","","","{""Q0"":""good one""}","","","","","","","","","","","","","","","","","","","","","","",""
"3327","","image-slider-response","199","936524","0.0-196.0","A3JZNUBAIASMKA","","","","","16","","","","","","","","","","","","","","","","","","","","","",""
"null","","image-button-response","200","941545","0.0-197.0","A3JZNUBAIASMKA","img_art/2.jpg","null","","","","","","","","","","","","","","","","","","","","","","","","",""
"868","","image-button-response","201","942420","0.0-198.0","A3JZNUBAIASMKA","img_art/2.jpg","1","","","","","","","","","","","","","","","","","","","","","","","","",""
"1140","","image-button-response","202","943572","0.0-199.0-0.0","A3JZNUBAIASMKA","img_art/2.jpg","4","","","","","","","","","","","","","","","","","","","","","","","","",""
"1380","","image-button-response","203","944958","0.0-200.0-0.0","A3JZNUBAIASMKA","img_art/2.jpg","3","","","","","","","","","","","","","","","","","","","","","","","","",""
"null","","html-keyboard-response","204","945460","0.0-201.0","A3JZNUBAIASMKA","<p style=""font-size: 48px;"">+</p>","","","","","null","allTrialResponses","500","1","22","img_art/2.jpg","16","good one","Timothy,Brandon,Michael,Lucas,Jared,Ryan","The contrasting colors are a bit harsh,-10,240,20","Do not like this type of abstract work,-50,320,20","Random colors and shapes mashed together. Nothing artistic, but better than some of the other ones.,-37,140,20","Colorful, curious.,20,380,20","looks like a happy child,15,400,20","Very simple and childish,40,380,20","Brandon","Do not like this type of abstract work,-50,320,20","Jared","looks like a happy child,15,400,20","Lucas","Colorful, curious.,20,380,20","3"
"3232","","survey-text","205","948706","0.0-202.0-0.0","A3JZNUBAIASMKA","","","","{""Q0"":""good one""}","","","","","","","","","","","","","","","","","","","","","","",""
"3677","","image-slider-response","206","952385","0.0-203.0","A3JZNUBAIASMKA","","","","","21","","","","","","","","","","","","","","","","","","","","","",""
"4777","","image-button-response","207","957393","0.0-204.0","A3JZNUBAIASMKA","img_art/20.jpg","1","","","","","","","","","","","","","","","","","","","","","","","","",""
"1103","","image-button-response","208","958504","0.0-205.0","A3JZNUBAIASMKA","img_art/20.jpg","1","","","","","","","","","","","","","","","","","","","","","","","","",""
"776","","image-button-response","209","959285","0.0-206.0-0.0","A3JZNUBAIASMKA","img_art/20.jpg","4","","","","","","","","","","","","","","","","","","","","","","","","",""
"458","","image-button-response","210","959753","0.0-207.0-0.0","A3JZNUBAIASMKA","img_art/20.jpg","3","","","","","","","","","","","","","","","","","","","","","","","","",""
"null","","html-keyboard-response","211","961615","0.0-208.0","A3JZNUBAIASMKA","<p style=""font-size: 48px;"">+</p>","","","","","null","allTrialResponses","1500","1","23","img_art/20.jpg","21","good one","Carlos,Brandon,Dylan,Lucas,Jared,Justin","It feels like it ""almost"" several things.,-10,80,20","I like the proportion of the car to the desert city, but too abstract for me,15,320,20","The white blob looks like a face and it's creepy,-30,40,20","Phenomenal painting of building.,25,380,20","i like the rounded edges,18,400,20","The colors and the scene depicted is interesting.,13,280,20","Brandon","I like the proportion of the car to the desert city, but too abstract for me,15,320,20","Jared","i like the rounded edges,18,400,20","Lucas","Phenomenal painting of building.,25,380,20","3"
"6937","","survey-text","212","968565","0.0-209.0-0.0","A3JZNUBAIASMKA","","","","{""Q0"":""good one""}","","","","","","","","","","","","","","","","","","","","","","",""
"3150","","image-slider-response","213","971719","0.0-210.0","A3JZNUBAIASMKA","","","","","24","","","","","","","","","","","","","","","","","","","","","",""
"null","","image-button-response","214","976735","0.0-211.0","A3JZNUBAIASMKA","img_art/1.jpg","null","","","","","","","","","","","","","","","","","","","","","","","","",""
"731","","image-button-response","215","977468","0.0-212.0","A3JZNUBAIASMKA","img_art/1.jpg","4","","","","","","","","","","","","","","","","","","","","","","","","",""
"501","","image-button-response","216","977982","0.0-213.0-0.0","A3JZNUBAIASMKA","img_art/1.jpg","3","","","","","","","","","","","","","","","","","","","","","","","","",""
"585","","image-button-response","217","978574","0.0-214.0-0.0","A3JZNUBAIASMKA","img_art/1.jpg","1","","","","","","","","","","","","","","","","","","","","","","","","",""
"null","","html-keyboard-response","218","979078","0.0-215.0","A3JZNUBAIASMKA","<p style=""font-size: 48px;"">+</p>","","","","","null","allTrialResponses","500","1","24","img_art/1.jpg","24","good one","Angel,Brandon,Grant,Lucas,Jared,Ethan","For some reason this makes me want to go ice skating. It's whimsical and free but also very smooth.,20,180,20","Taco Bell wallpaper. Doesn't really make me feel anything,3,320,20","The use of reds, blues, and yellows together reminds me of fire. Very interesting to look at.,40,200,20","The colors match and create a nice artistic disorder.,20,380,20","there isnt anything clear to look at,-2,400,20","This piece feels soft and romantic to me. I do not care for so much orange though.,3,120,20","Jared","there isnt anything clear to look at,-2,400,20","Lucas","The colors match and create a nice artistic disorder.,20,380,20","Brandon","Taco Bell wallpaper. Doesn't really make me feel anything,3,320,20","3"
"3134","","survey-text","219","982227","0.0-216.0-0.0","A3JZNUBAIASMKA","","","","{""Q0"":""good one""}","","","","","","","","","","","","","","","","","","","","","","",""
"4551","","image-slider-response","220","986780","0.0-217.0","A3JZNUBAIASMKA","","","","","4","","","","","","","","","","","","","","","","","","","","","",""
"null","","image-button-response","221","991799","0.0-218.0","A3JZNUBAIASMKA","img_art/22.jpg","null","","","","","","","","","","","","","","","","","","","","","","","","",""
"715","","image-button-response","222","992531","0.0-219.0","A3JZNUBAIASMKA","img_art/22.jpg","1","","","","","","","","","","","","","","","","","","","","","","","","",""
"627","","image-button-response","223","993177","0.0-220.0-0.0","A3JZNUBAIASMKA","img_art/22.jpg","3","","","","","","","","","","","","","","","","","","","","","","","","",""
"614","","image-button-response","224","993805","0.0-221.0-0.0","A3JZNUBAIASMKA","img_art/22.jpg","4","","","","","","","","","","","","","","","","","","","","","","","","",""
"null","","html-keyboard-response","225","994809","0.0-222.0","A3JZNUBAIASMKA","<p style=""font-size: 48px;"">+</p>","","","","","null","allTrialResponses","1000","1","25","img_art/22.jpg","4","good one","Stephen,Brandon,Edward,Lucas,Jared,Cole","Didn't illicit any reaction,1,140,20","Don't like this type of abstract work,-39,320,20","I like the use of primary colors in an interesting way,29,60,20","Unfortunately, I can't see anything special in this painting.,-20,380,20","colorful. but not much happening,1,400,20","Bright colors feel warm,22,200,20","Brandon","Don't like this type of abstract work,-39,320,20","Lucas","Unfortunately, I can't see anything special in this painting.,-20,380,20","Jared","colorful. but not much happening,1,400,20","3"
"5491","","survey-text","226","1000330","0.0-223.0-0.0","A3JZNUBAIASMKA","","","","{""Q0"":""table""}","","","","","","","","","","","","","","","","","","","","","","",""
"3741","","survey-text","227","1004075","0.0-224.0-0.0","A3JZNUBAIASMKA","","","","{""Q0"":""good one""}","","","","","","","","","","","","","","","","","","","","","","",""
"3330","","image-slider-response","228","1007410","0.0-225.0","A3JZNUBAIASMKA","","","","","17","","","","","","","","","","","","","","","","","","","","","",""
"null","","image-button-response","229","1012422","0.0-226.0","A3JZNUBAIASMKA","img_art/4.jpg","null","","","","","","","","","","","","","","","","","","","","","","","","",""
"683","","image-button-response","230","1013119","0.0-227.0","A3JZNUBAIASMKA","img_art/4.jpg","1","","","","","","","","","","","","","","","","","","","","","","","","",""
"615","","image-button-response","231","1013737","0.0-228.0-0.0","A3JZNUBAIASMKA","img_art/4.jpg","0","","","","","","","","","","","","","","","","","","","","","","","","",""
"758","","image-button-response","232","1014515","0.0-229.0-0.0","A3JZNUBAIASMKA","img_art/4.jpg","4","","","","","","","","","","","","","","","","","","","","","","","","",""
"null","","html-keyboard-response","233","1015018","0.0-230.0","A3JZNUBAIASMKA","<p style=""font-size: 48px;"">+</p>","","","","","null","allTrialResponses","500","1","26","img_art/4.jpg","17","good one","Jacob,Brandon,Spencer,Lucas,Jared,Kenneth","Looks like they just smothered on some paint and called it a day.,-17,340,20","Really don't like this. Kindergarten art, sorry.,-50,320,20","To me just looking at paint scrawls,-41,120,20","Not bad at all.,20,380,20","it looks like a deformed hand,-9,400,20","The longer I stare at this the less I like it.,-19,300,20","Brandon","Really don't like this. Kindergarten art, sorry.,-50,320,20","Jacob","Looks like they just smothered on some paint and called it a day.,-17,340,20","Jared","it looks like a deformed hand,-9,400,20","3"
"7169","","survey-text","234","1022204","0.0-231.0-0.0","A3JZNUBAIASMKA","","","","{""Q0"":""good one""}","","","","","","","","","","","","","","","","","","","","","","",""
"15580","","image-slider-response","235","1037795","0.0-232.0","A3JZNUBAIASMKA","","","","","24","","","","","","","","","","","","","","","","","","","","","",""
"null","","image-button-response","236","1042822","0.0-233.0","A3JZNUBAIASMKA","img_art/17.jpg","null","","","","","","","","","","","","","","","","","","","","","","","","",""
"613","","image-button-response","237","1043437","0.0-234.0","A3JZNUBAIASMKA","img_art/17.jpg","4","","","","","","","","","","","","","","","","","","","","","","","","",""
"446","","image-button-response","238","1043887","0.0-235.0-0.0","A3JZNUBAIASMKA","img_art/17.jpg","3","","","","","","","","","","","","","","","","","","","","","","","","",""
"579","","image-button-response","239","1044472","0.0-236.0-0.0","A3JZNUBAIASMKA","img_art/17.jpg","0","","","","","","","","","","","","","","","","","","","","","","","","",""
"null","","html-keyboard-response","240","1046626","0.0-237.0","A3JZNUBAIASMKA","<p style=""font-size: 48px;"">+</p>","","","","","null","allTrialResponses","1500","1","27","img_art/17.jpg","24","good one","Jacob,Brandon,Chase,Brendan,Jared,Robert","The way they painted the trees is so cool.,27,340,20","Love the color and nature motif,36,320,20","It's okay, I just don't see much too it.,7,120,20","colorful tree really cool,27,340,20","the colors, the arch and the wall,15,400,20","The wispy trees caught my eye.,42,360,20","Jared","the colors, the arch and the wall,15,400,20","Brendan","colorful tree really cool,27,340,20","Jacob","The way they painted the trees is so cool.,27,340,20","3"
"3702","","survey-text","241","1050351","0.0-238.0-0.0","A3JZNUBAIASMKA","","","","{""Q0"":""good one""}","","","","","","","","","","","","","","","","","","","","","","",""
"8914","","image-slider-response","242","1059292","0.0-239.0","A3JZNUBAIASMKA","","","","","24","","","","","","","","","","","","","","","","","","","","","",""
"null","","image-button-response","243","1064301","0.0-240.0","A3JZNUBAIASMKA","img_art/7.jpg","null","","","","","","","","","","","","","","","","","","","","","","","","",""
"2880","","image-button-response","244","1067186","0.0-241.0","A3JZNUBAIASMKA","img_art/7.jpg","2","","","","","","","","","","","","","","","","","","","","","","","","",""
"807","","image-button-response","245","1067996","0.0-242.0-0.0","A3JZNUBAIASMKA","img_art/7.jpg","0","","","","","","","","","","","","","","","","","","","","","","","","",""
"937","","image-button-response","246","1068955","0.0-243.0-0.0","A3JZNUBAIASMKA","img_art/7.jpg","4","","","","","","","","","","","","","","","","","","","","","","","","",""
"null","","html-keyboard-response","247","1069458","0.0-244.0","A3JZNUBAIASMKA","<p style=""font-size: 48px;"">+</p>","","","","","null","allTrialResponses","500","1","28","img_art/7.jpg","24","good one","Jacob,John,Luis,Brendan,Jared,Devon","Looks like a natural texture, reminds me of rocks.,0,340,20","It looks like someone took a picture of a muddy ground and called it art.,-41,120,20","Not getting the vibe i would like from this,-30,400,20","some rocks on a mars?,7,340,20","it looks like a dog ran through some wet cement,-22,400,20","I'm not too sure about this one,-10,400,20","Luis","Not getting the vibe i would like from this,-30,400,20","Jacob","Looks like a natural texture, reminds me of rocks.,0,340,20","Jared","it looks like a dog ran through some wet cement,-22,400,20","3"
"2734","","survey-text","248","1072208","0.0-245.0-0.0","A3JZNUBAIASMKA","","","","{""Q0"":""good one""}","","","","","","","","","","","","","","","","","","","","","","",""
"3166","","image-slider-response","249","1075379","0.0-246.0","A3JZNUBAIASMKA","","","","","25","","","","","","","","","","","","","","","","","","","","","",""
"null","","image-button-response","250","1080392","0.0-247.0","A3JZNUBAIASMKA","img_art/29.jpg","null","","","","","","","","","","","","","","","","","","","","","","","","",""
"717","","image-button-response","251","1081120","0.0-248.0","A3JZNUBAIASMKA","img_art/29.jpg","2","","","","","","","","","","","","","","","","","","","","","","","","",""
"486","","image-button-response","252","1081611","0.0-249.0-0.0","A3JZNUBAIASMKA","img_art/29.jpg","1","","","","","","","","","","","","","","","","","","","","","","","","",""
"662","","image-button-response","253","1082297","0.0-250.0-0.0","A3JZNUBAIASMKA","img_art/29.jpg","4","","","","","","","","","","","","","","","","","","","","","","","","",""
"null","","html-keyboard-response","254","1082800","0.0-251.0","A3JZNUBAIASMKA","<p style=""font-size: 48px;"">+</p>","","","","","null","allTrialResponses","500","1","29","img_art/29.jpg","25","good one","Jacob,Peter,Luis,Aaron,Jared,Daniel","It looks cool but I don't really get what's going on, it looks too busy,0,340,20","Looks like a jail cell,-15,320,20","I love the representation of a mess,50,400,20","I like the texture and colors and how it makes me feel. I like how it's different from other abstract art.,45,20,20","not digging the paintbrush,1,400,20","Pinball meets a dark dream meets whale alien, drab,13,320,20","Luis","I love the representation of a mess,50,400,20","Peter","Looks like a jail cell,-15,320,20","Jared","not digging the paintbrush,1,400,20","3"
"3161","","survey-text","255","1085977","0.0-252.0-0.0","A3JZNUBAIASMKA","","","","{""Q0"":""good one""}","","","","","","","","","","","","","","","","","","","","","","",""
"2751","","image-slider-response","256","1088733","0.0-253.0","A3JZNUBAIASMKA","","","","","26","","","","","","","","","","","","","","","","","","","","","",""
"4742","","image-button-response","257","1093740","0.0-254.0","A3JZNUBAIASMKA","img_art/13.jpg","1","","","","","","","","","","","","","","","","","","","","","","","","",""
"328","","image-button-response","258","1094073","0.0-255.0","A3JZNUBAIASMKA","img_art/13.jpg","2","","","","","","","","","","","","","","","","","","","","","","","","",""
"586","","image-button-response","259","1094665","0.0-256.0-0.0","A3JZNUBAIASMKA","img_art/13.jpg","1","","","","","","","","","","","","","","","","","","","","","","","","",""
"632","","image-button-response","260","1095305","0.0-257.0-0.0","A3JZNUBAIASMKA","img_art/13.jpg","4","","","","","","","","","","","","","","","","","","","","","","","","",""
"null","","html-keyboard-response","261","1097624","0.0-258.0","A3JZNUBAIASMKA","<p style=""font-size: 48px;"">+</p>","","","","","null","allTrialResponses","1500","1","30","img_art/13.jpg","26","good one","Jason,Peter,Luis,Andrew,Jared,Jesus","Like the color choices,7,20,20","Reminds me of the aquarium,4,320,20","I love the edgy nature,50,400,20","It makes me think of sitting inside on a rainy day while drinking a warm coffee,32,160,20","the blues are soothing but the splatters are too much,-3,400,20","I enjoy the cool colors mixed together,31,100,20","Luis","I love the edgy nature,50,400,20","Peter","Reminds me of the aquarium,4,320,20","Jared","the blues are soothing but the splatters are too much,-3,400,20","3"
"4190","","image-button-response_instructions","262","1101832","0.0-259.0","A3JZNUBAIASMKA","","0","instructions","","","","","","","","","","","","","","","","","","","","","","","",""
