"rt","url","trial_type","trial_index","time_elapsed","internal_node_id","participant_id","stimulus","button_pressed","Name","responses","response","key_press","variableName","fixationTime","condition","trial","photo","subjectRating","subjectResponse","agentsNames","agent_1_Response","agent_2_Response","agent_3_Response","agent_4_Response","agent_5_Response","agent_6_Response","kept_1_name","kept_1_response","kept_2_name","kept_2_response","kept_3_name","kept_3_response","errorCounter"
"45138","external_page_harvard.html","external-html","0","45243","0.0-0.0","A3KCG60100K3Y5","","","","","","","","","","","","","","","","","","","","","","","","","","",""
"1704","","image-button-response","1","46949","0.0-1.0","A3KCG60100K3Y5","","1","","","","","","","","","","","","","","","","","","","","","","","","",""
"3146","","image-button-response","2","50101","0.0-2.0-0.0","A3KCG60100K3Y5","","1","phone","","","","","","","","","","","","","","","","","","","","","","","",""
"16208","","survey-text","3","66311","0.0-3.0-0.0","A3KCG60100K3Y5","","","","{""Q0"":""A3KCG60100K3Y5""}","","","","","","","","","","","","","","","","","","","","","","",""
"5604","","image-button-response_instructions","4","71917","0.0-4.0","A3KCG60100K3Y5","","0","instructions","","","","","","","","","","","","","","","","","","","","","","","",""
"28182","","image-button-response_instructions","5","100101","0.0-5.0","A3KCG60100K3Y5","img_art/ins/popularity/ins1.png","0","instructions","","","","","","","","","","","","","","","","","","","","","","","",""
"15302","","image-button-response_instructions","6","115405","0.0-6.0","A3KCG60100K3Y5","img_art/ins/popularity/ins2.png","0","instructions","","","","","","","","","","","","","","","","","","","","","","","",""
"7526","","image-button-response_instructions","7","122933","0.0-7.0","A3KCG60100K3Y5","img_art/ins/popularity/ins2Extreme.png","0","instructions","","","","","","","","","","","","","","","","","","","","","","","",""
"7520","","image-button-response_instructions","8","130455","0.0-8.0","A3KCG60100K3Y5","img_art/ins/popularity/ins3KEEPpop.PNG","0","instructions","","","","","","","","","","","","","","","","","","","","","","","",""
"7817","","image-button-response_instructions","9","138273","0.0-9.0","A3KCG60100K3Y5","img_art/ins/popularity/ins3ANamepop.PNG","0","instructions","","","","","","","","","","","","","","","","","","","","","","","",""
"3421","","image-button-response_instructions","10","141695","0.0-10.0","A3KCG60100K3Y5","img_art/ins/popularity/ins3ARatingpop.png","0","instructions","","","","","","","","","","","","","","","","","","","","","","","",""
"5083","","image-button-response_instructions","11","146779","0.0-11.0","A3KCG60100K3Y5","img_art/ins/popularity/ins3ATextpop.png","0","instructions","","","","","","","","","","","","","","","","","","","","","","","",""
"6428","","image-button-response_instructions","12","153209","0.0-12.0","A3KCG60100K3Y5","img_art/ins/popularity/ins3ALikespop.png","0","instructions","","","","","","","","","","","","","","","","","","","","","","","",""
"7000","","image-button-response_instructions","13","160211","0.0-13.0","A3KCG60100K3Y5","img_art/ins/popularity/ins3KEEPpop.PNG","0","instructions","","","","","","","","","","","","","","","","","","","","","","","",""
"5406","","image-button-response_instructions","14","165619","0.0-14.0","A3KCG60100K3Y5","img_art/ins/popularity/ins3_5RED.png","0","instructions","","","","","","","","","","","","","","","","","","","","","","","",""
"3784","","image-button-response_instructions","15","169405","0.0-15.0","A3KCG60100K3Y5","img_art/ins/popularity/ins3KEEPpop.PNG","0","instructions","","","","","","","","","","","","","","","","","","","","","","","",""
"6002","","image-button-response_instructions","16","175409","0.0-16.0","A3KCG60100K3Y5","img_art/ins/popularity/ins4KEEPpop.PNG","0","instructions","","","","","","","","","","","","","","","","","","","","","","","",""
"6184","","image-button-response_instructions","17","181595","0.0-17.0","A3KCG60100K3Y5","img_art/ins/popularity/ins5KEEPpop.PNG","0","instructions","","","","","","","","","","","","","","","","","","","","","","","",""
"2101","","image-button-response_instructions","18","183697","0.0-18.0","A3KCG60100K3Y5","","0","instructions","","","","","","","","","","","","","","","","","","","","","","","",""
"9441","","survey-text","19","193162","0.0-19.0-0.0","A3KCG60100K3Y5","","","","{""Q0"":""but""}","","","","","","","","","","","","","","","","","","","","","","",""
"12498","","survey-text","20","205663","0.0-20.0-0.0","A3KCG60100K3Y5","","","","{""Q0"":""It just okay.""}","","","","","","","","","","","","","","","","","","","","","","",""
"6936.899999976158","","image-slider-response","21","212602","0.0-21.0","A3KCG60100K3Y5","","","","","-24","","","","","","","","","","","","","","","","","","","","","",""
"null","","image-button-response","22","217609","0.0-22.0","A3KCG60100K3Y5","img_art/ins/1.jpg","null","","","","","","","","","","","","","","","","","","","","","","","","",""
"733","","image-button-response","23","218347","0.0-23.0","A3KCG60100K3Y5","img_art/ins/1.jpg","5","","","","","","","","","","","","","","","","","","","","","","","","",""
"1045","","image-button-response","24","219395","0.0-24.0-0.0","A3KCG60100K3Y5","img_art/ins/1.jpg","4","","","","","","","","","","","","","","","","","","","","","","","","",""
"1345","","image-button-response","25","220743","0.0-25.0-0.0","A3KCG60100K3Y5","img_art/ins/1.jpg","0","","","","","","","","","","","","","","","","","","","","","","","","",""
"null","","html-keyboard-response","26","221745","0.0-26.0","A3KCG60100K3Y5","<p style=""font-size: 48px;"">+</p>","","","","","null","allTrialResponses","1000","1","-2","img_art/ins/1.jpg","-24","It just okay.","Allison,Ashley,Beth,Dora,Erika,Jen","looks like a lot of things going on in the mist,20,20,20","I just don't get why these type of art would be popular,-32,40,20","This color reminds me of poo,-46,60,20","looks like what my niece in 3rd grade did this afternoon,-50,80,20","I like the sophisticated brushwork,40,100,20","It reminds me of a candy land dream I had,36,120,20","Jen","It reminds me of a candy land dream I had,36,120,20","Erika","I like the sophisticated brushwork,40,100,20","Allison","looks like a lot of things going on in the mist,20,20,20","0"
"8934","","survey-text","27","230696","0.0-27.0-0.0","A3KCG60100K3Y5","","","","{""Q0"":""plain""}","","","","","","","","","","","","","","","","","","","","","","",""
"10362","","survey-text","28","243148","0.0-27.1-0.1","A3KCG60100K3Y5","","","","{""Q0"":""kind of plain""}","","","","","","","","","","","","","","","","","","","","","","",""
"8143.700000047684","","image-slider-response","29","251294","0.0-28.0","A3KCG60100K3Y5","","","","","-28","","","","","","","","","","","","","","","","","","","","","",""
"3942","","image-button-response","30","256298","0.0-29.0","A3KCG60100K3Y5","img_art/ins/2.jpg","5","","","","","","","","","","","","","","","","","","","","","","","","",""
"2180","","image-button-response","31","258482","0.0-30.0","A3KCG60100K3Y5","img_art/ins/2.jpg","0","","","","","","","","","","","","","","","","","","","","","","","","",""
"9006","","image-button-response","32","267491","0.0-31.0-0.0","A3KCG60100K3Y5","img_art/ins/2.jpg","1","","","","","","","","","","","","","","","","","","","","","","","","",""
"2282","","image-button-response","33","269775","0.0-32.0-0.0","A3KCG60100K3Y5","img_art/ins/2.jpg","4","","","","","","","","","","","","","","","","","","","","","","","","",""
"null","","html-keyboard-response","34","271278","0.0-33.0","A3KCG60100K3Y5","<p style=""font-size: 48px;"">+</p>","","","","","null","allTrialResponses","1500","1","-1","img_art/ins/2.jpg","-28","kind of plain","Allison,Kara,Katie,Jenna,Erika,Jen","I don't have strong feelings about this,10,20,20","I like the blocks of color arrangements,30,160,20","too much color!,-28,180,20","One of my pet peevs,-48,140,20","I would never be able to compose a sophisticated pallete like this,48,100,20","It reminds me of a fireplace,36,120,20","Allison","I don't have strong feelings about this,10,20,20","Kara","I like the blocks of color arrangements,30,160,20","Erika","I would never be able to compose a sophisticated pallete like this,48,100,20","0"
"13989","","survey-text","35","285285","0.0-34.0-0.0","A3KCG60100K3Y5","","","","{""Q0"":""kind of interesting""}","","","","","","","","","","","","","","","","","","","","","","",""
"6244.100000023842","","image-slider-response","36","291531","0.0-35.0","A3KCG60100K3Y5","","","","","20","","","","","","","","","","","","","","","","","","","","","",""
"4619","","image-button-response","37","296534","0.0-36.0","A3KCG60100K3Y5","img_art/ins/3.jpg","0","","","","","","","","","","","","","","","","","","","","","","","","",""
"1143","","image-button-response","38","297681","0.0-37.0","A3KCG60100K3Y5","img_art/ins/3.jpg","0","","","","","","","","","","","","","","","","","","","","","","","","",""
"2779","","image-button-response","39","300463","0.0-38.0-0.0","A3KCG60100K3Y5","img_art/ins/3.jpg","3","","","","","","","","","","","","","","","","","","","","","","","","",""
"3676","","image-button-response","40","304142","0.0-39.0-0.0","A3KCG60100K3Y5","img_art/ins/3.jpg","2","","","","","","","","","","","","","","","","","","","","","","","","",""
"null","","html-keyboard-response","41","304646","0.0-40.0","A3KCG60100K3Y5","<p style=""font-size: 48px;"">+</p>","","","","","null","allTrialResponses","500","1","0","img_art/ins/3.jpg","20","kind of interesting","Allison,Kara,Mary,Leslie,Erika,Rose","enjoy the different shades of blue,22,20,20","calming blue is very nice,36,160,20","I like the overlapping of brushes,41,220,20","It's an alright work,15,200,20","I feel connected to the artist,40,100,20","My daily routine, it's depressing,-20,240,20","Allison","enjoy the different shades of blue,22,20,20","Leslie","It's an alright work,15,200,20","Mary","I like the overlapping of brushes,41,220,20","0"
"3025","","image-button-response_instructions","42","307689","0.0-41.0","A3KCG60100K3Y5","","0","instructions","","","","","","","","","","","","","","","","","","","","","","","",""
"16664","","survey-likert","43","324355","0.0-42.0-0.0","A3KCG60100K3Y5","","","","{""Q0"":"""",""Q1"":0,""Q2"":1}","","","","","","","","","","","","","","","","","","","","","","",""
"7280","","survey-text","44","331643","0.0-43.0-0.0","A3KCG60100K3Y5","","","","{""Q0"":""rock""}","","","","","","","","","","","","","","","","","","","","","","",""
"10646","","survey-text","45","342291","0.0-44.0-0.0","A3KCG60100K3Y5","","","","{""Q0"":""kind of creepy""}","","","","","","","","","","","","","","","","","","","","","","",""
"6044.399999976158","","image-slider-response","46","348337","0.0-45.0","A3KCG60100K3Y5","","","","","-27","","","","","","","","","","","","","","","","","","","","","",""
"2308","","image-button-response","47","353380","0.0-46.0","A3KCG60100K3Y5","img_art/25.jpg","3","","","","","","","","","","","","","","","","","","","","","","","","",""
"1926","","image-button-response","48","355311","0.0-47.0","A3KCG60100K3Y5","img_art/25.jpg","1","","","","","","","","","","","","","","","","","","","","","","","","",""
"1258","","image-button-response","49","356571","0.0-48.0-0.0","A3KCG60100K3Y5","img_art/25.jpg","0","","","","","","","","","","","","","","","","","","","","","","","","",""
"827","","image-button-response","50","357401","0.0-49.0-0.0","A3KCG60100K3Y5","img_art/25.jpg","2","","","","","","","","","","","","","","","","","","","","","","","","",""
"null","","html-keyboard-response","51","358904","0.0-50.0","A3KCG60100K3Y5","<p style=""font-size: 48px;"">+</p>","","","","","null","allTrialResponses","1500","1","1","img_art/25.jpg","-27","kind of creepy","Brianna,Melissa,Cynthia,Autumn,Andrea,Angelica","This would definitely be hanging in my bedroom in my house,50,20,20","do not like that color of green,-11,240,20","Somewhat feel protected by a messenger,33,320,20","This is too simple,-22,340,20","Looks like Burning Man, dont care for the colors.,-5,240,20","This is strange and poorly done.,-2,280,20","Melissa","do not like that color of green,-11,240,20","Brianna","This would definitely be hanging in my bedroom in my house,50,20,20","Cynthia","Somewhat feel protected by a messenger,33,320,20","0"
"12392","","survey-text","52","371303","0.0-51.0-0.0","A3KCG60100K3Y5","","","","{""Q0"":""very plain""}","","","","","","","","","","","","","","","","","","","","","","",""
"4322.200000047684","","image-slider-response","53","375627","0.0-52.0","A3KCG60100K3Y5","","","","","-50","","","","","","","","","","","","","","","","","","","","","",""
"null","","image-button-response","54","380642","0.0-53.0","A3KCG60100K3Y5","img_art/22.jpg","null","","","","","","","","","","","","","","","","","","","","","","","","",""
"473","","image-button-response","55","381119","0.0-54.0","A3KCG60100K3Y5","img_art/22.jpg","2","","","","","","","","","","","","","","","","","","","","","","","","",""
"1344","","image-button-response","56","382465","0.0-55.0-0.0","A3KCG60100K3Y5","img_art/22.jpg","0","","","","","","","","","","","","","","","","","","","","","","","","",""
"2227","","image-button-response","57","384695","0.0-56.0-0.0","A3KCG60100K3Y5","img_art/22.jpg","4","","","","","","","","","","","","","","","","","","","","","","","","",""
"null","","html-keyboard-response","58","386211","0.0-57.0","A3KCG60100K3Y5","<p style=""font-size: 48px;"">+</p>","","","","","null","allTrialResponses","1500","1","2","img_art/22.jpg","-50","very plain","Brianna,Melissa,Cynthia,Makayla,Hannah,Courtney","Like the black key and the rainbow color theme.,31,20,20","strong blending skills,7,240,20","A key to the unknown,15,320,20","Just neutral no feelings,2,80,20","This one would work in the right frame. It's nice.,20,240,20","Looks hot where ever that is.,-8,280,20","Cynthia","A key to the unknown,15,320,20","Brianna","Like the black key and the rainbow color theme.,31,20,20","Hannah","This one would work in the right frame. It's nice.,20,240,20","0"
"17103","","survey-text","59","403336","0.0-58.0-0.0","A3KCG60100K3Y5","","","","{""Q0"":""I like this one.""}","","","","","","","","","","","","","","","","","","","","","","",""
"4550.5","","image-slider-response","60","407889","0.0-59.0","A3KCG60100K3Y5","","","","","35","","","","","","","","","","","","","","","","","","","","","",""
"2659","","image-button-response","61","412893","0.0-60.0","A3KCG60100K3Y5","img_art/9.jpg","3","","","","","","","","","","","","","","","","","","","","","","","","",""
"1996","","image-button-response","62","414895","0.0-61.0","A3KCG60100K3Y5","img_art/9.jpg","0","","","","","","","","","","","","","","","","","","","","","","","","",""
"2054","","image-button-response","63","416951","0.0-62.0-0.0","A3KCG60100K3Y5","img_art/9.jpg","3","","","","","","","","","","","","","","","","","","","","","","","","",""
"1266","","image-button-response","64","418219","0.0-63.0-0.0","A3KCG60100K3Y5","img_art/9.jpg","5","","","","","","","","","","","","","","","","","","","","","","","","",""
"null","","html-keyboard-response","65","419724","0.0-64.0","A3KCG60100K3Y5","<p style=""font-size: 48px;"">+</p>","","","","","null","allTrialResponses","1500","1","3","img_art/9.jpg","35","I like this one.","Brianna,Cassandra,Cynthia,Dominique,Hannah,Nicole","This has some of my favorite colors, and I like it,21,20,20","Stuipid looking...dumb,-48,120,20","curious and unsure,12,320,20","This speaks to me like a personalities and sides and not all are nice,19,400,20","Someone lying in bed?  Don't care for it.,-14,240,20","It's peaceful and relaxing,24,20,20","Brianna","This has some of my favorite colors, and I like it,21,20,20","Dominique","This speaks to me like a personalities and sides and not all are nice,19,400,20","Nicole","It's peaceful and relaxing,24,20,20","0"
"16156","","survey-text","66","435907","0.0-65.0-0.0","A3KCG60100K3Y5","","","","{""Q0"":""very interesting""}","","","","","","","","","","","","","","","","","","","","","","",""
"4619.5","","image-slider-response","67","440528","0.0-66.0","A3KCG60100K3Y5","","","","","26","","","","","","","","","","","","","","","","","","","","","",""
"4646","","image-button-response","68","445532","0.0-67.0","A3KCG60100K3Y5","img_art/11.jpg","3","","","","","","","","","","","","","","","","","","","","","","","","",""
"1464","","image-button-response","69","447005","0.0-68.0","A3KCG60100K3Y5","img_art/11.jpg","3","","","","","","","","","","","","","","","","","","","","","","","","",""
"2030","","image-button-response","70","449037","0.0-69.0-0.0","A3KCG60100K3Y5","img_art/11.jpg","4","","","","","","","","","","","","","","","","","","","","","","","","",""
"959","","image-button-response","71","449999","0.0-70.0-0.0","A3KCG60100K3Y5","img_art/11.jpg","5","","","","","","","","","","","","","","","","","","","","","","","","",""
"null","","html-keyboard-response","72","451515","0.0-71.0","A3KCG60100K3Y5","<p style=""font-size: 48px;"">+</p>","","","","","null","allTrialResponses","1500","1","4","img_art/11.jpg","26","very interesting","Brianna,Samantha,Kylie,Dominique,Kelly,Nicole","I like dark colors.,31,20,20","Love the colors and flow,50,140,20","This looks like a busy highway system along a suburban background,40,300,20","Looks like a familiar area,31,400,20","Its a little psychedelic.,10,220,20","Those vertical strokes are to die for and I love these colors !!!,50,20,20","Dominique","Looks like a familiar area,31,400,20","Kelly","Its a little psychedelic.,10,220,20","Nicole","Those vertical strokes are to die for and I love these colors !!!,50,20,20","0"
"12792","","survey-text","73","464328","0.0-72.0-0.0","A3KCG60100K3Y5","","","","{""Q0"":""very different""}","","","","","","","","","","","","","","","","","","","","","","",""
"4762","","image-slider-response","74","469092","0.0-73.0","A3KCG60100K3Y5","","","","","-13","","","","","","","","","","","","","","","","","","","","","",""
"2857","","image-button-response","75","474096","0.0-74.0","A3KCG60100K3Y5","img_art/19.jpg","4","","","","","","","","","","","","","","","","","","","","","","","","",""
"243","","image-button-response","76","474340","0.0-75.0","A3KCG60100K3Y5","img_art/19.jpg","1","","","","","","","","","","","","","","","","","","","","","","","","",""
"888","","image-button-response","77","475230","0.0-76.0-0.0","A3KCG60100K3Y5","img_art/19.jpg","0","","","","","","","","","","","","","","","","","","","","","","","","",""
"2366","","image-button-response","78","477599","0.0-77.0-0.0","A3KCG60100K3Y5","img_art/19.jpg","4","","","","","","","","","","","","","","","","","","","","","","","","",""
"null","","html-keyboard-response","79","478614","0.0-78.0","A3KCG60100K3Y5","<p style=""font-size: 48px;"">+</p>","","","","","null","allTrialResponses","1000","1","5","img_art/19.jpg","-13","very different","Morgan,Shannon,Alexa,Dominique,Kelly,Nicole","Messy pantry full of food.,5,380,20","This looks like a bunch of weird blobs and the colors don't go great together.,-10,220,20","It has a chaotic energy about it that draws me in,40,40,20","I really like the colors and feel of this one and alot of life,41,400,20","TOo much brown.,-24,220,20","Feels like something I would hang in my dining room,42,20,20","Shannon","This looks like a bunch of weird blobs and the colors don't go great together.,-10,220,20","Morgan","Messy pantry full of food.,5,380,20","Kelly","TOo much brown.,-24,220,20","0"
"4194","","survey-text","80","482854","0.0-79.0-0.0","A3KCG60100K3Y5","","","","{""Q0"":""sky""}","","","","","","","","","","","","","","","","","","","","","","",""
"13749","","survey-text","81","496604","0.0-80.0-0.0","A3KCG60100K3Y5","","","","{""Q0"":""I would like to have this.""}","","","","","","","","","","","","","","","","","","","","","","",""
"4086.2999999523163","","image-slider-response","82","500692","0.0-81.0","A3KCG60100K3Y5","","","","","50","","","","","","","","","","","","","","","","","","","","","",""
"4676","","image-button-response","83","505697","0.0-82.0","A3KCG60100K3Y5","img_art/14.jpg","5","","","","","","","","","","","","","","","","","","","","","","","","",""
"1056","","image-button-response","84","506759","0.0-83.0","A3KCG60100K3Y5","img_art/14.jpg","2","","","","","","","","","","","","","","","","","","","","","","","","",""
"1528","","image-button-response","85","508288","0.0-84.0-0.0","A3KCG60100K3Y5","img_art/14.jpg","1","","","","","","","","","","","","","","","","","","","","","","","","",""
"964","","image-button-response","86","509254","0.0-85.0-0.0","A3KCG60100K3Y5","img_art/14.jpg","5","","","","","","","","","","","","","","","","","","","","","","","","",""
"null","","html-keyboard-response","87","510757","0.0-86.0","A3KCG60100K3Y5","<p style=""font-size: 48px;"">+</p>","","","","","null","allTrialResponses","1500","1","6","img_art/14.jpg","50","I would like to have this.","Morgan,Shannon,Sophia,Isabella,Kelly,Katherine","Angled, colored, boxy.,10,380,20","I like this picture because it looks like a tree and the colors used look cool.,20,220,20","I don't know why, but this piece makes me happy.,20,280,20","Feels like a camp fire among friends,22,280,20","Its cute, but not my favorite.,8,220,20","I don't like the color red,30,120,20","Sophia","I don't know why, but this piece makes me happy.,20,280,20","Shannon","I like this picture because it looks like a tree and the colors used look cool.,20,220,20","Katherine","I don't like the color red,30,120,20","0"
"14760","","survey-text","88","525540","0.0-87.0-0.0","A3KCG60100K3Y5","","","","{""Q0"":""I don't like it.""}","","","","","","","","","","","","","","","","","","","","","","",""
"4587.600000023842","","image-slider-response","89","530130","0.0-88.0","A3KCG60100K3Y5","","","","","-50","","","","","","","","","","","","","","","","","","","","","",""
"2887","","image-button-response","90","535134","0.0-89.0","A3KCG60100K3Y5","img_art/4.jpg","0","","","","","","","","","","","","","","","","","","","","","","","","",""
"706","","image-button-response","91","535845","0.0-90.0","A3KCG60100K3Y5","img_art/4.jpg","3","","","","","","","","","","","","","","","","","","","","","","","","",""
"1806","","image-button-response","92","537652","0.0-91.0-0.0","A3KCG60100K3Y5","img_art/4.jpg","0","","","","","","","","","","","","","","","","","","","","","","","","",""
"1209","","image-button-response","93","538864","0.0-92.0-0.0","A3KCG60100K3Y5","img_art/4.jpg","1","","","","","","","","","","","","","","","","","","","","","","","","",""
"null","","html-keyboard-response","94","539879","0.0-93.0","A3KCG60100K3Y5","<p style=""font-size: 48px;"">+</p>","","","","","null","allTrialResponses","1000","1","7","img_art/4.jpg","-50","I don't like it.","Kathryn,Shannon,Sophia,Briana,Ashley,Katherine","I feel kind of guilty looking at this, like I'm receiving a reward I don't I deserve.,-10,140,20","I think that this picture is too boring in terms of color and it looks ugly.,-41,220,20","This looks like what happens when someone steps on a mustard packet.,-7,280,20","Fingerpaint of a hand?,-30,400,20","It looks like a hand.,25,320,20","I like how many different ways there are to interpret this.,27,120,20","Briana","Fingerpaint of a hand?,-30,400,20","Kathryn","I feel kind of guilty looking at this, like I'm receiving a reward I don't I deserve.,-10,140,20","Shannon","I think that this picture is too boring in terms of color and it looks ugly.,-41,220,20","0"
"10711","","survey-text","95","550614","0.0-94.0-0.0","A3KCG60100K3Y5","","","","{""Q0"":""This one is okay.""}","","","","","","","","","","","","","","","","","","","","","","",""
"4172.5","","image-slider-response","96","554788","0.0-95.0","A3KCG60100K3Y5","","","","","15","","","","","","","","","","","","","","","","","","","","","",""
"1639","","image-button-response","97","559793","0.0-96.0","A3KCG60100K3Y5","img_art/27.jpg","0","","","","","","","","","","","","","","","","","","","","","","","","",""
"1546","","image-button-response","98","561345","0.0-97.0","A3KCG60100K3Y5","img_art/27.jpg","5","","","","","","","","","","","","","","","","","","","","","","","","",""
"916","","image-button-response","99","562262","0.0-98.0-0.0","A3KCG60100K3Y5","img_art/27.jpg","0","","","","","","","","","","","","","","","","","","","","","","","","",""
"2297","","image-button-response","100","564562","0.0-99.0-0.0","A3KCG60100K3Y5","img_art/27.jpg","2","","","","","","","","","","","","","","","","","","","","","","","","",""
"null","","html-keyboard-response","101","565569","0.0-100.0","A3KCG60100K3Y5","<p style=""font-size: 48px;"">+</p>","","","","","null","allTrialResponses","1000","1","8","img_art/27.jpg","15","This one is okay.","Kathryn,Shannon,Megan,Briana,Katelyn,Sarah","Makes me think of Japanese food. I perceive it as comfortable and healthy.,20,140,20","This image could do a better job of showing what is going on and it could use more colors.,-42,220,20","Nice back ground with childish scribble on top,-30,200,20","Unfinished something?,-30,400,20","Doesnt look like anything to me. Doesnt capture my attention.,-25,100,20","i don't think i should like this one because it's a little chaotic and simple but I do,6,180,20","Sarah","i don't think i should like this one because it's a little chaotic and simple but I do,6,180,20","Kathryn","Makes me think of Japanese food. I perceive it as comfortable and healthy.,20,140,20","Megan","Nice back ground with childish scribble on top,-30,200,20","0"
"17072","","survey-text","102","582666","0.0-101.0-0.0","A3KCG60100K3Y5","","","","{""Q0"":""not sure if I like it.""}","","","","","","","","","","","","","","","","","","","","","","",""
"4308.299999952316","","image-slider-response","103","586976","0.0-102.0","A3KCG60100K3Y5","","","","","-23","","","","","","","","","","","","","","","","","","","","","",""
"3965","","image-button-response","104","591980","0.0-103.0","A3KCG60100K3Y5","img_art/20.jpg","5","","","","","","","","","","","","","","","","","","","","","","","","",""
"929","","image-button-response","105","592915","0.0-104.0","A3KCG60100K3Y5","img_art/20.jpg","1","","","","","","","","","","","","","","","","","","","","","","","","",""
"960","","image-button-response","106","593876","0.0-105.0-0.0","A3KCG60100K3Y5","img_art/20.jpg","0","","","","","","","","","","","","","","","","","","","","","","","","",""
"4155","","image-button-response","107","598034","0.0-106.0-0.0","A3KCG60100K3Y5","img_art/20.jpg","0","","","","","","","","","","","","","","","","","","","","","","","","",""
"1537","","image-button-response","108","603817","0.0-106.1-0.1","A3KCG60100K3Y5","img_art/20.jpg","1","","","","","","","","","","","","","","","","","","","","","","","","",""
"1761","","image-button-response","109","611239","0.0-106.2-0.2","A3KCG60100K3Y5","img_art/20.jpg","4","","","","","","","","","","","","","","","","","","","","","","","","",""
"null","","html-keyboard-response","110","611741","0.0-107.0","A3KCG60100K3Y5","<p style=""font-size: 48px;"">+</p>","","","","","null","allTrialResponses","500","1","9","img_art/20.jpg","-23","not sure if I like it.","Kathryn,Molly,Megan,Vanessa,Kayla,Sarah","This looks like a ruin of what was once a thriving city.,-9,140,20","Phenomenal painting of building.,25,340,20","Fails to capture what similar styles do,-12,200,20","I like the deep blues, but I don't like the way this picture makes me feel.,-13,380,20","Something fell over and is burning, but it's kinda dope, you know?,14,180,20","i ind of like this, it's saying something but not my style,6,180,20","Molly","Phenomenal painting of building.,25,340,20","Kathryn","This looks like a ruin of what was once a thriving city.,-9,140,20","Kayla","Something fell over and is burning, but it's kinda dope, you know?,14,180,20","4"
"11794","","survey-text","111","623562","0.0-108.0-0.0","A3KCG60100K3Y5","","","","{""Q0"":""very pretty""}","","","","","","","","","","","","","","","","","","","","","","",""
"5372.5","","image-slider-response","112","628936","0.0-109.0","A3KCG60100K3Y5","","","","","50","","","","","","","","","","","","","","","","","","","","","",""
"4196","","image-button-response","113","633941","0.0-110.0","A3KCG60100K3Y5","img_art/8.jpg","5","","","","","","","","","","","","","","","","","","","","","","","","",""
"339","","image-button-response","114","634284","0.0-111.0","A3KCG60100K3Y5","img_art/8.jpg","3","","","","","","","","","","","","","","","","","","","","","","","","",""
"939","","image-button-response","115","635226","0.0-112.0-0.0","A3KCG60100K3Y5","img_art/8.jpg","5","","","","","","","","","","","","","","","","","","","","","","","","",""
"2099","","image-button-response","116","637328","0.0-113.0-0.0","A3KCG60100K3Y5","img_art/8.jpg","1","","","","","","","","","","","","","","","","","","","","","","","","",""
"null","","html-keyboard-response","117","638330","0.0-114.0","A3KCG60100K3Y5","<p style=""font-size: 48px;"">+</p>","","","","","null","allTrialResponses","1000","1","10","img_art/8.jpg","50","very pretty","Kathryn,Molly,Erin,Sierra,Kayla,Erica","The angle makes it kind of disorienting but I enjoy the fantastical colors and imagery. It's like a dream.,10,140,20","Different styles make this picture outstanding.,20,340,20","Lots of depth, faces, city, arch,3,120,20","i love the colors, the church and the face,42,260,20","The faces are kinda freaky.,-17,180,20","Very busy, I want to look at it and investigate,23,80,20","Sierra","i love the colors, the church and the face,42,260,20","Erica","Very busy, I want to look at it and investigate,23,80,20","Molly","Different styles make this picture outstanding.,20,340,20","4"
"4235","","survey-text","118","642618","0.0-115.0-0.0","A3KCG60100K3Y5","","","","{""Q0"":""our""}","","","","","","","","","","","","","","","","","","","","","","",""
"10718","","survey-text","119","653337","0.0-116.0-0.0","A3KCG60100K3Y5","","","","{""Q0"":""I must have""}","","","","","","","","","","","","","","","","","","","","","","",""
"4216","","image-slider-response","120","657555","0.0-117.0","A3KCG60100K3Y5","","","","","50","","","","","","","","","","","","","","","","","","","","","",""
"3503","","image-button-response","121","662559","0.0-118.0","A3KCG60100K3Y5","img_art/16.jpg","0","","","","","","","","","","","","","","","","","","","","","","","","",""
"1286","","image-button-response","122","663850","0.0-119.0","A3KCG60100K3Y5","img_art/16.jpg","0","","","","","","","","","","","","","","","","","","","","","","","","",""
"1250","","image-button-response","123","665102","0.0-120.0-0.0","A3KCG60100K3Y5","img_art/16.jpg","1","","","","","","","","","","","","","","","","","","","","","","","","",""
"1455","","image-button-response","124","666560","0.0-121.0-0.0","A3KCG60100K3Y5","img_art/16.jpg","5","","","","","","","","","","","","","","","","","","","","","","","","",""
"null","","html-keyboard-response","125","667062","0.0-122.0","A3KCG60100K3Y5","<p style=""font-size: 48px;"">+</p>","","","","","null","allTrialResponses","500","1","11","img_art/16.jpg","50","I must have","Margaret,Molly,Natalie,Sierra,Brooke,Erica","i like how it incorporates mixed visual art with the photo of the bear and the drawings,30,100,20","It's frightening.,30,340,20","my reaction is that the picture is creepy,-19,400,20","it looks psychotic,-31,260,20","Don't like teddy bears in art. I could draw that house.,-20,60,20","Teddy bear calls positive emotional response but then I get worried about what is about to happen,18,80,20","Margaret","i like how it incorporates mixed visual art with the photo of the bear and the drawings,30,100,20","Molly","It's frightening.,30,340,20","Erica","Teddy bear calls positive emotional response but then I get worried about what is about to happen,18,80,20","4"
"9956","","survey-text","126","677046","0.0-123.0-0.0","A3KCG60100K3Y5","","","","{""Q0"":""Very dark.""}","","","","","","","","","","","","","","","","","","","","","","",""
"4981.5","","image-slider-response","127","682029","0.0-124.0","A3KCG60100K3Y5","","","","","-15","","","","","","","","","","","","","","","","","","","","","",""
"2591","","image-button-response","128","687042","0.0-125.0","A3KCG60100K3Y5","img_art/15.jpg","4","","","","","","","","","","","","","","","","","","","","","","","","",""
"1031","","image-button-response","129","688077","0.0-126.0","A3KCG60100K3Y5","img_art/15.jpg","4","","","","","","","","","","","","","","","","","","","","","","","","",""
"666","","image-button-response","130","688746","0.0-127.0-0.0","A3KCG60100K3Y5","img_art/15.jpg","5","","","","","","","","","","","","","","","","","","","","","","","","",""
"811","","image-button-response","131","689559","0.0-128.0-0.0","A3KCG60100K3Y5","img_art/15.jpg","1","","","","","","","","","","","","","","","","","","","","","","","","",""
"null","","html-keyboard-response","132","691062","0.0-129.0","A3KCG60100K3Y5","<p style=""font-size: 48px;"">+</p>","","","","","null","allTrialResponses","1500","1","12","img_art/15.jpg","-15","Very dark.","Margaret,Molly,Rebecca,Madison,Kaitlin,Erica","i like the pop of blue within all the black,8,100,20","I can't see the meaning of the painting.,-30,340,20","very unsettling! like reverse porcelain esp because of the colors,28,100,20","I am starting to feel description fatigue. This would be pleasant enough in a doctor's office waiting room.,15,60,20","This one seems a bit frightening,-19,60,20","dark and I can not see a meaning behind it,-31,80,20","Kaitlin","This one seems a bit frightening,-19,60,20","Erica","dark and I can not see a meaning behind it,-31,80,20","Molly","I can't see the meaning of the painting.,-30,340,20","4"
"8228","","survey-text","133","699316","0.0-130.0-0.0","A3KCG60100K3Y5","","","","{""Q0"":""Don't like it.""}","","","","","","","","","","","","","","","","","","","","","","",""
"3762.100000023842","","image-slider-response","134","703080","0.0-131.0","A3KCG60100K3Y5","","","","","-50","","","","","","","","","","","","","","","","","","","","","",""
"4263","","image-button-response","135","708083","0.0-132.0","A3KCG60100K3Y5","img_art/28.jpg","2","","","","","","","","","","","","","","","","","","","","","","","","",""
"875","","image-button-response","136","708964","0.0-133.0","A3KCG60100K3Y5","img_art/28.jpg","2","","","","","","","","","","","","","","","","","","","","","","","","",""
"1147","","image-button-response","137","710114","0.0-134.0-0.0","A3KCG60100K3Y5","img_art/28.jpg","3","","","","","","","","","","","","","","","","","","","","","","","","",""
"851","","image-button-response","138","710968","0.0-135.0-0.0","A3KCG60100K3Y5","img_art/28.jpg","4","","","","","","","","","","","","","","","","","","","","","","","","",""
"null","","html-keyboard-response","139","711977","0.0-136.0","A3KCG60100K3Y5","<p style=""font-size: 48px;"">+</p>","","","","","null","allTrialResponses","1000","1","13","img_art/28.jpg","-50","Don't like it.","Miranda,Molly,Bailey,Alyssa,Kaitlin,Erica","This one looks very dark and seems like it has a lot of depth to it.,31,320,20","This painting is mysterious, it makes me curious.,5,340,20","Has an air of darkness to it, but no real substance besides the mouse-like thing.,-38,360,20","Not a fan of the bleak and dreary colors,-10,160,20","i'm not too impressed with this one.,-10,60,20","Nothing calls my attention,15,80,20","Bailey","Has an air of darkness to it, but no real substance besides the mouse-like thing.,-38,360,20","Alyssa","Not a fan of the bleak and dreary colors,-10,160,20","Kaitlin","i'm not too impressed with this one.,-10,60,20","4"
"11219","","survey-text","140","723222","0.0-137.0-0.0","A3KCG60100K3Y5","","","","{""Q0"":""It okay.""}","","","","","","","","","","","","","","","","","","","","","","",""
"5395.5","","image-slider-response","141","728620","0.0-138.0","A3KCG60100K3Y5","","","","","-29","","","","","","","","","","","","","","","","","","","","","",""
"4889","","image-button-response","142","733633","0.0-139.0","A3KCG60100K3Y5","img_art/30.jpg","1","","","","","","","","","","","","","","","","","","","","","","","","",""
"987","","image-button-response","143","734624","0.0-140.0","A3KCG60100K3Y5","img_art/30.jpg","1","","","","","","","","","","","","","","","","","","","","","","","","",""
"1154","","image-button-response","144","735780","0.0-141.0-0.0","A3KCG60100K3Y5","img_art/30.jpg","0","","","","","","","","","","","","","","","","","","","","","","","","",""
"1060","","image-button-response","145","736842","0.0-142.0-0.0","A3KCG60100K3Y5","img_art/30.jpg","3","","","","","","","","","","","","","","","","","","","","","","","","",""
"null","","html-keyboard-response","146","737344","0.0-143.0","A3KCG60100K3Y5","<p style=""font-size: 48px;"">+</p>","","","","","null","allTrialResponses","500","1","14","img_art/30.jpg","-29","It okay.","Emily,Kimberly,Bailey,Alyssa,Kaitlin,Mackenzie","It looks like a child did it. There is nothing talented or special about it.,-16,40,20","looks like eels,-20,260,20","No my favorite, but I do like the long strokes of color,11,360,20","ugly nasty colors,-10,160,20","the different roads to take in life,10,60,20","I like the forefront design.,10,20,20","Kimberly","looks like eels,-20,260,20","Emily","It looks like a child did it. There is nothing talented or special about it.,-16,40,20","Alyssa","ugly nasty colors,-10,160,20","4"
"19789","","survey-text","147","757153","0.0-144.0-0.0","A3KCG60100K3Y5","","","","{""Q0"":""It is different.""}","","","","","","","","","","","","","","","","","","","","","","",""
"5737.299999952316","","image-slider-response","148","762892","0.0-145.0","A3KCG60100K3Y5","","","","","0","","","","","","","","","","","","","","","","","","","","","",""
"4727","","image-button-response","149","767898","0.0-146.0","A3KCG60100K3Y5","img_art/29.jpg","2","","","","","","","","","","","","","","","","","","","","","","","","",""
"932","","image-button-response","150","768837","0.0-147.0","A3KCG60100K3Y5","img_art/29.jpg","2","","","","","","","","","","","","","","","","","","","","","","","","",""
"1202","","image-button-response","151","770042","0.0-148.0-0.0","A3KCG60100K3Y5","img_art/29.jpg","3","","","","","","","","","","","","","","","","","","","","","","","","",""
"3609","","image-button-response","152","773654","0.0-149.0-0.0","A3KCG60100K3Y5","img_art/29.jpg","1","","","","","","","","","","","","","","","","","","","","","","","","",""
"null","","html-keyboard-response","153","775156","0.0-150.0","A3KCG60100K3Y5","<p style=""font-size: 48px;"">+</p>","","","","","null","allTrialResponses","1500","1","15","img_art/29.jpg","0","It is different.","Emily,Kimberly,Michaela,Alyssa,Mikayla,Cheyenne","Looks literally like garbage.,-45,40,20","I like the usage of a physical object,33,260,20","Like a crime scene. It's neat and different,30,260,20","Its interesting although doesnt illicit any strong emotions from me,10,160,20","Its kinda scary,-35,300,20","Really enjoy everything about this one.,50,200,20","Michaela","Like a crime scene. It's neat and different,30,260,20","Alyssa","Its interesting although doesnt illicit any strong emotions from me,10,160,20","Kimberly","I like the usage of a physical object,33,260,20","4"
"6402","","survey-text","154","781609","0.0-151.0-0.0","A3KCG60100K3Y5","","","","{""Q0"":""course""}","","","","","","","","","","","","","","","","","","","","","","",""
"11692","","survey-text","155","793303","0.0-152.0-0.0","A3KCG60100K3Y5","","","","{""Q0"":""Very interesting to me.""}","","","","","","","","","","","","","","","","","","","","","","",""
"7532.099999904633","","image-slider-response","156","800837","0.0-153.0","A3KCG60100K3Y5","","","","","26","","","","","","","","","","","","","","","","","","","","","",""
"3048","","image-button-response","157","805841","0.0-154.0","A3KCG60100K3Y5","img_art/7.jpg","5","","","","","","","","","","","","","","","","","","","","","","","","",""
"2401","","image-button-response","158","808245","0.0-155.0","A3KCG60100K3Y5","img_art/7.jpg","5","","","","","","","","","","","","","","","","","","","","","","","","",""
"997","","image-button-response","159","809245","0.0-156.0-0.0","A3KCG60100K3Y5","img_art/7.jpg","4","","","","","","","","","","","","","","","","","","","","","","","","",""
"656","","image-button-response","160","809903","0.0-157.0-0.0","A3KCG60100K3Y5","img_art/7.jpg","2","","","","","","","","","","","","","","","","","","","","","","","","",""
"null","","html-keyboard-response","161","810913","0.0-158.0","A3KCG60100K3Y5","<p style=""font-size: 48px;"">+</p>","","","","","null","allTrialResponses","1000","1","16","img_art/7.jpg","26","Very interesting to me.","Monica,Kimberly,Michaela,Alyssa,Marissa,Kaylee","It looks like bloody scabs on skin, I don't like it,-42,360,20","Looks like a bad picture of a beach,-21,260,20","It looks like maybe some seeds?,14,260,20","It looks like someone took a picture of a muddy ground and called it art.,-41,160,20","I feel confused, am I looking at a painting or a close up picture of some sort of fly stone?,-19,160,20","some rocks on a mars?,7,200,20","Kaylee","some rocks on a mars?,7,200,20","Marissa","I feel confused, am I looking at a painting or a close up picture of some sort of fly stone?,-19,160,20","Michaela","It looks like maybe some seeds?,14,260,20","4"
"10562","","survey-text","162","821503","0.0-159.0-0.0","A3KCG60100K3Y5","","","","{""Q0"":""Childs painting.""}","","","","","","","","","","","","","","","","","","","","","","",""
"3305.7000000476837","","image-slider-response","163","824811","0.0-160.0","A3KCG60100K3Y5","","","","","-50","","","","","","","","","","","","","","","","","","","","","",""
"4955","","image-button-response","164","829815","0.0-161.0","A3KCG60100K3Y5","img_art/26.jpg","1","","","","","","","","","","","","","","","","","","","","","","","","",""
"703","","image-button-response","165","830523","0.0-162.0","A3KCG60100K3Y5","img_art/26.jpg","1","","","","","","","","","","","","","","","","","","","","","","","","",""
"939","","image-button-response","166","831465","0.0-163.0-0.0","A3KCG60100K3Y5","img_art/26.jpg","3","","","","","","","","","","","","","","","","","","","","","","","","",""
"1165","","image-button-response","167","832633","0.0-164.0-0.0","A3KCG60100K3Y5","img_art/26.jpg","0","","","","","","","","","","","","","","","","","","","","","","","","",""
"null","","html-keyboard-response","168","833135","0.0-165.0","A3KCG60100K3Y5","<p style=""font-size: 48px;"">+</p>","","","","","null","allTrialResponses","500","1","17","img_art/26.jpg","-50","Childs painting.","Kaitlyn,Diana,Michaela,Anna,Marissa,Kaylee","The colors look faded and blurry,2,80,20","I'm not sure if this is the image of a furniture store or not.,-20,380,20","Elevator art but the watercolors are good,29,260,20","It looks like a watercolor I did when I was 6.,-30,300,20","It feels simple and pretty,12,160,20","cool cozy town vibes,50,200,20","Diana","I'm not sure if this is the image of a furniture store or not.,-20,380,20","Anna","It looks like a watercolor I did when I was 6.,-30,300,20","Kaitlyn","The colors look faded and blurry,2,80,20","4"
"13047","","survey-text","169","846215","0.0-166.0-0.0","A3KCG60100K3Y5","","","","{""Q0"":""Bloody mess.""}","","","","","","","","","","","","","","","","","","","","","","",""
"3658.5","","image-slider-response","170","849875","0.0-167.0","A3KCG60100K3Y5","","","","","-50","","","","","","","","","","","","","","","","","","","","","",""
"2603","","image-button-response","171","854886","0.0-168.0","A3KCG60100K3Y5","img_art/3.jpg","0","","","","","","","","","","","","","","","","","","","","","","","","",""
"590","","image-button-response","172","855481","0.0-169.0","A3KCG60100K3Y5","img_art/3.jpg","0","","","","","","","","","","","","","","","","","","","","","","","","",""
"1052","","image-button-response","173","856535","0.0-170.0-0.0","A3KCG60100K3Y5","img_art/3.jpg","1","","","","","","","","","","","","","","","","","","","","","","","","",""
"673","","image-button-response","174","857211","0.0-171.0-0.0","A3KCG60100K3Y5","img_art/3.jpg","2","","","","","","","","","","","","","","","","","","","","","","","","",""
"null","","html-keyboard-response","175","858213","0.0-172.0","A3KCG60100K3Y5","<p style=""font-size: 48px;"">+</p>","","","","","null","allTrialResponses","1000","1","18","img_art/3.jpg","-50","Bloody mess.","Kaitlyn,Diana,Olivia,Anna,Maria,Catherine","Too much red; very bland,-26,80,20","I didn't feel the color choice when I first looked. I did however like the placement of the gray.,-28,380,20","confusing taking over,-15,40,20","Definition of mediocre abstract art,-12,300,20","I struggle to see the art,-20,120,20","Anger, like something a serial killer may paint.,-30,160,20","Kaitlyn","Too much red; very bland,-26,80,20","Diana","I didn't feel the color choice when I first looked. I did however like the placement of the gray.,-28,380,20","Olivia","confusing taking over,-15,40,20","4"
"14656","","survey-text","176","872907","0.0-173.0-0.0","A3KCG60100K3Y5","","","","{""Q0"":""Very different ""}","","","","","","","","","","","","","","","","","","","","","","",""
"7060.100000023842","","image-slider-response","177","879968","0.0-174.0","A3KCG60100K3Y5","","","","","-1","","","","","","","","","","","","","","","","","","","","","",""
"2771","","image-button-response","178","884988","0.0-175.0","A3KCG60100K3Y5","img_art/10.jpg","3","","","","","","","","","","","","","","","","","","","","","","","","",""
"1394","","image-button-response","179","886387","0.0-176.0","A3KCG60100K3Y5","img_art/10.jpg","2","","","","","","","","","","","","","","","","","","","","","","","","",""
"726","","image-button-response","180","887115","0.0-177.0-0.0","A3KCG60100K3Y5","img_art/10.jpg","5","","","","","","","","","","","","","","","","","","","","","","","","",""
"2821","","image-button-response","181","889939","0.0-178.0-0.0","A3KCG60100K3Y5","img_art/10.jpg","5","","","","","","","","","","","","","","","","","","","","","","","","",""
"505","","image-button-response","182","893481","0.0-178.1-0.1","A3KCG60100K3Y5","img_art/10.jpg","3","","","","","","","","","","","","","","","","","","","","","","","","",""
"null","","html-keyboard-response","183","894983","0.0-179.0","A3KCG60100K3Y5","<p style=""font-size: 48px;"">+</p>","","","","","null","allTrialResponses","1500","1","19","img_art/10.jpg","-1","Very different ","Kaitlyn,Diana,Olivia,Kelsey,Jamie,Michelle","Picture looks smudged,-7,80,20","It reminds me of the ocean. Almost like a battlefield, but on the water.,19,380,20","feeling the turmoil and ride,12,40,20","reminds me of a violin,9,240,20","Well done designs for being considered abstract,45,320,20","This could be a guitar, or it could be a completely random shape.,-3,280,20","Olivia","feeling the turmoil and ride,12,40,20","Michelle","This could be a guitar, or it could be a completely random shape.,-3,280,20","Kelsey","reminds me of a violin,9,240,20","6"
"14328","","survey-text","184","909356","0.0-180.0-0.0","A3KCG60100K3Y5","","","","{""Q0"":""I would like this very much.""}","","","","","","","","","","","","","","","","","","","","","","",""
"4100.300000071526","","image-slider-response","185","913458","0.0-181.0","A3KCG60100K3Y5","","","","","50","","","","","","","","","","","","","","","","","","","","","",""
"4786","","image-button-response","186","918473","0.0-182.0","A3KCG60100K3Y5","img_art/17.jpg","1","","","","","","","","","","","","","","","","","","","","","","","","",""
"876","","image-button-response","187","919355","0.0-183.0","A3KCG60100K3Y5","img_art/17.jpg","1","","","","","","","","","","","","","","","","","","","","","","","","",""
"1270","","image-button-response","188","920627","0.0-184.0-0.0","A3KCG60100K3Y5","img_art/17.jpg","4","","","","","","","","","","","","","","","","","","","","","","","","",""
"931","","image-button-response","189","921560","0.0-185.0-0.0","A3KCG60100K3Y5","img_art/17.jpg","0","","","","","","","","","","","","","","","","","","","","","","","","",""
"null","","html-keyboard-response","190","922063","0.0-186.0","A3KCG60100K3Y5","<p style=""font-size: 48px;"">+</p>","","","","","null","allTrialResponses","500","1","20","img_art/17.jpg","50","I would like this very much.","Amy,Jasmine,Olivia,Kelsey,Madeline,Michelle","peaceful. contemplative. balanced. old,10,220,20","I like the use of color in this and how you can actually see shapes form. Seems thoughtful,22,340,20","muted tones brings me down,-13,40,20","this ones alright,10,240,20","So expressive and wonderful wow!,17,40,20","I can tell there are tress and maybe some doors but I'm not a fan of the style,-2,280,20","Jasmine","I like the use of color in this and how you can actually see shapes form. Seems thoughtful,22,340,20","Madeline","So expressive and wonderful wow!,17,40,20","Amy","peaceful. contemplative. balanced. old,10,220,20","6"
"2807","","survey-text","191","924932","0.0-187.0-0.0","A3KCG60100K3Y5","","","","{""Q0"":""we""}","","","","","","","","","","","","","","","","","","","","","","",""
"12009","","survey-text","192","936943","0.0-188.0-0.0","A3KCG60100K3Y5","","","","{""Q0"":""Not for me.""}","","","","","","","","","","","","","","","","","","","","","","",""
"9788.300000071526","","image-slider-response","193","946733","0.0-189.0","A3KCG60100K3Y5","","","","","-50","","","","","","","","","","","","","","","","","","","","","",""
"4198","","image-button-response","194","951741","0.0-190.0","A3KCG60100K3Y5","img_art/2.jpg","3","","","","","","","","","","","","","","","","","","","","","","","","",""
"1042","","image-button-response","195","952788","0.0-191.0","A3KCG60100K3Y5","img_art/2.jpg","3","","","","","","","","","","","","","","","","","","","","","","","","",""
"1417","","image-button-response","196","954207","0.0-192.0-0.0","A3KCG60100K3Y5","img_art/2.jpg","2","","","","","","","","","","","","","","","","","","","","","","","","",""
"848","","image-button-response","197","955057","0.0-193.0-0.0","A3KCG60100K3Y5","img_art/2.jpg","0","","","","","","","","","","","","","","","","","","","","","","","","",""
"null","","html-keyboard-response","198","956565","0.0-194.0","A3KCG60100K3Y5","<p style=""font-size: 48px;"">+</p>","","","","","null","allTrialResponses","1500","1","21","img_art/2.jpg","-50","Not for me.","Amy,Jasmine,Sara,Claire,Madeline,Katie","The color palette of this painting is for me displeasing and immature.,-30,220,20","Color picks are a bad mesh with each other,-17,340,20","Dark tone feels sad,-30,160,20","too blocky and don't like color combination,-32,260,20","I don't really like this style,-5,40,20","Doesn't look like anything. Just a blob of colors.,1,160,20","Claire","too blocky and don't like color combination,-32,260,20","Sara","Dark tone feels sad,-30,160,20","Amy","The color palette of this painting is for me displeasing and immature.,-30,220,20","6"
"12791","","survey-text","199","969399","0.0-195.0-0.0","A3KCG60100K3Y5","","","","{""Q0"":""Not interesting.""}","","","","","","","","","","","","","","","","","","","","","","",""
"4590.299999952316","","image-slider-response","200","973991","0.0-196.0","A3KCG60100K3Y5","","","","","-50","","","","","","","","","","","","","","","","","","","","","",""
"3309","","image-button-response","201","979002","0.0-197.0","A3KCG60100K3Y5","img_art/5.jpg","0","","","","","","","","","","","","","","","","","","","","","","","","",""
"614","","image-button-response","202","979621","0.0-198.0","A3KCG60100K3Y5","img_art/5.jpg","0","","","","","","","","","","","","","","","","","","","","","","","","",""
"1818","","image-button-response","203","981441","0.0-199.0-0.0","A3KCG60100K3Y5","img_art/5.jpg","4","","","","","","","","","","","","","","","","","","","","","","","","",""
"1586","","image-button-response","204","983029","0.0-200.0-0.0","A3KCG60100K3Y5","img_art/5.jpg","1","","","","","","","","","","","","","","","","","","","","","","","","",""
"null","","html-keyboard-response","205","984540","0.0-201.0","A3KCG60100K3Y5","<p style=""font-size: 48px;"">+</p>","","","","","null","allTrialResponses","1500","1","22","img_art/5.jpg","-50","Not interesting.","Amy,Danielle,Sara,Claire,Hailey,Destiny","Nearly white background gives a lack of context. Questionable skills,-45,220,20","Not a fan of the themes,-30,340,20","It looks random,-10,160,20","I like the strokes and colors used,20,260,20","puke yellow with nothing but sadness,-35,200,20","Just doesn't do a whole lot for me. I see Cinderellas broom,-11,360,20","Amy","Nearly white background gives a lack of context. Questionable skills,-45,220,20","Hailey","puke yellow with nothing but sadness,-35,200,20","Danielle","Not a fan of the themes,-30,340,20","6"
"10579","","survey-text","206","995163","0.0-202.0-0.0","A3KCG60100K3Y5","","","","{""Q0"":""Very differnt.""}","","","","","","","","","","","","","","","","","","","","","","",""
"7904.100000023842","","image-slider-response","207","1003068","0.0-203.0","A3KCG60100K3Y5","","","","","5","","","","","","","","","","","","","","","","","","","","","",""
"3803","","image-button-response","208","1008072","0.0-204.0","A3KCG60100K3Y5","img_art/23.jpg","0","","","","","","","","","","","","","","","","","","","","","","","","",""
"1560","","image-button-response","209","1009637","0.0-205.0","A3KCG60100K3Y5","img_art/23.jpg","1","","","","","","","","","","","","","","","","","","","","","","","","",""
"1048","","image-button-response","210","1010686","0.0-206.0-0.0","A3KCG60100K3Y5","img_art/23.jpg","0","","","","","","","","","","","","","","","","","","","","","","","","",""
"852","","image-button-response","211","1011541","0.0-207.0-0.0","A3KCG60100K3Y5","img_art/23.jpg","2","","","","","","","","","","","","","","","","","","","","","","","","",""
"null","","html-keyboard-response","212","1013045","0.0-208.0","A3KCG60100K3Y5","<p style=""font-size: 48px;"">+</p>","","","","","null","allTrialResponses","1500","1","23","img_art/23.jpg","5","Very differnt.","Amy,Danielle,Allison,Alicia,Hailey,Haley","So exciting and full of the night.,20,220,20","While I don't normally enjoy these color schemes all together, I kind of like this one,10,340,20","I like the color contrast, though I'm unable to tell what the white shapes are.,25,140,20","No reactions, childish.,-19,120,20","cold and dark feeling,-27,200,20","Beautiful. Very detailed and colorful. I enjoy looking at it.,50,220,20","Danielle","While I don't normally enjoy these color schemes all together, I kind of like this one,10,340,20","Amy","So exciting and full of the night.,20,220,20","Allison","I like the color contrast, though I'm unable to tell what the white shapes are.,25,140,20","6"
"10583","","survey-text","213","1023656","0.0-209.0-0.0","A3KCG60100K3Y5","","","","{""Q0"":""Not interesting.""}","","","","","","","","","","","","","","","","","","","","","","",""
"3290.2000000476837","","image-slider-response","214","1026948","0.0-210.0","A3KCG60100K3Y5","","","","","-50","","","","","","","","","","","","","","","","","","","","","",""
"3653","","image-button-response","215","1031954","0.0-211.0","A3KCG60100K3Y5","img_art/12.jpg","5","","","","","","","","","","","","","","","","","","","","","","","","",""
"747","","image-button-response","216","1032706","0.0-212.0","A3KCG60100K3Y5","img_art/12.jpg","5","","","","","","","","","","","","","","","","","","","","","","","","",""
"1346","","image-button-response","217","1034054","0.0-213.0-0.0","A3KCG60100K3Y5","img_art/12.jpg","2","","","","","","","","","","","","","","","","","","","","","","","","",""
"1670","","image-button-response","218","1035726","0.0-214.0-0.0","A3KCG60100K3Y5","img_art/12.jpg","1","","","","","","","","","","","","","","","","","","","","","","","","",""
"null","","html-keyboard-response","219","1036229","0.0-215.0","A3KCG60100K3Y5","<p style=""font-size: 48px;"">+</p>","","","","","null","allTrialResponses","500","1","24","img_art/12.jpg","-50","Not interesting.","Amy,Danielle,Allison,Amanda,Sydney,Tiffany","Quite lovely with depth and possibility.,21,220,20","Kind of interesting, seems almost nostalgic in a way to me.,10,340,20","Minimalist colors and shapes.,-5,140,20","The colors are beautiful and it has great composition,50,180,20","I don't like the dark black with the bright colors, but this as a whole is nice.,25,320,20","The painting makes me uncomfortable. The smears in the boxes feel like a giant mess.,-16,360,20","Tiffany","The painting makes me uncomfortable. The smears in the boxes feel like a giant mess.,-16,360,20","Allison","Minimalist colors and shapes.,-5,140,20","Danielle","Kind of interesting, seems almost nostalgic in a way to me.,10,340,20","6"
"7585","","survey-text","220","1043862","0.0-216.0-0.0","A3KCG60100K3Y5","","","","{""Q0"":""Don't like this one.""}","","","","","","","","","","","","","","","","","","","","","","",""
"2920.2000000476837","","image-slider-response","221","1046784","0.0-217.0","A3KCG60100K3Y5","","","","","-50","","","","","","","","","","","","","","","","","","","","","",""
"null","","image-button-response","222","1051790","0.0-218.0","A3KCG60100K3Y5","img_art/18.jpg","null","","","","","","","","","","","","","","","","","","","","","","","","",""
"477","","image-button-response","223","1052272","0.0-219.0","A3KCG60100K3Y5","img_art/18.jpg","3","","","","","","","","","","","","","","","","","","","","","","","","",""
"1195","","image-button-response","224","1053470","0.0-220.0-0.0","A3KCG60100K3Y5","img_art/18.jpg","5","","","","","","","","","","","","","","","","","","","","","","","","",""
"1233","","image-button-response","225","1054706","0.0-221.0-0.0","A3KCG60100K3Y5","img_art/18.jpg","2","","","","","","","","","","","","","","","","","","","","","","","","",""
"null","","html-keyboard-response","226","1055209","0.0-222.0","A3KCG60100K3Y5","<p style=""font-size: 48px;"">+</p>","","","","","null","allTrialResponses","500","1","25","img_art/18.jpg","-50","Don't like this one.","Meghan,Danielle,Allison,Chloe,Jenna,Tiffany","reminds me of sailors on a boat,17,220,20","Doesn't really speak to me well but I can appreciate it,10,340,20","Colors are okay. Reminds me of cavalry.,10,140,20","Evocative but cheesy.,-20,220,20","hauntingly beautiful. more things revealed the longer you look. love the spirit-like figure in the top left.,47,360,20","I'm mildly disgusted by the colors, and can't piece together the story the figures are trying to tell.,-10,360,20","Chloe","Evocative but cheesy.,-20,220,20","Tiffany","I'm mildly disgusted by the colors, and can't piece together the story the figures are trying to tell.,-10,360,20","Allison","Colors are okay. Reminds me of cavalry.,10,140,20","6"
"6104","","survey-text","227","1061381","0.0-223.0-0.0","A3KCG60100K3Y5","","","","{""Q0"":""table""}","","","","","","","","","","","","","","","","","","","","","","",""
"11543","","survey-text","228","1072926","0.0-224.0-0.0","A3KCG60100K3Y5","","","","{""Q0"":""Very plain.""}","","","","","","","","","","","","","","","","","","","","","","",""
"4576.300000071526","","image-slider-response","229","1077504","0.0-225.0","A3KCG60100K3Y5","","","","","-50","","","","","","","","","","","","","","","","","","","","","",""
"null","","image-button-response","230","1082517","0.0-226.0","A3KCG60100K3Y5","img_art/6.jpg","null","","","","","","","","","","","","","","","","","","","","","","","","",""
"795","","image-button-response","231","1083314","0.0-227.0","A3KCG60100K3Y5","img_art/6.jpg","0","","","","","","","","","","","","","","","","","","","","","","","","",""
"1126","","image-button-response","232","1084443","0.0-228.0-0.0","A3KCG60100K3Y5","img_art/6.jpg","1","","","","","","","","","","","","","","","","","","","","","","","","",""
"1656","","image-button-response","233","1086101","0.0-229.0-0.0","A3KCG60100K3Y5","img_art/6.jpg","2","","","","","","","","","","","","","","","","","","","","","","","","",""
"null","","html-keyboard-response","234","1086603","0.0-230.0","A3KCG60100K3Y5","<p style=""font-size: 48px;"">+</p>","","","","","null","allTrialResponses","500","1","26","img_art/6.jpg","-50","Very plain.","Abigail,Brittany,Allison,Chloe,Laura,Tiffany","This picture is weird,-6,20,20","It's alright. I imagined the peach from James and the Giant Peach.,1,40,20","Simple desert scene.,5,140,20","Cute and evocative,11,220,20","graceful and light,35,320,20","The painting makes me happy. Like I'm looking at a little bird.,6,360,20","Abigail","This picture is weird,-6,20,20","Brittany","It's alright. I imagined the peach from James and the Giant Peach.,1,40,20","Allison","Simple desert scene.,5,140,20","6"
"12772","","survey-text","235","1099418","0.0-231.0-0.0","A3KCG60100K3Y5","","","","{""Q0"":""It kind of okay.""}","","","","","","","","","","","","","","","","","","","","","","",""
"4314.199999928474","","image-slider-response","236","1103734","0.0-232.0","A3KCG60100K3Y5","","","","","-36","","","","","","","","","","","","","","","","","","","","","",""
"null","","image-button-response","237","1108742","0.0-233.0","A3KCG60100K3Y5","img_art/1.jpg","null","","","","","","","","","","","","","","","","","","","","","","","","",""
"462","","image-button-response","238","1109208","0.0-234.0","A3KCG60100K3Y5","img_art/1.jpg","2","","","","","","","","","","","","","","","","","","","","","","","","",""
"1263","","image-button-response","239","1110473","0.0-235.0-0.0","A3KCG60100K3Y5","img_art/1.jpg","4","","","","","","","","","","","","","","","","","","","","","","","","",""
"1090","","image-button-response","240","1111564","0.0-236.0-0.0","A3KCG60100K3Y5","img_art/1.jpg","3","","","","","","","","","","","","","","","","","","","","","","","","",""
"null","","html-keyboard-response","241","1113081","0.0-237.0","A3KCG60100K3Y5","<p style=""font-size: 48px;"">+</p>","","","","","null","allTrialResponses","1500","1","27","img_art/1.jpg","-36","It kind of okay.","Abigail,Brittany,Allison,Alexis,Breanna,Christina","I like the warmth of the picture,21,20,20","It reminds me of a sunset I once saw.,16,40,20","Messy mix of primary colors.,-10,140,20","Taco Bell wallpaper. Doesn't really make me feel anything,3,100,20","Makes me feel confused,-6,380,20","nice colors but kinds of blah,1,240,20","Allison","Messy mix of primary colors.,-10,140,20","Breanna","Makes me feel confused,-6,380,20","Alexis","Taco Bell wallpaper. Doesn't really make me feel anything,3,100,20","6"
"10200","","survey-text","242","1123309","0.0-238.0-0.0","A3KCG60100K3Y5","","","","{""Q0"":""Not at all.""}","","","","","","","","","","","","","","","","","","","","","","",""
"3146.2999999523163","","image-slider-response","243","1126458","0.0-239.0","A3KCG60100K3Y5","","","","","-50","","","","","","","","","","","","","","","","","","","","","",""
"null","","image-button-response","244","1131468","0.0-240.0","A3KCG60100K3Y5","img_art/21.jpg","null","","","","","","","","","","","","","","","","","","","","","","","","",""
"247","","image-button-response","245","1131720","0.0-241.0","A3KCG60100K3Y5","img_art/21.jpg","5","","","","","","","","","","","","","","","","","","","","","","","","",""
"924","","image-button-response","246","1132646","0.0-242.0-0.0","A3KCG60100K3Y5","img_art/21.jpg","4","","","","","","","","","","","","","","","","","","","","","","","","",""
"1899","","image-button-response","247","1134548","0.0-243.0-0.0","A3KCG60100K3Y5","img_art/21.jpg","2","","","","","","","","","","","","","","","","","","","","","","","","",""
"null","","html-keyboard-response","248","1136064","0.0-244.0","A3KCG60100K3Y5","<p style=""font-size: 48px;"">+</p>","","","","","null","allTrialResponses","1500","1","28","img_art/21.jpg","-50","Not at all.","Jessica,Alexandra,Allison,Alexis,Breanna,Stephanie","I like how the colors blend together like a beautiful sunset.,25,400,20","This one is nice, it reminds me of the sky,42,60,20","I like color mix here,15,140,20","I love this. Reminds me of a coast. The colors flow beautifully,40,100,20","Can't understand what it is,-27,380,20","A battle at sea, the red is a bomb exploding.,-31,300,20","Stephanie","A battle at sea, the red is a bomb exploding.,-31,300,20","Breanna","Can't understand what it is,-27,380,20","Allison","I like color mix here,15,140,20","6"
"10704","","survey-text","249","1146813","0.0-245.0-0.0","A3KCG60100K3Y5","","","","{""Q0"":""Very beautiful.""}","","","","","","","","","","","","","","","","","","","","","","",""
"3582.399999976158","","image-slider-response","250","1150398","0.0-246.0","A3KCG60100K3Y5","","","","","50","","","","","","","","","","","","","","","","","","","","","",""
"4023","","image-button-response","251","1155405","0.0-247.0","A3KCG60100K3Y5","img_art/24.jpg","0","","","","","","","","","","","","","","","","","","","","","","","","",""
"793","","image-button-response","252","1156201","0.0-248.0","A3KCG60100K3Y5","img_art/24.jpg","0","","","","","","","","","","","","","","","","","","","","","","","","",""
"1102","","image-button-response","253","1157306","0.0-249.0-0.0","A3KCG60100K3Y5","img_art/24.jpg","5","","","","","","","","","","","","","","","","","","","","","","","","",""
"652","","image-button-response","254","1157959","0.0-250.0-0.0","A3KCG60100K3Y5","img_art/24.jpg","4","","","","","","","","","","","","","","","","","","","","","","","","",""
"null","","html-keyboard-response","255","1159461","0.0-251.0","A3KCG60100K3Y5","<p style=""font-size: 48px;"">+</p>","","","","","null","allTrialResponses","1500","1","29","img_art/24.jpg","50","Very beautiful.","Sabrina,Caitlin,Allison,Erika,Breanna,Stephanie","Love the natural vibe,50,120,20","I actually like this one. You can tell what it is.,25,80,20","I appreciate the earth tones. Soothing.,5,140,20","Very nice textures and subject,38,100,20","Like it, nice attention to details,31,380,20","A beautiful waterfall in the springtime.,40,300,20","Sabrina","Love the natural vibe,50,120,20","Stephanie","A beautiful waterfall in the springtime.,40,300,20","Breanna","Like it, nice attention to details,31,380,20","6"
"19375","","survey-text","256","1178888","0.0-252.0-0.0","A3KCG60100K3Y5","","","","{""Q0"":""This is different I like it.""}","","","","","","","","","","","","","","","","","","","","","","",""
"12061.899999976158","","image-slider-response","257","1190951","0.0-253.0","A3KCG60100K3Y5","","","","","32","","","","","","","","","","","","","","","","","","","","","",""
"null","","image-button-response","258","1195958","0.0-254.0","A3KCG60100K3Y5","img_art/13.jpg","null","","","","","","","","","","","","","","","","","","","","","","","","",""
"804","","image-button-response","259","1196766","0.0-255.0","A3KCG60100K3Y5","img_art/13.jpg","2","","","","","","","","","","","","","","","","","","","","","","","","",""
"2640","","image-button-response","260","1199408","0.0-256.0-0.0","A3KCG60100K3Y5","img_art/13.jpg","4","","","","","","","","","","","","","","","","","","","","","","","","",""
"637","","image-button-response","261","1200048","0.0-257.0-0.0","A3KCG60100K3Y5","img_art/13.jpg","3","","","","","","","","","","","","","","","","","","","","","","","","",""
"null","","html-keyboard-response","262","1201565","0.0-258.0","A3KCG60100K3Y5","<p style=""font-size: 48px;"">+</p>","","","","","null","allTrialResponses","1500","1","30","img_art/13.jpg","32","This is different I like it.","Sabrina,Elizabeth,Savannah,Alexandria,Breanna,Stephanie","I love the edgy nature,50,120,20","Love the splash of colors,50,20,20","Lots of depth and character.,30,200,20","the monochrome of blue with splatters makes me excited and happy,36,80,20","Makes me feel nice and calm,18,380,20","Raindrops splashing on the window.,50,300,20","Savannah","Lots of depth and character.,30,200,20","Breanna","Makes me feel nice and calm,18,380,20","Alexandria","the monochrome of blue with splatters makes me excited and happy,36,80,20","6"
"5228","","image-button-response_instructions","263","1206812","0.0-259.0","A3KCG60100K3Y5","","0","instructions","","","","","","","","","","","","","","","","","","","","","","","",""
"1492","","image-button-response","264","1208319","0.0-260.0","A3KCG60100K3Y5","","0","","","","","","","","","","","","","","","","","","","","","","","","",""
