"rt","url","trial_type","trial_index","time_elapsed","internal_node_id","participant_id","stimulus","button_pressed","Name","responses","response","key_press","variableName","fixationTime","condition","trial","photo","subjectRating","subjectResponse","agentsNames","agent_1_Response","agent_2_Response","agent_3_Response","agent_4_Response","agent_5_Response","agent_6_Response","kept_1_name","kept_1_response","kept_2_name","kept_2_response","kept_3_name","kept_3_response","errorCounter"
"16115","external_page_harvard.html","external-html","0","16293","0.0-0.0","A3KU7DD8Q1NQ7P","","","","","","","","","","","","","","","","","","","","","","","","","","",""
"1739","","image-button-response","1","18034","0.0-1.0","A3KU7DD8Q1NQ7P","","0","","","","","","","","","","","","","","","","","","","","","","","","",""
"3197","","image-button-response","2","21236","0.0-2.0-0.0","A3KU7DD8Q1NQ7P","","1","phone","","","","","","","","","","","","","","","","","","","","","","","",""
"8556","","survey-text","3","29794","0.0-3.0-0.0","A3KU7DD8Q1NQ7P","","","","{""Q0"":""A3KU7DD8Q1NQ7P""}","","","","","","","","","","","","","","","","","","","","","","",""
"6166","","image-button-response_instructions","4","35963","0.0-4.0","A3KU7DD8Q1NQ7P","","0","instructions","","","","","","","","","","","","","","","","","","","","","","","",""
"13471","","image-button-response_instructions","5","49435","0.0-5.0","A3KU7DD8Q1NQ7P","img_art/ins/popularity/ins1.png","0","instructions","","","","","","","","","","","","","","","","","","","","","","","",""
"8141","","image-button-response_instructions","6","57577","0.0-6.0","A3KU7DD8Q1NQ7P","img_art/ins/popularity/ins2.png","0","instructions","","","","","","","","","","","","","","","","","","","","","","","",""
"4193","","image-button-response_instructions","7","61772","0.0-7.0","A3KU7DD8Q1NQ7P","img_art/ins/popularity/ins2Extreme.png","0","instructions","","","","","","","","","","","","","","","","","","","","","","","",""
"6455","","image-button-response_instructions","8","68227","0.0-8.0","A3KU7DD8Q1NQ7P","img_art/ins/popularity/ins3KEEPpop.PNG","0","instructions","","","","","","","","","","","","","","","","","","","","","","","",""
"4738","","image-button-response_instructions","9","72967","0.0-9.0","A3KU7DD8Q1NQ7P","img_art/ins/popularity/ins3ANamepop.PNG","0","instructions","","","","","","","","","","","","","","","","","","","","","","","",""
"5305","","image-button-response_instructions","10","78274","0.0-10.0","A3KU7DD8Q1NQ7P","img_art/ins/popularity/ins3ARatingpop.png","0","instructions","","","","","","","","","","","","","","","","","","","","","","","",""
"4411","","image-button-response_instructions","11","82688","0.0-11.0","A3KU7DD8Q1NQ7P","img_art/ins/popularity/ins3ATextpop.png","0","instructions","","","","","","","","","","","","","","","","","","","","","","","",""
"4917","","image-button-response_instructions","12","87608","0.0-12.0","A3KU7DD8Q1NQ7P","img_art/ins/popularity/ins3ALikespop.png","0","instructions","","","","","","","","","","","","","","","","","","","","","","","",""
"9919","","image-button-response_instructions","13","97528","0.0-13.0","A3KU7DD8Q1NQ7P","img_art/ins/popularity/ins3KEEPpop.PNG","0","instructions","","","","","","","","","","","","","","","","","","","","","","","",""
"6915","","image-button-response_instructions","14","104445","0.0-14.0","A3KU7DD8Q1NQ7P","img_art/ins/popularity/ins3_5RED.png","0","instructions","","","","","","","","","","","","","","","","","","","","","","","",""
"4805","","image-button-response_instructions","15","109250","0.0-15.0","A3KU7DD8Q1NQ7P","img_art/ins/popularity/ins3KEEPpop.PNG","0","instructions","","","","","","","","","","","","","","","","","","","","","","","",""
"8555","","image-button-response_instructions","16","117806","0.0-16.0","A3KU7DD8Q1NQ7P","img_art/ins/popularity/ins4KEEPpop.PNG","0","instructions","","","","","","","","","","","","","","","","","","","","","","","",""
"4999","","image-button-response_instructions","17","122806","0.0-17.0","A3KU7DD8Q1NQ7P","img_art/ins/popularity/ins5KEEPpop.PNG","0","instructions","","","","","","","","","","","","","","","","","","","","","","","",""
"1809","","image-button-response_instructions","18","124617","0.0-18.0","A3KU7DD8Q1NQ7P","","0","instructions","","","","","","","","","","","","","","","","","","","","","","","",""
"8041","","survey-text","19","132682","0.0-19.0-0.0","A3KU7DD8Q1NQ7P","","","","{""Q0"":""but""}","","","","","","","","","","","","","","","","","","","","","","",""
"17600","","survey-text","20","150285","0.0-20.0-0.0","A3KU7DD8Q1NQ7P","","","","{""Q0"":""Very bland . Not worth hanging on the wall""}","","","","","","","","","","","","","","","","","","","","","","",""
"4732","","image-slider-response","21","155022","0.0-21.0","A3KU7DD8Q1NQ7P","","","","","-26","","","","","","","","","","","","","","","","","","","","","",""
"null","","image-button-response","22","160027","0.0-22.0","A3KU7DD8Q1NQ7P","img_art/ins/1.jpg","null","","","","","","","","","","","","","","","","","","","","","","","","",""
"9361","","image-button-response","23","169391","0.0-23.0","A3KU7DD8Q1NQ7P","img_art/ins/1.jpg","0","","","","","","","","","","","","","","","","","","","","","","","","",""
"9651","","image-button-response","24","179045","0.0-24.0-0.0","A3KU7DD8Q1NQ7P","img_art/ins/1.jpg","2","","","","","","","","","","","","","","","","","","","","","","","","",""
"3165","","image-button-response","25","182213","0.0-25.0-0.0","A3KU7DD8Q1NQ7P","img_art/ins/1.jpg","2","","","","","","","","","","","","","","","","","","","","","","","","",""
"3779","","image-button-response","26","192308","0.0-25.1-0.1","A3KU7DD8Q1NQ7P","img_art/ins/1.jpg","0","","","","","","","","","","","","","","","","","","","","","","","","",""
"1797","","image-button-response","27","198120","0.0-25.2-0.2","A3KU7DD8Q1NQ7P","img_art/ins/1.jpg","3","","","","","","","","","","","","","","","","","","","","","","","","",""
"null","","html-keyboard-response","28","199133","0.0-26.0","A3KU7DD8Q1NQ7P","<p style=""font-size: 48px;"">+</p>","","","","","null","allTrialResponses","1000","1","-2","img_art/ins/1.jpg","-26","Very bland . Not worth hanging on the wall","Adam,Alex,Ben,Carl,Daniel,Jack","Seems like doodles,-20,20,20","very creative work.,36,40,20","This color reminds me of poo,-46,60,20","very calming artwork,42,80,20","It looks like a murder scene.,-48,100,20","I like the sophisticated brushwork,40,120,20","Adam","Seems like doodles,-20,20,20","Ben","This color reminds me of poo,-46,60,20","Carl","very calming artwork,42,80,20","4"
"12965","","survey-text","29","212119","0.0-27.0-0.0","A3KU7DD8Q1NQ7P","","","","{""Q0"":""A little too garish""}","","","","","","","","","","","","","","","","","","","","","","",""
"3928","","image-slider-response","30","216050","0.0-28.0","A3KU7DD8Q1NQ7P","","","","","-36","","","","","","","","","","","","","","","","","","","","","",""
"null","","image-button-response","31","221062","0.0-29.0","A3KU7DD8Q1NQ7P","img_art/ins/2.jpg","null","","","","","","","","","","","","","","","","","","","","","","","","",""
"339","","image-button-response","32","221402","0.0-30.0","A3KU7DD8Q1NQ7P","img_art/ins/2.jpg","0","","","","","","","","","","","","","","","","","","","","","","","","",""
"1035","","image-button-response","33","222440","0.0-31.0-0.0","A3KU7DD8Q1NQ7P","img_art/ins/2.jpg","2","","","","","","","","","","","","","","","","","","","","","","","","",""
"5435","","image-button-response","34","227878","0.0-32.0-0.0","A3KU7DD8Q1NQ7P","img_art/ins/2.jpg","5","","","","","","","","","","","","","","","","","","","","","","","","",""
"null","","html-keyboard-response","35","229381","0.0-33.0","A3KU7DD8Q1NQ7P","<p style=""font-size: 48px;"">+</p>","","","","","null","allTrialResponses","1500","1","-1","img_art/ins/2.jpg","-36","A little too garish","Adam,James,Ben,Carl,John,Kyle","too much color,-18,20,20","looks too angry,-50,140,20","meaningless painting,-45,60,20","I can feel the artist's passion in it,45,80,20","love the texture of paint,48,160,20","Idk, it is just annoying,-32,180,20","Adam","too much color,-18,20,20","Ben","meaningless painting,-45,60,20","Kyle","Idk, it is just annoying,-32,180,20","4"
"14278","","survey-text","36","243683","0.0-34.0-0.0","A3KU7DD8Q1NQ7P","","","","{""Q0"":""Almost interesting but not quite""}","","","","","","","","","","","","","","","","","","","","","","",""
"3212","","image-slider-response","37","246896","0.0-35.0","A3KU7DD8Q1NQ7P","","","","","-20","","","","","","","","","","","","","","","","","","","","","",""
"3441","","image-button-response","38","251911","0.0-36.0","A3KU7DD8Q1NQ7P","img_art/ins/3.jpg","0","","","","","","","","","","","","","","","","","","","","","","","","",""
"2763","","image-button-response","39","254678","0.0-37.0","A3KU7DD8Q1NQ7P","img_art/ins/3.jpg","4","","","","","","","","","","","","","","","","","","","","","","","","",""
"3855","","image-button-response","40","258535","0.0-38.0-0.0","A3KU7DD8Q1NQ7P","img_art/ins/3.jpg","5","","","","","","","","","","","","","","","","","","","","","","","","",""
"4698","","image-button-response","41","263235","0.0-39.0-0.0","A3KU7DD8Q1NQ7P","img_art/ins/3.jpg","0","","","","","","","","","","","","","","","","","","","","","","","","",""
"null","","html-keyboard-response","42","264742","0.0-40.0","A3KU7DD8Q1NQ7P","<p style=""font-size: 48px;"">+</p>","","","","","null","allTrialResponses","1500","1","0","img_art/ins/3.jpg","-20","Almost interesting but not quite","Adam,Sam,Ben,Mike,Ron,Kyle","My daily routine, it's depressing,-20,20,20","I can feel a rainy day from this painting,18,240,20","This thing gives me anxiety,-41,60,20","enjoy the different shades of blue,22,200,20","It looks depressing,-26,220,20","It looks like a playground for bats,-36,180,20","Ron","It looks depressing,-26,220,20","Kyle","It looks like a playground for bats,-36,180,20","Adam","My daily routine, it's depressing,-20,20,20","4"
"5750","","image-button-response_instructions","43","270527","0.0-41.0","A3KU7DD8Q1NQ7P","","0","instructions","","","","","","","","","","","","","","","","","","","","","","","",""
"13024","","survey-likert","44","283553","0.0-42.0-0.0","A3KU7DD8Q1NQ7P","","","","{""Q0"":"""",""Q1"":0,""Q2"":1}","","","","","","","","","","","","","","","","","","","","","","",""
"6161","","survey-text","45","289725","0.0-43.0-0.0","A3KU7DD8Q1NQ7P","","","","{""Q0"":""rock""}","","","","","","","","","","","","","","","","","","","","","","",""
"15983","","survey-text","46","305709","0.0-44.0-0.0","A3KU7DD8Q1NQ7P","","","","{""Q0"":""Ugly and rude""}","","","","","","","","","","","","","","","","","","","","","","",""
"3519","","image-slider-response","47","309231","0.0-45.0","A3KU7DD8Q1NQ7P","","","","","-45","","","","","","","","","","","","","","","","","","","","","",""
"null","","image-button-response","48","314252","0.0-46.0","A3KU7DD8Q1NQ7P","img_art/3.jpg","null","","","","","","","","","","","","","","","","","","","","","","","","",""
"1839","","image-button-response","49","316094","0.0-47.0","A3KU7DD8Q1NQ7P","img_art/3.jpg","2","","","","","","","","","","","","","","","","","","","","","","","","",""
"7403","","image-button-response","50","323499","0.0-48.0-0.0","A3KU7DD8Q1NQ7P","img_art/3.jpg","5","","","","","","","","","","","","","","","","","","","","","","","","",""
"2659","","image-button-response","51","326161","0.0-49.0-0.0","A3KU7DD8Q1NQ7P","img_art/3.jpg","1","","","","","","","","","","","","","","","","","","","","","","","","",""
"null","","html-keyboard-response","52","327171","0.0-50.0","A3KU7DD8Q1NQ7P","<p style=""font-size: 48px;"">+</p>","","","","","null","allTrialResponses","1000","1","1","img_art/3.jpg","-45","Ugly and rude","Seth,Mason,Spencer,Marcus,David,Jordan","I didn't feel the color choice when I first looked. I did however like the placement of the gray.,-28,60,20","scribbles in red. 2 minute piece.,-30,100,20","Scratchy scrawly all one color, looks like a mistake,-28,120,20","Like the colors and energy of this work.,10,60,20","No clue what I'm looking. This just looks a series of scribbles in a box.,-20,340,20","Reminded me of blood or something bad,-21,160,20","Spencer","Scratchy scrawly all one color, looks like a mistake,-28,120,20","Jordan","Reminded me of blood or something bad,-21,160,20","Mason","scribbles in red. 2 minute piece.,-30,100,20","4"
"14391","","survey-text","53","341578","0.0-51.0-0.0","A3KU7DD8Q1NQ7P","","","","{""Q0"":""Looks juvenile.""}","","","","","","","","","","","","","","","","","","","","","","",""
"2912","","image-slider-response","54","344492","0.0-52.0","A3KU7DD8Q1NQ7P","","","","","-37","","","","","","","","","","","","","","","","","","","","","",""
"4729","","image-button-response","55","349503","0.0-53.0","A3KU7DD8Q1NQ7P","img_art/16.jpg","1","","","","","","","","","","","","","","","","","","","","","","","","",""
"4908","","image-button-response","56","354415","0.0-54.0","A3KU7DD8Q1NQ7P","img_art/16.jpg","3","","","","","","","","","","","","","","","","","","","","","","","","",""
"2752","","image-button-response","57","357168","0.0-55.0-0.0","A3KU7DD8Q1NQ7P","img_art/16.jpg","5","","","","","","","","","","","","","","","","","","","","","","","","",""
"2375","","image-button-response","58","359546","0.0-56.0-0.0","A3KU7DD8Q1NQ7P","img_art/16.jpg","0","","","","","","","","","","","","","","","","","","","","","","","","",""
"null","","html-keyboard-response","59","361052","0.0-57.0","A3KU7DD8Q1NQ7P","<p style=""font-size: 48px;"">+</p>","","","","","null","allTrialResponses","1500","1","2","img_art/16.jpg","-37","Looks juvenile.","Bryan,Mason,Spencer,Cameron,Gregory,Jordan","Something terrible happened. Either the figure on the right is the victim or another shredded toy.,-49,400,20","Don't get it. Hate it. ugly.,-44,100,20","Know it is a piece relating to children and gun violence. Sad,-30,120,20","Don't like teddy bears in art. I could draw that house.,-20,60,20","Weird and funny,40,220,20","The bear makes me very uncomfortable,-50,160,20","Cameron","Don't like teddy bears in art. I could draw that house.,-20,60,20","Jordan","The bear makes me very uncomfortable,-50,160,20","Bryan","Something terrible happened. Either the figure on the right is the victim or another shredded toy.,-49,400,20","4"
"27434","","survey-text","60","388513","0.0-58.0-0.0","A3KU7DD8Q1NQ7P","","","","{""Q0"":""Not terrible but objects are too indistinct""}","","","","","","","","","","","","","","","","","","","","","","",""
"3190","","image-slider-response","61","391705","0.0-59.0","A3KU7DD8Q1NQ7P","","","","","-21","","","","","","","","","","","","","","","","","","","","","",""
"4657","","image-button-response","62","396714","0.0-60.0","A3KU7DD8Q1NQ7P","img_art/26.jpg","2","","","","","","","","","","","","","","","","","","","","","","","","",""
"6531","","image-button-response","63","403247","0.0-61.0","A3KU7DD8Q1NQ7P","img_art/26.jpg","0","","","","","","","","","","","","","","","","","","","","","","","","",""
"2309","","image-button-response","64","405559","0.0-62.0-0.0","A3KU7DD8Q1NQ7P","img_art/26.jpg","4","","","","","","","","","","","","","","","","","","","","","","","","",""
"1845","","image-button-response","65","407406","0.0-63.0-0.0","A3KU7DD8Q1NQ7P","img_art/26.jpg","2","","","","","","","","","","","","","","","","","","","","","","","","",""
"null","","html-keyboard-response","66","408909","0.0-64.0","A3KU7DD8Q1NQ7P","<p style=""font-size: 48px;"">+</p>","","","","","null","allTrialResponses","1500","1","3","img_art/26.jpg","-21","Not terrible but objects are too indistinct","Bryan,Devon,Cody,Cameron,Bryce,Jordan","Like the muted colors & the scene which seems to be serene.,14,400,20","i can feel the warmth,12,400,20","Looks unfinished,-31,180,20","street scene is okay?,15,60,20","Love the colors in this one.,22,20,20","Reminds me of walks in my dads city when I was little,22,160,20","Bryan","Like the muted colors & the scene which seems to be serene.,14,400,20","Bryce","Love the colors in this one.,22,20,20","Cody","Looks unfinished,-31,180,20","4"
"17045","","survey-text","67","425990","0.0-65.0-0.0","A3KU7DD8Q1NQ7P","","","","{""Q0"":""Fragmented images don't work""}","","","","","","","","","","","","","","","","","","","","","","",""
"2885","","image-slider-response","68","428879","0.0-66.0","A3KU7DD8Q1NQ7P","","","","","-32","","","","","","","","","","","","","","","","","","","","","",""
"null","","image-button-response","69","433883","0.0-67.0","A3KU7DD8Q1NQ7P","img_art/28.jpg","null","","","","","","","","","","","","","","","","","","","","","","","","",""
"516","","image-button-response","70","434399","0.0-68.0","A3KU7DD8Q1NQ7P","img_art/28.jpg","1","","","","","","","","","","","","","","","","","","","","","","","","",""
"1886","","image-button-response","71","436287","0.0-69.0-0.0","A3KU7DD8Q1NQ7P","img_art/28.jpg","2","","","","","","","","","","","","","","","","","","","","","","","","",""
"2010","","image-button-response","72","438298","0.0-70.0-0.0","A3KU7DD8Q1NQ7P","img_art/28.jpg","3","","","","","","","","","","","","","","","","","","","","","","","","",""
"null","","html-keyboard-response","73","439301","0.0-71.0","A3KU7DD8Q1NQ7P","<p style=""font-size: 48px;"">+</p>","","","","","null","allTrialResponses","1000","1","4","img_art/28.jpg","-32","Fragmented images don't work","Bryan,Scott,Cody,Colton,Bryce,Hunter","A meeting in Old Jerusalem.,11,400,20","I don't like the color choice,-30,20,20","Don't love the colors,-10,180,20","not a fan of the colors or strokes used,-27,220,20","It gives me weird vibes.,-25,20,20","reminds me of kandinsky,14,240,20","Scott","I don't like the color choice,-30,20,20","Cody","Don't love the colors,-10,180,20","Colton","not a fan of the colors or strokes used,-27,220,20","4"
"16894","","survey-text","74","456213","0.0-72.0-0.0","A3KU7DD8Q1NQ7P","","","","{""Q0"":""Looks like a warhouse accident.""}","","","","","","","","","","","","","","","","","","","","","","",""
"5076","","image-slider-response","75","461290","0.0-73.0","A3KU7DD8Q1NQ7P","","","","","-42","","","","","","","","","","","","","","","","","","","","","",""
"2488","","image-button-response","76","466300","0.0-74.0","A3KU7DD8Q1NQ7P","img_art/29.jpg","0","","","","","","","","","","","","","","","","","","","","","","","","",""
"566","","image-button-response","77","466870","0.0-75.0","A3KU7DD8Q1NQ7P","img_art/29.jpg","2","","","","","","","","","","","","","","","","","","","","","","","","",""
"1449","","image-button-response","78","468320","0.0-76.0-0.0","A3KU7DD8Q1NQ7P","img_art/29.jpg","1","","","","","","","","","","","","","","","","","","","","","","","","",""
"945","","image-button-response","79","469267","0.0-77.0-0.0","A3KU7DD8Q1NQ7P","img_art/29.jpg","0","","","","","","","","","","","","","","","","","","","","","","","","",""
"null","","html-keyboard-response","80","470271","0.0-78.0","A3KU7DD8Q1NQ7P","<p style=""font-size: 48px;"">+</p>","","","","","null","allTrialResponses","1000","1","5","img_art/29.jpg","-42","Looks like a warhouse accident.","Juan,Scott,Cody,Colton,Victor,Peter","I hate the red x over everything, hate the black hate how hopeless this is.,-50,260,20","feels random and not thoughtout,-37,20,20","Feels messy, stressful,-22,180,20","interesting, but I wouldn't put it on my wall,8,220,20","I like the colors but it looks very amateur,1,340,20","Looks like a jail cell,-15,320,20","Cody","Feels messy, stressful,-22,180,20","Scott","feels random and not thoughtout,-37,20,20","Juan","I hate the red x over everything, hate the black hate how hopeless this is.,-50,260,20","4"
"7023","","survey-text","81","477331","0.0-79.0-0.0","A3KU7DD8Q1NQ7P","","","","{""Q0"":""sky""}","","","","","","","","","","","","","","","","","","","","","","",""
"15470","","survey-text","82","492803","0.0-80.0-0.0","A3KU7DD8Q1NQ7P","","","","{""Q0"":""Colorful but blotchy""}","","","","","","","","","","","","","","","","","","","","","","",""
"2334","","image-slider-response","83","495139","0.0-81.0","A3KU7DD8Q1NQ7P","","","","","-24","","","","","","","","","","","","","","","","","","","","","",""
"null","","image-button-response","84","500141","0.0-82.0","A3KU7DD8Q1NQ7P","img_art/21.jpg","null","","","","","","","","","","","","","","","","","","","","","","","","",""
"4265","","image-button-response","85","504408","0.0-83.0","A3KU7DD8Q1NQ7P","img_art/21.jpg","5","","","","","","","","","","","","","","","","","","","","","","","","",""
"1894","","image-button-response","86","506305","0.0-84.0-0.0","A3KU7DD8Q1NQ7P","img_art/21.jpg","3","","","","","","","","","","","","","","","","","","","","","","","","",""
"3261","","image-button-response","87","509567","0.0-85.0-0.0","A3KU7DD8Q1NQ7P","img_art/21.jpg","1","","","","","","","","","","","","","","","","","","","","","","","","",""
"null","","html-keyboard-response","88","510578","0.0-86.0","A3KU7DD8Q1NQ7P","<p style=""font-size: 48px;"">+</p>","","","","","null","allTrialResponses","1000","1","6","img_art/21.jpg","-24","Colorful but blotchy","Juan,Scott,Cody,Brendan,Derek,Nathaniel","The colors and softness work together to make something that's lovely.,42,260,20","looks like a sunrise, great colors,40,20,20","Pretty, good colors,30,180,20","looks like a sea during some war,27,340,20","I love the colors in this painting,30,360,20","Looks like two ships on fire. Cool image.,12,220,20","Nathaniel","Looks like two ships on fire. Cool image.,12,220,20","Brendan","looks like a sea during some war,27,340,20","Scott","looks like a sunrise, great colors,40,20,20","4"
"17404","","survey-text","89","527989","0.0-87.0-0.0","A3KU7DD8Q1NQ7P","","","","{""Q0"":""5 year old finger painting.""}","","","","","","","","","","","","","","","","","","","","","","",""
"3925","","image-slider-response","90","531916","0.0-88.0","A3KU7DD8Q1NQ7P","","","","","-44","","","","","","","","","","","","","","","","","","","","","",""
"null","","image-button-response","91","536922","0.0-89.0","A3KU7DD8Q1NQ7P","img_art/30.jpg","null","","","","","","","","","","","","","","","","","","","","","","","","",""
"2278","","image-button-response","92","539202","0.0-90.0","A3KU7DD8Q1NQ7P","img_art/30.jpg","3","","","","","","","","","","","","","","","","","","","","","","","","",""
"1692","","image-button-response","93","540896","0.0-91.0-0.0","A3KU7DD8Q1NQ7P","img_art/30.jpg","4","","","","","","","","","","","","","","","","","","","","","","","","",""
"2231","","image-button-response","94","543129","0.0-92.0-0.0","A3KU7DD8Q1NQ7P","img_art/30.jpg","0","","","","","","","","","","","","","","","","","","","","","","","","",""
"null","","html-keyboard-response","95","544632","0.0-93.0","A3KU7DD8Q1NQ7P","<p style=""font-size: 48px;"">+</p>","","","","","null","allTrialResponses","1500","1","7","img_art/30.jpg","-44","5 year old finger painting.","Anthony,Scott,Noah,Brendan,William,Nathaniel","The color scheme used in this piece is very ugly.,-50,200,20","nothing special about it,1,20,20","uplifted and yet calmed,15,260,20","i cant really get it,-35,340,20","to dark and dreary,-28,380,20","No my favorite, but I do like the long strokes of color,11,220,20","Brendan","i cant really get it,-35,340,20","William","to dark and dreary,-28,380,20","Anthony","The color scheme used in this piece is very ugly.,-50,200,20","4"
"9485","","survey-text","96","554144","0.0-94.0-0.0","A3KU7DD8Q1NQ7P","","","","{""Q0"":""Just another mess.""}","","","","","","","","","","","","","","","","","","","","","","",""
"3269","","image-slider-response","97","557414","0.0-95.0","A3KU7DD8Q1NQ7P","","","","","-31","","","","","","","","","","","","","","","","","","","","","",""
"1881","","image-button-response","98","562422","0.0-96.0","A3KU7DD8Q1NQ7P","img_art/2.jpg","0","","","","","","","","","","","","","","","","","","","","","","","","",""
"1017","","image-button-response","99","563440","0.0-97.0","A3KU7DD8Q1NQ7P","img_art/2.jpg","3","","","","","","","","","","","","","","","","","","","","","","","","",""
"3975","","image-button-response","100","567418","0.0-98.0-0.0","A3KU7DD8Q1NQ7P","img_art/2.jpg","5","","","","","","","","","","","","","","","","","","","","","","","","",""
"1530","","image-button-response","101","568949","0.0-99.0-0.0","A3KU7DD8Q1NQ7P","img_art/2.jpg","0","","","","","","","","","","","","","","","","","","","","","","","","",""
"null","","html-keyboard-response","102","569451","0.0-100.0","A3KU7DD8Q1NQ7P","<p style=""font-size: 48px;"">+</p>","","","","","null","allTrialResponses","500","1","8","img_art/2.jpg","-31","Just another mess.","Anthony,Ryan,Cole,Brendan,William,Jack","Ugly color scheme,-50,200,20","Very simple and childish,40,380,20","Childish smiley face,-19,200,20","its ugly af to be honest,-50,340,20","I like the colors,22,380,20","the colors are a bit odd, and the squiggly line at the top is distracting,0,320,20","Brendan","its ugly af to be honest,-50,340,20","Jack","the colors are a bit odd, and the squiggly line at the top is distracting,0,320,20","Anthony","Ugly color scheme,-50,200,20","4"
"18987","","survey-text","103","588445","0.0-101.0-0.0","A3KU7DD8Q1NQ7P","","","","{""Q0"":""Not as terrible as the others.""}","","","","","","","","","","","","","","","","","","","","","","",""
"2328","","image-slider-response","104","590775","0.0-102.0","A3KU7DD8Q1NQ7P","","","","","-14","","","","","","","","","","","","","","","","","","","","","",""
"3014","","image-button-response","105","595793","0.0-103.0","A3KU7DD8Q1NQ7P","img_art/24.jpg","0","","","","","","","","","","","","","","","","","","","","","","","","",""
"1441","","image-button-response","106","597240","0.0-104.0","A3KU7DD8Q1NQ7P","img_art/24.jpg","0","","","","","","","","","","","","","","","","","","","","","","","","",""
"1244","","image-button-response","107","598486","0.0-105.0-0.0","A3KU7DD8Q1NQ7P","img_art/24.jpg","2","","","","","","","","","","","","","","","","","","","","","","","","",""
"4508","","image-button-response","108","602997","0.0-106.0-0.0","A3KU7DD8Q1NQ7P","img_art/24.jpg","5","","","","","","","","","","","","","","","","","","","","","","","","",""
"null","","html-keyboard-response","109","603503","0.0-107.0","A3KU7DD8Q1NQ7P","<p style=""font-size: 48px;"">+</p>","","","","","null","allTrialResponses","500","1","9","img_art/24.jpg","-14","Not as terrible as the others.","Anthony,Jorge,Nathan,Brendan,Joshua,Jack","This piece resembles a waterfall surrounded by trees.,21,200,20","Interested in visiting this place,18,180,20","Looks like a mystical type of forest/waterfall. Love it,40,200,20","lovely forest vibes,36,340,20","It's okay but don't love it.,7,240,20","colors are a bit cramped together. really unique take on a waterfall though.,32,320,20","Anthony","This piece resembles a waterfall surrounded by trees.,21,200,20","Nathan","Looks like a mystical type of forest/waterfall. Love it,40,200,20","Jack","colors are a bit cramped together. really unique take on a waterfall though.,32,320,20","4"
"22173","","survey-text","110","625692","0.0-108.0-0.0","A3KU7DD8Q1NQ7P","","","","{""Q0"":""Awful to lool at.""}","","","","","","","","","","","","","","","","","","","","","","",""
"2761","","image-slider-response","111","628455","0.0-109.0","A3KU7DD8Q1NQ7P","","","","","-42","","","","","","","","","","","","","","","","","","","","","",""
"null","","image-button-response","112","633468","0.0-110.0","A3KU7DD8Q1NQ7P","img_art/25.jpg","null","","","","","","","","","","","","","","","","","","","","","","","","",""
"888","","image-button-response","113","634358","0.0-111.0","A3KU7DD8Q1NQ7P","img_art/25.jpg","3","","","","","","","","","","","","","","","","","","","","","","","","",""
"5510","","image-button-response","114","639870","0.0-112.0-0.0","A3KU7DD8Q1NQ7P","img_art/25.jpg","1","","","","","","","","","","","","","","","","","","","","","","","","",""
"2926","","image-button-response","115","642797","0.0-113.0-0.0","A3KU7DD8Q1NQ7P","img_art/25.jpg","2","","","","","","","","","","","","","","","","","","","","","","","","",""
"null","","html-keyboard-response","116","644312","0.0-114.0","A3KU7DD8Q1NQ7P","<p style=""font-size: 48px;"">+</p>","","","","","null","allTrialResponses","1500","1","10","img_art/25.jpg","-42","Awful to lool at.","Anthony,Gabriel,Nathan,Shawn,Tanner,Jack","Spooky, but in a good way. I like the green and black color palette.,42,200,20","quite unnerving,-15,160,20","I like it, a bit cryptic and obscene, I enjoy that,30,200,20","Cheesy and unprofessional,-30,100,20","reminds me of the grim reaper,3,180,20","beautiful in a primitive way,10,320,20","Shawn","Cheesy and unprofessional,-30,100,20","Gabriel","quite unnerving,-15,160,20","Nathan","I like it, a bit cryptic and obscene, I enjoy that,30,200,20","4"
"5436","","survey-text","117","649780","0.0-115.0-0.0","A3KU7DD8Q1NQ7P","","","","{""Q0"":""our""}","","","","","","","","","","","","","","","","","","","","","","",""
"14400","","survey-text","118","664182","0.0-116.0-0.0","A3KU7DD8Q1NQ7P","","","","{""Q0"":""Color pleasing but too modern""}","","","","","","","","","","","","","","","","","","","","","","",""
"2345","","image-slider-response","119","666530","0.0-117.0","A3KU7DD8Q1NQ7P","","","","","-43","","","","","","","","","","","","","","","","","","","","","",""
"4088","","image-button-response","120","671553","0.0-118.0","A3KU7DD8Q1NQ7P","img_art/20.jpg","1","","","","","","","","","","","","","","","","","","","","","","","","",""
"1600","","image-button-response","121","673155","0.0-119.0","A3KU7DD8Q1NQ7P","img_art/20.jpg","2","","","","","","","","","","","","","","","","","","","","","","","","",""
"3258","","image-button-response","122","676417","0.0-120.0-0.0","A3KU7DD8Q1NQ7P","img_art/20.jpg","5","","","","","","","","","","","","","","","","","","","","","","","","",""
"1656","","image-button-response","123","678074","0.0-121.0-0.0","A3KU7DD8Q1NQ7P","img_art/20.jpg","0","","","","","","","","","","","","","","","","","","","","","","","","",""
"null","","html-keyboard-response","124","679580","0.0-122.0","A3KU7DD8Q1NQ7P","<p style=""font-size: 48px;"">+</p>","","","","","null","allTrialResponses","1500","1","11","img_art/20.jpg","-43","Color pleasing but too modern","Thomas,Gabriel,Nathan,Shawn,Dalton,Nicholas","I really enjoy the contrast of colors (blue/red/orange),30,220,20","i almost feel like i can recognize what this is,-6,160,20","Don't really like the subject it focuses on, however the color usage is great,-10,200,20","Mood setting if a little dreary,20,100,20","make me feel like its a little country maybe a tractor and a skull head of a bull,1,300,20","Use of white on foreground is too big and steals eyes away from rest of painting,2,240,20","Nathan","Don't really like the subject it focuses on, however the color usage is great,-10,200,20","Nicholas","Use of white on foreground is too big and steals eyes away from rest of painting,2,240,20","Thomas","I really enjoy the contrast of colors (blue/red/orange),30,220,20","4"
"20993","","survey-text","125","700607","0.0-123.0-0.0","A3KU7DD8Q1NQ7P","","","","{""Q0"":""Just ugly period""}","","","","","","","","","","","","","","","","","","","","","","",""
"2304","","image-slider-response","126","702912","0.0-124.0","A3KU7DD8Q1NQ7P","","","","","-33","","","","","","","","","","","","","","","","","","","","","",""
"4199","","image-button-response","127","707926","0.0-125.0","A3KU7DD8Q1NQ7P","img_art/22.jpg","1","","","","","","","","","","","","","","","","","","","","","","","","",""
"1299","","image-button-response","128","709227","0.0-126.0","A3KU7DD8Q1NQ7P","img_art/22.jpg","1","","","","","","","","","","","","","","","","","","","","","","","","",""
"4158","","image-button-response","129","713386","0.0-127.0-0.0","A3KU7DD8Q1NQ7P","img_art/22.jpg","4","","","","","","","","","","","","","","","","","","","","","","","","",""
"2584","","image-button-response","130","715972","0.0-128.0-0.0","A3KU7DD8Q1NQ7P","img_art/22.jpg","2","","","","","","","","","","","","","","","","","","","","","","","","",""
"null","","html-keyboard-response","131","716482","0.0-129.0","A3KU7DD8Q1NQ7P","<p style=""font-size: 48px;"">+</p>","","","","","null","allTrialResponses","500","1","12","img_art/22.jpg","-33","Just ugly period","Thomas,Brian,Nathan,Patrick,Jason,Nicholas","Beautiful. I love the color contrast and gradients.,50,220,20","this is too generic,-27,380,20","A bit colorful, but slightly enjoyable, almost gives off castle/sunset vibes,10,200,20","Looks like a warm sunset to me i like it,42,280,20","Would be better if random black object was not present,11,20,20","Pretty colors but something seems sinister about it,25,240,20","Brian","this is too generic,-27,380,20","Jason","Would be better if random black object was not present,11,20,20","Nathan","A bit colorful, but slightly enjoyable, almost gives off castle/sunset vibes,10,200,20","4"
"20181","","survey-text","132","736686","0.0-130.0-0.0","A3KU7DD8Q1NQ7P","","","","{""Q0"":""Can't recognize any object.""}","","","","","","","","","","","","","","","","","","","","","","",""
"3033","","image-slider-response","133","739723","0.0-131.0","A3KU7DD8Q1NQ7P","","","","","-50","","","","","","","","","","","","","","","","","","","","","",""
"2003","","image-button-response","134","744742","0.0-132.0","A3KU7DD8Q1NQ7P","img_art/4.jpg","0","","","","","","","","","","","","","","","","","","","","","","","","",""
"178","","image-button-response","135","744924","0.0-133.0","A3KU7DD8Q1NQ7P","img_art/4.jpg","2","","","","","","","","","","","","","","","","","","","","","","","","",""
"2594","","image-button-response","136","747519","0.0-134.0-0.0","A3KU7DD8Q1NQ7P","img_art/4.jpg","3","","","","","","","","","","","","","","","","","","","","","","","","",""
"2275","","image-button-response","137","749797","0.0-135.0-0.0","A3KU7DD8Q1NQ7P","img_art/4.jpg","0","","","","","","","","","","","","","","","","","","","","","","","","",""
"null","","html-keyboard-response","138","751302","0.0-136.0","A3KU7DD8Q1NQ7P","<p style=""font-size: 48px;"">+</p>","","","","","null","allTrialResponses","1500","1","13","img_art/4.jpg","-50","Can't recognize any object.","Angel,Brian,Nathan,Timothy,Jason,Alejandro","I feel kind of guilty looking at this, like I'm receiving a reward I don't I deserve.,-10,180,20","it reminds me of McDonalds, and not in a good way.,-34,380,20","Not my preference when it comes to art styles or subjects,-10,200,20","The colors feel a bit off to me,-10,240,20","I don't understand this at all,3,20,20","Looks like finger nails from the Guinness world record book.,-30,80,20","Nathan","Not my preference when it comes to art styles or subjects,-10,200,20","Timothy","The colors feel a bit off to me,-10,240,20","Angel","I feel kind of guilty looking at this, like I'm receiving a reward I don't I deserve.,-10,180,20","4"
"10611","","survey-text","139","761942","0.0-137.0-0.0","A3KU7DD8Q1NQ7P","","","","{""Q0"":""Crow?""}","","","","","","","","","","","","","","","","","","","","","","",""
"7770","","survey-text","140","772042","0.0-137.1-0.1","A3KU7DD8Q1NQ7P","","","","{""Q0"":""Perhaps a crow?""}","","","","","","","","","","","","","","","","","","","","","","",""
"3560","","image-slider-response","141","775603","0.0-138.0","A3KU7DD8Q1NQ7P","","","","","-47","","","","","","","","","","","","","","","","","","","","","",""
"2887","","image-button-response","142","780613","0.0-139.0","A3KU7DD8Q1NQ7P","img_art/6.jpg","2","","","","","","","","","","","","","","","","","","","","","","","","",""
"846","","image-button-response","143","781465","0.0-140.0","A3KU7DD8Q1NQ7P","img_art/6.jpg","2","","","","","","","","","","","","","","","","","","","","","","","","",""
"2626","","image-button-response","144","784094","0.0-141.0-0.0","A3KU7DD8Q1NQ7P","img_art/6.jpg","4","","","","","","","","","","","","","","","","","","","","","","","","",""
"4252","","image-button-response","145","788348","0.0-142.0-0.0","A3KU7DD8Q1NQ7P","img_art/6.jpg","5","","","","","","","","","","","","","","","","","","","","","","","","",""
"null","","html-keyboard-response","146","789853","0.0-143.0","A3KU7DD8Q1NQ7P","<p style=""font-size: 48px;"">+</p>","","","","","null","allTrialResponses","1500","1","14","img_art/6.jpg","-47","Perhaps a crow?","Angel,Adrian,Nathan,Timothy,Isaac,Christopher","This piece feels hopeful, like an oasis in the desert.,20,180,20","Simple, warm, hopeful.,12,60,20","Not a fan of anything in this,-43,200,20","I dont feel much of a responce or connection to this one,0,240,20","It looks like one tall ugly bird.,-43,280,20","it's interesting but I don't love it,10,160,20","Nathan","Not a fan of anything in this,-43,200,20","Isaac","It looks like one tall ugly bird.,-43,280,20","Christopher","it's interesting but I don't love it,10,160,20","4"
"27539","","survey-text","147","817421","0.0-144.0-0.0","A3KU7DD8Q1NQ7P","","","","{""Q0"":""Trying to figure out what it is for a few seconds.""}","","","","","","","","","","","","","","","","","","","","","","",""
"3501","","image-slider-response","148","820924","0.0-145.0","A3KU7DD8Q1NQ7P","","","","","-38","","","","","","","","","","","","","","","","","","","","","",""
"4785","","image-button-response","149","825944","0.0-146.0","A3KU7DD8Q1NQ7P","img_art/10.jpg","0","","","","","","","","","","","","","","","","","","","","","","","","",""
"2464","","image-button-response","150","828409","0.0-147.0","A3KU7DD8Q1NQ7P","img_art/10.jpg","1","","","","","","","","","","","","","","","","","","","","","","","","",""
"958","","image-button-response","151","829368","0.0-148.0-0.0","A3KU7DD8Q1NQ7P","img_art/10.jpg","0","","","","","","","","","","","","","","","","","","","","","","","","",""
"5718","","image-button-response","152","835088","0.0-149.0-0.0","A3KU7DD8Q1NQ7P","img_art/10.jpg","4","","","","","","","","","","","","","","","","","","","","","","","","",""
"null","","html-keyboard-response","153","835592","0.0-150.0","A3KU7DD8Q1NQ7P","<p style=""font-size: 48px;"">+</p>","","","","","null","allTrialResponses","500","1","15","img_art/10.jpg","-38","Trying to figure out what it is for a few seconds.","Ethan,Paul,Nathan,Jesus,Isaac,Christopher","The flow of lines is off. There are curvy and straight angry lines. It's not flattering at all.,-27,120,20","It doesn't look pleasing to the eye, it kind of looks like an animal but a dirty one,-38,300,20","Seems very lovecraftian, which I love that style,25,200,20","The design is very fluid and fun to interpret,35,100,20","It looks intricate.,15,280,20","i like this, the mix of brush textures is cool,24,160,20","Paul","It doesn't look pleasing to the eye, it kind of looks like an animal but a dirty one,-38,300,20","Ethan","The flow of lines is off. There are curvy and straight angry lines. It's not flattering at all.,-27,120,20","Isaac","It looks intricate.,15,280,20","4"
"5614","","survey-text","154","841229","0.0-151.0-0.0","A3KU7DD8Q1NQ7P","","","","{""Q0"":""course""}","","","","","","","","","","","","","","","","","","","","","","",""
"11090","","survey-text","155","852321","0.0-152.0-0.0","A3KU7DD8Q1NQ7P","","","","{""Q0"":""Blocky and ugly""}","","","","","","","","","","","","","","","","","","","","","","",""
"2278","","image-slider-response","156","854602","0.0-153.0","A3KU7DD8Q1NQ7P","","","","","-45","","","","","","","","","","","","","","","","","","","","","",""
"3581","","image-button-response","157","859610","0.0-154.0","A3KU7DD8Q1NQ7P","img_art/8.jpg","1","","","","","","","","","","","","","","","","","","","","","","","","",""
"1735","","image-button-response","158","861346","0.0-155.0","A3KU7DD8Q1NQ7P","img_art/8.jpg","1","","","","","","","","","","","","","","","","","","","","","","","","",""
"6834","","image-button-response","159","868183","0.0-156.0-0.0","A3KU7DD8Q1NQ7P","img_art/8.jpg","5","","","","","","","","","","","","","","","","","","","","","","","","",""
"1646","","image-button-response","160","869831","0.0-157.0-0.0","A3KU7DD8Q1NQ7P","img_art/8.jpg","0","","","","","","","","","","","","","","","","","","","","","","","","",""
"null","","html-keyboard-response","161","870337","0.0-158.0","A3KU7DD8Q1NQ7P","<p style=""font-size: 48px;"">+</p>","","","","","null","allTrialResponses","500","1","16","img_art/8.jpg","-45","Blocky and ugly","Ethan,Paul,Grant,Travis,Isaac,Corey","Very inspiring piece. I love how it's at angle. It gives it character.,23,120,20","The faces in the upper left show agony and contrast with the geometric shapes too much,-31,300,20","The stylized faces remind me of German expressionism in a very good way.,40,200,20","I like the colors and the scene.,24,260,20","It looks like it took a lot of time to complete.,34,280,20","its pretty exciting to look at, there is alot going on,15,260,20","Paul","The faces in the upper left show agony and contrast with the geometric shapes too much,-31,300,20","Corey","its pretty exciting to look at, there is alot going on,15,260,20","Ethan","Very inspiring piece. I love how it's at angle. It gives it character.,23,120,20","4"
"20098","","survey-text","162","890441","0.0-159.0-0.0","A3KU7DD8Q1NQ7P","","","","{""Q0"":""Checker board and ugly""}","","","","","","","","","","","","","","","","","","","","","","",""
"2435","","image-slider-response","163","892878","0.0-160.0","A3KU7DD8Q1NQ7P","","","","","-29","","","","","","","","","","","","","","","","","","","","","",""
"null","","image-button-response","164","897893","0.0-161.0","A3KU7DD8Q1NQ7P","img_art/12.jpg","null","","","","","","","","","","","","","","","","","","","","","","","","",""
"2279","","image-button-response","165","900176","0.0-162.0","A3KU7DD8Q1NQ7P","img_art/12.jpg","3","","","","","","","","","","","","","","","","","","","","","","","","",""
"894","","image-button-response","166","901070","0.0-163.0-0.0","A3KU7DD8Q1NQ7P","img_art/12.jpg","4","","","","","","","","","","","","","","","","","","","","","","","","",""
"1682","","image-button-response","167","902755","0.0-164.0-0.0","A3KU7DD8Q1NQ7P","img_art/12.jpg","0","","","","","","","","","","","","","","","","","","","","","","","","",""
"null","","html-keyboard-response","168","904262","0.0-165.0","A3KU7DD8Q1NQ7P","<p style=""font-size: 48px;"">+</p>","","","","","null","allTrialResponses","1500","1","17","img_art/12.jpg","-29","Checker board and ugly","Ethan,Paul,Kevin,Charles,Alexander,Corey","The colors are ok. The piece reminds me of the 90s era, so I kinda like it!,-4,120,20","Reminds me of collages we made in elementary school. I like the contrast of the colors from top to bottom,43,300,20","That is a warn quilt grama made.,11,320,20","Just not a fan, I can't figure out why,-17,100,20","Ugly color combinations, no focus.,-25,120,20","I like the bottom half and hate the top half,7,260,20","Charles","Just not a fan, I can't figure out why,-17,100,20","Alexander","Ugly color combinations, no focus.,-25,120,20","Ethan","The colors are ok. The piece reminds me of the 90s era, so I kinda like it!,-4,120,20","4"
"26695","","survey-text","169","930972","0.0-166.0-0.0","A3KU7DD8Q1NQ7P","","","","{""Q0"":""It doesn't look as bad as the other awful paintings.""}","","","","","","","","","","","","","","","","","","","","","","",""
"2012","","image-slider-response","170","932987","0.0-167.0","A3KU7DD8Q1NQ7P","","","","","-21","","","","","","","","","","","","","","","","","","","","","",""
"null","","image-button-response","171","937988","0.0-168.0","A3KU7DD8Q1NQ7P","img_art/17.jpg","null","","","","","","","","","","","","","","","","","","","","","","","","",""
"1398","","image-button-response","172","939386","0.0-169.0","A3KU7DD8Q1NQ7P","img_art/17.jpg","3","","","","","","","","","","","","","","","","","","","","","","","","",""
"1901","","image-button-response","173","941288","0.0-170.0-0.0","A3KU7DD8Q1NQ7P","img_art/17.jpg","4","","","","","","","","","","","","","","","","","","","","","","","","",""
"2805","","image-button-response","174","944096","0.0-171.0-0.0","A3KU7DD8Q1NQ7P","img_art/17.jpg","0","","","","","","","","","","","","","","","","","","","","","","","","",""
"null","","html-keyboard-response","175","945103","0.0-172.0","A3KU7DD8Q1NQ7P","<p style=""font-size: 48px;"">+</p>","","","","","null","allTrialResponses","1000","1","18","img_art/17.jpg","-21","It doesn't look as bad as the other awful paintings.","Ethan,Taylor,John,Charles,Alexander,Joseph","The colors are nice and soft but not very complimentary.,7,120,20","Somewhat should trim the tree branches at the shopping mall.,10,200,20","It gorgeous and i love how the tree is almost 3 dimensional.So many elements to it.,50,120,20","I like the trees, but the doors less so,19,100,20","Tree of knowledge in a quiet school.,17,120,20","I like the way the forest is taking over the buildings.,21,220,20","Charles","I like the trees, but the doors less so,19,100,20","Alexander","Tree of knowledge in a quiet school.,17,120,20","Ethan","The colors are nice and soft but not very complimentary.,7,120,20","4"
"21123","","survey-text","176","966240","0.0-173.0-0.0","A3KU7DD8Q1NQ7P","","","","{""Q0"":""Looks like gibberish. Not art.""}","","","","","","","","","","","","","","","","","","","","","","",""
"2717","","image-slider-response","177","968958","0.0-174.0","A3KU7DD8Q1NQ7P","","","","","-41","","","","","","","","","","","","","","","","","","","","","",""
"4352","","image-button-response","178","973963","0.0-175.0","A3KU7DD8Q1NQ7P","img_art/9.jpg","3","","","","","","","","","","","","","","","","","","","","","","","","",""
"1072","","image-button-response","179","975036","0.0-176.0","A3KU7DD8Q1NQ7P","img_art/9.jpg","4","","","","","","","","","","","","","","","","","","","","","","","","",""
"1005","","image-button-response","180","976042","0.0-177.0-0.0","A3KU7DD8Q1NQ7P","img_art/9.jpg","3","","","","","","","","","","","","","","","","","","","","","","","","",""
"1343","","image-button-response","181","977388","0.0-178.0-0.0","A3KU7DD8Q1NQ7P","img_art/9.jpg","5","","","","","","","","","","","","","","","","","","","","","","","","",""
"null","","html-keyboard-response","182","978397","0.0-179.0","A3KU7DD8Q1NQ7P","<p style=""font-size: 48px;"">+</p>","","","","","null","allTrialResponses","1000","1","19","img_art/9.jpg","-41","Looks like gibberish. Not art.","Ethan,Benjamin,Malik,Charles,Alexander,Blake","How neat is this piece?  I love the angry expressive lines. Emotion is captured in it.,26,120,20","looks like sleeping beauty in a garden,10,260,20","Colorful and expressive,15,40,20","It's too all over the place,-37,100,20","The mouth of an ugly beast.,-25,120,20","looks like a woman in bed and its ok,8,280,20","Alexander","The mouth of an ugly beast.,-25,120,20","Charles","It's too all over the place,-37,100,20","Blake","looks like a woman in bed and its ok,8,280,20","4"
"19873","","survey-text","183","998281","0.0-180.0-0.0","A3KU7DD8Q1NQ7P","","","","{""Q0"":""Colors aren't awful. That's the only good thing.""}","","","","","","","","","","","","","","","","","","","","","","",""
"2658","","image-slider-response","184","1000941","0.0-181.0","A3KU7DD8Q1NQ7P","","","","","-44","","","","","","","","","","","","","","","","","","","","","",""
"2445","","image-button-response","185","1005944","0.0-182.0","A3KU7DD8Q1NQ7P","img_art/14.jpg","0","","","","","","","","","","","","","","","","","","","","","","","","",""
"1087","","image-button-response","186","1007031","0.0-183.0","A3KU7DD8Q1NQ7P","img_art/14.jpg","2","","","","","","","","","","","","","","","","","","","","","","","","",""
"1117","","image-button-response","187","1008150","0.0-184.0-0.0","A3KU7DD8Q1NQ7P","img_art/14.jpg","0","","","","","","","","","","","","","","","","","","","","","","","","",""
"3791","","image-button-response","188","1011942","0.0-185.0-0.0","A3KU7DD8Q1NQ7P","img_art/14.jpg","3","","","","","","","","","","","","","","","","","","","","","","","","",""
"null","","html-keyboard-response","189","1012446","0.0-186.0","A3KU7DD8Q1NQ7P","<p style=""font-size: 48px;"">+</p>","","","","","null","allTrialResponses","500","1","20","img_art/14.jpg","-44","Colors aren't awful. That's the only good thing.","Isaiah,Steven,Logan,Charles,Alexander,Blake","I feel uncomfortable looking at this painting, it is a mess that needs to be cleaned up.,-16,300,20","this one isn't bad, reminds me a tree that gives life, and people are waiting for someone new to be born,27,160,20","I dont really vibe with the grayish color palette,-7,360,20","In some ways it looks natural, but I'm just not feeling it,0,100,20","Angled, colored, boxy.,10,120,20","fuzzy and confused. ok then well,16,280,20","Logan","I dont really vibe with the grayish color palette,-7,360,20","Isaiah","I feel uncomfortable looking at this painting, it is a mess that needs to be cleaned up.,-16,300,20","Charles","In some ways it looks natural, but I'm just not feeling it,0,100,20","4"
"5448","","survey-text","190","1017910","0.0-187.0-0.0","A3KU7DD8Q1NQ7P","","","","{""Q0"":""we""}","","","","","","","","","","","","","","","","","","","","","","",""
"15731","","survey-text","191","1033643","0.0-188.0-0.0","A3KU7DD8Q1NQ7P","","","","{""Q0"":""Looks like a yellow trash bag.""}","","","","","","","","","","","","","","","","","","","","","","",""
"2373","","image-slider-response","192","1036019","0.0-189.0","A3KU7DD8Q1NQ7P","","","","","-36","","","","","","","","","","","","","","","","","","","","","",""
"2522","","image-button-response","193","1041023","0.0-190.0","A3KU7DD8Q1NQ7P","img_art/5.jpg","0","","","","","","","","","","","","","","","","","","","","","","","","",""
"1020","","image-button-response","194","1042045","0.0-191.0","A3KU7DD8Q1NQ7P","img_art/5.jpg","1","","","","","","","","","","","","","","","","","","","","","","","","",""
"908","","image-button-response","195","1042955","0.0-192.0-0.0","A3KU7DD8Q1NQ7P","img_art/5.jpg","0","","","","","","","","","","","","","","","","","","","","","","","","",""
"1965","","image-button-response","196","1044921","0.0-193.0-0.0","A3KU7DD8Q1NQ7P","img_art/5.jpg","2","","","","","","","","","","","","","","","","","","","","","","","","",""
"null","","html-keyboard-response","197","1045423","0.0-194.0","A3KU7DD8Q1NQ7P","<p style=""font-size: 48px;"">+</p>","","","","","null","allTrialResponses","500","1","21","img_art/5.jpg","-36","Looks like a yellow trash bag.","Isaiah,Michael,Logan,Charles,Dylan,Luke","I feel nothing looking at this.,-5,300,20","Complete garbage. Looks like a kid drew it.,-50,140,20","Just doesn't do a whole lot for me. I see Cinderellas broom,-11,360,20","It feels positive and kind of uplifting,24,100,20","This looks like a twelve year old did it,-40,40,20","no clear emotion,-16,20,20","Michael","Complete garbage. Looks like a kid drew it.,-50,140,20","Isaiah","I feel nothing looking at this.,-5,300,20","Logan","Just doesn't do a whole lot for me. I see Cinderellas broom,-11,360,20","4"
"22098","","survey-text","198","1067525","0.0-195.0-0.0","A3KU7DD8Q1NQ7P","","","","{""Q0"":""Looks almost like a scene that you might paint.""}","","","","","","","","","","","","","","","","","","","","","","",""
"2344","","image-slider-response","199","1069870","0.0-196.0","A3KU7DD8Q1NQ7P","","","","","-42","","","","","","","","","","","","","","","","","","","","","",""
"null","","image-button-response","200","1074872","0.0-197.0","A3KU7DD8Q1NQ7P","img_art/11.jpg","null","","","","","","","","","","","","","","","","","","","","","","","","",""
"1142","","image-button-response","201","1076015","0.0-198.0","A3KU7DD8Q1NQ7P","img_art/11.jpg","5","","","","","","","","","","","","","","","","","","","","","","","","",""
"1637","","image-button-response","202","1077654","0.0-199.0-0.0","A3KU7DD8Q1NQ7P","img_art/11.jpg","4","","","","","","","","","","","","","","","","","","","","","","","","",""
"2906","","image-button-response","203","1080561","0.0-200.0-0.0","A3KU7DD8Q1NQ7P","img_art/11.jpg","2","","","","","","","","","","","","","","","","","","","","","","","","",""
"null","","html-keyboard-response","204","1082068","0.0-201.0","A3KU7DD8Q1NQ7P","<p style=""font-size: 48px;"">+</p>","","","","","null","allTrialResponses","1500","1","22","img_art/11.jpg","-42","Looks almost like a scene that you might paint.","Isaiah,Michael,Logan,Kyle,Jared,Miguel","I feel excited, like I'm in the middle of a bustling city.,26,300,20","It's kind of cool and I see it looks clean.,22,140,20","life is a highway,12,360,20","Reminds me of a city on a grey/rainy winter's day,25,340,20","i like the colors and patters and waves,5,400,20","Good but not eye catching,14,160,20","Miguel","Good but not eye catching,14,160,20","Jared","i like the colors and patters and waves,5,400,20","Logan","life is a highway,12,360,20","4"
"18185","","survey-text","205","1100270","0.0-202.0-0.0","A3KU7DD8Q1NQ7P","","","","{""Q0"":""Making Rembrandt sick.""}","","","","","","","","","","","","","","","","","","","","","","",""
"2750","","image-slider-response","206","1103022","0.0-203.0","A3KU7DD8Q1NQ7P","","","","","-46","","","","","","","","","","","","","","","","","","","","","",""
"2978","","image-button-response","207","1108025","0.0-204.0","A3KU7DD8Q1NQ7P","img_art/27.jpg","1","","","","","","","","","","","","","","","","","","","","","","","","",""
"614","","image-button-response","208","1108641","0.0-205.0","A3KU7DD8Q1NQ7P","img_art/27.jpg","2","","","","","","","","","","","","","","","","","","","","","","","","",""
"1165","","image-button-response","209","1109807","0.0-206.0-0.0","A3KU7DD8Q1NQ7P","img_art/27.jpg","0","","","","","","","","","","","","","","","","","","","","","","","","",""
"1126","","image-button-response","210","1110934","0.0-207.0-0.0","A3KU7DD8Q1NQ7P","img_art/27.jpg","1","","","","","","","","","","","","","","","","","","","","","","","","",""
"null","","html-keyboard-response","211","1111953","0.0-208.0","A3KU7DD8Q1NQ7P","<p style=""font-size: 48px;"">+</p>","","","","","null","allTrialResponses","1000","1","23","img_art/27.jpg","-46","Making Rembrandt sick.","Ian,Evan,Logan,Stephen,Jared,Miguel","I'm not a fan. It looks like something my nephews (1 and 2) would make,-8,260,20","I am bothered by the green doodles,-20,140,20","demon vs angel brawl over lemon lime sprite,-10,360,20","This one does nothing for me.,2,140,20","meh. it is neutral to me.,1,400,20","Adult contemporary painting with child.,-33,160,20","Logan","demon vs angel brawl over lemon lime sprite,-10,360,20","Ian","I'm not a fan. It looks like something my nephews (1 and 2) would make,-8,260,20","Evan","I am bothered by the green doodles,-20,140,20","4"
"20779","","survey-text","212","1132745","0.0-209.0-0.0","A3KU7DD8Q1NQ7P","","","","{""Q0"":""Sandy beach or not? Don't know""}","","","","","","","","","","","","","","","","","","","","","","",""
"2462","","image-slider-response","213","1135207","0.0-210.0","A3KU7DD8Q1NQ7P","","","","","-38","","","","","","","","","","","","","","","","","","","","","",""
"1870","","image-button-response","214","1140210","0.0-211.0","A3KU7DD8Q1NQ7P","img_art/7.jpg","0","","","","","","","","","","","","","","","","","","","","","","","","",""
"577","","image-button-response","215","1140790","0.0-212.0","A3KU7DD8Q1NQ7P","img_art/7.jpg","1","","","","","","","","","","","","","","","","","","","","","","","","",""
"1003","","image-button-response","216","1141794","0.0-213.0-0.0","A3KU7DD8Q1NQ7P","img_art/7.jpg","0","","","","","","","","","","","","","","","","","","","","","","","","",""
"2279","","image-button-response","217","1144076","0.0-214.0-0.0","A3KU7DD8Q1NQ7P","img_art/7.jpg","4","","","","","","","","","","","","","","","","","","","","","","","","",""
"null","","html-keyboard-response","218","1144579","0.0-215.0","A3KU7DD8Q1NQ7P","<p style=""font-size: 48px;"">+</p>","","","","","null","allTrialResponses","500","1","24","img_art/7.jpg","-38","Sandy beach or not? Don't know","Ian,Evan,Logan,Alex,Tristan,Chase","This looks like a literal picture of the ground so I'm really not too sure about this one.,-42,260,20","I feel confused, am I looking at a painting or a close up picture of some sort of fly stone?,-19,140,20","mars also crunchy leaves maybe a beehive,32,360,20","Hmm interesting, looks like mars or something terrestrial. Too abstract for me and too much brown,4,100,20","Limited emotional reaction for me. No focus and highly abstract,-20,300,20","Just looks like rocks or some kind of mineral.,0,120,20","Evan","I feel confused, am I looking at a painting or a close up picture of some sort of fly stone?,-19,140,20","Ian","This looks like a literal picture of the ground so I'm really not too sure about this one.,-42,260,20","Tristan","Limited emotional reaction for me. No focus and highly abstract,-20,300,20","4"
"19115","","survey-text","219","1163699","0.0-216.0-0.0","A3KU7DD8Q1NQ7P","","","","{""Q0"":""Wall painting on weird background.""}","","","","","","","","","","","","","","","","","","","","","","",""
"2380","","image-slider-response","220","1166079","0.0-217.0","A3KU7DD8Q1NQ7P","","","","","-44","","","","","","","","","","","","","","","","","","","","","",""
"4769","","image-button-response","221","1171094","0.0-218.0","A3KU7DD8Q1NQ7P","img_art/23.jpg","3","","","","","","","","","","","","","","","","","","","","","","","","",""
"4388","","image-button-response","222","1175485","0.0-219.0","A3KU7DD8Q1NQ7P","img_art/23.jpg","1","","","","","","","","","","","","","","","","","","","","","","","","",""
"1012","","image-button-response","223","1176498","0.0-220.0-0.0","A3KU7DD8Q1NQ7P","img_art/23.jpg","2","","","","","","","","","","","","","","","","","","","","","","","","",""
"2186","","image-button-response","224","1178685","0.0-221.0-0.0","A3KU7DD8Q1NQ7P","img_art/23.jpg","3","","","","","","","","","","","","","","","","","","","","","","","","",""
"null","","html-keyboard-response","225","1179697","0.0-222.0","A3KU7DD8Q1NQ7P","<p style=""font-size: 48px;"">+</p>","","","","","null","allTrialResponses","1000","1","25","img_art/23.jpg","-44","Wall painting on weird background.","Ian,Evan,Sean,Bradley,Tristan,Jacob","It's very colorful and different, the white looks like people dancing,26,260,20","It feels exciting,23,140,20","so much detail .,31,40,20","I like the contrast and the bright colors in this one.,6,300,20","So exciting and full of the night.,20,300,20","This is very cool!,24,340,20","Evan","It feels exciting,23,140,20","Sean","so much detail .,31,40,20","Bradley","I like the contrast and the bright colors in this one.,6,300,20","4"
"5837","","survey-text","226","1185571","0.0-223.0-0.0","A3KU7DD8Q1NQ7P","","","","{""Q0"":""table""}","","","","","","","","","","","","","","","","","","","","","","",""
"26364","","survey-text","227","1211936","0.0-224.0-0.0","A3KU7DD8Q1NQ7P","","","","{""Q0"":""Black spots dripped onto the canvas.""}","","","","","","","","","","","","","","","","","","","","","","",""
"2255","","image-slider-response","228","1214193","0.0-225.0","A3KU7DD8Q1NQ7P","","","","","-43","","","","","","","","","","","","","","","","","","","","","",""
"null","","image-button-response","229","1219213","0.0-226.0","A3KU7DD8Q1NQ7P","img_art/15.jpg","null","","","","","","","","","","","","","","","","","","","","","","","","",""
"1111","","image-button-response","230","1220325","0.0-227.0","A3KU7DD8Q1NQ7P","img_art/15.jpg","2","","","","","","","","","","","","","","","","","","","","","","","","",""
"2122","","image-button-response","231","1222448","0.0-228.0-0.0","A3KU7DD8Q1NQ7P","img_art/15.jpg","4","","","","","","","","","","","","","","","","","","","","","","","","",""
"1032","","image-button-response","232","1223482","0.0-229.0-0.0","A3KU7DD8Q1NQ7P","img_art/15.jpg","5","","","","","","","","","","","","","","","","","","","","","","","","",""
"null","","html-keyboard-response","233","1223989","0.0-230.0","A3KU7DD8Q1NQ7P","<p style=""font-size: 48px;"">+</p>","","","","","null","allTrialResponses","500","1","26","img_art/15.jpg","-43","Black spots dripped onto the canvas.","Austin,Evan,Sean,Bradley,Jesse,Alexis","Perfect Abstract painting,50,240,20","I am reminded of spring flowers swaying in the dark night's breeze,9,140,20","my response to the picture is that I dont know what I am looking at,-25,40,20","I feel like there's ski jumping going on here.,2,300,20","Doesnt trigger much of a reaction overall,-2,80,20","it is dark and gloomy,-9,140,20","Sean","my response to the picture is that I dont know what I am looking at,-25,40,20","Jesse","Doesnt trigger much of a reaction overall,-2,80,20","Alexis","it is dark and gloomy,-9,140,20","4"
"33751","","survey-text","234","1257747","0.0-231.0-0.0","A3KU7DD8Q1NQ7P","","","","{""Q0"":""5 year olds can paint more interesting than this""}","","","","","","","","","","","","","","","","","","","","","","",""
"2392","","image-slider-response","235","1260139","0.0-232.0","A3KU7DD8Q1NQ7P","","","","","-48","","","","","","","","","","","","","","","","","","","","","",""
"1513","","image-button-response","236","1265144","0.0-233.0","A3KU7DD8Q1NQ7P","img_art/13.jpg","0","","","","","","","","","","","","","","","","","","","","","","","","",""
"1546","","image-button-response","237","1266692","0.0-234.0","A3KU7DD8Q1NQ7P","img_art/13.jpg","5","","","","","","","","","","","","","","","","","","","","","","","","",""
"1679","","image-button-response","238","1268373","0.0-235.0-0.0","A3KU7DD8Q1NQ7P","img_art/13.jpg","0","","","","","","","","","","","","","","","","","","","","","","","","",""
"2359","","image-button-response","239","1270734","0.0-236.0-0.0","A3KU7DD8Q1NQ7P","img_art/13.jpg","2","","","","","","","","","","","","","","","","","","","","","","","","",""
"null","","html-keyboard-response","240","1271753","0.0-237.0","A3KU7DD8Q1NQ7P","<p style=""font-size: 48px;"">+</p>","","","","","null","allTrialResponses","1000","1","27","img_art/13.jpg","-48","5 year olds can paint more interesting than this","Daniel,Tyler,Sean,Adam,Jesse,Alexis","Average overly symmetrical safe,-26,320,20","Pollock? Love the juxtaposition of colors. Soothing and stirring, a beautiful inexplicable paradox.,50,320,20","I like the colors,7,40,20","Generic mix of colors. Cool and messy.,10,40,20","Really like this. Its like looking out a window into a beautiful storm,39,80,20","It looks too common, is a bit boring,-41,140,20","Alexis","It looks too common, is a bit boring,-41,140,20","Daniel","Average overly symmetrical safe,-26,320,20","Sean","I like the colors,7,40,20","4"
"18593","","survey-text","241","1290366","0.0-238.0-0.0","A3KU7DD8Q1NQ7P","","","","{""Q0"":""Modern art is true garbage.""}","","","","","","","","","","","","","","","","","","","","","","",""
"2272","","image-slider-response","242","1292640","0.0-239.0","A3KU7DD8Q1NQ7P","","","","","-50","","","","","","","","","","","","","","","","","","","","","",""
"3887","","image-button-response","243","1297654","0.0-240.0","A3KU7DD8Q1NQ7P","img_art/1.jpg","2","","","","","","","","","","","","","","","","","","","","","","","","",""
"1994","","image-button-response","244","1299650","0.0-241.0","A3KU7DD8Q1NQ7P","img_art/1.jpg","3","","","","","","","","","","","","","","","","","","","","","","","","",""
"1058","","image-button-response","245","1300710","0.0-242.0-0.0","A3KU7DD8Q1NQ7P","img_art/1.jpg","5","","","","","","","","","","","","","","","","","","","","","","","","",""
"1209","","image-button-response","246","1301921","0.0-243.0-0.0","A3KU7DD8Q1NQ7P","img_art/1.jpg","2","","","","","","","","","","","","","","","","","","","","","","","","",""
"null","","html-keyboard-response","247","1302933","0.0-244.0","A3KU7DD8Q1NQ7P","<p style=""font-size: 48px;"">+</p>","","","","","null","allTrialResponses","1000","1","28","img_art/1.jpg","-50","Modern art is true garbage.","Daniel,Kenneth,Sean,Jake,Jose,Alexis","Nice colors with some 3D effects,15,320,20","I love colorful photos and I like this one a lot.,25,300,20","my reaction is that the picture is that Ive seen it before,-14,40,20","This is ugly with bad colors.,-6,360,20","Blurry but that's how emotions are a lot of the time.,27,200,20","This photo reminds me of a fall afternoon, serene,11,140,20","Jake","This is ugly with bad colors.,-6,360,20","Alexis","This photo reminds me of a fall afternoon, serene,11,140,20","Sean","my reaction is that the picture is that Ive seen it before,-14,40,20","4"
"29365","","survey-text","248","1332318","0.0-245.0-0.0","A3KU7DD8Q1NQ7P","","","","{""Q0"":""Artist should be told to look for different job""}","","","","","","","","","","","","","","","","","","","","","","",""
"2730","","image-slider-response","249","1335051","0.0-246.0","A3KU7DD8Q1NQ7P","","","","","-47","","","","","","","","","","","","","","","","","","","","","",""
"3251","","image-button-response","250","1340058","0.0-247.0","A3KU7DD8Q1NQ7P","img_art/19.jpg","2","","","","","","","","","","","","","","","","","","","","","","","","",""
"685","","image-button-response","251","1340746","0.0-248.0","A3KU7DD8Q1NQ7P","img_art/19.jpg","3","","","","","","","","","","","","","","","","","","","","","","","","",""
"1785","","image-button-response","252","1342532","0.0-249.0-0.0","A3KU7DD8Q1NQ7P","img_art/19.jpg","5","","","","","","","","","","","","","","","","","","","","","","","","",""
"1263","","image-button-response","253","1343797","0.0-250.0-0.0","A3KU7DD8Q1NQ7P","img_art/19.jpg","2","","","","","","","","","","","","","","","","","","","","","","","","",""
"null","","html-keyboard-response","254","1344303","0.0-251.0","A3KU7DD8Q1NQ7P","<p style=""font-size: 48px;"">+</p>","","","","","null","allTrialResponses","500","1","29","img_art/19.jpg","-47","Artist should be told to look for different job","Aaron,Elijah,Sean,Jake,Caleb,Alexis","I like the shapes.,22,20,20","The details are amazing,36,80,20","the picture gave me anxiety,-38,40,20","This is like an ugly version of a Basquiat.,-24,360,20","Watercolor abstract? Strange.,1,40,20","it looks messy and non-unique.,-9,140,20","Jake","This is like an ugly version of a Basquiat.,-24,360,20","Alexis","it looks messy and non-unique.,-9,140,20","Sean","the picture gave me anxiety,-38,40,20","4"
"32947","","survey-text","255","1377258","0.0-252.0-0.0","A3KU7DD8Q1NQ7P","","","","{""Q0"":""Electroshock therapy perhaps?""}","","","","","","","","","","","","","","","","","","","","","","",""
"2339","","image-slider-response","256","1379597","0.0-253.0","A3KU7DD8Q1NQ7P","","","","","-49","","","","","","","","","","","","","","","","","","","","","",""
"3276","","image-button-response","257","1384600","0.0-254.0","A3KU7DD8Q1NQ7P","img_art/18.jpg","3","","","","","","","","","","","","","","","","","","","","","","","","",""
"1182","","image-button-response","258","1385785","0.0-255.0","A3KU7DD8Q1NQ7P","img_art/18.jpg","5","","","","","","","","","","","","","","","","","","","","","","","","",""
"836","","image-button-response","259","1386622","0.0-256.0-0.0","A3KU7DD8Q1NQ7P","img_art/18.jpg","3","","","","","","","","","","","","","","","","","","","","","","","","",""
"1971","","image-button-response","260","1388595","0.0-257.0-0.0","A3KU7DD8Q1NQ7P","img_art/18.jpg","2","","","","","","","","","","","","","","","","","","","","","","","","",""
"null","","html-keyboard-response","261","1389603","0.0-258.0","A3KU7DD8Q1NQ7P","<p style=""font-size: 48px;"">+</p>","","","","","null","allTrialResponses","1000","1","30","img_art/18.jpg","-49","Electroshock therapy perhaps?","Christian,Edward,Sean,Jake,Dakota,Alexis","reminds me of the little prince, with the color scheme and all,16,140,20","Reminds me of the four horsemen of the apocalypse,29,60,20","my response to the picture is a little bit of anxiety but I like the detail,16,40,20","It looks grotesque and violent.,-50,360,20","afraid and anxious,21,280,20","It's possibly of a mermaid luring in a ship,15,140,20","Alexis","It's possibly of a mermaid luring in a ship,15,140,20","Jake","It looks grotesque and violent.,-50,360,20","Sean","my response to the picture is a little bit of anxiety but I like the detail,16,40,20","4"
"3371","","image-button-response_instructions","262","1392997","0.0-259.0","A3KU7DD8Q1NQ7P","","0","instructions","","","","","","","","","","","","","","","","","","","","","","","",""
