"rt","url","trial_type","trial_index","time_elapsed","internal_node_id","participant_id","stimulus","button_pressed","Name","responses","response","key_press","variableName","fixationTime","condition","trial","photo","subjectRating","subjectResponse","agentsNames","agent_1_Response","agent_2_Response","agent_3_Response","agent_4_Response","agent_5_Response","agent_6_Response","kept_1_name","kept_1_response","kept_2_name","kept_2_response","kept_3_name","kept_3_response","errorCounter"
"9764","external_page_harvard.html","external-html","0","9896","0.0-0.0","A3MD34XEB4H6JF","","","","","","","","","","","","","","","","","","","","","","","","","","",""
"3410","","image-button-response","1","13308","0.0-1.0","A3MD34XEB4H6JF","","1","","","","","","","","","","","","","","","","","","","","","","","","",""
"2091","","image-button-response","2","15404","0.0-2.0-0.0","A3MD34XEB4H6JF","","1","phone","","","","","","","","","","","","","","","","","","","","","","","",""
"2983","","survey-text","3","18388","0.0-3.0-0.0","A3MD34XEB4H6JF","","","","{""Q0"":""A3MD34XEB4H6JF""}","","","","","","","","","","","","","","","","","","","","","","",""
"10245","","image-button-response_instructions","4","28634","0.0-4.0","A3MD34XEB4H6JF","","0","instructions","","","","","","","","","","","","","","","","","","","","","","","",""
"15351","","image-button-response_instructions","5","43987","0.0-5.0","A3MD34XEB4H6JF","img_art/ins/popularity/ins1.png","0","instructions","","","","","","","","","","","","","","","","","","","","","","","",""
"6518","","image-button-response_instructions","6","50507","0.0-6.0","A3MD34XEB4H6JF","img_art/ins/popularity/ins2.png","0","instructions","","","","","","","","","","","","","","","","","","","","","","","",""
"6661","","image-button-response_instructions","7","57168","0.0-7.0","A3MD34XEB4H6JF","img_art/ins/popularity/ins2Extreme.png","0","instructions","","","","","","","","","","","","","","","","","","","","","","","",""
"6450","","image-button-response_instructions","8","63618","0.0-8.0","A3MD34XEB4H6JF","img_art/ins/popularity/ins3KEEPpop.PNG","0","instructions","","","","","","","","","","","","","","","","","","","","","","","",""
"5323","","image-button-response_instructions","9","68942","0.0-9.0","A3MD34XEB4H6JF","img_art/ins/popularity/ins3ANamepop.PNG","0","instructions","","","","","","","","","","","","","","","","","","","","","","","",""
"3955","","image-button-response_instructions","10","72898","0.0-10.0","A3MD34XEB4H6JF","img_art/ins/popularity/ins3ARatingpop.png","0","instructions","","","","","","","","","","","","","","","","","","","","","","","",""
"3933","","image-button-response_instructions","11","76832","0.0-11.0","A3MD34XEB4H6JF","img_art/ins/popularity/ins3ATextpop.png","0","instructions","","","","","","","","","","","","","","","","","","","","","","","",""
"5891","","image-button-response_instructions","12","82725","0.0-12.0","A3MD34XEB4H6JF","img_art/ins/popularity/ins3ALikespop.png","0","instructions","","","","","","","","","","","","","","","","","","","","","","","",""
"21311","","image-button-response_instructions","13","104037","0.0-13.0","A3MD34XEB4H6JF","img_art/ins/popularity/ins3KEEPpop.PNG","0","instructions","","","","","","","","","","","","","","","","","","","","","","","",""
"4923","","image-button-response_instructions","14","108960","0.0-14.0","A3MD34XEB4H6JF","img_art/ins/popularity/ins3_5RED.png","0","instructions","","","","","","","","","","","","","","","","","","","","","","","",""
"4942","","image-button-response_instructions","15","113903","0.0-15.0","A3MD34XEB4H6JF","img_art/ins/popularity/ins3KEEPpop.PNG","0","instructions","","","","","","","","","","","","","","","","","","","","","","","",""
"7396","","image-button-response_instructions","16","121301","0.0-16.0","A3MD34XEB4H6JF","img_art/ins/popularity/ins4KEEPpop.PNG","0","instructions","","","","","","","","","","","","","","","","","","","","","","","",""
"4008","","image-button-response_instructions","17","125309","0.0-17.0","A3MD34XEB4H6JF","img_art/ins/popularity/ins5KEEPpop.PNG","0","instructions","","","","","","","","","","","","","","","","","","","","","","","",""
"1911","","image-button-response_instructions","18","127221","0.0-18.0","A3MD34XEB4H6JF","","0","instructions","","","","","","","","","","","","","","","","","","","","","","","",""
"9610","","survey-text","19","136869","0.0-19.0-0.0","A3MD34XEB4H6JF","","","","{""Q0"":""but""}","","","","","","","","","","","","","","","","","","","","","","",""
"14001","","survey-text","20","150871","0.0-20.0-0.0","A3MD34XEB4H6JF","","","","{""Q0"":""Beautiful and hopeful""}","","","","","","","","","","","","","","","","","","","","","","",""
"4261.5","","image-slider-response","21","155135","0.0-21.0","A3MD34XEB4H6JF","","","","","43","","","","","","","","","","","","","","","","","","","","","",""
"null","","image-button-response","22","160140","0.0-22.0","A3MD34XEB4H6JF","img_art/ins/1.jpg","null","","","","","","","","","","","","","","","","","","","","","","","","",""
"3530","","image-button-response","23","163673","0.0-23.0","A3MD34XEB4H6JF","img_art/ins/1.jpg","4","","","","","","","","","","","","","","","","","","","","","","","","",""
"1162","","image-button-response","24","164839","0.0-24.0-0.0","A3MD34XEB4H6JF","img_art/ins/1.jpg","5","","","","","","","","","","","","","","","","","","","","","","","","",""
"9649","","image-button-response","25","174491","0.0-25.0-0.0","A3MD34XEB4H6JF","img_art/ins/1.jpg","0","","","","","","","","","","","","","","","","","","","","","","","","",""
"null","","html-keyboard-response","26","174995","0.0-26.0","A3MD34XEB4H6JF","<p style=""font-size: 48px;"">+</p>","","","","","null","allTrialResponses","500","1","-2","img_art/ins/1.jpg","43","Beautiful and hopeful","Allison,Ashley,Beth,Dora,Erika,Jen","looks like a lot of things going on in the mist,20,20,20","I just don't get why these type of art would be popular,-32,40,20","This color reminds me of poo,-46,60,20","looks like what my niece in 3rd grade did this afternoon,-50,80,20","I like the sophisticated brushwork,40,100,20","It reminds me of a candy land dream I had,36,120,20","Erika","I like the sophisticated brushwork,40,100,20","Jen","It reminds me of a candy land dream I had,36,120,20","Allison","looks like a lot of things going on in the mist,20,20,20","0"
"19701","","survey-text","27","194705","0.0-27.0-0.0","A3MD34XEB4H6JF","","","","{""Q0"":""Interesting and thoughtful, it's also somehow positive.""}","","","","","","","","","","","","","","","","","","","","","","",""
"3636.899999976158","","image-slider-response","28","198344","0.0-28.0","A3MD34XEB4H6JF","","","","","14","","","","","","","","","","","","","","","","","","","","","",""
"null","","image-button-response","29","203348","0.0-29.0","A3MD34XEB4H6JF","img_art/ins/2.jpg","null","","","","","","","","","","","","","","","","","","","","","","","","",""
"630","","image-button-response","30","203980","0.0-30.0","A3MD34XEB4H6JF","img_art/ins/2.jpg","1","","","","","","","","","","","","","","","","","","","","","","","","",""
"998","","image-button-response","31","204980","0.0-31.0-0.0","A3MD34XEB4H6JF","img_art/ins/2.jpg","4","","","","","","","","","","","","","","","","","","","","","","","","",""
"1285","","image-button-response","32","206268","0.0-32.0-0.0","A3MD34XEB4H6JF","img_art/ins/2.jpg","5","","","","","","","","","","","","","","","","","","","","","","","","",""
"null","","html-keyboard-response","33","207282","0.0-33.0","A3MD34XEB4H6JF","<p style=""font-size: 48px;"">+</p>","","","","","null","allTrialResponses","1000","1","-1","img_art/ins/2.jpg","14","Interesting and thoughtful, it's also somehow positive.","Allison,Kara,Katie,Jenna,Erika,Jen","I don't have strong feelings about this,10,20,20","I like the blocks of color arrangements,30,160,20","too much color!,-28,180,20","One of my pet peevs,-48,140,20","I would never be able to compose a sophisticated pallete like this,48,100,20","It reminds me of a fireplace,36,120,20","Kara","I like the blocks of color arrangements,30,160,20","Erika","I would never be able to compose a sophisticated pallete like this,48,100,20","Jen","It reminds me of a fireplace,36,120,20","0"
"17639","","survey-text","34","224924","0.0-34.0-0.0","A3MD34XEB4H6JF","","","","{""Q0"":""Wow, I love the colors and they make me feel kind of happy and hopeful.""}","","","","","","","","","","","","","","","","","","","","","","",""
"4459.800000011921","","image-slider-response","35","229386","0.0-35.0","A3MD34XEB4H6JF","","","","","30","","","","","","","","","","","","","","","","","","","","","",""
"4109","","image-button-response","36","234391","0.0-36.0","A3MD34XEB4H6JF","img_art/ins/3.jpg","1","","","","","","","","","","","","","","","","","","","","","","","","",""
"151","","image-button-response","37","234544","0.0-37.0","A3MD34XEB4H6JF","img_art/ins/3.jpg","0","","","","","","","","","","","","","","","","","","","","","","","","",""
"748","","image-button-response","38","235294","0.0-38.0-0.0","A3MD34XEB4H6JF","img_art/ins/3.jpg","1","","","","","","","","","","","","","","","","","","","","","","","","",""
"1222","","image-button-response","39","236517","0.0-39.0-0.0","A3MD34XEB4H6JF","img_art/ins/3.jpg","4","","","","","","","","","","","","","","","","","","","","","","","","",""
"null","","html-keyboard-response","40","237520","0.0-40.0","A3MD34XEB4H6JF","<p style=""font-size: 48px;"">+</p>","","","","","null","allTrialResponses","1000","1","0","img_art/ins/3.jpg","30","Wow, I love the colors and they make me feel kind of happy and hopeful.","Mary,Kara,Rose,Leslie,Erika,Jen","I like the overlapping of brushes,41,220,20","calming blue is very nice,36,160,20","My daily routine, it's depressing,-20,240,20","It's an alright work,15,200,20","I feel connected to the artist,40,100,20","I can feel a rainy day from this painting,18,120,20","Mary","I like the overlapping of brushes,41,220,20","Kara","calming blue is very nice,36,160,20","Erika","I feel connected to the artist,40,100,20","0"
"7344","","image-button-response_instructions","41","244870","0.0-41.0","A3MD34XEB4H6JF","","0","instructions","","","","","","","","","","","","","","","","","","","","","","","",""
"8239","","survey-likert","42","253111","0.0-42.0-0.0","A3MD34XEB4H6JF","","","","{""Q0"":"""",""Q1"":0,""Q2"":1}","","","","","","","","","","","","","","","","","","","","","","",""
"3985","","survey-text","43","257107","0.0-43.0-0.0","A3MD34XEB4H6JF","","","","{""Q0"":""rock""}","","","","","","","","","","","","","","","","","","","","","","",""
"8273","","survey-text","44","265382","0.0-44.0-0.0","A3MD34XEB4H6JF","","","","{""Q0"":""Mysterious and beautiful""}","","","","","","","","","","","","","","","","","","","","","","",""
"2741.5","","image-slider-response","45","268126","0.0-45.0","A3MD34XEB4H6JF","","","","","17","","","","","","","","","","","","","","","","","","","","","",""
"4713","","image-button-response","46","273167","0.0-46.0","A3MD34XEB4H6JF","img_art/9.jpg","1","","","","","","","","","","","","","","","","","","","","","","","","",""
"983","","image-button-response","47","274152","0.0-47.0","A3MD34XEB4H6JF","img_art/9.jpg","1","","","","","","","","","","","","","","","","","","","","","","","","",""
"1222","","image-button-response","48","275376","0.0-48.0-0.0","A3MD34XEB4H6JF","img_art/9.jpg","3","","","","","","","","","","","","","","","","","","","","","","","","",""
"3574","","image-button-response","49","278952","0.0-49.0-0.0","A3MD34XEB4H6JF","img_art/9.jpg","4","","","","","","","","","","","","","","","","","","","","","","","","",""
"null","","html-keyboard-response","50","279464","0.0-50.0","A3MD34XEB4H6JF","<p style=""font-size: 48px;"">+</p>","","","","","null","allTrialResponses","500","1","1","img_art/9.jpg","17","Mysterious and beautiful","Jordan,Kylie,Chloe,Gabriela,Dominique,Emma","I just dont like it, no reaction from me at all,-50,20,20","Peaceful dreaming,40,300,20","Cheesy. Looks unprofessional,-20,220,20","This photo make me feel peaceful. It looks like a woman sleeping in a garden,42,140,20","This speaks to me like a personalities and sides and not all are nice,19,400,20","Feels angry .....,-40,60,20","Kylie","Peaceful dreaming,40,300,20","Gabriela","This photo make me feel peaceful. It looks like a woman sleeping in a garden,42,140,20","Dominique","This speaks to me like a personalities and sides and not all are nice,19,400,20","0"
"15996","","survey-text","51","295470","0.0-51.0-0.0","A3MD34XEB4H6JF","","","","{""Q0"":""It's more mental than feeling, but it's also beautiful.""}","","","","","","","","","","","","","","","","","","","","","","",""
"2596.199999988079","","image-slider-response","52","298068","0.0-52.0","A3MD34XEB4H6JF","","","","","3","","","","","","","","","","","","","","","","","","","","","",""
"4085","","image-button-response","53","303070","0.0-53.0","A3MD34XEB4H6JF","img_art/19.jpg","1","","","","","","","","","","","","","","","","","","","","","","","","",""
"347","","image-button-response","54","303418","0.0-54.0","A3MD34XEB4H6JF","img_art/19.jpg","1","","","","","","","","","","","","","","","","","","","","","","","","",""
"1606","","image-button-response","55","305026","0.0-55.0-0.0","A3MD34XEB4H6JF","img_art/19.jpg","4","","","","","","","","","","","","","","","","","","","","","","","","",""
"4687","","image-button-response","56","309714","0.0-56.0-0.0","A3MD34XEB4H6JF","img_art/19.jpg","0","","","","","","","","","","","","","","","","","","","","","","","","",""
"null","","html-keyboard-response","57","310716","0.0-57.0","A3MD34XEB4H6JF","<p style=""font-size: 48px;"">+</p>","","","","","null","allTrialResponses","1000","1","2","img_art/19.jpg","3","It's more mental than feeling, but it's also beautiful.","Abigail,Kylie,Katie,Gabriela,Dominique,Vanessa","I dont like the gray shadows, ruins it,-7,20,20","Reminds me of a quaint little town I once visited in Italy,50,300,20","Too busy, makes me anxious and frustrated. Lots of movement in the brush strokes.,-9,160,20","it looks messy and non-unique.,-9,140,20","I really like the colors and feel of this one and alot of life,41,400,20","Again, this is too abstract.,-10,380,20","Kylie","Reminds me of a quaint little town I once visited in Italy,50,300,20","Dominique","I really like the colors and feel of this one and alot of life,41,400,20","Abigail","I dont like the gray shadows, ruins it,-7,20,20","0"
"12612","","survey-text","58","323332","0.0-58.0-0.0","A3MD34XEB4H6JF","","","","{""Q0"":""Wow, it looks like people in the universe.""}","","","","","","","","","","","","","","","","","","","","","","",""
"2538.0999999940395","","image-slider-response","59","325872","0.0-59.0","A3MD34XEB4H6JF","","","","","13","","","","","","","","","","","","","","","","","","","","","",""
"4395","","image-button-response","60","330874","0.0-60.0","A3MD34XEB4H6JF","img_art/23.jpg","1","","","","","","","","","","","","","","","","","","","","","","","","",""
"376","","image-button-response","61","331254","0.0-61.0","A3MD34XEB4H6JF","img_art/23.jpg","1","","","","","","","","","","","","","","","","","","","","","","","","",""
"1939","","image-button-response","62","333194","0.0-62.0-0.0","A3MD34XEB4H6JF","img_art/23.jpg","4","","","","","","","","","","","","","","","","","","","","","","","","",""
"1840","","image-button-response","63","335036","0.0-63.0-0.0","A3MD34XEB4H6JF","img_art/23.jpg","0","","","","","","","","","","","","","","","","","","","","","","","","",""
"null","","html-keyboard-response","64","336538","0.0-64.0","A3MD34XEB4H6JF","<p style=""font-size: 48px;"">+</p>","","","","","null","allTrialResponses","1500","1","3","img_art/23.jpg","13","Wow, it looks like people in the universe.","Abigail,Kylie,Courtney,Cheyenne,Dominique,Caitlin","I like the contrast,29,20,20","Universal celebration,40,300,20","Looks like fish fossils,12,280,20","Solid colors but the white throws it off for me.,4,200,20","Very happy , busy , free, and full of Hope,28,400,20","SOME thought was put into this one.,5,80,20","Kylie","Universal celebration,40,300,20","Dominique","Very happy , busy , free, and full of Hope,28,400,20","Abigail","I like the contrast,29,20,20","0"
"9723","","survey-text","65","346264","0.0-65.0-0.0","A3MD34XEB4H6JF","","","","{""Q0"":""Nice, it's calm and intriguing.""}","","","","","","","","","","","","","","","","","","","","","","",""
"2467.9000000059605","","image-slider-response","66","348734","0.0-66.0","A3MD34XEB4H6JF","","","","","5","","","","","","","","","","","","","","","","","","","","","",""
"4113","","image-button-response","67","353737","0.0-67.0","A3MD34XEB4H6JF","img_art/10.jpg","4","","","","","","","","","","","","","","","","","","","","","","","","",""
"292","","image-button-response","68","354031","0.0-68.0","A3MD34XEB4H6JF","img_art/10.jpg","1","","","","","","","","","","","","","","","","","","","","","","","","",""
"1099","","image-button-response","69","355133","0.0-69.0-0.0","A3MD34XEB4H6JF","img_art/10.jpg","4","","","","","","","","","","","","","","","","","","","","","","","","",""
"894","","image-button-response","70","356029","0.0-70.0-0.0","A3MD34XEB4H6JF","img_art/10.jpg","5","","","","","","","","","","","","","","","","","","","","","","","","",""
"null","","html-keyboard-response","71","357031","0.0-71.0","A3MD34XEB4H6JF","<p style=""font-size: 48px;"">+</p>","","","","","null","allTrialResponses","1000","1","4","img_art/10.jpg","5","Nice, it's calm and intriguing.","Abigail,Kylie,Angelica,Maria,Dominique,Victoria","Looks gross and messy,-39,20,20","Musical guitar whimsy,45,300,20","This is odd and ugly.,-9,280,20","not sure what to make of this one,0,120,20","A very conversational piece could be of many different ideas,38,400,20","absolutely beautiful piece of art,49,400,20","Kylie","Musical guitar whimsy,45,300,20","Dominique","A very conversational piece could be of many different ideas,38,400,20","Victoria","absolutely beautiful piece of art,49,400,20","0"
"18757","","survey-text","72","375793","0.0-72.0-0.0","A3MD34XEB4H6JF","","","","{""Q0"":""I really like this because it asks questions but it also kind of nice to look at.""}","","","","","","","","","","","","","","","","","","","","","","",""
"2310.300000011921","","image-slider-response","73","378105","0.0-73.0","A3MD34XEB4H6JF","","","","","14","","","","","","","","","","","","","","","","","","","","","",""
"4915","","image-button-response","74","383121","0.0-74.0","A3MD34XEB4H6JF","img_art/29.jpg","4","","","","","","","","","","","","","","","","","","","","","","","","",""
"754","","image-button-response","75","383878","0.0-75.0","A3MD34XEB4H6JF","img_art/29.jpg","4","","","","","","","","","","","","","","","","","","","","","","","","",""
"1099","","image-button-response","76","384979","0.0-76.0-0.0","A3MD34XEB4H6JF","img_art/29.jpg","1","","","","","","","","","","","","","","","","","","","","","","","","",""
"694","","image-button-response","77","385675","0.0-77.0-0.0","A3MD34XEB4H6JF","img_art/29.jpg","0","","","","","","","","","","","","","","","","","","","","","","","","",""
"null","","html-keyboard-response","78","387178","0.0-78.0","A3MD34XEB4H6JF","<p style=""font-size: 48px;"">+</p>","","","","","null","allTrialResponses","1500","1","5","img_art/29.jpg","14","I really like this because it asks questions but it also kind of nice to look at.","Katherine,Kylie,Laura,Mariah,Dominique,Victoria","I think the grey and red inspire negative feelings but it's not the worst thing.,13,120,20","Reminds me of graffitti gone wrong,15,300,20","this is not art to me - it's random collage,-45,320,20","It feels like looking through layers of frustration.,19,140,20","Another great work of art and very conversational piece,33,400,20","makes me think of destruction,-20,400,20","Dominique","Another great work of art and very conversational piece,33,400,20","Kylie","Reminds me of graffitti gone wrong,15,300,20","Katherine","I think the grey and red inspire negative feelings but it's not the worst thing.,13,120,20","0"
"3645","","survey-text","79","390831","0.0-79.0-0.0","A3MD34XEB4H6JF","","","","{""Q0"":""sky""}","","","","","","","","","","","","","","","","","","","","","","",""
"17834","","survey-text","80","408667","0.0-80.0-0.0","A3MD34XEB4H6JF","","","","{""Q0"":""I like these colors and the energy.""}","","","","","","","","","","","","","","","","","","","","","","",""
"3366.4000000059605","","image-slider-response","81","412035","0.0-81.0","A3MD34XEB4H6JF","","","","","8","","","","","","","","","","","","","","","","","","","","","",""
"4998","","image-button-response","82","417037","0.0-82.0","A3MD34XEB4H6JF","img_art/30.jpg","1","","","","","","","","","","","","","","","","","","","","","","","","",""
"468","","image-button-response","83","417507","0.0-83.0","A3MD34XEB4H6JF","img_art/30.jpg","0","","","","","","","","","","","","","","","","","","","","","","","","",""
"548","","image-button-response","84","418057","0.0-84.0-0.0","A3MD34XEB4H6JF","img_art/30.jpg","1","","","","","","","","","","","","","","","","","","","","","","","","",""
"1125","","image-button-response","85","419185","0.0-85.0-0.0","A3MD34XEB4H6JF","img_art/30.jpg","0","","","","","","","","","","","","","","","","","","","","","","","","",""
"1843","","image-button-response","86","425755","0.0-85.1-0.1","A3MD34XEB4H6JF","img_art/30.jpg","4","","","","","","","","","","","","","","","","","","","","","","","","",""
"null","","html-keyboard-response","87","426258","0.0-86.0","A3MD34XEB4H6JF","<p style=""font-size: 48px;"">+</p>","","","","","null","allTrialResponses","500","1","6","img_art/30.jpg","8","I like these colors and the energy.","Katherine,Kylie,Destiny,Natalie,Dominique,Alexandra","For some reason I like the red in this one. Maybe it's the style of lines/blurs,46,120,20","I can't figure this out,25,300,20","literally stupid I made this with as seen on tv products when I was 7,-42,360,20","the colors look nice,19,400,20","Personal , calming conservative signature business ideal.,32,400,20","I really love the pastel colors and the 3D design in this,43,60,20","Katherine","For some reason I like the red in this one. Maybe it's the style of lines/blurs,46,120,20","Kylie","I can't figure this out,25,300,20","Dominique","Personal , calming conservative signature business ideal.,32,400,20","2"
"15732","","survey-text","88","441995","0.0-87.0-0.0","A3MD34XEB4H6JF","","","","{""Q0"":""Beautiful, alive and tranquil all at the same time.""}","","","","","","","","","","","","","","","","","","","","","","",""
"3511.9000000059605","","image-slider-response","89","445509","0.0-88.0","A3MD34XEB4H6JF","","","","","21","","","","","","","","","","","","","","","","","","","","","",""
"4681","","image-button-response","90","450511","0.0-89.0","A3MD34XEB4H6JF","img_art/24.jpg","0","","","","","","","","","","","","","","","","","","","","","","","","",""
"303","","image-button-response","91","450816","0.0-90.0","A3MD34XEB4H6JF","img_art/24.jpg","0","","","","","","","","","","","","","","","","","","","","","","","","",""
"445","","image-button-response","92","451263","0.0-91.0-0.0","A3MD34XEB4H6JF","img_art/24.jpg","1","","","","","","","","","","","","","","","","","","","","","","","","",""
"2118","","image-button-response","93","453383","0.0-92.0-0.0","A3MD34XEB4H6JF","img_art/24.jpg","3","","","","","","","","","","","","","","","","","","","","","","","","",""
"null","","html-keyboard-response","94","453885","0.0-93.0","A3MD34XEB4H6JF","<p style=""font-size: 48px;"">+</p>","","","","","null","allTrialResponses","500","1","7","img_art/24.jpg","21","Beautiful, alive and tranquil all at the same time.","Katherine,Kylie,Christina,Grace,Dominique,Erin","The combination of nature / realism with abstract colors is unique.,39,120,20","Forest waterfall,40,300,20","I like how it looks like a waterfall in an exotic place,50,240,20","Abstract falls & nature.,41,180,20","Spending a day in nature,21,400,20","Too literal, not abstract,-29,120,20","Katherine","The combination of nature / realism with abstract colors is unique.,39,120,20","Kylie","Forest waterfall,40,300,20","Grace","Abstract falls & nature.,41,180,20","2"
"11161","","survey-text","95","465049","0.0-94.0-0.0","A3MD34XEB4H6JF","","","","{""Q0"":""This is kind of scary although I like the colors.""}","","","","","","","","","","","","","","","","","","","","","","",""
"3076.2000000178814","","image-slider-response","96","468127","0.0-95.0","A3MD34XEB4H6JF","","","","","3","","","","","","","","","","","","","","","","","","","","","",""
"4526","","image-button-response","97","473143","0.0-96.0","A3MD34XEB4H6JF","img_art/8.jpg","0","","","","","","","","","","","","","","","","","","","","","","","","",""
"1679","","image-button-response","98","474823","0.0-97.0","A3MD34XEB4H6JF","img_art/8.jpg","1","","","","","","","","","","","","","","","","","","","","","","","","",""
"575","","image-button-response","99","475400","0.0-98.0-0.0","A3MD34XEB4H6JF","img_art/8.jpg","0","","","","","","","","","","","","","","","","","","","","","","","","",""
"1740","","image-button-response","100","477143","0.0-99.0-0.0","A3MD34XEB4H6JF","img_art/8.jpg","3","","","","","","","","","","","","","","","","","","","","","","","","",""
"null","","html-keyboard-response","101","477644","0.0-100.0","A3MD34XEB4H6JF","<p style=""font-size: 48px;"">+</p>","","","","","null","allTrialResponses","500","1","8","img_art/8.jpg","3","This is kind of scary although I like the colors.","Katherine,Kylie,Brianna,Grace,Samantha,Sierra","This is really cool, I love the fragments of faces,38,120,20","Very abstract and seems symbolic,45,300,20","It's very odd and I don't really like it,-30,20,20","Like the colors & the imagery - old city, native peoples maybe.,20,180,20","The face bothers me,-25,140,20","i love the colors, the church and the face,42,260,20","Kylie","Very abstract and seems symbolic,45,300,20","Katherine","This is really cool, I love the fragments of faces,38,120,20","Grace","Like the colors & the imagery - old city, native peoples maybe.,20,180,20","2"
"13224","","survey-text","102","490873","0.0-101.0-0.0","A3MD34XEB4H6JF","","","","{""Q0"":""This is somehow anxiety provoking.""}","","","","","","","","","","","","","","","","","","","","","","",""
"4286.300000011921","","image-slider-response","103","495161","0.0-102.0","A3MD34XEB4H6JF","","","","","-9","","","","","","","","","","","","","","","","","","","","","",""
"4180","","image-button-response","104","500165","0.0-103.0","A3MD34XEB4H6JF","img_art/3.jpg","4","","","","","","","","","","","","","","","","","","","","","","","","",""
"1681","","image-button-response","105","501847","0.0-104.0","A3MD34XEB4H6JF","img_art/3.jpg","4","","","","","","","","","","","","","","","","","","","","","","","","",""
"1446","","image-button-response","106","503295","0.0-105.0-0.0","A3MD34XEB4H6JF","img_art/3.jpg","1","","","","","","","","","","","","","","","","","","","","","","","","",""
"2126","","image-button-response","107","505424","0.0-106.0-0.0","A3MD34XEB4H6JF","img_art/3.jpg","5","","","","","","","","","","","","","","","","","","","","","","","","",""
"null","","html-keyboard-response","108","506925","0.0-107.0","A3MD34XEB4H6JF","<p style=""font-size: 48px;"">+</p>","","","","","null","allTrialResponses","1500","1","9","img_art/3.jpg","-9","This is somehow anxiety provoking.","Katherine,Kylie,Molly,Grace,Danielle,Taylor","Too much red! Reminds me of blood. I hate blood.,-34,120,20","Confusion and mayhem,-10,300,20","Mysterious, remarkable.,30,340,20","Just no. I love red but this looks like blood splatter on a wall from a horrific killing.,-45,180,20","Looks like it was painted with blood, which I'm aware is an art style, but it just looks messy.,-20,340,20","It doesn't make me think of art,-20,340,20","Danielle","Looks like it was painted with blood, which I'm aware is an art style, but it just looks messy.,-20,340,20","Kylie","Confusion and mayhem,-10,300,20","Taylor","It doesn't make me think of art,-20,340,20","2"
"12620","","survey-text","109","519550","0.0-108.0-0.0","A3MD34XEB4H6JF","","","","{""Q0"":""Busy but also pretty.""}","","","","","","","","","","","","","","","","","","","","","","",""
"2346.2000000178814","","image-slider-response","110","521899","0.0-109.0","A3MD34XEB4H6JF","","","","","8","","","","","","","","","","","","","","","","","","","","","",""
"4665","","image-button-response","111","526901","0.0-110.0","A3MD34XEB4H6JF","img_art/15.jpg","4","","","","","","","","","","","","","","","","","","","","","","","","",""
"1317","","image-button-response","112","528220","0.0-111.0","A3MD34XEB4H6JF","img_art/15.jpg","3","","","","","","","","","","","","","","","","","","","","","","","","",""
"1012","","image-button-response","113","529234","0.0-112.0-0.0","A3MD34XEB4H6JF","img_art/15.jpg","0","","","","","","","","","","","","","","","","","","","","","","","","",""
"484","","image-button-response","114","529722","0.0-113.0-0.0","A3MD34XEB4H6JF","img_art/15.jpg","1","","","","","","","","","","","","","","","","","","","","","","","","",""
"null","","html-keyboard-response","115","530224","0.0-114.0","A3MD34XEB4H6JF","<p style=""font-size: 48px;"">+</p>","","","","","null","allTrialResponses","500","1","10","img_art/15.jpg","8","Busy but also pretty.","Jasmine,Kylie,Heather,Mikayla,Danielle,Taylor","I like it as the colors complement each other well,21,340,20","I don't know how I feel about this,31,300,20","black leaves makes the blue birds stand out.,1,260,20","The dots are cool with the blue accents.,24,300,20","This is pretty nice, reminds me of dark peacock feathers, or perhaps a bush with berries in it?,15,340,20","The blues are soothing,21,340,20","Mikayla","The dots are cool with the blue accents.,24,300,20","Jasmine","I like it as the colors complement each other well,21,340,20","Kylie","I don't know how I feel about this,31,300,20","2"
"3233","","survey-text","116","533467","0.0-115.0-0.0","A3MD34XEB4H6JF","","","","{""Q0"":""our""}","","","","","","","","","","","","","","","","","","","","","","",""
"14341","","survey-text","117","547810","0.0-116.0-0.0","A3MD34XEB4H6JF","","","","{""Q0"":""This feels kind of sad but pretty too, like a song.""}","","","","","","","","","","","","","","","","","","","","","","",""
"2825.9000000059605","","image-slider-response","118","550638","0.0-117.0","A3MD34XEB4H6JF","","","","","5","","","","","","","","","","","","","","","","","","","","","",""
"4715","","image-button-response","119","555640","0.0-118.0","A3MD34XEB4H6JF","img_art/2.jpg","3","","","","","","","","","","","","","","","","","","","","","","","","",""
"992","","image-button-response","120","556633","0.0-119.0","A3MD34XEB4H6JF","img_art/2.jpg","2","","","","","","","","","","","","","","","","","","","","","","","","",""
"1003","","image-button-response","121","557638","0.0-120.0-0.0","A3MD34XEB4H6JF","img_art/2.jpg","3","","","","","","","","","","","","","","","","","","","","","","","","",""
"2306","","image-button-response","122","559946","0.0-121.0-0.0","A3MD34XEB4H6JF","img_art/2.jpg","1","","","","","","","","","","","","","","","","","","","","","","","","",""
"null","","html-keyboard-response","123","561448","0.0-122.0","A3MD34XEB4H6JF","<p style=""font-size: 48px;"">+</p>","","","","","null","allTrialResponses","1500","1","11","img_art/2.jpg","5","This feels kind of sad but pretty too, like a song.","Jasmine,Kylie,Melissa,Mikayla,Sara,Jacqueline","Color picks are a bad mesh with each other,-17,340,20","Not very appealing,-5,300,20","appealing colors,4,240,20","I love the colors in this.,29,300,20","Dark tone feels sad,-30,160,20","A bit ugly with the greens.,-20,300,20","Melissa","appealing colors,4,240,20","Mikayla","I love the colors in this.,29,300,20","Kylie","Not very appealing,-5,300,20","2"
"24360","","survey-text","124","585812","0.0-123.0-0.0","A3MD34XEB4H6JF","","","","{""Q0"":""Wow, the textures make it look like a photo and an animation together. I like it.""}","","","","","","","","","","","","","","","","","","","","","","",""
"3138.5","","image-slider-response","125","588952","0.0-124.0","A3MD34XEB4H6JF","","","","","4","","","","","","","","","","","","","","","","","","","","","",""
"4093","","image-button-response","126","593967","0.0-125.0","A3MD34XEB4H6JF","img_art/18.jpg","4","","","","","","","","","","","","","","","","","","","","","","","","",""
"126","","image-button-response","127","594094","0.0-126.0","A3MD34XEB4H6JF","img_art/18.jpg","1","","","","","","","","","","","","","","","","","","","","","","","","",""
"1189","","image-button-response","128","595284","0.0-127.0-0.0","A3MD34XEB4H6JF","img_art/18.jpg","4","","","","","","","","","","","","","","","","","","","","","","","","",""
"2004","","image-button-response","129","597291","0.0-128.0-0.0","A3MD34XEB4H6JF","img_art/18.jpg","0","","","","","","","","","","","","","","","","","","","","","","","","",""
"null","","html-keyboard-response","130","598792","0.0-129.0","A3MD34XEB4H6JF","<p style=""font-size: 48px;"">+</p>","","","","","null","allTrialResponses","1500","1","12","img_art/18.jpg","4","Wow, the textures make it look like a photo and an animation together. I like it.","Kaylee,Kylie,Melissa,Mikayla,Marissa,Olivia","looks like a war,22,200,20","Kind of weird in a confusing way,10,300,20","creamy color, feels like organized chaos,23,240,20","Kinda boring. Not my favorite,-34,300,20","This brings to mind the four horsemen of the apocalypse,8,160,20","death rides in life,-25,40,20","Kylie","Kind of weird in a confusing way,10,300,20","Marissa","This brings to mind the four horsemen of the apocalypse,8,160,20","Kaylee","looks like a war,22,200,20","2"
"9793","","survey-text","131","608589","0.0-130.0-0.0","A3MD34XEB4H6JF","","","","{""Q0"":""It's strange, but I love the colors.""}","","","","","","","","","","","","","","","","","","","","","","",""
"3690.0999999940395","","image-slider-response","132","612281","0.0-131.0","A3MD34XEB4H6JF","","","","","4","","","","","","","","","","","","","","","","","","","","","",""
"4725","","image-button-response","133","617284","0.0-132.0","A3MD34XEB4H6JF","img_art/4.jpg","2","","","","","","","","","","","","","","","","","","","","","","","","",""
"601","","image-button-response","134","617887","0.0-133.0","A3MD34XEB4H6JF","img_art/4.jpg","1","","","","","","","","","","","","","","","","","","","","","","","","",""
"552","","image-button-response","135","618441","0.0-134.0-0.0","A3MD34XEB4H6JF","img_art/4.jpg","2","","","","","","","","","","","","","","","","","","","","","","","","",""
"2204","","image-button-response","136","620647","0.0-135.0-0.0","A3MD34XEB4H6JF","img_art/4.jpg","0","","","","","","","","","","","","","","","","","","","","","","","","",""
"null","","html-keyboard-response","137","621650","0.0-136.0","A3MD34XEB4H6JF","<p style=""font-size: 48px;"">+</p>","","","","","null","allTrialResponses","1000","1","13","img_art/4.jpg","4","It's strange, but I love the colors.","Kaylee,Kylie,Angela,Gabrielle,Marissa,Jennifer","just a scuffed hand,-15,200,20","I just have no clue,26,300,20","Really like the colors, but don't like the object/squiggle in darker gold and black,4,260,20","too childish, not really art in my world,-50,160,20","I'm disappointed that such a simple piece, with very little effort spent, could be grouped with other detailed pieces,-31,160,20","Ugly and bland compared to the other pieces.,-33,380,20","Kylie","I just have no clue,26,300,20","Angela","Really like the colors, but don't like the object/squiggle in darker gold and black,4,260,20","Kaylee","just a scuffed hand,-15,200,20","2"
"15339","","survey-text","138","636995","0.0-137.0-0.0","A3MD34XEB4H6JF","","","","{""Q0"":""This is somber but also calm and beautiful.""}","","","","","","","","","","","","","","","","","","","","","","",""
"2854.5","","image-slider-response","139","639851","0.0-138.0","A3MD34XEB4H6JF","","","","","7","","","","","","","","","","","","","","","","","","","","","",""
"4483","","image-button-response","140","644854","0.0-139.0","A3MD34XEB4H6JF","img_art/6.jpg","2","","","","","","","","","","","","","","","","","","","","","","","","",""
"514","","image-button-response","141","645369","0.0-140.0","A3MD34XEB4H6JF","img_art/6.jpg","3","","","","","","","","","","","","","","","","","","","","","","","","",""
"1078","","image-button-response","142","646449","0.0-141.0-0.0","A3MD34XEB4H6JF","img_art/6.jpg","2","","","","","","","","","","","","","","","","","","","","","","","","",""
"2428","","image-button-response","143","648879","0.0-142.0-0.0","A3MD34XEB4H6JF","img_art/6.jpg","4","","","","","","","","","","","","","","","","","","","","","","","","",""
"null","","html-keyboard-response","144","649382","0.0-143.0","A3MD34XEB4H6JF","<p style=""font-size: 48px;"">+</p>","","","","","null","allTrialResponses","500","1","14","img_art/6.jpg","7","This is somber but also calm and beautiful.","Kaylee,Kylie,Angela,Madison,Lindsey,Ashley","just an another tree on a desert?,9,200,20","Reminds me of feeling incomplete,1,300,20","I like the orange color, and I don't know why but I like this piece.,22,260,20","Is this the villain from Despicable Me?,29,60,20","Simple, warm, hopeful.,12,400,20","A lot of people will lvoe this, I do not.,1,320,20","Madison","Is this the villain from Despicable Me?,29,60,20","Angela","I like the orange color, and I don't know why but I like this piece.,22,260,20","Lindsey","Simple, warm, hopeful.,12,400,20","2"
"24380","","survey-text","145","673766","0.0-144.0-0.0","A3MD34XEB4H6JF","","","","{""Q0"":""I love the energy of the lines in the trees and the colors...beautiful.""}","","","","","","","","","","","","","","","","","","","","","","",""
"3262.800000011921","","image-slider-response","146","677031","0.0-145.0","A3MD34XEB4H6JF","","","","","42","","","","","","","","","","","","","","","","","","","","","",""
"4735","","image-button-response","147","682033","0.0-146.0","A3MD34XEB4H6JF","img_art/17.jpg","4","","","","","","","","","","","","","","","","","","","","","","","","",""
"1070","","image-button-response","148","683105","0.0-147.0","A3MD34XEB4H6JF","img_art/17.jpg","0","","","","","","","","","","","","","","","","","","","","","","","","",""
"992","","image-button-response","149","684099","0.0-148.0-0.0","A3MD34XEB4H6JF","img_art/17.jpg","4","","","","","","","","","","","","","","","","","","","","","","","","",""
"1195","","image-button-response","150","685297","0.0-149.0-0.0","A3MD34XEB4H6JF","img_art/17.jpg","1","","","","","","","","","","","","","","","","","","","","","","","","",""
"null","","html-keyboard-response","151","686299","0.0-150.0","A3MD34XEB4H6JF","<p style=""font-size: 48px;"">+</p>","","","","","null","allTrialResponses","1000","1","15","img_art/17.jpg","42","I love the energy of the lines in the trees and the colors...beautiful.","Catherine,Bailey,Angela,Madison,Lindsey,Monica","Nature coming to the inside of your space that you are locked into.,50,160,20","I like the artistic sketching pattern.,24,360,20","I like this, but it's a bit bland.,10,260,20","No strong reaction. Beautiful design, but hue appears taciturn. Bad photograph?,1,60,20","Pretty composition and I like the colors.,20,400,20","The colors remind me of a sunset and give a bittersweet feeling. It looks unfinished but not terrible.,6,360,20","Catherine","Nature coming to the inside of your space that you are locked into.,50,160,20","Lindsey","Pretty composition and I like the colors.,20,400,20","Bailey","I like the artistic sketching pattern.,24,360,20","2"
"3833","","survey-text","152","690143","0.0-151.0-0.0","A3MD34XEB4H6JF","","","","{""Q0"":""course""}","","","","","","","","","","","","","","","","","","","","","","",""
"16768","","survey-text","153","706913","0.0-152.0-0.0","A3MD34XEB4H6JF","","","","{""Q0"":""It's pretty, like a rainy day.""}","","","","","","","","","","","","","","","","","","","","","","",""
"3533","","image-slider-response","154","710447","0.0-153.0","A3MD34XEB4H6JF","","","","","11","","","","","","","","","","","","","","","","","","","","","",""
"null","","image-button-response","155","715449","0.0-154.0","A3MD34XEB4H6JF","img_art/26.jpg","null","","","","","","","","","","","","","","","","","","","","","","","","",""
"3036","","image-button-response","156","718488","0.0-155.0","A3MD34XEB4H6JF","img_art/26.jpg","2","","","","","","","","","","","","","","","","","","","","","","","","",""
"1178","","image-button-response","157","719668","0.0-156.0-0.0","A3MD34XEB4H6JF","img_art/26.jpg","5","","","","","","","","","","","","","","","","","","","","","","","","",""
"2995","","image-button-response","158","722666","0.0-157.0-0.0","A3MD34XEB4H6JF","img_art/26.jpg","0","","","","","","","","","","","","","","","","","","","","","","","","",""
"null","","html-keyboard-response","159","724168","0.0-158.0","A3MD34XEB4H6JF","<p style=""font-size: 48px;"">+</p>","","","","","null","allTrialResponses","1500","1","16","img_art/26.jpg","11","It's pretty, like a rainy day.","Catherine,Bailey,Michelle,Anna,Lindsey,Morgan","Incomplete, The artist painted his impression of somthing he was thinking of,0,160,20","Too blocky and unfocused. It's like the inside of a house, and the outside.,-24,360,20","I can make out a street view and I am a fan of watercolors but still too boring,15,280,20","It looks like a watercolor I did when I was 6.,-30,300,20","I see a suburban neighborhood with townhouses and trees. Not a fan of the colors or style.,-16,400,20","Confusing park picture.,8,380,20","Michelle","I can make out a street view and I am a fan of watercolors but still too boring,15,280,20","Morgan","Confusing park picture.,8,380,20","Catherine","Incomplete, The artist painted his impression of somthing he was thinking of,0,160,20","2"
"23604","","survey-text","160","747778","0.0-159.0-0.0","A3MD34XEB4H6JF","","","","{""Q0"":""It looks bleak but I like the colors""}","","","","","","","","","","","","","","","","","","","","","","",""
"3404.5","","image-slider-response","161","751184","0.0-160.0","A3MD34XEB4H6JF","","","","","5","","","","","","","","","","","","","","","","","","","","","",""
"1502","","image-button-response","162","756186","0.0-161.0","A3MD34XEB4H6JF","img_art/14.jpg","1","","","","","","","","","","","","","","","","","","","","","","","","",""
"578","","image-button-response","163","756766","0.0-162.0","A3MD34XEB4H6JF","img_art/14.jpg","1","","","","","","","","","","","","","","","","","","","","","","","","",""
"998","","image-button-response","164","757767","0.0-163.0-0.0","A3MD34XEB4H6JF","img_art/14.jpg","4","","","","","","","","","","","","","","","","","","","","","","","","",""
"2544","","image-button-response","165","760314","0.0-164.0-0.0","A3MD34XEB4H6JF","img_art/14.jpg","5","","","","","","","","","","","","","","","","","","","","","","","","",""
"null","","html-keyboard-response","166","761316","0.0-165.0","A3MD34XEB4H6JF","<p style=""font-size: 48px;"">+</p>","","","","","null","allTrialResponses","1000","1","17","img_art/14.jpg","5","It looks bleak but I like the colors","Catherine,Breanna,Michelle,Margaret,Sophia,Morgan","Tornado, nature. trees falling and displaced creatures. Love the colors though.,1,160,20","Makes me feel good,30,380,20","Too abstract with annoying little details. Just draw a regular tree already,-6,280,20","its okay. pretty bland but looks like nature,8,100,20","I don't know why, but this piece makes me happy.,20,280,20","Angled, colored, boxy.,10,380,20","Breanna","Makes me feel good,30,380,20","Sophia","I don't know why, but this piece makes me happy.,20,280,20","Morgan","Angled, colored, boxy.,10,380,20","2"
"22923","","survey-text","167","784244","0.0-166.0-0.0","A3MD34XEB4H6JF","","","","{""Q0"":""It's serious but well done it feels sad too. I like the colors.""}","","","","","","","","","","","","","","","","","","","","","","",""
"2835.2999999821186","","image-slider-response","168","787081","0.0-167.0","A3MD34XEB4H6JF","","","","","5","","","","","","","","","","","","","","","","","","","","","",""
"null","","image-button-response","169","792083","0.0-168.0","A3MD34XEB4H6JF","img_art/28.jpg","null","","","","","","","","","","","","","","","","","","","","","","","","",""
"901","","image-button-response","170","792986","0.0-169.0","A3MD34XEB4H6JF","img_art/28.jpg","2","","","","","","","","","","","","","","","","","","","","","","","","",""
"1619","","image-button-response","171","794608","0.0-170.0-0.0","A3MD34XEB4H6JF","img_art/28.jpg","5","","","","","","","","","","","","","","","","","","","","","","","","",""
"1271","","image-button-response","172","795881","0.0-171.0-0.0","A3MD34XEB4H6JF","img_art/28.jpg","1","","","","","","","","","","","","","","","","","","","","","","","","",""
"null","","html-keyboard-response","173","796383","0.0-172.0","A3MD34XEB4H6JF","<p style=""font-size: 48px;"">+</p>","","","","","null","allTrialResponses","500","1","18","img_art/28.jpg","5","It's serious but well done it feels sad too. I like the colors.","Autumn,Breanna,Crystal,Claire,Sophia,Morgan","Looks yucky and poor.,-33,340,20","The colors are depressing,-5,380,20","I like the flow and abstract nature of what seems to be humans,40,300,20","not a fan of the colors or strokes used,-27,260,20","I think this may have to do with humpty dumpty?,-7,280,20","Apartment throw up.,-5,380,20","Crystal","I like the flow and abstract nature of what seems to be humans,40,300,20","Morgan","Apartment throw up.,-5,380,20","Breanna","The colors are depressing,-5,380,20","2"
"14734","","survey-text","174","811124","0.0-173.0-0.0","A3MD34XEB4H6JF","","","","{""Q0"":""This is disturbing and abstract.""}","","","","","","","","","","","","","","","","","","","","","","",""
"6512.399999976158","","image-slider-response","175","817638","0.0-174.0","A3MD34XEB4H6JF","","","","","-2","","","","","","","","","","","","","","","","","","","","","",""
"3381","","image-button-response","176","822641","0.0-175.0","A3MD34XEB4H6JF","img_art/16.jpg","0","","","","","","","","","","","","","","","","","","","","","","","","",""
"2368","","image-button-response","177","825011","0.0-176.0","A3MD34XEB4H6JF","img_art/16.jpg","5","","","","","","","","","","","","","","","","","","","","","","","","",""
"886","","image-button-response","178","825898","0.0-177.0-0.0","A3MD34XEB4H6JF","img_art/16.jpg","3","","","","","","","","","","","","","","","","","","","","","","","","",""
"646","","image-button-response","179","826546","0.0-178.0-0.0","A3MD34XEB4H6JF","img_art/16.jpg","0","","","","","","","","","","","","","","","","","","","","","","","","",""
"null","","html-keyboard-response","180","827548","0.0-179.0","A3MD34XEB4H6JF","<p style=""font-size: 48px;"">+</p>","","","","","null","allTrialResponses","1000","1","19","img_art/16.jpg","-2","This is disturbing and abstract.","Haley,Breanna,Crystal,Makayla,Briana,Morgan","Makes me want to know more,5,220,20","The bear is terrifying,-50,380,20","Garble and nonsense,-50,300,20","It's a little unsettling,2,80,20","Weird mixed media piece,-50,400,20","Strange and bleak.,-20,380,20","Morgan","Strange and bleak.,-20,380,20","Makayla","It's a little unsettling,2,80,20","Haley","Makes me want to know more,5,220,20","2"
"13957","","survey-text","181","841512","0.0-180.0-0.0","A3MD34XEB4H6JF","","","","{""Q0"":""I like the gradation done in a way I haven't seen before.""}","","","","","","","","","","","","","","","","","","","","","","",""
"3348.800000011921","","image-slider-response","182","844862","0.0-181.0","A3MD34XEB4H6JF","","","","","2","","","","","","","","","","","","","","","","","","","","","",""
"2686","","image-button-response","183","849864","0.0-182.0","A3MD34XEB4H6JF","img_art/12.jpg","1","","","","","","","","","","","","","","","","","","","","","","","","",""
"281","","image-button-response","184","850148","0.0-183.0","A3MD34XEB4H6JF","img_art/12.jpg","1","","","","","","","","","","","","","","","","","","","","","","","","",""
"627","","image-button-response","185","850780","0.0-184.0-0.0","A3MD34XEB4H6JF","img_art/12.jpg","0","","","","","","","","","","","","","","","","","","","","","","","","",""
"1862","","image-button-response","186","852644","0.0-185.0-0.0","A3MD34XEB4H6JF","img_art/12.jpg","2","","","","","","","","","","","","","","","","","","","","","","","","",""
"null","","html-keyboard-response","187","853147","0.0-186.0","A3MD34XEB4H6JF","<p style=""font-size: 48px;"">+</p>","","","","","null","allTrialResponses","500","1","20","img_art/12.jpg","2","I like the gradation done in a way I haven't seen before.","Haley,Cynthia,Leah,Makayla,Tiffany,Morgan","Very interesting. Makes me want to look at it for a long time.,16,220,20","Windows to a different story,6,320,20","Looks like a puzzle I want to put together, but not hang in my den,2,360,20","Reminds me Early 2000's decor, don't favor it,-10,80,20","The painting makes me uncomfortable. The smears in the boxes feel like a giant mess.,-16,360,20","Ugly color combinations, no focus.,-25,380,20","Cynthia","Windows to a different story,6,320,20","Haley","Very interesting. Makes me want to look at it for a long time.,16,220,20","Leah","Looks like a puzzle I want to put together, but not hang in my den,2,360,20","2"
"2795","","survey-text","188","855954","0.0-187.0-0.0","A3MD34XEB4H6JF","","","","{""Q0"":""we""}","","","","","","","","","","","","","","","","","","","","","","",""
"30170","","survey-text","189","886126","0.0-188.0-0.0","A3MD34XEB4H6JF","","","","{""Q0"":""Wow, I love the colors and the motion of the ocean is communicated as well as the comfort of being in the house there.""}","","","","","","","","","","","","","","","","","","","","","","",""
"3652.5999999940395","","image-slider-response","190","889781","0.0-189.0","A3MD34XEB4H6JF","","","","","28","","","","","","","","","","","","","","","","","","","","","",""
"1566","","image-button-response","191","894784","0.0-190.0","A3MD34XEB4H6JF","img_art/20.jpg","1","","","","","","","","","","","","","","","","","","","","","","","","",""
"631","","image-button-response","192","895416","0.0-191.0","A3MD34XEB4H6JF","img_art/20.jpg","1","","","","","","","","","","","","","","","","","","","","","","","","",""
"415","","image-button-response","193","895832","0.0-192.0-0.0","A3MD34XEB4H6JF","img_art/20.jpg","0","","","","","","","","","","","","","","","","","","","","","","","","",""
"3644","","image-button-response","194","899479","0.0-193.0-0.0","A3MD34XEB4H6JF","img_art/20.jpg","3","","","","","","","","","","","","","","","","","","","","","","","","",""
"null","","html-keyboard-response","195","900995","0.0-194.0","A3MD34XEB4H6JF","<p style=""font-size: 48px;"">+</p>","","","","","null","allTrialResponses","1500","1","21","img_art/20.jpg","28","Wow, I love the colors and the motion of the ocean is communicated as well as the comfort of being in the house there.","Haley,Cynthia,Leah,Kristen,Erica,Alexandria","I really enjoy the contrast of colors (blue/red/orange),30,220,20","Curious about what lies here,10,320,20","A sad past town, pollution, guess I like happier scenes,-30,360,20","danger, car crash, stressful,-12,280,20","looks like an auto accident,-30,80,20","it looks like a car crash which is depressing,-19,80,20","Cynthia","Curious about what lies here,10,320,20","Haley","I really enjoy the contrast of colors (blue/red/orange),30,220,20","Kristen","danger, car crash, stressful,-12,280,20","2"
"14938","","survey-text","196","915943","0.0-195.0-0.0","A3MD34XEB4H6JF","","","","{""Q0"":""The colors are beautiful and make me think of happy things.""}","","","","","","","","","","","","","","","","","","","","","","",""
"2281.5999999940395","","image-slider-response","197","918227","0.0-196.0","A3MD34XEB4H6JF","","","","","21","","","","","","","","","","","","","","","","","","","","","",""
"4942","","image-button-response","198","923263","0.0-197.0","A3MD34XEB4H6JF","img_art/1.jpg","5","","","","","","","","","","","","","","","","","","","","","","","","",""
"532","","image-button-response","199","923797","0.0-198.0","A3MD34XEB4H6JF","img_art/1.jpg","5","","","","","","","","","","","","","","","","","","","","","","","","",""
"1583","","image-button-response","200","925381","0.0-199.0-0.0","A3MD34XEB4H6JF","img_art/1.jpg","1","","","","","","","","","","","","","","","","","","","","","","","","",""
"2365","","image-button-response","201","927747","0.0-200.0-0.0","A3MD34XEB4H6JF","img_art/1.jpg","2","","","","","","","","","","","","","","","","","","","","","","","","",""
"null","","html-keyboard-response","202","929249","0.0-201.0","A3MD34XEB4H6JF","<p style=""font-size: 48px;"">+</p>","","","","","null","allTrialResponses","1500","1","22","img_art/1.jpg","21","The colors are beautiful and make me think of happy things.","Haley,Cynthia,Kathryn,Kristen,Brooke,Sabrina","Pleasant, but a tad too monochromatic in some areas for my taste,7,220,20","fishing on the lake surrounded by trees,42,320,20","For some reason this makes me want to go ice skating. It's whimsical and free but also very smooth.,20,140,20","river, fall, cozy, warm,12,280,20","It's okay, colors remind me of autumn.,10,60,20","I love the calming comfort and safe feeling of this,50,120,20","Sabrina","I love the calming comfort and safe feeling of this,50,120,20","Cynthia","fishing on the lake surrounded by trees,42,320,20","Kathryn","For some reason this makes me want to go ice skating. It's whimsical and free but also very smooth.,20,140,20","2"
"14635","","survey-text","203","943890","0.0-202.0-0.0","A3MD34XEB4H6JF","","","","{""Q0"":""It seems austere but the colors make you want to look.""}","","","","","","","","","","","","","","","","","","","","","","",""
"3488.5","","image-slider-response","204","947381","0.0-203.0","A3MD34XEB4H6JF","","","","","2","","","","","","","","","","","","","","","","","","","","","",""
"4774","","image-button-response","205","952383","0.0-204.0","A3MD34XEB4H6JF","img_art/25.jpg","1","","","","","","","","","","","","","","","","","","","","","","","","",""
"459","","image-button-response","206","952843","0.0-205.0","A3MD34XEB4H6JF","img_art/25.jpg","1","","","","","","","","","","","","","","","","","","","","","","","","",""
"933","","image-button-response","207","953777","0.0-206.0-0.0","A3MD34XEB4H6JF","img_art/25.jpg","4","","","","","","","","","","","","","","","","","","","","","","","","",""
"2577","","image-button-response","208","956357","0.0-207.0-0.0","A3MD34XEB4H6JF","img_art/25.jpg","0","","","","","","","","","","","","","","","","","","","","","","","","",""
"null","","html-keyboard-response","209","957359","0.0-208.0","A3MD34XEB4H6JF","<p style=""font-size: 48px;"">+</p>","","","","","null","allTrialResponses","1000","1","23","img_art/25.jpg","2","It seems austere but the colors make you want to look.","Nicole,Cynthia,Kathryn,Kaitlin,Alexis,Sabrina","This painting is cool but it gives off an evil vibe,-10,20,20","Somewhat feel protected by a messenger,33,320,20","I feel uneasy. Like watching someone powerful ready to perform a ritual, but I don't know their intentions.,-10,140,20","i feel a bit dull, a bit scared,-20,60,20","Reminds me of cave drawings,21,100,20","New life, rising from your personal battles,50,120,20","Cynthia","Somewhat feel protected by a messenger,33,320,20","Alexis","Reminds me of cave drawings,21,100,20","Nicole","This painting is cool but it gives off an evil vibe,-10,20,20","2"
"11926","","survey-text","210","969291","0.0-209.0-0.0","A3MD34XEB4H6JF","","","","{""Q0"":""This is odd, it just looks like a photo of the ground.""}","","","","","","","","","","","","","","","","","","","","","","",""
"2988.9000000059605","","image-slider-response","211","972282","0.0-210.0","A3MD34XEB4H6JF","","","","","-27","","","","","","","","","","","","","","","","","","","","","",""
"null","","image-button-response","212","977285","0.0-211.0","A3MD34XEB4H6JF","img_art/7.jpg","null","","","","","","","","","","","","","","","","","","","","","","","","",""
"7789","","image-button-response","213","985075","0.0-212.0","A3MD34XEB4H6JF","img_art/7.jpg","1","","","","","","","","","","","","","","","","","","","","","","","","",""
"2789","","image-button-response","214","987865","0.0-213.0-0.0","A3MD34XEB4H6JF","img_art/7.jpg","3","","","","","","","","","","","","","","","","","","","","","","","","",""
"798","","image-button-response","215","988666","0.0-214.0-0.0","A3MD34XEB4H6JF","img_art/7.jpg","4","","","","","","","","","","","","","","","","","","","","","","","","",""
"null","","html-keyboard-response","216","989668","0.0-215.0","A3MD34XEB4H6JF","<p style=""font-size: 48px;"">+</p>","","","","","null","allTrialResponses","1000","1","24","img_art/7.jpg","-27","This is odd, it just looks like a photo of the ground.","Nicole,Cynthia,Kelsey,Erika,Alexis,Stephanie","Looks like the surface of mars,29,20,20","time and change,1,320,20","its like oatmeal with granola,-47,240,20","Detail oriented, like cracked paint wall,15,100,20","Looks like bad wallpaper,-29,100,20","This looks muddy and stomped on. I think of destruction.,-50,300,20","Cynthia","time and change,1,320,20","Erika","Detail oriented, like cracked paint wall,15,100,20","Alexis","Looks like bad wallpaper,-29,100,20","2"
"10128","","survey-text","217","999803","0.0-216.0-0.0","A3MD34XEB4H6JF","","","","{""Q0"":""Strange, but intriguing at the same time.""}","","","","","","","","","","","","","","","","","","","","","","",""
"3281.699999988079","","image-slider-response","218","1003087","0.0-217.0","A3MD34XEB4H6JF","","","","","4","","","","","","","","","","","","","","","","","","","","","",""
"null","","image-button-response","219","1008089","0.0-218.0","A3MD34XEB4H6JF","img_art/5.jpg","null","","","","","","","","","","","","","","","","","","","","","","","","",""
"2054","","image-button-response","220","1010144","0.0-219.0","A3MD34XEB4H6JF","img_art/5.jpg","0","","","","","","","","","","","","","","","","","","","","","","","","",""
"1141","","image-button-response","221","1011287","0.0-220.0-0.0","A3MD34XEB4H6JF","img_art/5.jpg","2","","","","","","","","","","","","","","","","","","","","","","","","",""
"1430","","image-button-response","222","1012720","0.0-221.0-0.0","A3MD34XEB4H6JF","img_art/5.jpg","3","","","","","","","","","","","","","","","","","","","","","","","","",""
"null","","html-keyboard-response","223","1014223","0.0-222.0","A3MD34XEB4H6JF","<p style=""font-size: 48px;"">+</p>","","","","","null","allTrialResponses","1500","1","25","img_art/5.jpg","4","Strange, but intriguing at the same time.","Leslie,Cynthia,Allison,Erika,Alexis,Emily","This elicits no reaction in me.,0,380,20","boring and unsure,-25,320,20","Too loud. Dislike the bright yellow.,-5,140,20","Not sure what I'm looking at,-16,100,20","Kindergarten art. I really don't like this style.,-50,100,20","Complete garbage. Looks like a kid drew it.,-50,40,20","Leslie","This elicits no reaction in me.,0,380,20","Allison","Too loud. Dislike the bright yellow.,-5,140,20","Erika","Not sure what I'm looking at,-16,100,20","2"
"3563","","survey-text","224","1017795","0.0-223.0-0.0","A3MD34XEB4H6JF","","","","{""Q0"":""table""}","","","","","","","","","","","","","","","","","","","","","","",""
"18963","","survey-text","225","1036759","0.0-224.0-0.0","A3MD34XEB4H6JF","","","","{""Q0"":""The colors here are beautiful although it looks like a daunting new world.""}","","","","","","","","","","","","","","","","","","","","","","",""
"2204.4000000059605","","image-slider-response","226","1038965","0.0-225.0","A3MD34XEB4H6JF","","","","","26","","","","","","","","","","","","","","","","","","","","","",""
"3179","","image-button-response","227","1043968","0.0-226.0","A3MD34XEB4H6JF","img_art/22.jpg","1","","","","","","","","","","","","","","","","","","","","","","","","",""
"924","","image-button-response","228","1044894","0.0-227.0","A3MD34XEB4H6JF","img_art/22.jpg","1","","","","","","","","","","","","","","","","","","","","","","","","",""
"1284","","image-button-response","229","1046180","0.0-228.0-0.0","A3MD34XEB4H6JF","img_art/22.jpg","5","","","","","","","","","","","","","","","","","","","","","","","","",""
"1644","","image-button-response","230","1047826","0.0-229.0-0.0","A3MD34XEB4H6JF","img_art/22.jpg","3","","","","","","","","","","","","","","","","","","","","","","","","",""
"null","","html-keyboard-response","231","1048328","0.0-230.0","A3MD34XEB4H6JF","<p style=""font-size: 48px;"">+</p>","","","","","null","allTrialResponses","500","1","26","img_art/22.jpg","26","The colors here are beautiful although it looks like a daunting new world.","Leslie,Meghan,Allison,Erika,Kaitlyn,Shannon","The way the colors seem to be reflected is a bit mesmerizing.,10,380,20","really beautiful colors and contrast,30,220,20","Very generic mix of primary colors and shapes. Not a huge fan.,-10,140,20","Beautiful forms, using color to define shape,14,100,20","Would be better if random black object was not present,11,80,20","I think this picture looks interesting because of the way the colors work together.,20,220,20","Meghan","really beautiful colors and contrast,30,220,20","Shannon","I think this picture looks interesting because of the way the colors work together.,20,220,20","Erika","Beautiful forms, using color to define shape,14,100,20","2"
"21777","","survey-text","232","1070112","0.0-231.0-0.0","A3MD34XEB4H6JF","","","","{""Q0"":""It looks like a busy futuristic city, a little bleak in an interesting way.""}","","","","","","","","","","","","","","","","","","","","","","",""
"2393.100000023842","","image-slider-response","233","1072506","0.0-232.0","A3MD34XEB4H6JF","","","","","2","","","","","","","","","","","","","","","","","","","","","",""
"null","","image-button-response","234","1077508","0.0-233.0","A3MD34XEB4H6JF","img_art/11.jpg","null","","","","","","","","","","","","","","","","","","","","","","","","",""
"563","","image-button-response","235","1078073","0.0-234.0","A3MD34XEB4H6JF","img_art/11.jpg","2","","","","","","","","","","","","","","","","","","","","","","","","",""
"894","","image-button-response","236","1078968","0.0-235.0-0.0","A3MD34XEB4H6JF","img_art/11.jpg","5","","","","","","","","","","","","","","","","","","","","","","","","",""
"1780","","image-button-response","237","1080751","0.0-236.0-0.0","A3MD34XEB4H6JF","img_art/11.jpg","3","","","","","","","","","","","","","","","","","","","","","","","","",""
"null","","html-keyboard-response","238","1082260","0.0-237.0","A3MD34XEB4H6JF","<p style=""font-size: 48px;"">+</p>","","","","","null","allTrialResponses","1500","1","27","img_art/11.jpg","2","It looks like a busy futuristic city, a little bleak in an interesting way.","Savannah,Meghan,Brittany,Erika,Rebecca,Shannon","Not quite as abstract as I'd like- It's clearly a dingy city.,-18,200,20","makes me feel dizzy,-37,220,20","It reminds me of telephone wires.,1,40,20","I want to know which skyline the artist is depicting,26,100,20","to me, perfect reflection of the modern commute,32,100,20","This looks like a bridge that has plenty of color.,10,220,20","Brittany","It reminds me of telephone wires.,1,40,20","Shannon","This looks like a bridge that has plenty of color.,10,220,20","Erika","I want to know which skyline the artist is depicting,26,100,20","2"
"17410","","survey-text","239","1099675","0.0-238.0-0.0","A3MD34XEB4H6JF","","","","{""Q0"":""The colors are amazing and it looks like a stormy day on the sea.""}","","","","","","","","","","","","","","","","","","","","","","",""
"2515.5","","image-slider-response","240","1102194","0.0-239.0","A3MD34XEB4H6JF","","","","","29","","","","","","","","","","","","","","","","","","","","","",""
"3967","","image-button-response","241","1107197","0.0-240.0","A3MD34XEB4H6JF","img_art/21.jpg","4","","","","","","","","","","","","","","","","","","","","","","","","",""
"542","","image-button-response","242","1107741","0.0-241.0","A3MD34XEB4H6JF","img_art/21.jpg","4","","","","","","","","","","","","","","","","","","","","","","","","",""
"852","","image-button-response","243","1108595","0.0-242.0-0.0","A3MD34XEB4H6JF","img_art/21.jpg","1","","","","","","","","","","","","","","","","","","","","","","","","",""
"1140","","image-button-response","244","1109737","0.0-243.0-0.0","A3MD34XEB4H6JF","img_art/21.jpg","0","","","","","","","","","","","","","","","","","","","","","","","","",""
"null","","html-keyboard-response","245","1111239","0.0-244.0","A3MD34XEB4H6JF","<p style=""font-size: 48px;"">+</p>","","","","","null","allTrialResponses","1500","1","28","img_art/21.jpg","29","The colors are amazing and it looks like a stormy day on the sea.","Kelly,Sarah,Brittany,Erika,Diana,Shannon","It actually reminded me of a place I've been to. So I had a positive reaction to it.,22,220,20","I love the section of blues, the colors overall are really lovely,31,180,20","Alright. I like the colors.,5,40,20","Indistinct, but beautiful hues,10,100,20","Makes me feel light and airy. Like I've gone back in time to 1700th century France.,43,380,20","I like the sky a little bit the way the colors look for the sky, the cliff side looks a little weird though.,10,220,20","Diana","Makes me feel light and airy. Like I've gone back in time to 1700th century France.,43,380,20","Sarah","I love the section of blues, the colors overall are really lovely,31,180,20","Kelly","It actually reminded me of a place I've been to. So I had a positive reaction to it.,22,220,20","2"
"15625","","survey-text","246","1126871","0.0-245.0-0.0","A3MD34XEB4H6JF","","","","{""Q0"":""Kind of on the sad side but beautiful like a dream too.""}","","","","","","","","","","","","","","","","","","","","","","",""
"2003.199999988079","","image-slider-response","247","1128876","0.0-246.0","A3MD34XEB4H6JF","","","","","8","","","","","","","","","","","","","","","","","","","","","",""
"null","","image-button-response","248","1133886","0.0-247.0","A3MD34XEB4H6JF","img_art/27.jpg","null","","","","","","","","","","","","","","","","","","","","","","","","",""
"633","","image-button-response","249","1134522","0.0-248.0","A3MD34XEB4H6JF","img_art/27.jpg","4","","","","","","","","","","","","","","","","","","","","","","","","",""
"958","","image-button-response","250","1135482","0.0-249.0-0.0","A3MD34XEB4H6JF","img_art/27.jpg","5","","","","","","","","","","","","","","","","","","","","","","","","",""
"1236","","image-button-response","251","1136721","0.0-250.0-0.0","A3MD34XEB4H6JF","img_art/27.jpg","1","","","","","","","","","","","","","","","","","","","","","","","","",""
"null","","html-keyboard-response","252","1138224","0.0-251.0","A3MD34XEB4H6JF","<p style=""font-size: 48px;"">+</p>","","","","","null","allTrialResponses","1500","1","29","img_art/27.jpg","8","Kind of on the sad side but beautiful like a dream too.","Kelly,Sarah,Jamie,Megan,Diana,Michaela","The green stick drawings or whatever they are ruin it for me.,-23,220,20","i don't think i should like this one because it's a little chaotic and simple but I do,6,180,20","Don't like the mix of green with the warmer colors,-15,320,20","Nice back ground with childish scribble on top,-30,200,20","I don't care for the green scribbles; not sure what they are. But I adore the colors in the background.,24,380,20","It looks like a kid colored a picture and an adult added to it,19,260,20","Diana","I don't care for the green scribbles; not sure what they are. But I adore the colors in the background.,24,380,20","Michaela","It looks like a kid colored a picture and an adult added to it,19,260,20","Sarah","i don't think i should like this one because it's a little chaotic and simple but I do,6,180,20","2"
"11398","","survey-text","253","1149629","0.0-252.0-0.0","A3MD34XEB4H6JF","","","","{""Q0"":""Interesting...I like the colors.""}","","","","","","","","","","","","","","","","","","","","","","",""
"2789","","image-slider-response","254","1152420","0.0-253.0","A3MD34XEB4H6JF","","","","","4","","","","","","","","","","","","","","","","","","","","","",""
"4624","","image-button-response","255","1157423","0.0-254.0","A3MD34XEB4H6JF","img_art/13.jpg","4","","","","","","","","","","","","","","","","","","","","","","","","",""
"727","","image-button-response","256","1158152","0.0-255.0","A3MD34XEB4H6JF","img_art/13.jpg","4","","","","","","","","","","","","","","","","","","","","","","","","",""
"1134","","image-button-response","257","1159287","0.0-256.0-0.0","A3MD34XEB4H6JF","img_art/13.jpg","2","","","","","","","","","","","","","","","","","","","","","","","","",""
"1622","","image-button-response","258","1160911","0.0-257.0-0.0","A3MD34XEB4H6JF","img_art/13.jpg","3","","","","","","","","","","","","","","","","","","","","","","","","",""
"null","","html-keyboard-response","259","1161418","0.0-258.0","A3MD34XEB4H6JF","<p style=""font-size: 48px;"">+</p>","","","","","null","allTrialResponses","500","1","30","img_art/13.jpg","4","Interesting...I like the colors.","Cassandra,Sarah,Isabella,Hannah,Diana,Michaela","I love the colors and the texture,37,120,20","this is an appealing mix of textures to me and the color scheme is harmonious,36,180,20","Rain drops on a window,35,280,20","Like this a lot and would hang in my house.,27,240,20","I really loved the color contrast. Having the white stripe in the center makes the it appear 3D.,11,380,20","The colors are really pretty together,39,260,20","Diana","I really loved the color contrast. Having the white stripe in the center makes the it appear 3D.,11,380,20","Isabella","Rain drops on a window,35,280,20","Hannah","Like this a lot and would hang in my house.,27,240,20","2"
"4472","","image-button-response_instructions","260","1165899","0.0-259.0","A3MD34XEB4H6JF","","0","instructions","","","","","","","","","","","","","","","","","","","","","","","",""
"1280","","image-button-response","261","1167187","0.0-260.0","A3MD34XEB4H6JF","","0","","","","","","","","","","","","","","","","","","","","","","","","",""
