"rt","url","trial_type","trial_index","time_elapsed","internal_node_id","participant_id","stimulus","button_pressed","Name","responses","response","key_press","variableName","fixationTime","condition","trial","photo","subjectRating","subjectResponse","agentsNames","agent_1_Response","agent_2_Response","agent_3_Response","agent_4_Response","agent_5_Response","agent_6_Response","kept_1_name","kept_1_response","kept_2_name","kept_2_response","kept_3_name","kept_3_response","errorCounter"
"9725","external_page_harvard.html","external-html","0","9821","0.0-0.0","A3MQIWEN8M5N1Z","","","","","","","","","","","","","","","","","","","","","","","","","","",""
"2334","","image-button-response","1","12156","0.0-1.0","A3MQIWEN8M5N1Z","","0","","","","","","","","","","","","","","","","","","","","","","","","",""
"2947","","image-button-response","2","15108","0.0-2.0-0.0","A3MQIWEN8M5N1Z","","1","phone","","","","","","","","","","","","","","","","","","","","","","","",""
"3942","","survey-text","3","19052","0.0-3.0-0.0","A3MQIWEN8M5N1Z","","","","{""Q0"":""A3MQIWEN8M5N1Z""}","","","","","","","","","","","","","","","","","","","","","","",""
"11830","","image-button-response_instructions","4","30884","0.0-4.0","A3MQIWEN8M5N1Z","","0","instructions","","","","","","","","","","","","","","","","","","","","","","","",""
"18615","","image-button-response_instructions","5","49500","0.0-5.0","A3MQIWEN8M5N1Z","img_art/ins/popularity/ins1.png","0","instructions","","","","","","","","","","","","","","","","","","","","","","","",""
"8846","","image-button-response_instructions","6","58348","0.0-6.0","A3MQIWEN8M5N1Z","img_art/ins/popularity/ins2.png","0","instructions","","","","","","","","","","","","","","","","","","","","","","","",""
"4375","","image-button-response_instructions","7","62724","0.0-7.0","A3MQIWEN8M5N1Z","img_art/ins/popularity/ins2Extreme.png","0","instructions","","","","","","","","","","","","","","","","","","","","","","","",""
"4735","","image-button-response_instructions","8","67460","0.0-8.0","A3MQIWEN8M5N1Z","img_art/ins/popularity/ins3KEEPpop.PNG","0","instructions","","","","","","","","","","","","","","","","","","","","","","","",""
"4039","","image-button-response_instructions","9","71500","0.0-9.0","A3MQIWEN8M5N1Z","img_art/ins/popularity/ins3ANamepop.PNG","0","instructions","","","","","","","","","","","","","","","","","","","","","","","",""
"3046","","image-button-response_instructions","10","74548","0.0-10.0","A3MQIWEN8M5N1Z","img_art/ins/popularity/ins3ARatingpop.png","0","instructions","","","","","","","","","","","","","","","","","","","","","","","",""
"2831","","image-button-response_instructions","11","77380","0.0-11.0","A3MQIWEN8M5N1Z","img_art/ins/popularity/ins3ATextpop.png","0","instructions","","","","","","","","","","","","","","","","","","","","","","","",""
"8503","","image-button-response_instructions","12","85884","0.0-12.0","A3MQIWEN8M5N1Z","img_art/ins/popularity/ins3ALikespop.png","0","instructions","","","","","","","","","","","","","","","","","","","","","","","",""
"7167","","image-button-response_instructions","13","93052","0.0-13.0","A3MQIWEN8M5N1Z","img_art/ins/popularity/ins3KEEPpop.PNG","0","instructions","","","","","","","","","","","","","","","","","","","","","","","",""
"3807","","image-button-response_instructions","14","96860","0.0-14.0","A3MQIWEN8M5N1Z","img_art/ins/popularity/ins3_5RED.png","0","instructions","","","","","","","","","","","","","","","","","","","","","","","",""
"2342","","image-button-response_instructions","15","99204","0.0-15.0","A3MQIWEN8M5N1Z","img_art/ins/popularity/ins3KEEPpop.PNG","0","instructions","","","","","","","","","","","","","","","","","","","","","","","",""
"6263","","image-button-response_instructions","16","105468","0.0-16.0","A3MQIWEN8M5N1Z","img_art/ins/popularity/ins4KEEPpop.PNG","0","instructions","","","","","","","","","","","","","","","","","","","","","","","",""
"2878","","image-button-response_instructions","17","108348","0.0-17.0","A3MQIWEN8M5N1Z","img_art/ins/popularity/ins5KEEPpop.PNG","0","instructions","","","","","","","","","","","","","","","","","","","","","","","",""
"1175","","image-button-response_instructions","18","109524","0.0-18.0","A3MQIWEN8M5N1Z","","0","instructions","","","","","","","","","","","","","","","","","","","","","","","",""
"4499","","survey-text","19","114044","0.0-19.0-0.0","A3MQIWEN8M5N1Z","","","","{""Q0"":""but""}","","","","","","","","","","","","","","","","","","","","","","",""
"21000","","survey-text","20","135045","0.0-20.0-0.0","A3MQIWEN8M5N1Z","","","","{""Q0"":""flowing nature, water at dawn?""}","","","","","","","","","","","","","","","","","","","","","","",""
"2475","","image-slider-response","21","137525","0.0-21.0","A3MQIWEN8M5N1Z","","","","","42","","","","","","","","","","","","","","","","","","","","","",""
"3901","","image-button-response","22","142538","0.0-22.0","A3MQIWEN8M5N1Z","img_art/ins/1.jpg","5","","","","","","","","","","","","","","","","","","","","","","","","",""
"1318","","image-button-response","23","143860","0.0-23.0","A3MQIWEN8M5N1Z","img_art/ins/1.jpg","5","","","","","","","","","","","","","","","","","","","","","","","","",""
"2895","","image-button-response","24","146756","0.0-24.0-0.0","A3MQIWEN8M5N1Z","img_art/ins/1.jpg","1","","","","","","","","","","","","","","","","","","","","","","","","",""
"1326","","image-button-response","25","148084","0.0-25.0-0.0","A3MQIWEN8M5N1Z","img_art/ins/1.jpg","3","","","","","","","","","","","","","","","","","","","","","","","","",""
"null","","html-keyboard-response","26","149592","0.0-26.0","A3MQIWEN8M5N1Z","<p style=""font-size: 48px;"">+</p>","","","","","null","allTrialResponses","1500","1","-2","img_art/ins/1.jpg","42","flowing nature, water at dawn?","Adam,Alex,Ben,Carl,Daniel,Jack","Seems like doodles,-20,20,20","very creative work.,36,40,20","This color reminds me of poo,-46,60,20","very calming artwork,42,80,20","It looks like a murder scene.,-48,100,20","I like the sophisticated brushwork,40,120,20","Jack","I like the sophisticated brushwork,40,120,20","Alex","very creative work.,36,40,20","Carl","very calming artwork,42,80,20","0"
"25253","","survey-text","27","174868","0.0-27.0-0.0","A3MQIWEN8M5N1Z","","","","{""Q0"":""a lot of paint, a harsh prison""}","","","","","","","","","","","","","","","","","","","","","","",""
"2870","","image-slider-response","28","177740","0.0-28.0","A3MQIWEN8M5N1Z","","","","","9","","","","","","","","","","","","","","","","","","","","","",""
"2151","","image-button-response","29","182754","0.0-29.0","A3MQIWEN8M5N1Z","img_art/ins/2.jpg","1","","","","","","","","","","","","","","","","","","","","","","","","",""
"2831","","image-button-response","30","185588","0.0-30.0","A3MQIWEN8M5N1Z","img_art/ins/2.jpg","1","","","","","","","","","","","","","","","","","","","","","","","","",""
"2030","","image-button-response","31","187619","0.0-31.0-0.0","A3MQIWEN8M5N1Z","img_art/ins/2.jpg","4","","","","","","","","","","","","","","","","","","","","","","","","",""
"1463","","image-button-response","32","189085","0.0-32.0-0.0","A3MQIWEN8M5N1Z","img_art/ins/2.jpg","3","","","","","","","","","","","","","","","","","","","","","","","","",""
"null","","html-keyboard-response","33","189596","0.0-33.0","A3MQIWEN8M5N1Z","<p style=""font-size: 48px;"">+</p>","","","","","null","allTrialResponses","500","1","-1","img_art/ins/2.jpg","9","a lot of paint, a harsh prison","James,Alex,Kyle,Carl,John,Jack","looks too angry,-50,140,20","I like the blocks of color arrangements,30,40,20","Idk, it is just annoying,-32,180,20","I can feel the artist's passion in it,45,80,20","love the texture of paint,48,160,20","I would never be able to compose a sophisticated pallete like this,48,120,20","Alex","I like the blocks of color arrangements,30,40,20","John","love the texture of paint,48,160,20","Carl","I can feel the artist's passion in it,45,80,20","0"
"36885","","survey-text","34","226508","0.0-34.0-0.0","A3MQIWEN8M5N1Z","","","","{""Q0"":""multiple ways of attacking the canvas, is that a face in the snowstorm?""}","","","","","","","","","","","","","","","","","","","","","","",""
"3980","","image-slider-response","35","230492","0.0-35.0","A3MQIWEN8M5N1Z","","","","","19","","","","","","","","","","","","","","","","","","","","","",""
"2277","","image-button-response","36","235498","0.0-36.0","A3MQIWEN8M5N1Z","img_art/ins/3.jpg","1","","","","","","","","","","","","","","","","","","","","","","","","",""
"537","","image-button-response","37","236036","0.0-37.0","A3MQIWEN8M5N1Z","img_art/ins/3.jpg","0","","","","","","","","","","","","","","","","","","","","","","","","",""
"1359","","image-button-response","38","237396","0.0-38.0-0.0","A3MQIWEN8M5N1Z","img_art/ins/3.jpg","1","","","","","","","","","","","","","","","","","","","","","","","","",""
"2751","","image-button-response","39","240148","0.0-39.0-0.0","A3MQIWEN8M5N1Z","img_art/ins/3.jpg","0","","","","","","","","","","","","","","","","","","","","","","","","",""
"5025","","image-button-response","40","251060","0.0-39.1-0.1","A3MQIWEN8M5N1Z","img_art/ins/3.jpg","4","","","","","","","","","","","","","","","","","","","","","","","","",""
"null","","html-keyboard-response","41","252067","0.0-40.0","A3MQIWEN8M5N1Z","<p style=""font-size: 48px;"">+</p>","","","","","null","allTrialResponses","1000","1","0","img_art/ins/3.jpg","19","multiple ways of attacking the canvas, is that a face in the snowstorm?","Mike,Alex,Ron,Carl,John,Sam","enjoy the different shades of blue,22,200,20","calming blue is very nice,36,40,20","It looks depressing,-26,220,20","It's an alright work,15,80,20","I like the overlapping of brushes,41,160,20","I can feel a rainy day from this painting,18,240,20","Mike","enjoy the different shades of blue,22,200,20","Alex","calming blue is very nice,36,40,20","John","I like the overlapping of brushes,41,160,20","2"
"4552","","image-button-response_instructions","42","256644","0.0-41.0","A3MQIWEN8M5N1Z","","0","instructions","","","","","","","","","","","","","","","","","","","","","","","",""
"11007","","survey-likert","43","267654","0.0-42.0-0.0","A3MQIWEN8M5N1Z","","","","{""Q0"":"""",""Q1"":0,""Q2"":1}","","","","","","","","","","","","","","","","","","","","","","",""
"4246","","survey-text","44","271908","0.0-43.0-0.0","A3MQIWEN8M5N1Z","","","","{""Q0"":""rock""}","","","","","","","","","","","","","","","","","","","","","","",""
"22206","","survey-text","45","294116","0.0-44.0-0.0","A3MQIWEN8M5N1Z","","","","{""Q0"":""there is so much to see with such a spare style""}","","","","","","","","","","","","","","","","","","","","","","",""
"2566","","image-slider-response","46","296684","0.0-45.0","A3MQIWEN8M5N1Z","","","","","30","","","","","","","","","","","","","","","","","","","","","",""
"2390","","image-button-response","47","301716","0.0-46.0","A3MQIWEN8M5N1Z","img_art/14.jpg","1","","","","","","","","","","","","","","","","","","","","","","","","",""
"4869","","image-button-response","48","306588","0.0-47.0","A3MQIWEN8M5N1Z","img_art/14.jpg","5","","","","","","","","","","","","","","","","","","","","","","","","",""
"2063","","image-button-response","49","308652","0.0-48.0-0.0","A3MQIWEN8M5N1Z","img_art/14.jpg","2","","","","","","","","","","","","","","","","","","","","","","","","",""
"1199","","image-button-response","50","309852","0.0-49.0-0.0","A3MQIWEN8M5N1Z","img_art/14.jpg","1","","","","","","","","","","","","","","","","","","","","","","","","",""
"null","","html-keyboard-response","51","311365","0.0-50.0","A3MQIWEN8M5N1Z","<p style=""font-size: 48px;"">+</p>","","","","","null","allTrialResponses","1500","1","1","img_art/14.jpg","30","there is so much to see with such a spare style","Alexander,Spencer,Carlos,Mark,Hunter,Richard","Angled, colored, boxy.,10,120,20","I like the simplicity along with the colors,27,120,20","The lighting feels like spring.,20,80,20","Cute little plant.,15,80,20","makes me feel sad,-2,240,20","the colors are peaceful and nature colors, soft,37,340,20","Richard","the colors are peaceful and nature colors, soft,37,340,20","Carlos","The lighting feels like spring.,20,80,20","Spencer","I like the simplicity along with the colors,27,120,20","2"
"23071","","survey-text","52","334444","0.0-51.0-0.0","A3MQIWEN8M5N1Z","","","","{""Q0"":""turbulent, impressive scale""}","","","","","","","","","","","","","","","","","","","","","","",""
"3069","","image-slider-response","53","337516","0.0-52.0","A3MQIWEN8M5N1Z","","","","","24","","","","","","","","","","","","","","","","","","","","","",""
"2663","","image-button-response","54","342535","0.0-53.0","A3MQIWEN8M5N1Z","img_art/21.jpg","2","","","","","","","","","","","","","","","","","","","","","","","","",""
"731","","image-button-response","55","343268","0.0-54.0","A3MQIWEN8M5N1Z","img_art/21.jpg","1","","","","","","","","","","","","","","","","","","","","","","","","",""
"2510","","image-button-response","56","345780","0.0-55.0-0.0","A3MQIWEN8M5N1Z","img_art/21.jpg","0","","","","","","","","","","","","","","","","","","","","","","","","",""
"1702","","image-button-response","57","347485","0.0-56.0-0.0","A3MQIWEN8M5N1Z","img_art/21.jpg","2","","","","","","","","","","","","","","","","","","","","","","","","",""
"null","","html-keyboard-response","58","348495","0.0-57.0","A3MQIWEN8M5N1Z","<p style=""font-size: 48px;"">+</p>","","","","","null","allTrialResponses","1000","1","2","img_art/21.jpg","24","turbulent, impressive scale","Juan,Spencer,Carlos,Gregory,Steven,Richard","The colors and softness work together to make something that's lovely.,42,260,20","Love the colors, uplifting and stormy at the same time,32,120,20","Motion, the light marks in the lower right corner are very appealing.,15,80,20","Contrast of fire and water looks cool,20,220,20","Okay, I love the color schemes, I can't quite figure it out though,14,160,20","setting sun sky? nice colors and blending,14,340,20","Spencer","Love the colors, uplifting and stormy at the same time,32,120,20","Juan","The colors and softness work together to make something that's lovely.,42,260,20","Carlos","Motion, the light marks in the lower right corner are very appealing.,15,80,20","2"
"39617","","survey-text","59","388124","0.0-58.0-0.0","A3MQIWEN8M5N1Z","","","","{""Q0"":""this one is a little macabre. I can almost see the story, are we running from a spirit?""}","","","","","","","","","","","","","","","","","","","","","","",""
"2991","","image-slider-response","60","391116","0.0-59.0","A3MQIWEN8M5N1Z","","","","","29","","","","","","","","","","","","","","","","","","","","","",""
"2895","","image-button-response","61","396136","0.0-60.0","A3MQIWEN8M5N1Z","img_art/18.jpg","1","","","","","","","","","","","","","","","","","","","","","","","","",""
"3777","","image-button-response","62","399915","0.0-61.0","A3MQIWEN8M5N1Z","img_art/18.jpg","5","","","","","","","","","","","","","","","","","","","","","","","","",""
"1511","","image-button-response","63","401428","0.0-62.0-0.0","A3MQIWEN8M5N1Z","img_art/18.jpg","4","","","","","","","","","","","","","","","","","","","","","","","","",""
"2095","","image-button-response","64","403524","0.0-63.0-0.0","A3MQIWEN8M5N1Z","img_art/18.jpg","3","","","","","","","","","","","","","","","","","","","","","","","","",""
"null","","html-keyboard-response","65","404045","0.0-64.0","A3MQIWEN8M5N1Z","<p style=""font-size: 48px;"">+</p>","","","","","null","allTrialResponses","500","1","3","img_art/18.jpg","29","this one is a little macabre. I can almost see the story, are we running from a spirit?","Juan,Spencer,Carlos,Chase,Marcus,Dalton","Again, this is too abtract.,-25,260,20","I really like it, like hells drivers,43,120,20","It is too busy, but the colors are pleasant.,15,80,20","Kinda neat, looks like cavalry, or a knight.,15,120,20","like the grays and contrast of the yellow. This piece feels a bit angry,10,60,20","i like the colors in the picture and can make out my own images,42,300,20","Dalton","i like the colors in the picture and can make out my own images,42,300,20","Marcus","like the grays and contrast of the yellow. This piece feels a bit angry,10,60,20","Chase","Kinda neat, looks like cavalry, or a knight.,15,120,20","2"
"24969","","survey-text","66","429027","0.0-65.0-0.0","A3MQIWEN8M5N1Z","","","","{""Q0"":""this one makes me sad and reflects an anguished inner life""}","","","","","","","","","","","","","","","","","","","","","","",""
"2878","","image-slider-response","67","431908","0.0-66.0","A3MQIWEN8M5N1Z","","","","","24","","","","","","","","","","","","","","","","","","","","","",""
"null","","image-button-response","68","436915","0.0-67.0","A3MQIWEN8M5N1Z","img_art/9.jpg","null","","","","","","","","","","","","","","","","","","","","","","","","",""
"5533","","image-button-response","69","442452","0.0-68.0","A3MQIWEN8M5N1Z","img_art/9.jpg","5","","","","","","","","","","","","","","","","","","","","","","","","",""
"1551","","image-button-response","70","444004","0.0-69.0-0.0","A3MQIWEN8M5N1Z","img_art/9.jpg","0","","","","","","","","","","","","","","","","","","","","","","","","",""
"847","","image-button-response","71","444852","0.0-70.0-0.0","A3MQIWEN8M5N1Z","img_art/9.jpg","0","","","","","","","","","","","","","","","","","","","","","","","","",""
"1322","","image-button-response","72","448755","0.0-70.1-0.1","A3MQIWEN8M5N1Z","img_art/9.jpg","1","","","","","","","","","","","","","","","","","","","","","","","","",""
"null","","html-keyboard-response","73","449262","0.0-71.0","A3MQIWEN8M5N1Z","<p style=""font-size: 48px;"">+</p>","","","","","null","allTrialResponses","500","1","4","img_art/9.jpg","24","this one makes me sad and reflects an anguished inner life","Caleb,Ethan,Kevin,Chase,Marcus,Dalton","Unfinished, weird composition.,-34,40,20","How neat is this piece?  I love the angry expressive lines. Emotion is captured in it.,26,120,20","This is a picture of a scary mans head sideways.,-24,320,20","Looks like a sloppy iguana.,-11,120,20","This painting feels too jumbled for me to like it.,-12,60,20","a mother in bed surrounded by emotions,1,300,20","Dalton","a mother in bed surrounded by emotions,1,300,20","Caleb","Unfinished, weird composition.,-34,40,20","Ethan","How neat is this piece?  I love the angry expressive lines. Emotion is captured in it.,26,120,20","4"
"25138","","survey-text","74","474412","0.0-72.0-0.0","A3MQIWEN8M5N1Z","","","","{""Q0"":""orderly yet scrambled""}","","","","","","","","","","","","","","","","","","","","","","",""
"3207","","image-slider-response","75","477620","0.0-73.0","A3MQIWEN8M5N1Z","","","","","20","","","","","","","","","","","","","","","","","","","","","",""
"2671","","image-button-response","76","482634","0.0-74.0","A3MQIWEN8M5N1Z","img_art/12.jpg","2","","","","","","","","","","","","","","","","","","","","","","","","",""
"200","","image-button-response","77","482836","0.0-75.0","A3MQIWEN8M5N1Z","img_art/12.jpg","5","","","","","","","","","","","","","","","","","","","","","","","","",""
"3407","","image-button-response","78","486244","0.0-76.0-0.0","A3MQIWEN8M5N1Z","img_art/12.jpg","0","","","","","","","","","","","","","","","","","","","","","","","","",""
"1222","","image-button-response","79","487467","0.0-77.0-0.0","A3MQIWEN8M5N1Z","img_art/12.jpg","2","","","","","","","","","","","","","","","","","","","","","","","","",""
"null","","html-keyboard-response","80","488983","0.0-78.0","A3MQIWEN8M5N1Z","<p style=""font-size: 48px;"">+</p>","","","","","null","allTrialResponses","1500","1","5","img_art/12.jpg","20","orderly yet scrambled","Caleb,Ethan,Evan,Ian,Taylor,Dalton","Almost natural flowing between abstract sections.,27,40,20","The colors are ok. The piece reminds me of the 90s era, so I kinda like it!,-4,120,20","It reminds me of the documentary Paris is Burning, though I'm not sure why,11,140,20","This is like going to a really old mcdoanlds in a tiny town and it's never been renovated so it's breaking down,-31,260,20","Just wish it was more colorful.,20,200,20","beautiful also reminds me of a quilt,1,300,20","Dalton","beautiful also reminds me of a quilt,1,300,20","Caleb","Almost natural flowing between abstract sections.,27,40,20","Evan","It reminds me of the documentary Paris is Burning, though I'm not sure why,11,140,20","4"
"3499","","survey-text","81","492508","0.0-79.0-0.0","A3MQIWEN8M5N1Z","","","","{""Q0"":""sky""}","","","","","","","","","","","","","","","","","","","","","","",""
"35280","","survey-text","82","527788","0.0-80.0-0.0","A3MQIWEN8M5N1Z","","","","{""Q0"":""what does the key symbolize? Is it about to fall under the surface of the water to be lost forever?""}","","","","","","","","","","","","","","","","","","","","","","",""
"2510","","image-slider-response","83","530300","0.0-81.0","A3MQIWEN8M5N1Z","","","","","10","","","","","","","","","","","","","","","","","","","","","",""
"2232","","image-button-response","84","535314","0.0-82.0","A3MQIWEN8M5N1Z","img_art/22.jpg","2","","","","","","","","","","","","","","","","","","","","","","","","",""
"398","","image-button-response","85","535715","0.0-83.0","A3MQIWEN8M5N1Z","img_art/22.jpg","1","","","","","","","","","","","","","","","","","","","","","","","","",""
"1183","","image-button-response","86","536900","0.0-84.0-0.0","A3MQIWEN8M5N1Z","img_art/22.jpg","2","","","","","","","","","","","","","","","","","","","","","","","","",""
"1791","","image-button-response","87","538692","0.0-85.0-0.0","A3MQIWEN8M5N1Z","img_art/22.jpg","5","","","","","","","","","","","","","","","","","","","","","","","","",""
"null","","html-keyboard-response","88","540204","0.0-86.0","A3MQIWEN8M5N1Z","<p style=""font-size: 48px;"">+</p>","","","","","null","allTrialResponses","1500","1","6","img_art/22.jpg","10","what does the key symbolize? Is it about to fall under the surface of the water to be lost forever?","Caleb,Bryce,Evan,Stephen,Bradley,Dalton","Seems too simple.,-19,40,20","So colorful i love it!,22,20,20","I enjoy the vibrant colors,23,140,20","Didn't illicit any reaction,1,140,20","I like this one. There is a lot to see if you keep looking for it.,27,300,20","i think its pretty but im not sure what i see,1,300,20","Bryce","So colorful i love it!,22,20,20","Evan","I enjoy the vibrant colors,23,140,20","Dalton","i think its pretty but im not sure what i see,1,300,20","4"
"36452","","survey-text","89","576668","0.0-87.0-0.0","A3MQIWEN8M5N1Z","","","","{""Q0"":""willful and sloppy""}","","","","","","","","","","","","","","","","","","","","","","",""
"2910","","image-slider-response","90","579579","0.0-88.0","A3MQIWEN8M5N1Z","","","","","-7","","","","","","","","","","","","","","","","","","","","","",""
"null","","image-button-response","91","584594","0.0-89.0","A3MQIWEN8M5N1Z","img_art/29.jpg","null","","","","","","","","","","","","","","","","","","","","","","","","",""
"367","","image-button-response","92","584964","0.0-90.0","A3MQIWEN8M5N1Z","img_art/29.jpg","1","","","","","","","","","","","","","","","","","","","","","","","","",""
"2871","","image-button-response","93","587836","0.0-91.0-0.0","A3MQIWEN8M5N1Z","img_art/29.jpg","4","","","","","","","","","","","","","","","","","","","","","","","","",""
"1671","","image-button-response","94","589508","0.0-92.0-0.0","A3MQIWEN8M5N1Z","img_art/29.jpg","5","","","","","","","","","","","","","","","","","","","","","","","","",""
"null","","html-keyboard-response","95","591014","0.0-93.0","A3MQIWEN8M5N1Z","<p style=""font-size: 48px;"">+</p>","","","","","null","allTrialResponses","1500","1","7","img_art/29.jpg","-7","willful and sloppy","Tristan,Bryce,Evan,Isaac,Blake,Dalton","The textures bring this painting alive. A window to another existence with infinite possibility.,25,300,20","Its kinda scary,-35,20,20","It makes me feel as though the artist put in a lot of time and effort and then gave up,10,140,20","It is intriguing but I don't like the red X.,6,280,20","a hot fireplace with things to burn. warm,12,280,20","i dont know how it makes me feel.,1,300,20","Bryce","Its kinda scary,-35,20,20","Blake","a hot fireplace with things to burn. warm,12,280,20","Dalton","i dont know how it makes me feel.,1,300,20","4"
"22322","","survey-text","96","613348","0.0-94.0-0.0","A3MQIWEN8M5N1Z","","","","{""Q0"":""I feel like the artist's signature is being stalked by something scary""}","","","","","","","","","","","","","","","","","","","","","","",""
"2358","","image-slider-response","97","615708","0.0-95.0","A3MQIWEN8M5N1Z","","","","","-3","","","","","","","","","","","","","","","","","","","","","",""
"2352","","image-button-response","98","620724","0.0-96.0","A3MQIWEN8M5N1Z","img_art/15.jpg","2","","","","","","","","","","","","","","","","","","","","","","","","",""
"1476","","image-button-response","99","622204","0.0-97.0","A3MQIWEN8M5N1Z","img_art/15.jpg","3","","","","","","","","","","","","","","","","","","","","","","","","",""
"1463","","image-button-response","100","623668","0.0-98.0-0.0","A3MQIWEN8M5N1Z","img_art/15.jpg","4","","","","","","","","","","","","","","","","","","","","","","","","",""
"1366","","image-button-response","101","625036","0.0-99.0-0.0","A3MQIWEN8M5N1Z","img_art/15.jpg","2","","","","","","","","","","","","","","","","","","","","","","","","",""
"null","","html-keyboard-response","102","626052","0.0-100.0","A3MQIWEN8M5N1Z","<p style=""font-size: 48px;"">+</p>","","","","","null","allTrialResponses","1000","1","8","img_art/15.jpg","-3","I feel like the artist's signature is being stalked by something scary","Jeremy,Bryce,Tanner,Cole,Blake,Dalton","I feel nothing when looking at this,1,60,20","The dots are cool with the blue accents.,24,20,20","darkness, hatred, fear,-29,180,20","It reminds me of when you look up into a tree,21,200,20","ugly picture and don't like it,-22,280,20","black leaves makes the blue birds stand out.,1,300,20","Cole","It reminds me of when you look up into a tree,21,200,20","Blake","ugly picture and don't like it,-22,280,20","Tanner","darkness, hatred, fear,-29,180,20","4"
"19163","","survey-text","103","645228","0.0-101.0-0.0","A3MQIWEN8M5N1Z","","","","{""Q0"":""this person has seen a lot of blood, on their window?""}","","","","","","","","","","","","","","","","","","","","","","",""
"4415","","image-slider-response","104","649644","0.0-102.0","A3MQIWEN8M5N1Z","","","","","4","","","","","","","","","","","","","","","","","","","","","",""
"null","","image-button-response","105","654653","0.0-103.0","A3MQIWEN8M5N1Z","img_art/3.jpg","null","","","","","","","","","","","","","","","","","","","","","","","","",""
"3301","","image-button-response","106","657956","0.0-104.0","A3MQIWEN8M5N1Z","img_art/3.jpg","5","","","","","","","","","","","","","","","","","","","","","","","","",""
"1231","","image-button-response","107","659188","0.0-105.0-0.0","A3MQIWEN8M5N1Z","img_art/3.jpg","3","","","","","","","","","","","","","","","","","","","","","","","","",""
"1367","","image-button-response","108","660556","0.0-106.0-0.0","A3MQIWEN8M5N1Z","img_art/3.jpg","2","","","","","","","","","","","","","","","","","","","","","","","","",""
"null","","html-keyboard-response","109","662074","0.0-107.0","A3MQIWEN8M5N1Z","<p style=""font-size: 48px;"">+</p>","","","","","null","allTrialResponses","1500","1","9","img_art/3.jpg","4","this person has seen a lot of blood, on their window?","Sean,Travis,Tanner,Cole,Blake,Mitchell","my response to the picture is a lot of red, danger,,-21,40,20","I hate this...just a scribble of red.,-50,260,20","anger, blood, death,-24,180,20","Sharp peaks look like sharp teeth,-37,200,20","painted by a 2 year old. cold and boring,-30,280,20","Anger, like something a serial killer may paint.,-30,180,20","Mitchell","Anger, like something a serial killer may paint.,-30,180,20","Cole","Sharp peaks look like sharp teeth,-37,200,20","Tanner","anger, blood, death,-24,180,20","4"
"23570","","survey-text","110","685659","0.0-108.0-0.0","A3MQIWEN8M5N1Z","","","","{""Q0"":""is it growth or is it decay""}","","","","","","","","","","","","","","","","","","","","","","",""
"7159","","image-slider-response","111","692820","0.0-109.0","A3MQIWEN8M5N1Z","","","","","3","","","","","","","","","","","","","","","","","","","","","",""
"null","","image-button-response","112","697824","0.0-110.0","A3MQIWEN8M5N1Z","img_art/4.jpg","null","","","","","","","","","","","","","","","","","","","","","","","","",""
"1483","","image-button-response","113","699308","0.0-111.0","A3MQIWEN8M5N1Z","img_art/4.jpg","4","","","","","","","","","","","","","","","","","","","","","","","","",""
"1023","","image-button-response","114","700332","0.0-112.0-0.0","A3MQIWEN8M5N1Z","img_art/4.jpg","5","","","","","","","","","","","","","","","","","","","","","","","","",""
"2519","","image-button-response","115","702852","0.0-113.0-0.0","A3MQIWEN8M5N1Z","img_art/4.jpg","3","","","","","","","","","","","","","","","","","","","","","","","","",""
"null","","html-keyboard-response","116","704354","0.0-114.0","A3MQIWEN8M5N1Z","<p style=""font-size: 48px;"">+</p>","","","","","null","allTrialResponses","1500","1","10","img_art/4.jpg","3","is it growth or is it decay","Brett,Jacob,Tanner,Cole,Trevor,Mitchell","I just have no clue,26,360,20","Looks like they just smothered on some paint and called it a day.,-17,340,20","stresses me out, uncomfortable,-18,180,20","Fingerpaint of a hand?,-30,200,20","not enough color and too yellow for me. Not my favorite colors,-10,280,20","Hearts, family connected. They are standing on a narrow base and could fall to pieces at anytime.,40,180,20","Trevor","not enough color and too yellow for me. Not my favorite colors,-10,280,20","Mitchell","Hearts, family connected. They are standing on a narrow base and could fall to pieces at anytime.,40,180,20","Cole","Fingerpaint of a hand?,-30,200,20","4"
"3685","","survey-text","117","708060","0.0-115.0-0.0","A3MQIWEN8M5N1Z","","","","{""Q0"":""our""}","","","","","","","","","","","","","","","","","","","","","","",""
"42432","","survey-text","118","750492","0.0-116.0-0.0","A3MQIWEN8M5N1Z","","","","{""Q0"":""a cute portrait""}","","","","","","","","","","","","","","","","","","","","","","",""
"2574","","image-slider-response","119","753068","0.0-117.0","A3MQIWEN8M5N1Z","","","","","-7","","","","","","","","","","","","","","","","","","","","","",""
"3399","","image-button-response","120","758084","0.0-118.0","A3MQIWEN8M5N1Z","img_art/2.jpg","0","","","","","","","","","","","","","","","","","","","","","","","","",""
"660","","image-button-response","121","758747","0.0-119.0","A3MQIWEN8M5N1Z","img_art/2.jpg","3","","","","","","","","","","","","","","","","","","","","","","","","",""
"1430","","image-button-response","122","760180","0.0-120.0-0.0","A3MQIWEN8M5N1Z","img_art/2.jpg","4","","","","","","","","","","","","","","","","","","","","","","","","",""
"1438","","image-button-response","123","761620","0.0-121.0-0.0","A3MQIWEN8M5N1Z","img_art/2.jpg","5","","","","","","","","","","","","","","","","","","","","","","","","",""
"null","","html-keyboard-response","124","762123","0.0-122.0","A3MQIWEN8M5N1Z","<p style=""font-size: 48px;"">+</p>","","","","","null","allTrialResponses","500","1","11","img_art/2.jpg","-7","a cute portrait","Nicholas,Dylan,David,Cole,Trevor,Mitchell","Cute and happy,22,240,20","This is ugly- too plain and busy at the same time,-9,40,20","I feel that its too abstract for me to understand what I'm looking at.,-15,340,20","Childish smiley face,-19,200,20","It looks like a little kids primary color picture,3,280,20","Dependence. Things relying on each other. Caring,-4,180,20","Cole","Childish smiley face,-19,200,20","Trevor","It looks like a little kids primary color picture,3,280,20","Mitchell","Dependence. Things relying on each other. Caring,-4,180,20","4"
"18443","","survey-text","125","780580","0.0-123.0-0.0","A3MQIWEN8M5N1Z","","","","{""Q0"":""a competent rendering""}","","","","","","","","","","","","","","","","","","","","","","",""
"2231","","image-slider-response","126","782812","0.0-124.0","A3MQIWEN8M5N1Z","","","","","-8","","","","","","","","","","","","","","","","","","","","","",""
"null","","image-button-response","127","787824","0.0-125.0","A3MQIWEN8M5N1Z","img_art/26.jpg","null","","","","","","","","","","","","","","","","","","","","","","","","",""
"2418","","image-button-response","128","790244","0.0-126.0","A3MQIWEN8M5N1Z","img_art/26.jpg","3","","","","","","","","","","","","","","","","","","","","","","","","",""
"1079","","image-button-response","129","791324","0.0-127.0-0.0","A3MQIWEN8M5N1Z","img_art/26.jpg","4","","","","","","","","","","","","","","","","","","","","","","","","",""
"1454","","image-button-response","130","792780","0.0-128.0-0.0","A3MQIWEN8M5N1Z","img_art/26.jpg","5","","","","","","","","","","","","","","","","","","","","","","","","",""
"null","","html-keyboard-response","131","794284","0.0-129.0","A3MQIWEN8M5N1Z","<p style=""font-size: 48px;"">+</p>","","","","","null","allTrialResponses","1500","1","12","img_art/26.jpg","-8","a competent rendering","Brendan,Derek,Seth,Cole,Trevor,Mitchell","cool cozy town vibes,50,340,20","Looks messy and like it was painted by a small child,-48,360,20","I'm not sure if this is the image of a furniture store or not.,-20,60,20","Another blob on a landscape. A city street?,9,200,20","looks like a little kids painting,-17,280,20","Incomplete, The artist painted his impression of somthing he was thinking of,0,180,20","Cole","Another blob on a landscape. A city street?,9,200,20","Trevor","looks like a little kids painting,-17,280,20","Mitchell","Incomplete, The artist painted his impression of somthing he was thinking of,0,180,20","4"
"36746","","survey-text","132","831044","0.0-130.0-0.0","A3MQIWEN8M5N1Z","","","","{""Q0"":""festive and druggy. Am I attracted or repelled by the excitement?""}","","","","","","","","","","","","","","","","","","","","","","",""
"2590","","image-slider-response","133","833636","0.0-131.0","A3MQIWEN8M5N1Z","","","","","3","","","","","","","","","","","","","","","","","","","","","",""
"3262","","image-button-response","134","838644","0.0-132.0","A3MQIWEN8M5N1Z","img_art/23.jpg","1","","","","","","","","","","","","","","","","","","","","","","","","",""
"453","","image-button-response","135","839100","0.0-133.0","A3MQIWEN8M5N1Z","img_art/23.jpg","0","","","","","","","","","","","","","","","","","","","","","","","","",""
"823","","image-button-response","136","839924","0.0-134.0-0.0","A3MQIWEN8M5N1Z","img_art/23.jpg","1","","","","","","","","","","","","","","","","","","","","","","","","",""
"2599","","image-button-response","137","842524","0.0-135.0-0.0","A3MQIWEN8M5N1Z","img_art/23.jpg","5","","","","","","","","","","","","","","","","","","","","","","","","",""
"null","","html-keyboard-response","138","843033","0.0-136.0","A3MQIWEN8M5N1Z","<p style=""font-size: 48px;"">+</p>","","","","","null","allTrialResponses","500","1","13","img_art/23.jpg","3","festive and druggy. Am I attracted or repelled by the excitement?","Garrett,Jonathan,Gabriel,Cole,Trevor,Mitchell","I really like the way all the colors look, I think this is a pretty picture.,40,180,20","Those colors are awesome! And I love the strip of negative space that almost looks like a line of people,50,140,20","i think this ones okay,10,160,20","White in the middle look like people dancing naked,19,200,20","nice bright colors but looks like it's from the 90's,6,280,20","Partying, dancing, delusion, kaus.,10,180,20","Garrett","I really like the way all the colors look, I think this is a pretty picture.,40,180,20","Jonathan","Those colors are awesome! And I love the strip of negative space that almost looks like a line of people,50,140,20","Mitchell","Partying, dancing, delusion, kaus.,10,180,20","4"
"23613","","survey-text","139","866660","0.0-137.0-0.0","A3MQIWEN8M5N1Z","","","","{""Q0"":""hopeful maybe, an optomistic scene""}","","","","","","","","","","","","","","","","","","","","","","",""
"2886","","image-slider-response","140","869548","0.0-138.0","A3MQIWEN8M5N1Z","","","","","-7","","","","","","","","","","","","","","","","","","","","","",""
"3415","","image-button-response","141","874554","0.0-139.0","A3MQIWEN8M5N1Z","img_art/6.jpg","0","","","","","","","","","","","","","","","","","","","","","","","","",""
"167","","image-button-response","142","874724","0.0-140.0","A3MQIWEN8M5N1Z","img_art/6.jpg","2","","","","","","","","","","","","","","","","","","","","","","","","",""
"1008","","image-button-response","143","875732","0.0-141.0-0.0","A3MQIWEN8M5N1Z","img_art/6.jpg","0","","","","","","","","","","","","","","","","","","","","","","","","",""
"1062","","image-button-response","144","876796","0.0-142.0-0.0","A3MQIWEN8M5N1Z","img_art/6.jpg","3","","","","","","","","","","","","","","","","","","","","","","","","",""
"null","","html-keyboard-response","145","877803","0.0-143.0","A3MQIWEN8M5N1Z","<p style=""font-size: 48px;"">+</p>","","","","","null","allTrialResponses","1000","1","14","img_art/6.jpg","-7","hopeful maybe, an optomistic scene","Garrett,Jonathan,Kyle,Austin,Tyler,Mitchell","I can't tell what this image is, but it's boring because of lack of color variety and nothing in it,-41,180,20","The colors and rough brush strokes make me nervous,-10,140,20","Simple and clean,11,340,20","Love the simplicity of it,41,240,20","Is this the villain from Despicable Me?,29,320,20","Looking, searching at the same time being content.,30,180,20","Kyle","Simple and clean,11,340,20","Garrett","I can't tell what this image is, but it's boring because of lack of color variety and nothing in it,-41,180,20","Austin","Love the simplicity of it,41,240,20","4"
"13994","","survey-text","146","891812","0.0-144.0-0.0","A3MQIWEN8M5N1Z","","","","{""Q0"":""this is a nostagic piece""}","","","","","","","","","","","","","","","","","","","","","","",""
"2998","","image-slider-response","147","894812","0.0-145.0","A3MQIWEN8M5N1Z","","","","","-7","","","","","","","","","","","","","","","","","","","","","",""
"3208","","image-button-response","148","899830","0.0-146.0","A3MQIWEN8M5N1Z","img_art/16.jpg","4","","","","","","","","","","","","","","","","","","","","","","","","",""
"285","","image-button-response","149","900116","0.0-147.0","A3MQIWEN8M5N1Z","img_art/16.jpg","3","","","","","","","","","","","","","","","","","","","","","","","","",""
"655","","image-button-response","150","900772","0.0-148.0-0.0","A3MQIWEN8M5N1Z","img_art/16.jpg","4","","","","","","","","","","","","","","","","","","","","","","","","",""
"1454","","image-button-response","151","902228","0.0-149.0-0.0","A3MQIWEN8M5N1Z","img_art/16.jpg","1","","","","","","","","","","","","","","","","","","","","","","","","",""
"null","","html-keyboard-response","152","903233","0.0-150.0","A3MQIWEN8M5N1Z","<p style=""font-size: 48px;"">+</p>","","","","","null","allTrialResponses","1000","1","15","img_art/16.jpg","-7","this is a nostagic piece","Garrett,Miguel,Kyle,Austin,Malik,Mason","I think this picture is weird and the colors are very boring.,-50,180,20","Very cool abstraction.,19,160,20","I like it because it's quite different from the rest,23,340,20","Picture seems unique,12,240,20","Very emotional,23,40,20","Don't get it. Hate it. ugly.,-44,100,20","Austin","Picture seems unique,12,240,20","Malik","Very emotional,23,40,20","Miguel","Very cool abstraction.,19,160,20","4"
"3600","","survey-text","153","906860","0.0-151.0-0.0","A3MQIWEN8M5N1Z","","","","{""Q0"":""course""}","","","","","","","","","","","","","","","","","","","","","","",""
"28272","","survey-text","154","935132","0.0-152.0-0.0","A3MQIWEN8M5N1Z","","","","{""Q0"":""whoa, is this what becomes of industrialization?""}","","","","","","","","","","","","","","","","","","","","","","",""
"6798","","image-slider-response","155","941932","0.0-153.0","A3MQIWEN8M5N1Z","","","","","-13","","","","","","","","","","","","","","","","","","","","","",""
"null","","image-button-response","156","946954","0.0-154.0","A3MQIWEN8M5N1Z","img_art/20.jpg","null","","","","","","","","","","","","","","","","","","","","","","","","",""
"745","","image-button-response","157","947700","0.0-155.0","A3MQIWEN8M5N1Z","img_art/20.jpg","2","","","","","","","","","","","","","","","","","","","","","","","","",""
"2407","","image-button-response","158","950107","0.0-156.0-0.0","A3MQIWEN8M5N1Z","img_art/20.jpg","1","","","","","","","","","","","","","","","","","","","","","","","","",""
"1638","","image-button-response","159","951748","0.0-157.0-0.0","A3MQIWEN8M5N1Z","img_art/20.jpg","0","","","","","","","","","","","","","","","","","","","","","","","","",""
"null","","html-keyboard-response","160","952263","0.0-158.0","A3MQIWEN8M5N1Z","<p style=""font-size: 48px;"">+</p>","","","","","null","allTrialResponses","500","1","16","img_art/20.jpg","-13","whoa, is this what becomes of industrialization?","Daniel,Miguel,Brandon,Austin,Malik,Corey","Fails to capture what similar styles do,-12,320,20","It's ok. Very abstract.,18,160,20","I like the proportion of the car to the desert city, but too abstract for me,15,320,20","This painting would make a great display art,50,240,20","The artist had very strong feelings, bold colors,28,40,20","It seems to be a neutral cool toned art piece. Gives me alamo/desert vibes,2,260,20","Brandon","I like the proportion of the car to the desert city, but too abstract for me,15,320,20","Miguel","It's ok. Very abstract.,18,160,20","Daniel","Fails to capture what similar styles do,-12,320,20","4"
"39024","","survey-text","161","991300","0.0-159.0-0.0","A3MQIWEN8M5N1Z","","","","{""Q0"":""this is gonna be on some music teacher's wall because she feels obligated to the giver""}","","","","","","","","","","","","","","","","","","","","","","",""
"2663","","image-slider-response","162","993964","0.0-160.0","A3MQIWEN8M5N1Z","","","","","-21","","","","","","","","","","","","","","","","","","","","","",""
"null","","image-button-response","163","998974","0.0-161.0","A3MQIWEN8M5N1Z","img_art/10.jpg","null","","","","","","","","","","","","","","","","","","","","","","","","",""
"604","","image-button-response","164","999580","0.0-162.0","A3MQIWEN8M5N1Z","img_art/10.jpg","4","","","","","","","","","","","","","","","","","","","","","","","","",""
"2904","","image-button-response","165","1002484","0.0-163.0-0.0","A3MQIWEN8M5N1Z","img_art/10.jpg","5","","","","","","","","","","","","","","","","","","","","","","","","",""
"1718","","image-button-response","166","1004204","0.0-164.0-0.0","A3MQIWEN8M5N1Z","img_art/10.jpg","0","","","","","","","","","","","","","","","","","","","","","","","","",""
"null","","html-keyboard-response","167","1004714","0.0-165.0","A3MQIWEN8M5N1Z","<p style=""font-size: 48px;"">+</p>","","","","","null","allTrialResponses","500","1","17","img_art/10.jpg","-21","this is gonna be on some music teacher's wall because she feels obligated to the giver","Daniel,Miguel,Brandon,Zachary,Joseph,Jorge","Music visualized with subtle color,17,320,20","It just looks like a dirty stain.,-38,160,20","Too abstract and it doesn't really remind me of anything,-40,320,20","Reminds me of a terrarium with cacti inside. It reminds me of home.,27,400,20","The loop type thing reminds me of interconnectedness and life and hope.,12,220,20","cultural with a symphony,40,180,20","Joseph","The loop type thing reminds me of interconnectedness and life and hope.,12,220,20","Jorge","cultural with a symphony,40,180,20","Daniel","Music visualized with subtle color,17,320,20","4"
"35859","","survey-text","168","1040588","0.0-166.0-0.0","A3MQIWEN8M5N1Z","","","","{""Q0"":""we'd like to call it exotic, a rite in ceramic""}","","","","","","","","","","","","","","","","","","","","","","",""
"2559","","image-slider-response","169","1043147","0.0-167.0","A3MQIWEN8M5N1Z","","","","","21","","","","","","","","","","","","","","","","","","","","","",""
"2286","","image-button-response","170","1048163","0.0-168.0","A3MQIWEN8M5N1Z","img_art/25.jpg","1","","","","","","","","","","","","","","","","","","","","","","","","",""
"288","","image-button-response","171","1048452","0.0-169.0","A3MQIWEN8M5N1Z","img_art/25.jpg","0","","","","","","","","","","","","","","","","","","","","","","","","",""
"688","","image-button-response","172","1049140","0.0-170.0-0.0","A3MQIWEN8M5N1Z","img_art/25.jpg","1","","","","","","","","","","","","","","","","","","","","","","","","",""
"3231","","image-button-response","173","1052372","0.0-171.0-0.0","A3MQIWEN8M5N1Z","img_art/25.jpg","3","","","","","","","","","","","","","","","","","","","","","","","","",""
"null","","html-keyboard-response","174","1053893","0.0-172.0","A3MQIWEN8M5N1Z","<p style=""font-size: 48px;"">+</p>","","","","","null","allTrialResponses","1500","1","18","img_art/25.jpg","21","we'd like to call it exotic, a rite in ceramic","Daniel,Alejandro,Jordan,Nathaniel,Joseph,Jorge","Beautiful color with an interesting otherworldly figure,29,320,20","Seems ritualistic and nativist,50,80,20","This is creepy and I dont like it,-28,160,20","I love the background color and it's creepy...but cool.,30,220,20","Ghosts are NOT my thing.,-13,220,20","Somewhat feel protected by a messenger,33,180,20","Daniel","Beautiful color with an interesting otherworldly figure,29,320,20","Alejandro","Seems ritualistic and nativist,50,80,20","Nathaniel","I love the background color and it's creepy...but cool.,30,220,20","4"
"39818","","survey-text","175","1093716","0.0-173.0-0.0","A3MQIWEN8M5N1Z","","","","{""Q0"":""a bit of synthesis, style vs feeling""}","","","","","","","","","","","","","","","","","","","","","","",""
"2631","","image-slider-response","176","1096348","0.0-174.0","A3MQIWEN8M5N1Z","","","","","-31","","","","","","","","","","","","","","","","","","","","","",""
"null","","image-button-response","177","1101354","0.0-175.0","A3MQIWEN8M5N1Z","img_art/13.jpg","null","","","","","","","","","","","","","","","","","","","","","","","","",""
"1568","","image-button-response","178","1102924","0.0-176.0","A3MQIWEN8M5N1Z","img_art/13.jpg","0","","","","","","","","","","","","","","","","","","","","","","","","",""
"2319","","image-button-response","179","1105244","0.0-177.0-0.0","A3MQIWEN8M5N1Z","img_art/13.jpg","3","","","","","","","","","","","","","","","","","","","","","","","","",""
"1872","","image-button-response","180","1107116","0.0-178.0-0.0","A3MQIWEN8M5N1Z","img_art/13.jpg","5","","","","","","","","","","","","","","","","","","","","","","","","",""
"null","","html-keyboard-response","181","1108123","0.0-179.0","A3MQIWEN8M5N1Z","<p style=""font-size: 48px;"">+</p>","","","","","null","allTrialResponses","1000","1","19","img_art/13.jpg","-31","a bit of synthesis, style vs feeling","Daniel,Alejandro,Jack,Nathaniel,Justin,Dakota","Average overly symmetrical safe,-26,320,20","Reminiscent of Jackson Pollock and gives me a feeling of chaotic satisfaction,50,80,20","exciting & chaotic. love the colors.,50,320,20","Looks like an upclose dried set of water droplets. Boring.,-25,220,20","Not really a fan of ""splash"" art.,-20,280,20","water on my shower curtain - I feel refreshed, renewed,9,280,20","Daniel","Average overly symmetrical safe,-26,320,20","Nathaniel","Looks like an upclose dried set of water droplets. Boring.,-25,220,20","Dakota","water on my shower curtain - I feel refreshed, renewed,9,280,20","4"
"42216","","survey-text","182","1150355","0.0-180.0-0.0","A3MQIWEN8M5N1Z","","","","{""Q0"":""this one is interesting, I feel like the artist is seeing something I haven't, maybe not quite beautiful though""}","","","","","","","","","","","","","","","","","","","","","","",""
"4878","","image-slider-response","183","1155236","0.0-181.0","A3MQIWEN8M5N1Z","","","","","22","","","","","","","","","","","","","","","","","","","","","",""
"null","","image-button-response","184","1160243","0.0-182.0","A3MQIWEN8M5N1Z","img_art/11.jpg","null","","","","","","","","","","","","","","","","","","","","","","","","",""
"1006","","image-button-response","185","1161252","0.0-183.0","A3MQIWEN8M5N1Z","img_art/11.jpg","4","","","","","","","","","","","","","","","","","","","","","","","","",""
"1391","","image-button-response","186","1162643","0.0-184.0-0.0","A3MQIWEN8M5N1Z","img_art/11.jpg","3","","","","","","","","","","","","","","","","","","","","","","","","",""
"1543","","image-button-response","187","1164188","0.0-185.0-0.0","A3MQIWEN8M5N1Z","img_art/11.jpg","5","","","","","","","","","","","","","","","","","","","","","","","","",""
"null","","html-keyboard-response","188","1165703","0.0-186.0","A3MQIWEN8M5N1Z","<p style=""font-size: 48px;"">+</p>","","","","","null","allTrialResponses","1500","1","20","img_art/11.jpg","22","this one is interesting, I feel like the artist is seeing something I haven't, maybe not quite beautiful though","Daniel,Paul,Dustin,Nathaniel,Adam,Dakota","Some interesting color but scratchy train mess.,-14,320,20","I like how it reminds me of music and at the same time it looks like colorful train tracks.,10,300,20","Dark and dreary. Makes me think of rain/water. I see grey clouds and high waves. Looks unsettling.,-20,20,20","Kind of bizzare in that I can imagine ships or something from it.,11,220,20","Kind of reminds me of DNA.,9,40,20","i think of beatnik music and dark piano lounges,25,280,20","Adam","Kind of reminds me of DNA.,9,40,20","Nathaniel","Kind of bizzare in that I can imagine ships or something from it.,11,220,20","Dakota","i think of beatnik music and dark piano lounges,25,280,20","4"
"2765","","survey-text","189","1168499","0.0-187.0-0.0","A3MQIWEN8M5N1Z","","","","{""Q0"":""we""}","","","","","","","","","","","","","","","","","","","","","","",""
"20583","","survey-text","190","1189084","0.0-188.0-0.0","A3MQIWEN8M5N1Z","","","","{""Q0"":""urban and alive""}","","","","","","","","","","","","","","","","","","","","","","",""
"2495","","image-slider-response","191","1191579","0.0-189.0","A3MQIWEN8M5N1Z","","","","","5","","","","","","","","","","","","","","","","","","","","","",""
"null","","image-button-response","192","1196583","0.0-190.0","A3MQIWEN8M5N1Z","img_art/28.jpg","null","","","","","","","","","","","","","","","","","","","","","","","","",""
"3667","","image-button-response","193","1200251","0.0-191.0","A3MQIWEN8M5N1Z","img_art/28.jpg","5","","","","","","","","","","","","","","","","","","","","","","","","",""
"1078","","image-button-response","194","1201332","0.0-192.0-0.0","A3MQIWEN8M5N1Z","img_art/28.jpg","2","","","","","","","","","","","","","","","","","","","","","","","","",""
"711","","image-button-response","195","1202044","0.0-193.0-0.0","A3MQIWEN8M5N1Z","img_art/28.jpg","1","","","","","","","","","","","","","","","","","","","","","","","","",""
"null","","html-keyboard-response","196","1202545","0.0-194.0","A3MQIWEN8M5N1Z","<p style=""font-size: 48px;"">+</p>","","","","","null","allTrialResponses","500","1","21","img_art/28.jpg","5","urban and alive","Adrian,Shane,Eric,Nathaniel,Adam,Dakota","Not a fan of the drab colors but it looks a little bit interesting.,-7,60,20","This is also something I would see in a serious but safe environment,14,80,20","I enjoy the colors.,25,100,20","Has an air of darkness to it, but no real substance besides the mouse-like thing.,-38,220,20","Dislike the colors.,-20,40,20","musical, animated and happy with somber undertones,7,280,20","Dakota","musical, animated and happy with somber undertones,7,280,20","Eric","I enjoy the colors.,25,100,20","Shane","This is also something I would see in a serious but safe environment,14,80,20","4"
"19090","","survey-text","197","1221652","0.0-195.0-0.0","A3MQIWEN8M5N1Z","","","","{""Q0"":""this belongs in a time share condo""}","","","","","","","","","","","","","","","","","","","","","","",""
"2224","","image-slider-response","198","1223875","0.0-196.0","A3MQIWEN8M5N1Z","","","","","-15","","","","","","","","","","","","","","","","","","","","","",""
"4055","","image-button-response","199","1228893","0.0-197.0","A3MQIWEN8M5N1Z","img_art/19.jpg","3","","","","","","","","","","","","","","","","","","","","","","","","",""
"661","","image-button-response","200","1229556","0.0-198.0","A3MQIWEN8M5N1Z","img_art/19.jpg","3","","","","","","","","","","","","","","","","","","","","","","","","",""
"895","","image-button-response","201","1230452","0.0-199.0-0.0","A3MQIWEN8M5N1Z","img_art/19.jpg","4","","","","","","","","","","","","","","","","","","","","","","","","",""
"1119","","image-button-response","202","1231572","0.0-200.0-0.0","A3MQIWEN8M5N1Z","img_art/19.jpg","5","","","","","","","","","","","","","","","","","","","","","","","","",""
"null","","html-keyboard-response","203","1233093","0.0-201.0","A3MQIWEN8M5N1Z","<p style=""font-size: 48px;"">+</p>","","","","","null","allTrialResponses","1500","1","22","img_art/19.jpg","-15","this belongs in a time share condo","Angel,Shane,Eric,John,Shawn,Dakota","This one feels pretty neutral. Like a window into someone's life, one person in a bustling metropolis.,0,180,20","A day in a small city,45,80,20","I like the color and the mix of sketches along with paint.,30,100,20","There's alot of elements to it bordering on clutter and chaotic,-20,120,20","The use of space isn't my favorite.,-20,100,20","confusion, scattered and diffuse,-4,280,20","John","There's alot of elements to it bordering on clutter and chaotic,-20,120,20","Shawn","The use of space isn't my favorite.,-20,100,20","Dakota","confusion, scattered and diffuse,-4,280,20","4"
"21088","","survey-text","204","1254196","0.0-202.0-0.0","A3MQIWEN8M5N1Z","","","","{""Q0"":""skillful and alienating""}","","","","","","","","","","","","","","","","","","","","","","",""
"2190","","image-slider-response","205","1256388","0.0-203.0","A3MQIWEN8M5N1Z","","","","","-22","","","","","","","","","","","","","","","","","","","","","",""
"4062","","image-button-response","206","1261390","0.0-204.0","A3MQIWEN8M5N1Z","img_art/8.jpg","1","","","","","","","","","","","","","","","","","","","","","","","","",""
"261","","image-button-response","207","1261652","0.0-205.0","A3MQIWEN8M5N1Z","img_art/8.jpg","1","","","","","","","","","","","","","","","","","","","","","","","","",""
"2590","","image-button-response","208","1264243","0.0-206.0-0.0","A3MQIWEN8M5N1Z","img_art/8.jpg","3","","","","","","","","","","","","","","","","","","","","","","","","",""
"6239","","image-button-response","209","1270484","0.0-207.0-0.0","A3MQIWEN8M5N1Z","img_art/8.jpg","5","","","","","","","","","","","","","","","","","","","","","","","","",""
"null","","html-keyboard-response","210","1271003","0.0-208.0","A3MQIWEN8M5N1Z","<p style=""font-size: 48px;"">+</p>","","","","","null","allTrialResponses","500","1","23","img_art/8.jpg","-22","skillful and alienating","Bryan,Christopher,Kenneth,John,Shawn,Dakota","Like the colors & the imagery - old city, native peoples maybe.,20,400,20","it's interesting but i don't enjoy the style,-5,160,20","Interesting, i really like the face and the moon. Realy detailed and you see something new with each look.,11,300,20","I like how the more you like at it there are more things to discover.Very creative.,33,120,20","Cheesy. A little too knock you over the dead with its message without making it emotional,-31,100,20","chaotic and disassembled,-8,280,20","Christopher","it's interesting but i don't enjoy the style,-5,160,20","John","I like how the more you like at it there are more things to discover.Very creative.,33,120,20","Dakota","chaotic and disassembled,-8,280,20","4"
"17198","","survey-text","211","1288219","0.0-209.0-0.0","A3MQIWEN8M5N1Z","","","","{""Q0"":""we are seeing a microcosm of nature""}","","","","","","","","","","","","","","","","","","","","","","",""
"2694","","image-slider-response","212","1290916","0.0-210.0","A3MQIWEN8M5N1Z","","","","","6","","","","","","","","","","","","","","","","","","","","","",""
"null","","image-button-response","213","1295934","0.0-211.0","A3MQIWEN8M5N1Z","img_art/24.jpg","null","","","","","","","","","","","","","","","","","","","","","","","","",""
"1413","","image-button-response","214","1297348","0.0-212.0","A3MQIWEN8M5N1Z","img_art/24.jpg","2","","","","","","","","","","","","","","","","","","","","","","","","",""
"3855","","image-button-response","215","1301204","0.0-213.0-0.0","A3MQIWEN8M5N1Z","img_art/24.jpg","0","","","","","","","","","","","","","","","","","","","","","","","","",""
"2479","","image-button-response","216","1303684","0.0-214.0-0.0","A3MQIWEN8M5N1Z","img_art/24.jpg","4","","","","","","","","","","","","","","","","","","","","","","","","",""
"null","","html-keyboard-response","217","1304703","0.0-215.0","A3MQIWEN8M5N1Z","<p style=""font-size: 48px;"">+</p>","","","","","null","allTrialResponses","1000","1","24","img_art/24.jpg","6","we are seeing a microcosm of nature","Devin,Christopher,Lucas,John,Timothy,Dakota","colors are good but the style is iffy,12,380,20","it's fine, the colors are pleasing, but not my taste,9,160,20","Extraordinary and unusual.,30,380,20","Beautiful.Nice use of colors and invokes feelings of serene and peace,40,120,20","Earthy wonderful, love everything about it,50,240,20","chunky fresh color,27,280,20","Lucas","Extraordinary and unusual.,30,380,20","Devin","colors are good but the style is iffy,12,380,20","Timothy","Earthy wonderful, love everything about it,50,240,20","4"
"43786","","survey-text","218","1348508","0.0-216.0-0.0","A3MQIWEN8M5N1Z","","","","{""Q0"":""a bit cool, I'd like to see this artist redo this piece a bunch of times and see them all""}","","","","","","","","","","","","","","","","","","","","","","",""
"3879","","image-slider-response","219","1352388","0.0-217.0","A3MQIWEN8M5N1Z","","","","","5","","","","","","","","","","","","","","","","","","","","","",""
"4302","","image-button-response","220","1357391","0.0-218.0","A3MQIWEN8M5N1Z","img_art/17.jpg","1","","","","","","","","","","","","","","","","","","","","","","","","",""
"484","","image-button-response","221","1357876","0.0-219.0","A3MQIWEN8M5N1Z","img_art/17.jpg","1","","","","","","","","","","","","","","","","","","","","","","","","",""
"1470","","image-button-response","222","1359348","0.0-220.0-0.0","A3MQIWEN8M5N1Z","img_art/17.jpg","0","","","","","","","","","","","","","","","","","","","","","","","","",""
"4630","","image-button-response","223","1363980","0.0-221.0-0.0","A3MQIWEN8M5N1Z","img_art/17.jpg","4","","","","","","","","","","","","","","","","","","","","","","","","",""
"null","","html-keyboard-response","224","1365494","0.0-222.0","A3MQIWEN8M5N1Z","<p style=""font-size: 48px;"">+</p>","","","","","null","allTrialResponses","1500","1","25","img_art/17.jpg","5","a bit cool, I'd like to see this artist redo this piece a bunch of times and see them all","Devin,Elijah,Lucas,Cameron,Timothy,Charles","So expressive and wonderful wow!,17,380,20","Very cool, makes me feel calm,43,80,20","Wow, I haven't seen anything better than this.,40,380,20","doorways and trees are pleasant,30,60,20","This feels like creativity and limitlessness,30,240,20","I like the trees, but the doors less so,19,100,20","Elijah","Very cool, makes me feel calm,43,80,20","Devin","So expressive and wonderful wow!,17,380,20","Timothy","This feels like creativity and limitlessness,30,240,20","4"
"3349","","survey-text","225","1368876","0.0-223.0-0.0","A3MQIWEN8M5N1Z","","","","{""Q0"":""table""}","","","","","","","","","","","","","","","","","","","","","","",""
"18215","","survey-text","226","1387092","0.0-224.0-0.0","A3MQIWEN8M5N1Z","","","","{""Q0"":""urban but not design""}","","","","","","","","","","","","","","","","","","","","","","",""
"2630","","image-slider-response","227","1389723","0.0-225.0","A3MQIWEN8M5N1Z","","","","","-3","","","","","","","","","","","","","","","","","","","","","",""
"null","","image-button-response","228","1394732","0.0-226.0","A3MQIWEN8M5N1Z","img_art/30.jpg","null","","","","","","","","","","","","","","","","","","","","","","","","",""
"1319","","image-button-response","229","1396052","0.0-227.0","A3MQIWEN8M5N1Z","img_art/30.jpg","4","","","","","","","","","","","","","","","","","","","","","","","","",""
"990","","image-button-response","230","1397043","0.0-228.0-0.0","A3MQIWEN8M5N1Z","img_art/30.jpg","5","","","","","","","","","","","","","","","","","","","","","","","","",""
"3215","","image-button-response","231","1400260","0.0-229.0-0.0","A3MQIWEN8M5N1Z","img_art/30.jpg","2","","","","","","","","","","","","","","","","","","","","","","","","",""
"null","","html-keyboard-response","232","1401773","0.0-230.0","A3MQIWEN8M5N1Z","<p style=""font-size: 48px;"">+</p>","","","","","null","allTrialResponses","1500","1","26","img_art/30.jpg","-3","urban but not design","Devin,Elijah,Michael,Scott,Timothy,Joshua","A bit haphazard looking and lacking in vision,2,380,20","Paint scribbled on canvas,-25,80,20","It looks like a child did it. There is nothing talented or special about it.,-16,140,20","nothing special about it,1,20,20","It's pleasent but otherwise unprovoking,8,240,20","It's just all right.,5,240,20","Timothy","It's pleasent but otherwise unprovoking,8,240,20","Joshua","It's just all right.,5,240,20","Michael","It looks like a child did it. There is nothing talented or special about it.,-16,140,20","4"
"27867","","survey-text","233","1429660","0.0-231.0-0.0","A3MQIWEN8M5N1Z","","","","{""Q0"":""I don't want to know what it's of, I hope it's not catastrophic""}","","","","","","","","","","","","","","","","","","","","","","",""
"4671","","image-slider-response","234","1434332","0.0-232.0","A3MQIWEN8M5N1Z","","","","","4","","","","","","","","","","","","","","","","","","","","","",""
"null","","image-button-response","235","1439344","0.0-233.0","A3MQIWEN8M5N1Z","img_art/5.jpg","null","","","","","","","","","","","","","","","","","","","","","","","","",""
"1970","","image-button-response","236","1441316","0.0-234.0","A3MQIWEN8M5N1Z","img_art/5.jpg","1","","","","","","","","","","","","","","","","","","","","","","","","",""
"1015","","image-button-response","237","1442331","0.0-235.0-0.0","A3MQIWEN8M5N1Z","img_art/5.jpg","0","","","","","","","","","","","","","","","","","","","","","","","","",""
"2159","","image-button-response","238","1444492","0.0-236.0-0.0","A3MQIWEN8M5N1Z","img_art/5.jpg","3","","","","","","","","","","","","","","","","","","","","","","","","",""
"null","","html-keyboard-response","239","1444994","0.0-237.0","A3MQIWEN8M5N1Z","<p style=""font-size: 48px;"">+</p>","","","","","null","allTrialResponses","500","1","27","img_art/5.jpg","4","I don't want to know what it's of, I hope it's not catastrophic","Colton,Nathan,Michael,Logan,Timothy,Joshua","I like the strokes and colors used,20,220,20","Not a fan of the themes,-30,200,20","Complete garbage. Looks like a kid drew it.,-50,140,20","Just doesn't do a whole lot for me. I see Cinderellas broom,-11,360,20","This feels joyful,39,240,20","Very basic, but at least has some color to it.,-9,240,20","Nathan","Not a fan of the themes,-30,200,20","Colton","I like the strokes and colors used,20,220,20","Logan","Just doesn't do a whole lot for me. I see Cinderellas broom,-11,360,20","4"
"49062","","survey-text","240","1494076","0.0-238.0-0.0","A3MQIWEN8M5N1Z","","","","{""Q0"":""this artist is pulled in multiple directions""}","","","","","","","","","","","","","","","","","","","","","","",""
"2287","","image-slider-response","241","1496364","0.0-239.0","A3MQIWEN8M5N1Z","","","","","9","","","","","","","","","","","","","","","","","","","","","",""
"4718","","image-button-response","242","1501383","0.0-240.0","A3MQIWEN8M5N1Z","img_art/1.jpg","0","","","","","","","","","","","","","","","","","","","","","","","","",""
"761","","image-button-response","243","1502148","0.0-241.0","A3MQIWEN8M5N1Z","img_art/1.jpg","0","","","","","","","","","","","","","","","","","","","","","","","","",""
"2712","","image-button-response","244","1504860","0.0-242.0-0.0","A3MQIWEN8M5N1Z","img_art/1.jpg","5","","","","","","","","","","","","","","","","","","","","","","","","",""
"1182","","image-button-response","245","1506044","0.0-243.0-0.0","A3MQIWEN8M5N1Z","img_art/1.jpg","3","","","","","","","","","","","","","","","","","","","","","","","","",""
"null","","html-keyboard-response","246","1507047","0.0-244.0","A3MQIWEN8M5N1Z","<p style=""font-size: 48px;"">+</p>","","","","","null","allTrialResponses","1000","1","28","img_art/1.jpg","9","this artist is pulled in multiple directions","Colton,Nathan,Antonio,Logan,Jared,Benjamin","the colors are nice,8,220,20","Not a fan of the mood, overly party-ish and bright colors do not suit my taste,-40,200,20","Felt nothing in response to this painting,3,220,20","looks like an earlier painting. I wish I gave it -20 but oh well,21,360,20","there isnt anything clear to look at,-2,400,20","Really like all of the colors and how they mesh well.,27,260,20","Colton","the colors are nice,8,220,20","Benjamin","Really like all of the colors and how they mesh well.,27,260,20","Logan","looks like an earlier painting. I wish I gave it -20 but oh well,21,360,20","4"
"29742","","survey-text","247","1536811","0.0-245.0-0.0","A3MQIWEN8M5N1Z","","","","{""Q0"":""winter nature forensic scene""}","","","","","","","","","","","","","","","","","","","","","","",""
"2310","","image-slider-response","248","1539124","0.0-246.0","A3MQIWEN8M5N1Z","","","","","-5","","","","","","","","","","","","","","","","","","","","","",""
"null","","image-button-response","249","1544135","0.0-247.0","A3MQIWEN8M5N1Z","img_art/7.jpg","null","","","","","","","","","","","","","","","","","","","","","","","","",""
"338","","image-button-response","250","1544475","0.0-248.0","A3MQIWEN8M5N1Z","img_art/7.jpg","3","","","","","","","","","","","","","","","","","","","","","","","","",""
"1087","","image-button-response","251","1545564","0.0-249.0-0.0","A3MQIWEN8M5N1Z","img_art/7.jpg","4","","","","","","","","","","","","","","","","","","","","","","","","",""
"2846","","image-button-response","252","1548412","0.0-250.0-0.0","A3MQIWEN8M5N1Z","img_art/7.jpg","2","","","","","","","","","","","","","","","","","","","","","","","","",""
"null","","html-keyboard-response","253","1549423","0.0-251.0","A3MQIWEN8M5N1Z","<p style=""font-size: 48px;"">+</p>","","","","","null","allTrialResponses","1000","1","29","img_art/7.jpg","-5","winter nature forensic scene","Colton,Jeffrey,Connor,Logan,Vincent,Benjamin","reminds me of a cave wall,-21,220,20","No not cause many emotions,1,40,20","Color is bland and looks damaged,-37,240,20","mars also crunchy leaves maybe a beehive,32,360,20","One I would love to own . Calm relaxing spiritual and full of love,41,360,20","Dull and confusing,-24,260,20","Logan","mars also crunchy leaves maybe a beehive,32,360,20","Vincent","One I would love to own . Calm relaxing spiritual and full of love,41,360,20","Connor","Color is bland and looks damaged,-37,240,20","4"
"23344","","survey-text","254","1572788","0.0-252.0-0.0","A3MQIWEN8M5N1Z","","","","{""Q0"":""I'd like to know how big this is. It could be epic""}","","","","","","","","","","","","","","","","","","","","","","",""
"3094","","image-slider-response","255","1575884","0.0-253.0","A3MQIWEN8M5N1Z","","","","","4","","","","","","","","","","","","","","","","","","","","","",""
"null","","image-button-response","256","1580893","0.0-254.0","A3MQIWEN8M5N1Z","img_art/27.jpg","null","","","","","","","","","","","","","","","","","","","","","","","","",""
"2814","","image-button-response","257","1583708","0.0-255.0","A3MQIWEN8M5N1Z","img_art/27.jpg","0","","","","","","","","","","","","","","","","","","","","","","","","",""
"1967","","image-button-response","258","1585676","0.0-256.0-0.0","A3MQIWEN8M5N1Z","img_art/27.jpg","4","","","","","","","","","","","","","","","","","","","","","","","","",""
"1462","","image-button-response","259","1587140","0.0-257.0-0.0","A3MQIWEN8M5N1Z","img_art/27.jpg","1","","","","","","","","","","","","","","","","","","","","","","","","",""
"null","","html-keyboard-response","260","1588143","0.0-258.0","A3MQIWEN8M5N1Z","<p style=""font-size: 48px;"">+</p>","","","","","null","allTrialResponses","1000","1","30","img_art/27.jpg","4","I'd like to know how big this is. It could be epic","Brian,Isaiah,Connor,Logan,Vincent,Patrick","Colors could be more pleasing, but I really like the thinner lines superimposed over the background,25,380,20","I feel peaceful and a little nervous at the same time.,11,300,20","Looks like someone vandalized the original piece with a marker,-36,240,20","demon vs angel brawl over lemon lime sprite,-10,360,20","A beautiful day full of Hope and Inspiritation. The warmth of hot cocoa with the family gathering around,33,360,20","Not cohesive design,-31,280,20","Brian","Colors could be more pleasing, but I really like the thinner lines superimposed over the background,25,380,20","Vincent","A beautiful day full of Hope and Inspiritation. The warmth of hot cocoa with the family gathering around,33,360,20","Isaiah","I feel peaceful and a little nervous at the same time.,11,300,20","4"
"3417","","image-button-response_instructions","261","1591580","0.0-259.0","A3MQIWEN8M5N1Z","","0","instructions","","","","","","","","","","","","","","","","","","","","","","","",""
