"rt","url","trial_type","trial_index","time_elapsed","internal_node_id","participant_id","stimulus","button_pressed","Name","responses","response","key_press","variableName","fixationTime","condition","trial","photo","subjectRating","subjectResponse","agentsNames","agent_1_Response","agent_2_Response","agent_3_Response","agent_4_Response","agent_5_Response","agent_6_Response","kept_1_name","kept_1_response","kept_2_name","kept_2_response","kept_3_name","kept_3_response","errorCounter"
"17444","external_page_harvard.html","external-html","0","17704","0.0-0.0","A3MYRZ02DWKZW","","","","","","","","","","","","","","","","","","","","","","","","","","",""
"1360","","image-button-response","1","19066","0.0-1.0","A3MYRZ02DWKZW","","1","","","","","","","","","","","","","","","","","","","","","","","","",""
"1367","","image-button-response","2","20437","0.0-2.0-0.0","A3MYRZ02DWKZW","","1","phone","","","","","","","","","","","","","","","","","","","","","","","",""
"3641","","survey-text","3","24081","0.0-3.0-0.0","A3MYRZ02DWKZW","","","","{""Q0"":""A3MYRZ02DWKZW""}","","","","","","","","","","","","","","","","","","","","","","",""
"3540","","image-button-response_instructions","4","27623","0.0-4.0","A3MYRZ02DWKZW","","0","instructions","","","","","","","","","","","","","","","","","","","","","","","",""
"20052","","image-button-response_instructions","5","47678","0.0-5.0","A3MYRZ02DWKZW","img_art/ins/popularity/ins1.png","0","instructions","","","","","","","","","","","","","","","","","","","","","","","",""
"7616","","image-button-response_instructions","6","55296","0.0-6.0","A3MYRZ02DWKZW","img_art/ins/popularity/ins2.png","0","instructions","","","","","","","","","","","","","","","","","","","","","","","",""
"2720","","image-button-response_instructions","7","58017","0.0-7.0","A3MYRZ02DWKZW","img_art/ins/popularity/ins2Extreme.png","0","instructions","","","","","","","","","","","","","","","","","","","","","","","",""
"6247","","image-button-response_instructions","8","64266","0.0-8.0","A3MYRZ02DWKZW","img_art/ins/popularity/ins3KEEPpop.PNG","0","instructions","","","","","","","","","","","","","","","","","","","","","","","",""
"5693","","image-button-response_instructions","9","69959","0.0-9.0","A3MYRZ02DWKZW","img_art/ins/popularity/ins3ANamepop.PNG","0","instructions","","","","","","","","","","","","","","","","","","","","","","","",""
"2735","","image-button-response_instructions","10","72696","0.0-10.0","A3MYRZ02DWKZW","img_art/ins/popularity/ins3ARatingpop.png","0","instructions","","","","","","","","","","","","","","","","","","","","","","","",""
"894","","image-button-response_instructions","11","73592","0.0-11.0","A3MYRZ02DWKZW","img_art/ins/popularity/ins3ATextpop.png","0","instructions","","","","","","","","","","","","","","","","","","","","","","","",""
"1699","","image-button-response_instructions","12","75291","0.0-12.0","A3MYRZ02DWKZW","img_art/ins/popularity/ins3ALikespop.png","0","instructions","","","","","","","","","","","","","","","","","","","","","","","",""
"6410","","image-button-response_instructions","13","81702","0.0-13.0","A3MYRZ02DWKZW","img_art/ins/popularity/ins3KEEPpop.PNG","0","instructions","","","","","","","","","","","","","","","","","","","","","","","",""
"8812","","image-button-response_instructions","14","90514","0.0-14.0","A3MYRZ02DWKZW","img_art/ins/popularity/ins3_5RED.png","0","instructions","","","","","","","","","","","","","","","","","","","","","","","",""
"8982","","image-button-response_instructions","15","99498","0.0-15.0","A3MYRZ02DWKZW","img_art/ins/popularity/ins3KEEPpop.PNG","0","instructions","","","","","","","","","","","","","","","","","","","","","","","",""
"6979","","image-button-response_instructions","16","106478","0.0-16.0","A3MYRZ02DWKZW","img_art/ins/popularity/ins4KEEPpop.PNG","0","instructions","","","","","","","","","","","","","","","","","","","","","","","",""
"7087","","image-button-response_instructions","17","113566","0.0-17.0","A3MYRZ02DWKZW","img_art/ins/popularity/ins5KEEPpop.PNG","0","instructions","","","","","","","","","","","","","","","","","","","","","","","",""
"1982","","image-button-response_instructions","18","115548","0.0-18.0","A3MYRZ02DWKZW","","0","instructions","","","","","","","","","","","","","","","","","","","","","","","",""
"9946","","survey-text","19","125521","0.0-19.0-0.0","A3MYRZ02DWKZW","","","","{""Q0"":""but""}","","","","","","","","","","","","","","","","","","","","","","",""
"36652","","survey-text","20","162175","0.0-20.0-0.0","A3MYRZ02DWKZW","","","","{""Q0"":""reminds me arrangement of flora in spring time""}","","","","","","","","","","","","","","","","","","","","","","",""
"3132.4000000059605","","image-slider-response","21","165311","0.0-21.0","A3MYRZ02DWKZW","","","","","41","","","","","","","","","","","","","","","","","","","","","",""
"null","","image-button-response","22","170315","0.0-22.0","A3MYRZ02DWKZW","img_art/ins/1.jpg","null","","","","","","","","","","","","","","","","","","","","","","","","",""
"1070","","image-button-response","23","171387","0.0-23.0","A3MYRZ02DWKZW","img_art/ins/1.jpg","5","","","","","","","","","","","","","","","","","","","","","","","","",""
"6810","","image-button-response","24","178199","0.0-24.0-0.0","A3MYRZ02DWKZW","img_art/ins/1.jpg","0","","","","","","","","","","","","","","","","","","","","","","","","",""
"1970","","image-button-response","25","180171","0.0-25.0-0.0","A3MYRZ02DWKZW","img_art/ins/1.jpg","0","","","","","","","","","","","","","","","","","","","","","","","","",""
"4778","","image-button-response","26","187994","0.0-25.1-0.1","A3MYRZ02DWKZW","img_art/ins/1.jpg","4","","","","","","","","","","","","","","","","","","","","","","","","",""
"null","","html-keyboard-response","27","188997","0.0-26.0","A3MYRZ02DWKZW","<p style=""font-size: 48px;"">+</p>","","","","","null","allTrialResponses","1000","1","-2","img_art/ins/1.jpg","41","reminds me arrangement of flora in spring time","Allison,Ashley,Beth,Dora,Erika,Jen","looks like a lot of things going on in the mist,20,20,20","I just don't get why these type of art would be popular,-32,40,20","This color reminds me of poo,-46,60,20","looks like what my niece in 3rd grade did this afternoon,-50,80,20","I like the sophisticated brushwork,40,100,20","It reminds me of a candy land dream I had,36,120,20","Jen","It reminds me of a candy land dream I had,36,120,20","Allison","looks like a lot of things going on in the mist,20,20,20","Erika","I like the sophisticated brushwork,40,100,20","2"
"24683","","survey-text","28","213687","0.0-27.0-0.0","A3MYRZ02DWKZW","","","","{""Q0"":""this is what angry would look like""}","","","","","","","","","","","","","","","","","","","","","","",""
"3336.5999999940395","","image-slider-response","29","217025","0.0-28.0","A3MYRZ02DWKZW","","","","","-26","","","","","","","","","","","","","","","","","","","","","",""
"null","","image-button-response","30","222034","0.0-29.0","A3MYRZ02DWKZW","img_art/ins/2.jpg","null","","","","","","","","","","","","","","","","","","","","","","","","",""
"4697","","image-button-response","31","226734","0.0-30.0","A3MYRZ02DWKZW","img_art/ins/2.jpg","3","","","","","","","","","","","","","","","","","","","","","","","","",""
"8066","","image-button-response","32","234801","0.0-31.0-0.0","A3MYRZ02DWKZW","img_art/ins/2.jpg","4","","","","","","","","","","","","","","","","","","","","","","","","",""
"1192","","image-button-response","33","235996","0.0-32.0-0.0","A3MYRZ02DWKZW","img_art/ins/2.jpg","1","","","","","","","","","","","","","","","","","","","","","","","","",""
"null","","html-keyboard-response","34","237513","0.0-33.0","A3MYRZ02DWKZW","<p style=""font-size: 48px;"">+</p>","","","","","null","allTrialResponses","1500","1","-1","img_art/ins/2.jpg","-26","this is what angry would look like","Allison,Kara,Katie,Jenna,Erika,Jen","I don't have strong feelings about this,10,20,20","I like the blocks of color arrangements,30,160,20","too much color!,-28,180,20","One of my pet peevs,-48,140,20","I would never be able to compose a sophisticated pallete like this,48,100,20","It reminds me of a fireplace,36,120,20","Jenna","One of my pet peevs,-48,140,20","Erika","I would never be able to compose a sophisticated pallete like this,48,100,20","Kara","I like the blocks of color arrangements,30,160,20","2"
"14394","","survey-text","35","251909","0.0-34.0-0.0","A3MYRZ02DWKZW","","","","{""Q0"":""makes me feel cold""}","","","","","","","","","","","","","","","","","","","","","","",""
"3538.199999988079","","image-slider-response","36","255449","0.0-35.0","A3MYRZ02DWKZW","","","","","42","","","","","","","","","","","","","","","","","","","","","",""
"null","","image-button-response","37","260466","0.0-36.0","A3MYRZ02DWKZW","img_art/ins/3.jpg","null","","","","","","","","","","","","","","","","","","","","","","","","",""
"5322","","image-button-response","38","265790","0.0-37.0","A3MYRZ02DWKZW","img_art/ins/3.jpg","1","","","","","","","","","","","","","","","","","","","","","","","","",""
"894","","image-button-response","39","266685","0.0-38.0-0.0","A3MYRZ02DWKZW","img_art/ins/3.jpg","1","","","","","","","","","","","","","","","","","","","","","","","","",""
"2765","","image-button-response","40","272099","0.0-38.1-0.1","A3MYRZ02DWKZW","img_art/ins/3.jpg","4","","","","","","","","","","","","","","","","","","","","","","","","",""
"1678","","image-button-response","41","273781","0.0-39.0-0.0","A3MYRZ02DWKZW","img_art/ins/3.jpg","5","","","","","","","","","","","","","","","","","","","","","","","","",""
"null","","html-keyboard-response","42","275285","0.0-40.0","A3MYRZ02DWKZW","<p style=""font-size: 48px;"">+</p>","","","","","null","allTrialResponses","1500","1","0","img_art/ins/3.jpg","42","makes me feel cold","Mary,Kara,Leslie,Jenna,Erika,Rose","I like the overlapping of brushes,41,220,20","calming blue is very nice,36,160,20","It's an alright work,15,200,20","looks like a murder room,-35,140,20","I feel connected to the artist,40,100,20","My daily routine, it's depressing,-20,240,20","Kara","calming blue is very nice,36,160,20","Erika","I feel connected to the artist,40,100,20","Rose","My daily routine, it's depressing,-20,240,20","4"
"24224","","image-button-response_instructions","43","299514","0.0-41.0","A3MYRZ02DWKZW","","0","instructions","","","","","","","","","","","","","","","","","","","","","","","",""
"45777","","survey-likert","44","345293","0.0-42.0-0.0","A3MYRZ02DWKZW","","","","{""Q0"":"""",""Q1"":0,""Q2"":1}","","","","","","","","","","","","","","","","","","","","","","",""
"5873","","survey-text","45","351170","0.0-43.0-0.0","A3MYRZ02DWKZW","","","","{""Q0"":""rock""}","","","","","","","","","","","","","","","","","","","","","","",""
"22161","","survey-text","46","373332","0.0-44.0-0.0","A3MYRZ02DWKZW","","","","{""Q0"":""This makes me smile""}","","","","","","","","","","","","","","","","","","","","","","",""
"2929.6000000089407","","image-slider-response","47","376264","0.0-45.0","A3MYRZ02DWKZW","","","","","50","","","","","","","","","","","","","","","","","","","","","",""
"null","","image-button-response","48","381290","0.0-46.0","A3MYRZ02DWKZW","img_art/14.jpg","null","","","","","","","","","","","","","","","","","","","","","","","","",""
"2645","","image-button-response","49","383937","0.0-47.0","A3MYRZ02DWKZW","img_art/14.jpg","0","","","","","","","","","","","","","","","","","","","","","","","","",""
"3512","","image-button-response","50","387452","0.0-48.0-0.0","A3MYRZ02DWKZW","img_art/14.jpg","5","","","","","","","","","","","","","","","","","","","","","","","","",""
"3747","","image-button-response","51","391202","0.0-49.0-0.0","A3MYRZ02DWKZW","img_art/14.jpg","4","","","","","","","","","","","","","","","","","","","","","","","","",""
"null","","html-keyboard-response","52","391703","0.0-50.0","A3MYRZ02DWKZW","<p style=""font-size: 48px;"">+</p>","","","","","null","allTrialResponses","500","1","1","img_art/14.jpg","50","This makes me smile","Gabriela,Julia,Mikayla,Emma,Alicia,Caroline","It looks like a table centerpiece,-22,140,20","I don't care for the style,-38,40,20","The red looks like blood and im not a huge fan,15,300,20","Don't love it.,-10,60,20","ok, gloomy though.,12,120,20","Makes me think of trees and spring. A good feeling,26,100,20","Gabriela","It looks like a table centerpiece,-22,140,20","Caroline","Makes me think of trees and spring. A good feeling,26,100,20","Alicia","ok, gloomy though.,12,120,20","4"
"19221","","survey-text","53","410929","0.0-51.0-0.0","A3MYRZ02DWKZW","","","","{""Q0"":""a conversation or ordering food at a restaurant""}","","","","","","","","","","","","","","","","","","","","","","",""
"5235.0999999940395","","image-slider-response","54","416166","0.0-52.0","A3MYRZ02DWKZW","","","","","-8","","","","","","","","","","","","","","","","","","","","","",""
"null","","image-button-response","55","421172","0.0-53.0","A3MYRZ02DWKZW","img_art/28.jpg","null","","","","","","","","","","","","","","","","","","","","","","","","",""
"6439","","image-button-response","56","427613","0.0-54.0","A3MYRZ02DWKZW","img_art/28.jpg","5","","","","","","","","","","","","","","","","","","","","","","","","",""
"6429","","image-button-response","57","434044","0.0-55.0-0.0","A3MYRZ02DWKZW","img_art/28.jpg","0","","","","","","","","","","","","","","","","","","","","","","","","",""
"2758","","image-button-response","58","436805","0.0-56.0-0.0","A3MYRZ02DWKZW","img_art/28.jpg","2","","","","","","","","","","","","","","","","","","","","","","","","",""
"null","","html-keyboard-response","59","437307","0.0-57.0","A3MYRZ02DWKZW","<p style=""font-size: 48px;"">+</p>","","","","","null","allTrialResponses","500","1","2","img_art/28.jpg","-8","a conversation or ordering food at a restaurant","Gabriela,Michelle,Meghan,Autumn,Alicia,Caroline","The brown and green colors used look dull and unappealing,-30,140,20","This piece is depressing to me, reminds me of German paintings,-6,280,20","I don't like the color choice,-30,220,20","Looks yucky and poor.,-33,340,20","bland busy ugly,-31,120,20","Colors are pleasing. Made me think of two people kneeling and talking. A curious feeling.,15,100,20","Caroline","Colors are pleasing. Made me think of two people kneeling and talking. A curious feeling.,15,100,20","Gabriela","The brown and green colors used look dull and unappealing,-30,140,20","Meghan","I don't like the color choice,-30,220,20","4"
"28315","","survey-text","60","465626","0.0-58.0-0.0","A3MYRZ02DWKZW","","","","{""Q0"":""a wild dance party the greens and red make it look like the painting is moving""}","","","","","","","","","","","","","","","","","","","","","","",""
"2650.4000000059605","","image-slider-response","61","468279","0.0-59.0","A3MYRZ02DWKZW","","","","","45","","","","","","","","","","","","","","","","","","","","","",""
"2397","","image-button-response","62","473286","0.0-60.0","A3MYRZ02DWKZW","img_art/2.jpg","4","","","","","","","","","","","","","","","","","","","","","","","","",""
"1308","","image-button-response","63","474596","0.0-61.0","A3MYRZ02DWKZW","img_art/2.jpg","1","","","","","","","","","","","","","","","","","","","","","","","","",""
"6905","","image-button-response","64","481502","0.0-62.0-0.0","A3MYRZ02DWKZW","img_art/2.jpg","0","","","","","","","","","","","","","","","","","","","","","","","","",""
"3458","","image-button-response","65","484963","0.0-63.0-0.0","A3MYRZ02DWKZW","img_art/2.jpg","4","","","","","","","","","","","","","","","","","","","","","","","","",""
"null","","html-keyboard-response","66","486468","0.0-64.0","A3MYRZ02DWKZW","<p style=""font-size: 48px;"">+</p>","","","","","null","allTrialResponses","1500","1","3","img_art/2.jpg","45","a wild dance party the greens and red make it look like the painting is moving","Gabriela,Michaela,Meghan,Breanna,Elizabeth,Caroline","The people look blurred together,-21,140,20","My immediate reaction was it looked like a class but then I saw a smile in the middle,11,260,20","looks like a child's artwork,-40,220,20","It's just a splash of paint on a canvas,-31,380,20","Good color pallette,12,20,20","Colors are drab and cause a sense of blandness,-28,100,20","Michaela","My immediate reaction was it looked like a class but then I saw a smile in the middle,11,260,20","Gabriela","The people look blurred together,-21,140,20","Elizabeth","Good color pallette,12,20,20","4"
"15498","","survey-text","67","501969","0.0-65.0-0.0","A3MYRZ02DWKZW","","","","{""Q0"":""one ruler over the little people""}","","","","","","","","","","","","","","","","","","","","","","",""
"3272.5","","image-slider-response","68","505243","0.0-66.0","A3MYRZ02DWKZW","","","","","-50","","","","","","","","","","","","","","","","","","","","","",""
"null","","image-button-response","69","510252","0.0-67.0","A3MYRZ02DWKZW","img_art/25.jpg","null","","","","","","","","","","","","","","","","","","","","","","","","",""
"1578","","image-button-response","70","511832","0.0-68.0","A3MYRZ02DWKZW","img_art/25.jpg","1","","","","","","","","","","","","","","","","","","","","","","","","",""
"10678","","image-button-response","71","522512","0.0-69.0-0.0","A3MYRZ02DWKZW","img_art/25.jpg","5","","","","","","","","","","","","","","","","","","","","","","","","",""
"1229","","image-button-response","72","523744","0.0-70.0-0.0","A3MYRZ02DWKZW","img_art/25.jpg","0","","","","","","","","","","","","","","","","","","","","","","","","",""
"null","","html-keyboard-response","73","524247","0.0-71.0","A3MYRZ02DWKZW","<p style=""font-size: 48px;"">+</p>","","","","","null","allTrialResponses","500","1","4","img_art/25.jpg","-50","one ruler over the little people","Gabriela,Michaela,Shannon,Claire,Elizabeth,Amanda","It looks like a person at a graveyard,18,140,20","It looks like people worshipping a statue,33,260,20","I like the way the persons clothes look, there could be more color though.,10,220,20","the colors are pretty,11,260,20","Love the color hues and the texture it creates,50,20,20","Reminds me of Mr. Burns on drugs in the Simpsons,-50,180,20","Michaela","It looks like people worshipping a statue,33,260,20","Amanda","Reminds me of Mr. Burns on drugs in the Simpsons,-50,180,20","Gabriela","It looks like a person at a graveyard,18,140,20","4"
"22344","","survey-text","74","546596","0.0-72.0-0.0","A3MYRZ02DWKZW","","","","{""Q0"":""remind me of a town we drove though in the autumn""}","","","","","","","","","","","","","","","","","","","","","","",""
"1657.1000000089407","","image-slider-response","75","548255","0.0-73.0","A3MYRZ02DWKZW","","","","","10","","","","","","","","","","","","","","","","","","","","","",""
"null","","image-button-response","76","553266","0.0-74.0","A3MYRZ02DWKZW","img_art/19.jpg","null","","","","","","","","","","","","","","","","","","","","","","","","",""
"1078","","image-button-response","77","554346","0.0-75.0","A3MYRZ02DWKZW","img_art/19.jpg","5","","","","","","","","","","","","","","","","","","","","","","","","",""
"1205","","image-button-response","78","555554","0.0-76.0-0.0","A3MYRZ02DWKZW","img_art/19.jpg","3","","","","","","","","","","","","","","","","","","","","","","","","",""
"7616","","image-button-response","79","563172","0.0-77.0-0.0","A3MYRZ02DWKZW","img_art/19.jpg","2","","","","","","","","","","","","","","","","","","","","","","","","",""
"null","","html-keyboard-response","80","564675","0.0-78.0","A3MYRZ02DWKZW","<p style=""font-size: 48px;"">+</p>","","","","","null","allTrialResponses","1500","1","5","img_art/19.jpg","10","remind me of a town we drove though in the autumn","Gabriela,Michaela,Destiny,Olivia,Vanessa,Amanda","it looks messy and non-unique.,-9,140,20","It's ok but it's nothing I would hang on my wall,11,260,20","this flow I just really like how everything blends but also doesn't,45,360,20","city life energy,8,40,20","Again, this is too abstract.,-10,380,20","Its just a nice painting, nothing too special but nothing negative,25,180,20","Amanda","Its just a nice painting, nothing too special but nothing negative,25,180,20","Olivia","city life energy,8,40,20","Destiny","this flow I just really like how everything blends but also doesn't,45,360,20","4"
"5418","","survey-text","81","570102","0.0-79.0-0.0","A3MYRZ02DWKZW","","","","{""Q0"":""sky""}","","","","","","","","","","","","","","","","","","","","","","",""
"21747","","survey-text","82","591850","0.0-80.0-0.0","A3MYRZ02DWKZW","","","","{""Q0"":""looks like a terrible accident and it makes me sad""}","","","","","","","","","","","","","","","","","","","","","","",""
"2693.8999999910593","","image-slider-response","83","594546","0.0-81.0","A3MYRZ02DWKZW","","","","","-26","","","","","","","","","","","","","","","","","","","","","",""
"null","","image-button-response","84","599547","0.0-82.0","A3MYRZ02DWKZW","img_art/20.jpg","null","","","","","","","","","","","","","","","","","","","","","","","","",""
"587","","image-button-response","85","600135","0.0-83.0","A3MYRZ02DWKZW","img_art/20.jpg","2","","","","","","","","","","","","","","","","","","","","","","","","",""
"2844","","image-button-response","86","602982","0.0-84.0-0.0","A3MYRZ02DWKZW","img_art/20.jpg","4","","","","","","","","","","","","","","","","","","","","","","","","",""
"1268","","image-button-response","87","604253","0.0-85.0-0.0","A3MYRZ02DWKZW","img_art/20.jpg","5","","","","","","","","","","","","","","","","","","","","","","","","",""
"null","","html-keyboard-response","88","605757","0.0-86.0","A3MYRZ02DWKZW","<p style=""font-size: 48px;"">+</p>","","","","","null","allTrialResponses","1500","1","6","img_art/20.jpg","-26","looks like a terrible accident and it makes me sad","Bailey,Mackenzie,Destiny,Olivia,Nicole,Amanda","A bit hectic, but it does have a bit of coolness to it,6,360,20","Shapes are fun to interpret,21,20,20","truck? train? dead cow? plane?,10,360,20","crash after traffic causing grief,-11,40,20","This one feels scary in a bad way,-30,20,20","Too negative looks like a car and plane crash,-50,180,20","Destiny","truck? train? dead cow? plane?,10,360,20","Nicole","This one feels scary in a bad way,-30,20,20","Amanda","Too negative looks like a car and plane crash,-50,180,20","4"
"10022","","survey-text","89","615784","0.0-87.0-0.0","A3MYRZ02DWKZW","","","","{""Q0"":""how energy flows""}","","","","","","","","","","","","","","","","","","","","","","",""
"3100.5999999940395","","image-slider-response","90","618886","0.0-88.0","A3MYRZ02DWKZW","","","","","23","","","","","","","","","","","","","","","","","","","","","",""
"4668","","image-button-response","91","623904","0.0-89.0","A3MYRZ02DWKZW","img_art/11.jpg","3","","","","","","","","","","","","","","","","","","","","","","","","",""
"1286","","image-button-response","92","625192","0.0-90.0","A3MYRZ02DWKZW","img_art/11.jpg","3","","","","","","","","","","","","","","","","","","","","","","","","",""
"3709","","image-button-response","93","628904","0.0-91.0-0.0","A3MYRZ02DWKZW","img_art/11.jpg","4","","","","","","","","","","","","","","","","","","","","","","","","",""
"2997","","image-button-response","94","631904","0.0-92.0-0.0","A3MYRZ02DWKZW","img_art/11.jpg","2","","","","","","","","","","","","","","","","","","","","","","","","",""
"null","","html-keyboard-response","95","632408","0.0-93.0","A3MYRZ02DWKZW","<p style=""font-size: 48px;"">+</p>","","","","","null","allTrialResponses","500","1","7","img_art/11.jpg","23","how energy flows","Courtney,Diana,Destiny,Jordan,Nicole,Amanda","Thats a creepy old rollercoasters abandoned,-2,280,20","It makes my head feel dizzy. So I rated it lower.,-25,380,20","life is a highway,12,360,20","Oh, I love this one, it says to me that life is very busy,50,20,20","Those vertical strokes are to die for and I love these colors !!!,50,20,20","It makes me feel angry and overwhelmed,-29,180,20","Jordan","Oh, I love this one, it says to me that life is very busy,50,20,20","Nicole","Those vertical strokes are to die for and I love these colors !!!,50,20,20","Destiny","life is a highway,12,360,20","4"
"11319","","survey-text","96","643732","0.0-94.0-0.0","A3MYRZ02DWKZW","","","","{""Q0"":""no words, to messy""}","","","","","","","","","","","","","","","","","","","","","","",""
"3107.699999988079","","image-slider-response","97","646842","0.0-95.0","A3MYRZ02DWKZW","","","","","-33","","","","","","","","","","","","","","","","","","","","","",""
"null","","image-button-response","98","651846","0.0-96.0","A3MYRZ02DWKZW","img_art/3.jpg","null","","","","","","","","","","","","","","","","","","","","","","","","",""
"6810","","image-button-response","99","658658","0.0-97.0","A3MYRZ02DWKZW","img_art/3.jpg","3","","","","","","","","","","","","","","","","","","","","","","","","",""
"6048","","image-button-response","100","664709","0.0-98.0-0.0","A3MYRZ02DWKZW","img_art/3.jpg","5","","","","","","","","","","","","","","","","","","","","","","","","",""
"2001","","image-button-response","101","666712","0.0-99.0-0.0","A3MYRZ02DWKZW","img_art/3.jpg","0","","","","","","","","","","","","","","","","","","","","","","","","",""
"null","","html-keyboard-response","102","667213","0.0-100.0","A3MYRZ02DWKZW","<p style=""font-size: 48px;"">+</p>","","","","","null","allTrialResponses","500","1","8","img_art/3.jpg","-33","no words, to messy","Kelly,Jasmine,Destiny,Jordan,Nicole,Marissa","Reminds me of blood.,-28,220,20","I don't really have a strong reaction to this one,0,340,20","im just getting more agitated and less appreciative of art. I have absolutely no scale to base on,-34,360,20","i don't like this, just looks like scribbles,-50,20,20","Something I'd paint when I'm mad. I feel that,20,20,20","It feels like a half assed and failed imitation of Japanese signatures on old paintings,-22,160,20","Jordan","i don't like this, just looks like scribbles,-50,20,20","Marissa","It feels like a half assed and failed imitation of Japanese signatures on old paintings,-22,160,20","Kelly","Reminds me of blood.,-28,220,20","4"
"28189","","survey-text","103","695406","0.0-101.0-0.0","A3MYRZ02DWKZW","","","","{""Q0"":""a clash good evil, or two becoming one""}","","","","","","","","","","","","","","","","","","","","","","",""
"3007","","image-slider-response","104","698416","0.0-102.0","A3MYRZ02DWKZW","","","","","29","","","","","","","","","","","","","","","","","","","","","",""
"null","","image-button-response","105","703419","0.0-103.0","A3MYRZ02DWKZW","img_art/21.jpg","null","","","","","","","","","","","","","","","","","","","","","","","","",""
"7287","","image-button-response","106","710708","0.0-104.0","A3MYRZ02DWKZW","img_art/21.jpg","1","","","","","","","","","","","","","","","","","","","","","","","","",""
"3818","","image-button-response","107","714527","0.0-105.0-0.0","A3MYRZ02DWKZW","img_art/21.jpg","3","","","","","","","","","","","","","","","","","","","","","","","","",""
"1365","","image-button-response","108","715893","0.0-106.0-0.0","A3MYRZ02DWKZW","img_art/21.jpg","4","","","","","","","","","","","","","","","","","","","","","","","","",""
"null","","html-keyboard-response","109","717395","0.0-107.0","A3MYRZ02DWKZW","<p style=""font-size: 48px;"">+</p>","","","","","null","allTrialResponses","1500","1","9","img_art/21.jpg","29","a clash good evil, or two becoming one","Kelly,Taylor,Natalie,Jordan,Sophia,Marissa","It actually reminded me of a place I've been to. So I had a positive reaction to it.,22,220,20","I love the contrasting tones between the two sides,36,340,20","my response to the picture is what is going on?,-13,400,20","Okay, I love the color schemes, I can't quite figure it out though,14,20,20","Indifferent toward this one.,6,280,20","I feel confused,-18,160,20","Taylor","I love the contrasting tones between the two sides,36,340,20","Jordan","Okay, I love the color schemes, I can't quite figure it out though,14,20,20","Sophia","Indifferent toward this one.,6,280,20","4"
"20231","","survey-text","110","737630","0.0-108.0-0.0","A3MYRZ02DWKZW","","","","{""Q0"":""my childhood, and that's not saying much""}","","","","","","","","","","","","","","","","","","","","","","",""
"2968.7999999970198","","image-slider-response","111","740601","0.0-109.0","A3MYRZ02DWKZW","","","","","-41","","","","","","","","","","","","","","","","","","","","","",""
"4262","","image-button-response","112","745604","0.0-110.0","A3MYRZ02DWKZW","img_art/16.jpg","4","","","","","","","","","","","","","","","","","","","","","","","","",""
"490","","image-button-response","113","746096","0.0-111.0","A3MYRZ02DWKZW","img_art/16.jpg","4","","","","","","","","","","","","","","","","","","","","","","","","",""
"1831","","image-button-response","114","747929","0.0-112.0-0.0","A3MYRZ02DWKZW","img_art/16.jpg","3","","","","","","","","","","","","","","","","","","","","","","","","",""
"4454","","image-button-response","115","752386","0.0-113.0-0.0","A3MYRZ02DWKZW","img_art/16.jpg","1","","","","","","","","","","","","","","","","","","","","","","","","",""
"null","","html-keyboard-response","116","753889","0.0-114.0","A3MYRZ02DWKZW","<p style=""font-size: 48px;"">+</p>","","","","","null","allTrialResponses","1500","1","10","img_art/16.jpg","-41","my childhood, and that's not saying much","Emily,Taylor,Jamie,Jordan,Sophia,Gabrielle","Looks like a kid did itt and ti looks disturbing.,-45,40,20","It just makes me feel uncomfortable,-25,340,20","Weird and funny,40,320,20","Not interested at all,-15,20,20","This feels like there's some kind of pedofile thing going on here.,-50,280,20","nonsense art, not really art,-44,160,20","Sophia","This feels like there's some kind of pedofile thing going on here.,-50,280,20","Jordan","Not interested at all,-15,20,20","Taylor","It just makes me feel uncomfortable,-25,340,20","4"
"4586","","survey-text","117","758483","0.0-115.0-0.0","A3MYRZ02DWKZW","","","","{""Q0"":""our""}","","","","","","","","","","","","","","","","","","","","","","",""
"29107","","survey-text","118","787591","0.0-116.0-0.0","A3MYRZ02DWKZW","","","","{""Q0"":""finger-paints, a busy time heading nowhere but somewhere at the same time""}","","","","","","","","","","","","","","","","","","","","","","",""
"5844.79999999702","","image-slider-response","119","793439","0.0-117.0","A3MYRZ02DWKZW","","","","","-31","","","","","","","","","","","","","","","","","","","","","",""
"null","","image-button-response","120","798452","0.0-118.0","A3MYRZ02DWKZW","img_art/10.jpg","null","","","","","","","","","","","","","","","","","","","","","","","","",""
"1894","","image-button-response","121","800348","0.0-119.0","A3MYRZ02DWKZW","img_art/10.jpg","3","","","","","","","","","","","","","","","","","","","","","","","","",""
"3304","","image-button-response","122","803654","0.0-120.0-0.0","A3MYRZ02DWKZW","img_art/10.jpg","1","","","","","","","","","","","","","","","","","","","","","","","","",""
"5750","","image-button-response","123","809406","0.0-121.0-0.0","A3MYRZ02DWKZW","img_art/10.jpg","5","","","","","","","","","","","","","","","","","","","","","","","","",""
"null","","html-keyboard-response","124","810914","0.0-122.0","A3MYRZ02DWKZW","<p style=""font-size: 48px;"">+</p>","","","","","null","allTrialResponses","1500","1","11","img_art/10.jpg","-31","finger-paints, a busy time heading nowhere but somewhere at the same time","Alexandria,Taylor,Kristen,Jordan,Sophia,Monica","it reminds me of a musical instrument,19,80,20","Makes me think of the exhilaration of a roller coaster,31,340,20","music, serenity, love,33,280,20","I dont like it, there is too much going on,-19,20,20","This piece is very intriguing to me.,3,280,20","It doesn't look pleasing to the eye, it kind of looks like an animal but a dirty one,-38,360,20","Jordan","I dont like it, there is too much going on,-19,20,20","Taylor","Makes me think of the exhilaration of a roller coaster,31,340,20","Monica","It doesn't look pleasing to the eye, it kind of looks like an animal but a dirty one,-38,360,20","4"
"18322","","survey-text","125","829239","0.0-123.0-0.0","A3MYRZ02DWKZW","","","","{""Q0"":""I am indifferent to this one""}","","","","","","","","","","","","","","","","","","","","","","",""
"6072.5","","image-slider-response","126","835313","0.0-124.0","A3MYRZ02DWKZW","","","","","2","","","","","","","","","","","","","","","","","","","","","",""
"null","","image-button-response","127","840322","0.0-125.0","A3MYRZ02DWKZW","img_art/8.jpg","null","","","","","","","","","","","","","","","","","","","","","","","","",""
"3004","","image-button-response","128","843329","0.0-126.0","A3MYRZ02DWKZW","img_art/8.jpg","5","","","","","","","","","","","","","","","","","","","","","","","","",""
"3388","","image-button-response","129","846720","0.0-127.0-0.0","A3MYRZ02DWKZW","img_art/8.jpg","1","","","","","","","","","","","","","","","","","","","","","","","","",""
"1768","","image-button-response","130","848490","0.0-128.0-0.0","A3MYRZ02DWKZW","img_art/8.jpg","2","","","","","","","","","","","","","","","","","","","","","","","","",""
"null","","html-keyboard-response","131","848994","0.0-129.0","A3MYRZ02DWKZW","<p style=""font-size: 48px;"">+</p>","","","","","null","allTrialResponses","500","1","12","img_art/8.jpg","2","I am indifferent to this one","Cassandra,Taylor,Cheyenne,Jordan,Brooke,Monica","I like the colors and the scene.,24,120,20","Looks like it would be an interesting place to live,35,340,20","Has nice depth to it.,12,200,20","very nice, i love what's going on here,21,20,20","what's going on here. looks like scary town.,-25,60,20","The faces in the upper left show agony and contrast with the geometric shapes too much,-31,360,20","Monica","The faces in the upper left show agony and contrast with the geometric shapes too much,-31,360,20","Taylor","Looks like it would be an interesting place to live,35,340,20","Cheyenne","Has nice depth to it.,12,200,20","4"
"24786","","survey-text","132","873785","0.0-130.0-0.0","A3MYRZ02DWKZW","","","","{""Q0"":""a womans journey, the birth of a new life""}","","","","","","","","","","","","","","","","","","","","","","",""
"2697.2999999970198","","image-slider-response","133","876484","0.0-131.0","A3MYRZ02DWKZW","","","","","44","","","","","","","","","","","","","","","","","","","","","",""
"null","","image-button-response","134","881490","0.0-132.0","A3MYRZ02DWKZW","img_art/9.jpg","null","","","","","","","","","","","","","","","","","","","","","","","","",""
"8106","","image-button-response","135","889598","0.0-133.0","A3MYRZ02DWKZW","img_art/9.jpg","4","","","","","","","","","","","","","","","","","","","","","","","","",""
"8254","","image-button-response","136","897854","0.0-134.0-0.0","A3MYRZ02DWKZW","img_art/9.jpg","5","","","","","","","","","","","","","","","","","","","","","","","","",""
"1073","","image-button-response","137","898929","0.0-135.0-0.0","A3MYRZ02DWKZW","img_art/9.jpg","2","","","","","","","","","","","","","","","","","","","","","","","","",""
"null","","html-keyboard-response","138","899938","0.0-136.0","A3MYRZ02DWKZW","<p style=""font-size: 48px;"">+</p>","","","","","null","allTrialResponses","1000","1","13","img_art/9.jpg","44","a womans journey, the birth of a new life","Leah,Taylor,Cheyenne,Alexis,Miranda,Monica","Depressing to me, like a dark dream,-11,360,20","The peacock theme gives me negative connotations of my ex-sister-in-law,-10,340,20","Too much going on, don't know what the focus is,-11,200,20","I like the sense of forboding, the green creates a claustrophobic feeling,10,100,20","It looks like someone gave a kid a coloring book page but the colors are soothing and look put together and elegant,27,320,20","I like the greens and blues around the sides and the person reclining in the center makes me feel relaxed,24,360,20","Miranda","It looks like someone gave a kid a coloring book page but the colors are soothing and look put together and elegant,27,320,20","Monica","I like the greens and blues around the sides and the person reclining in the center makes me feel relaxed,24,360,20","Cheyenne","Too much going on, don't know what the focus is,-11,200,20","4"
"35198","","survey-text","139","935140","0.0-137.0-0.0","A3MYRZ02DWKZW","","","","{""Q0"":""a sad cactus I want to save it from being over watered""}","","","","","","","","","","","","","","","","","","","","","","",""
"4881.899999991059","","image-slider-response","140","940024","0.0-138.0","A3MYRZ02DWKZW","","","","","-21","","","","","","","","","","","","","","","","","","","","","",""
"4610","","image-button-response","141","945027","0.0-139.0","A3MYRZ02DWKZW","img_art/4.jpg","3","","","","","","","","","","","","","","","","","","","","","","","","",""
"1034","","image-button-response","142","946063","0.0-140.0","A3MYRZ02DWKZW","img_art/4.jpg","3","","","","","","","","","","","","","","","","","","","","","","","","",""
"1027","","image-button-response","143","947092","0.0-141.0-0.0","A3MYRZ02DWKZW","img_art/4.jpg","0","","","","","","","","","","","","","","","","","","","","","","","","",""
"3770","","image-button-response","144","950865","0.0-142.0-0.0","A3MYRZ02DWKZW","img_art/4.jpg","5","","","","","","","","","","","","","","","","","","","","","","","","",""
"null","","html-keyboard-response","145","952368","0.0-143.0","A3MYRZ02DWKZW","<p style=""font-size: 48px;"">+</p>","","","","","null","allTrialResponses","1500","1","14","img_art/4.jpg","-21","a sad cactus I want to save it from being over watered","Leslie,Cassidy,Cheyenne,Margaret,Miranda,Monica","This elicits no reaction in me.,0,380,20","Hate the color, and just do not get the point.,-13,140,20","Just doesn't look nice.,-40,200,20","doesn't do anything for me,-4,100,20","I just don't understand this one at all, I do not like it,-43,320,20","The dark yellow color makes me think of mustard, which I dislike,-27,360,20","Margaret","doesn't do anything for me,-4,100,20","Leslie","This elicits no reaction in me.,0,380,20","Monica","The dark yellow color makes me think of mustard, which I dislike,-27,360,20","4"
"32459","","survey-text","146","984834","0.0-144.0-0.0","A3MYRZ02DWKZW","","","","{""Q0"":""I want to look away from this sad landscape.""}","","","","","","","","","","","","","","","","","","","","","","",""
"2899.4000000059605","","image-slider-response","147","987735","0.0-145.0","A3MYRZ02DWKZW","","","","","-40","","","","","","","","","","","","","","","","","","","","","",""
"3538","","image-button-response","148","992736","0.0-146.0","A3MYRZ02DWKZW","img_art/26.jpg","4","","","","","","","","","","","","","","","","","","","","","","","","",""
"576","","image-button-response","149","993316","0.0-147.0","A3MYRZ02DWKZW","img_art/26.jpg","4","","","","","","","","","","","","","","","","","","","","","","","","",""
"835","","image-button-response","150","994153","0.0-148.0-0.0","A3MYRZ02DWKZW","img_art/26.jpg","5","","","","","","","","","","","","","","","","","","","","","","","","",""
"1423","","image-button-response","151","995578","0.0-149.0-0.0","A3MYRZ02DWKZW","img_art/26.jpg","3","","","","","","","","","","","","","","","","","","","","","","","","",""
"null","","html-keyboard-response","152","996080","0.0-150.0","A3MYRZ02DWKZW","<p style=""font-size: 48px;"">+</p>","","","","","null","allTrialResponses","500","1","15","img_art/26.jpg","-40","I want to look away from this sad landscape.","Leslie,Shelby,Morgan,Margaret,Mary,Monica","It's a cute city scene. I like the trees.,10,380,20","Very pleasent little scene,40,240,20","Confusing park picture.,8,380,20","its boring and i dont like the color palette,3,100,20","I can tell it's some sort of outdoor scene. It looks very amateurish.,-9,180,20","It looks empty and unfinished,-28,360,20","Mary","I can tell it's some sort of outdoor scene. It looks very amateurish.,-9,180,20","Monica","It looks empty and unfinished,-28,360,20","Margaret","its boring and i dont like the color palette,3,100,20","4"
"8058","","survey-text","153","1004147","0.0-151.0-0.0","A3MYRZ02DWKZW","","","","{""Q0"":""course""}","","","","","","","","","","","","","","","","","","","","","","",""
"32247","","survey-text","154","1036395","0.0-152.0-0.0","A3MYRZ02DWKZW","","","","{""Q0"":""Fun, thrilling erasing the past to start over, very intriguing.""}","","","","","","","","","","","","","","","","","","","","","","",""
"3670.0999999940395","","image-slider-response","155","1040067","0.0-153.0","A3MYRZ02DWKZW","","","","","45","","","","","","","","","","","","","","","","","","","","","",""
"4449","","image-button-response","156","1045070","0.0-154.0","A3MYRZ02DWKZW","img_art/30.jpg","0","","","","","","","","","","","","","","","","","","","","","","","","",""
"1194","","image-button-response","157","1046265","0.0-155.0","A3MYRZ02DWKZW","img_art/30.jpg","1","","","","","","","","","","","","","","","","","","","","","","","","",""
"3387","","image-button-response","158","1049654","0.0-156.0-0.0","A3MYRZ02DWKZW","img_art/30.jpg","2","","","","","","","","","","","","","","","","","","","","","","","","",""
"3234","","image-button-response","159","1052891","0.0-157.0-0.0","A3MYRZ02DWKZW","img_art/30.jpg","0","","","","","","","","","","","","","","","","","","","","","","","","",""
"null","","html-keyboard-response","160","1054393","0.0-158.0","A3MYRZ02DWKZW","<p style=""font-size: 48px;"">+</p>","","","","","null","allTrialResponses","1500","1","16","img_art/30.jpg","45","Fun, thrilling erasing the past to start over, very intriguing.","Kayla,Madison,Jenna,Margaret,Mary,Monica","It's soothing- the page is full, but there aren't too many things happening.,23,180,20","Interesting brushstroke work, but not particularly memorable.,21,60,20","love the movement of the brush strokes. very interesting piece.,38,360,20","I dont like the colors whatsoever,-15,100,20","I hate this piece. It looks like a child created it. The colors are awful.,-46,180,20","It looked like a random scribble but I can see a person's face in it now and I think it's clever,13,360,20","Madison","Interesting brushstroke work, but not particularly memorable.,21,60,20","Jenna","love the movement of the brush strokes. very interesting piece.,38,360,20","Kayla","It's soothing- the page is full, but there aren't too many things happening.,23,180,20","4"
"18021","","survey-text","161","1072420","0.0-159.0-0.0","A3MYRZ02DWKZW","","","","{""Q0"":""yeah, NO this makes me feel uncomfortable.""}","","","","","","","","","","","","","","","","","","","","","","",""
"3608.2000000029802","","image-slider-response","162","1076031","0.0-160.0","A3MYRZ02DWKZW","","","","","-49","","","","","","","","","","","","","","","","","","","","","",""
"3935","","image-button-response","163","1081035","0.0-161.0","A3MYRZ02DWKZW","img_art/5.jpg","4","","","","","","","","","","","","","","","","","","","","","","","","",""
"428","","image-button-response","164","1081466","0.0-162.0","A3MYRZ02DWKZW","img_art/5.jpg","4","","","","","","","","","","","","","","","","","","","","","","","","",""
"8161","","image-button-response","165","1089629","0.0-163.0-0.0","A3MYRZ02DWKZW","img_art/5.jpg","3","","","","","","","","","","","","","","","","","","","","","","","","",""
"3108","","image-button-response","166","1092739","0.0-164.0-0.0","A3MYRZ02DWKZW","img_art/5.jpg","2","","","","","","","","","","","","","","","","","","","","","","","","",""
"null","","html-keyboard-response","167","1093247","0.0-165.0","A3MYRZ02DWKZW","<p style=""font-size: 48px;"">+</p>","","","","","null","allTrialResponses","500","1","17","img_art/5.jpg","-49","yeah, NO this makes me feel uncomfortable.","Kayla,Madison,Jenna,Savannah,Jacqueline,Angelica","I like that the pyramid is putting off a beacon of light.,11,180,20","Bright and luminous,31,60,20","it's okay. the colors are eye catching, but that's about it.,3,360,20","Boring and appears low effort,-41,200,20","Seems very basic and uninteresting.,-15,300,20","This is interesting and nice.,16,280,20","Jacqueline","Seems very basic and uninteresting.,-15,300,20","Savannah","Boring and appears low effort,-41,200,20","Jenna","it's okay. the colors are eye catching, but that's about it.,3,360,20","4"
"21082","","survey-text","168","1114334","0.0-166.0-0.0","A3MYRZ02DWKZW","","","","{""Q0"":""I feel warm, excited, hopeful. ""}","","","","","","","","","","","","","","","","","","","","","","",""
"2679.1000000089407","","image-slider-response","169","1117015","0.0-167.0","A3MYRZ02DWKZW","","","","","34","","","","","","","","","","","","","","","","","","","","","",""
"null","","image-button-response","170","1122032","0.0-168.0","A3MYRZ02DWKZW","img_art/1.jpg","null","","","","","","","","","","","","","","","","","","","","","","","","",""
"3878","","image-button-response","171","1125912","0.0-169.0","A3MYRZ02DWKZW","img_art/1.jpg","2","","","","","","","","","","","","","","","","","","","","","","","","",""
"1783","","image-button-response","172","1127697","0.0-170.0-0.0","A3MYRZ02DWKZW","img_art/1.jpg","5","","","","","","","","","","","","","","","","","","","","","","","","",""
"1854","","image-button-response","173","1129553","0.0-171.0-0.0","A3MYRZ02DWKZW","img_art/1.jpg","3","","","","","","","","","","","","","","","","","","","","","","","","",""
"null","","html-keyboard-response","174","1130056","0.0-172.0","A3MYRZ02DWKZW","<p style=""font-size: 48px;"">+</p>","","","","","null","allTrialResponses","500","1","18","img_art/1.jpg","34","I feel warm, excited, hopeful. ","Sierra,Jessica,Jenna,Savannah,Jacqueline,Kaylee","there isnt anything clear to look at,-2,260,20","Looks like the same thing as the last piece shown to me,10,400,20","beautiful colors and brush strokes,47,360,20","Its simply okay.,3,200,20","It's alright but lacks any depth.,-5,300,20","a colorful piece of art,25,200,20","Jenna","beautiful colors and brush strokes,47,360,20","Kaylee","a colorful piece of art,25,200,20","Savannah","Its simply okay.,3,200,20","4"
"17964","","survey-text","175","1148023","0.0-173.0-0.0","A3MYRZ02DWKZW","","","","{""Q0"":""no I like this one simple but deep""}","","","","","","","","","","","","","","","","","","","","","","",""
"3271.5","","image-slider-response","176","1151297","0.0-174.0","A3MYRZ02DWKZW","","","","","38","","","","","","","","","","","","","","","","","","","","","",""
"null","","image-button-response","177","1156299","0.0-175.0","A3MYRZ02DWKZW","img_art/6.jpg","null","","","","","","","","","","","","","","","","","","","","","","","","",""
"4190","","image-button-response","178","1160492","0.0-176.0","A3MYRZ02DWKZW","img_art/6.jpg","4","","","","","","","","","","","","","","","","","","","","","","","","",""
"13174","","image-button-response","179","1173668","0.0-177.0-0.0","A3MYRZ02DWKZW","img_art/6.jpg","0","","","","","","","","","","","","","","","","","","","","","","","","",""
"2679","","image-button-response","180","1176350","0.0-178.0-0.0","A3MYRZ02DWKZW","img_art/6.jpg","3","","","","","","","","","","","","","","","","","","","","","","","","",""
"null","","html-keyboard-response","181","1177855","0.0-179.0","A3MYRZ02DWKZW","<p style=""font-size: 48px;"">+</p>","","","","","null","allTrialResponses","1500","1","19","img_art/6.jpg","38","no I like this one simple but deep","Erica,Erin,Jenna,Savannah,Maria,Kaylee","positive because of bright colours and a bird,20,80,20","Blackbird in the desert,27,120,20","I like the bottom half, but not the top,-7,360,20","Despite how simple it is, this piece has clear meaning.,34,200,20","intrigues me - not sure what I'm seeing, but I like combination of colour and texture,21,120,20","just an another tree on a desert?,9,200,20","Maria","intrigues me - not sure what I'm seeing, but I like combination of colour and texture,21,120,20","Erica","positive because of bright colours and a bird,20,80,20","Savannah","Despite how simple it is, this piece has clear meaning.,34,200,20","4"
"21516","","survey-text","182","1199375","0.0-180.0-0.0","A3MYRZ02DWKZW","","","","{""Q0"":""confusing, angry sadness, looks like a group going off to fight a battle""}","","","","","","","","","","","","","","","","","","","","","","",""
"4878.29999999702","","image-slider-response","183","1204255","0.0-181.0","A3MYRZ02DWKZW","","","","","17","","","","","","","","","","","","","","","","","","","","","",""
"null","","image-button-response","184","1209258","0.0-182.0","A3MYRZ02DWKZW","img_art/18.jpg","null","","","","","","","","","","","","","","","","","","","","","","","","",""
"1771","","image-button-response","185","1211031","0.0-183.0","A3MYRZ02DWKZW","img_art/18.jpg","0","","","","","","","","","","","","","","","","","","","","","","","","",""
"4748","","image-button-response","186","1215783","0.0-184.0-0.0","A3MYRZ02DWKZW","img_art/18.jpg","4","","","","","","","","","","","","","","","","","","","","","","","","",""
"1047","","image-button-response","187","1216833","0.0-185.0-0.0","A3MYRZ02DWKZW","img_art/18.jpg","3","","","","","","","","","","","","","","","","","","","","","","","","",""
"null","","html-keyboard-response","188","1217335","0.0-186.0","A3MYRZ02DWKZW","<p style=""font-size: 48px;"">+</p>","","","","","null","allTrialResponses","500","1","20","img_art/18.jpg","17","confusing, angry sadness, looks like a group going off to fight a battle","Erica,Amber,Tiffany,Savannah,Maria,Chloe","Makes me to look at it and investigate what it is about and what is going on,17,80,20","ugly and lots of movement,-6,200,20","I'm mildly disgusted by the colors, and can't piece together the story the figures are trying to tell.,-10,360,20","Accents make this piece.,21,200,20","enjoy the juxtaposition of abstract with tangible elements & the use of color,10,120,20","Evocative but cheesy.,-20,220,20","Erica","Makes me to look at it and investigate what it is about and what is going on,17,80,20","Maria","enjoy the juxtaposition of abstract with tangible elements & the use of color,10,120,20","Savannah","Accents make this piece.,21,200,20","4"
"3572","","survey-text","189","1220917","0.0-187.0-0.0","A3MYRZ02DWKZW","","","","{""Q0"":""we""}","","","","","","","","","","","","","","","","","","","","","","",""
"18505","","survey-text","190","1239423","0.0-188.0-0.0","A3MYRZ02DWKZW","","","","{""Q0"":""to much, makes me anxious and overwhelmed""}","","","","","","","","","","","","","","","","","","","","","","",""
"2438.2999999970198","","image-slider-response","191","1241863","0.0-189.0","A3MYRZ02DWKZW","","","","","-42","","","","","","","","","","","","","","","","","","","","","",""
"null","","image-button-response","192","1246866","0.0-190.0","A3MYRZ02DWKZW","img_art/23.jpg","null","","","","","","","","","","","","","","","","","","","","","","","","",""
"376","","image-button-response","193","1247244","0.0-191.0","A3MYRZ02DWKZW","img_art/23.jpg","2","","","","","","","","","","","","","","","","","","","","","","","","",""
"7220","","image-button-response","194","1254465","0.0-192.0-0.0","A3MYRZ02DWKZW","img_art/23.jpg","3","","","","","","","","","","","","","","","","","","","","","","","","",""
"1633","","image-button-response","195","1256102","0.0-193.0-0.0","A3MYRZ02DWKZW","img_art/23.jpg","0","","","","","","","","","","","","","","","","","","","","","","","","",""
"null","","html-keyboard-response","196","1257603","0.0-194.0","A3MYRZ02DWKZW","<p style=""font-size: 48px;"">+</p>","","","","","null","allTrialResponses","1500","1","21","img_art/23.jpg","-42","to much, makes me anxious and overwhelmed","Erica,Sara,Sydney,Savannah,Maria,Chelsea","Very energetic, seems like it is pulling me in,24,80,20","Beautiful color scheme,21,160,20","The piece seems chaotic, and I dislike the random pop of white within so many colors.,-10,320,20","Very colorful. Nice contrasts.,26,200,20","the pattern of colours imbues in me a sense of infinity, which I find soothing,10,120,20","I like the royal colors.,38,180,20","Sydney","The piece seems chaotic, and I dislike the random pop of white within so many colors.,-10,320,20","Savannah","Very colorful. Nice contrasts.,26,200,20","Erica","Very energetic, seems like it is pulling me in,24,80,20","4"
"19070","","survey-text","197","1276679","0.0-195.0-0.0","A3MYRZ02DWKZW","","","","{""Q0"":""nothing special not initial response""}","","","","","","","","","","","","","","","","","","","","","","",""
"2952.5","","image-slider-response","198","1279634","0.0-196.0","A3MYRZ02DWKZW","","","","","-3","","","","","","","","","","","","","","","","","","","","","",""
"null","","image-button-response","199","1284637","0.0-197.0","A3MYRZ02DWKZW","img_art/27.jpg","null","","","","","","","","","","","","","","","","","","","","","","","","",""
"240","","image-button-response","200","1284880","0.0-198.0","A3MYRZ02DWKZW","img_art/27.jpg","4","","","","","","","","","","","","","","","","","","","","","","","","",""
"2204","","image-button-response","201","1287086","0.0-199.0-0.0","A3MYRZ02DWKZW","img_art/27.jpg","5","","","","","","","","","","","","","","","","","","","","","","","","",""
"4692","","image-button-response","202","1291781","0.0-200.0-0.0","A3MYRZ02DWKZW","img_art/27.jpg","3","","","","","","","","","","","","","","","","","","","","","","","","",""
"null","","html-keyboard-response","203","1293283","0.0-201.0","A3MYRZ02DWKZW","<p style=""font-size: 48px;"">+</p>","","","","","null","allTrialResponses","1500","1","22","img_art/27.jpg","-3","nothing special not initial response","Erica,Samantha,Sydney,Savannah,Caitlin,Katelyn","I like the pictures but it is a lot of going on,10,80,20","I like all it has going but i wouldnt put it in my house unless my child did it,25,140,20","This piece reminds me of a summer day.,30,320,20","An abstract piece with such lifeless colors.,-26,200,20","Looks like a child added his own interpretation with a black marker.,-5,80,20","Doesnt look like anything to me. Doesnt capture my attention.,-25,100,20","Caitlin","Looks like a child added his own interpretation with a black marker.,-5,80,20","Katelyn","Doesnt look like anything to me. Doesnt capture my attention.,-25,100,20","Savannah","An abstract piece with such lifeless colors.,-26,200,20","4"
"28144","","survey-text","204","1321432","0.0-202.0-0.0","A3MYRZ02DWKZW","","","","{""Q0"":""yuck, to many squares not much to the imagination, looks like the tile in a bathroom""}","","","","","","","","","","","","","","","","","","","","","","",""
"3763","","image-slider-response","205","1325197","0.0-203.0","A3MYRZ02DWKZW","","","","","-32","","","","","","","","","","","","","","","","","","","","","",""
"null","","image-button-response","206","1330210","0.0-204.0","A3MYRZ02DWKZW","img_art/12.jpg","null","","","","","","","","","","","","","","","","","","","","","","","","",""
"1074","","image-button-response","207","1331287","0.0-205.0","A3MYRZ02DWKZW","img_art/12.jpg","5","","","","","","","","","","","","","","","","","","","","","","","","",""
"1867","","image-button-response","208","1333157","0.0-206.0-0.0","A3MYRZ02DWKZW","img_art/12.jpg","1","","","","","","","","","","","","","","","","","","","","","","","","",""
"2025","","image-button-response","209","1335184","0.0-207.0-0.0","A3MYRZ02DWKZW","img_art/12.jpg","0","","","","","","","","","","","","","","","","","","","","","","","","",""
"null","","html-keyboard-response","210","1336187","0.0-208.0","A3MYRZ02DWKZW","<p style=""font-size: 48px;"">+</p>","","","","","null","allTrialResponses","1000","1","23","img_art/12.jpg","-32","yuck, to many squares not much to the imagination, looks like the tile in a bathroom","Lauren,Laura,Alyssa,Savannah,Caitlin,Katelyn","This doesn't invoke anything. Just a mosaic of random images.,0,340,20","angry, disturbed and sharp,-25,320,20","Its cool,reminiscent of Andy Warhol type of style,10,160,20","Almost natural flowing between abstract sections.,27,200,20","Just wish it was more colorful.,20,80,20","Just confuses me overall,-11,100,20","Katelyn","Just confuses me overall,-11,100,20","Laura","angry, disturbed and sharp,-25,320,20","Lauren","This doesn't invoke anything. Just a mosaic of random images.,0,340,20","4"
"25937","","survey-text","211","1362130","0.0-209.0-0.0","A3MYRZ02DWKZW","","","","{""Q0"":""beautiful, reminds me of bluebells from TEXAS""}","","","","","","","","","","","","","","","","","","","","","","",""
"2297","","image-slider-response","212","1364429","0.0-210.0","A3MYRZ02DWKZW","","","","","28","","","","","","","","","","","","","","","","","","","","","",""
"3467","","image-button-response","213","1369432","0.0-211.0","A3MYRZ02DWKZW","img_art/15.jpg","4","","","","","","","","","","","","","","","","","","","","","","","","",""
"711","","image-button-response","214","1370145","0.0-212.0","A3MYRZ02DWKZW","img_art/15.jpg","4","","","","","","","","","","","","","","","","","","","","","","","","",""
"3115","","image-button-response","215","1373262","0.0-213.0-0.0","A3MYRZ02DWKZW","img_art/15.jpg","3","","","","","","","","","","","","","","","","","","","","","","","","",""
"9008","","image-button-response","216","1382273","0.0-214.0-0.0","A3MYRZ02DWKZW","img_art/15.jpg","0","","","","","","","","","","","","","","","","","","","","","","","","",""
"null","","html-keyboard-response","217","1383274","0.0-215.0","A3MYRZ02DWKZW","<p style=""font-size: 48px;"">+</p>","","","","","null","allTrialResponses","1000","1","24","img_art/15.jpg","28","beautiful, reminds me of bluebells from TEXAS","Lauren,Laura,Makayla,Rachel,Cynthia,Katelyn","Hard to tell what I'm looking at, but it does a gives a slight impression of a of garden.,5,340,20","abrasive, rough, uneven,-31,320,20","It's just dots. Doesn't bring any positive or negative feelings,2,80,20","Reminds me of blue birds in a tree at night. I love nature.,40,80,20","interested in this transformation,20,320,20","Doesnt trigger much of a reaction overall,-2,100,20","Cynthia","interested in this transformation,20,320,20","Rachel","Reminds me of blue birds in a tree at night. I love nature.,40,80,20","Lauren","Hard to tell what I'm looking at, but it does a gives a slight impression of a of garden.,5,340,20","4"
"28434","","survey-text","218","1411716","0.0-216.0-0.0","A3MYRZ02DWKZW","","","","{""Q0"":""nothing, looks like the landscape of mars, or something x10 under a microscope""}","","","","","","","","","","","","","","","","","","","","","","",""
"2166.4000000059605","","image-slider-response","219","1413884","0.0-217.0","A3MYRZ02DWKZW","","","","","-35","","","","","","","","","","","","","","","","","","","","","",""
"null","","image-button-response","220","1418888","0.0-218.0","A3MYRZ02DWKZW","img_art/7.jpg","null","","","","","","","","","","","","","","","","","","","","","","","","",""
"2981","","image-button-response","221","1421870","0.0-219.0","A3MYRZ02DWKZW","img_art/7.jpg","5","","","","","","","","","","","","","","","","","","","","","","","","",""
"2530","","image-button-response","222","1424401","0.0-220.0-0.0","A3MYRZ02DWKZW","img_art/7.jpg","2","","","","","","","","","","","","","","","","","","","","","","","","",""
"1176","","image-button-response","223","1425580","0.0-221.0-0.0","A3MYRZ02DWKZW","img_art/7.jpg","4","","","","","","","","","","","","","","","","","","","","","","","","",""
"null","","html-keyboard-response","224","1427093","0.0-222.0","A3MYRZ02DWKZW","<p style=""font-size: 48px;"">+</p>","","","","","null","allTrialResponses","1500","1","25","img_art/7.jpg","-35","nothing, looks like the landscape of mars, or something x10 under a microscope","Lauren,Paige,Lindsey,Rachel,Cynthia,Madeline","I like how the image has a sense of history, since the style looks like it came from stone.,20,340,20","Happy. Looking at the moon,43,60,20","It's dirty. I don't mind the colors so much as the way they are put together in this dirty-looking pattern.,-41,400,20","Looks like a desert or another planet. While the color choices are narrow, it's still interesting because it is very natural.,12,80,20","time and change,1,320,20","Not very big on the sameness here,-20,40,20","Madeline","Not very big on the sameness here,-20,40,20","Lindsey","It's dirty. I don't mind the colors so much as the way they are put together in this dirty-looking pattern.,-41,400,20","Cynthia","time and change,1,320,20","4"
"4257","","survey-text","225","1431363","0.0-223.0-0.0","A3MYRZ02DWKZW","","","","{""Q0"":""table""}","","","","","","","","","","","","","","","","","","","","","","",""
"15635","","survey-text","226","1446999","0.0-224.0-0.0","A3MYRZ02DWKZW","","","","{""Q0"":""exciting, change over time""}","","","","","","","","","","","","","","","","","","","","","","",""
"3179.300000011921","","image-slider-response","227","1450180","0.0-225.0","A3MYRZ02DWKZW","","","","","37","","","","","","","","","","","","","","","","","","","","","",""
"2780","","image-button-response","228","1455186","0.0-226.0","A3MYRZ02DWKZW","img_art/13.jpg","0","","","","","","","","","","","","","","","","","","","","","","","","",""
"823","","image-button-response","229","1456011","0.0-227.0","A3MYRZ02DWKZW","img_art/13.jpg","0","","","","","","","","","","","","","","","","","","","","","","","","",""
"4083","","image-button-response","230","1460096","0.0-228.0-0.0","A3MYRZ02DWKZW","img_art/13.jpg","4","","","","","","","","","","","","","","","","","","","","","","","","",""
"8692","","image-button-response","231","1468790","0.0-229.0-0.0","A3MYRZ02DWKZW","img_art/13.jpg","1","","","","","","","","","","","","","","","","","","","","","","","","",""
"null","","html-keyboard-response","232","1470302","0.0-230.0","A3MYRZ02DWKZW","<p style=""font-size: 48px;"">+</p>","","","","","null","allTrialResponses","1500","1","26","img_art/13.jpg","37","exciting, change over time","Katherine,Allison,Lindsey,Molly,Cynthia,Madeline","Best color combo. i love this.,50,120,20","Generic mix of colors. Cool and messy.,10,140,20","I find this oddly pleasant, but I object to this style. It's just a background with splatters. How is that art?,-5,400,20","Incredible, curious.,20,340,20","It reminds me of rain,11,320,20","Really love the colors,11,40,20","Katherine","Best color combo. i love this.,50,120,20","Cynthia","It reminds me of rain,11,320,20","Allison","Generic mix of colors. Cool and messy.,10,140,20","4"
"24666","","survey-text","233","1494971","0.0-231.0-0.0","A3MYRZ02DWKZW","","","","{""Q0"":""again with the squares nothing attracts me to this but the weird circle that looks like its running""}","","","","","","","","","","","","","","","","","","","","","","",""
"3274.5","","image-slider-response","234","1498248","0.0-232.0","A3MYRZ02DWKZW","","","","","-6","","","","","","","","","","","","","","","","","","","","","",""
"null","","image-button-response","235","1503250","0.0-233.0","A3MYRZ02DWKZW","img_art/22.jpg","null","","","","","","","","","","","","","","","","","","","","","","","","",""
"733","","image-button-response","236","1503985","0.0-234.0","A3MYRZ02DWKZW","img_art/22.jpg","0","","","","","","","","","","","","","","","","","","","","","","","","",""
"2687","","image-button-response","237","1506675","0.0-235.0-0.0","A3MYRZ02DWKZW","img_art/22.jpg","4","","","","","","","","","","","","","","","","","","","","","","","","",""
"2415","","image-button-response","238","1509091","0.0-236.0-0.0","A3MYRZ02DWKZW","img_art/22.jpg","2","","","","","","","","","","","","","","","","","","","","","","","","",""
"null","","html-keyboard-response","239","1509594","0.0-237.0","A3MYRZ02DWKZW","<p style=""font-size: 48px;"">+</p>","","","","","null","allTrialResponses","500","1","27","img_art/22.jpg","-6","again with the squares nothing attracts me to this but the weird circle that looks like its running","Katherine,Allison,Hailey,Melissa,Cynthia,Haley","Cool squares but what's the circle?,38,120,20","Very generic mix of primary colors and shapes. Not a huge fan.,-10,140,20","a lost balloon in outer space,12,200,20","strong blending skills,7,240,20","A key to the unknown,15,320,20","Beautiful. I love the color contrast and gradients.,50,220,20","Katherine","Cool squares but what's the circle?,38,120,20","Cynthia","A key to the unknown,15,320,20","Hailey","a lost balloon in outer space,12,200,20","4"
"28980","","survey-text","240","1538581","0.0-238.0-0.0","A3MYRZ02DWKZW","","","","{""Q0"":""No this is exciting I could stare at this color scheme all day and see different things""}","","","","","","","","","","","","","","","","","","","","","","",""
"3312.2000000029802","","image-slider-response","241","1541895","0.0-239.0","A3MYRZ02DWKZW","","","","","50","","","","","","","","","","","","","","","","","","","","","",""
"2940","","image-button-response","242","1546905","0.0-240.0","A3MYRZ02DWKZW","img_art/17.jpg","3","","","","","","","","","","","","","","","","","","","","","","","","",""
"952","","image-button-response","243","1547859","0.0-241.0","A3MYRZ02DWKZW","img_art/17.jpg","3","","","","","","","","","","","","","","","","","","","","","","","","",""
"3694","","image-button-response","244","1551555","0.0-242.0-0.0","A3MYRZ02DWKZW","img_art/17.jpg","0","","","","","","","","","","","","","","","","","","","","","","","","",""
"2442","","image-button-response","245","1554000","0.0-243.0-0.0","A3MYRZ02DWKZW","img_art/17.jpg","1","","","","","","","","","","","","","","","","","","","","","","","","",""
"null","","html-keyboard-response","246","1555014","0.0-244.0","A3MYRZ02DWKZW","<p style=""font-size: 48px;"">+</p>","","","","","null","allTrialResponses","1000","1","28","img_art/17.jpg","50","No this is exciting I could stare at this color scheme all day and see different things","Katherine,Alexa,Hailey,Erika,Cynthia,Isabella","Looks like a weird blurry heaven again! I dig,32,120,20","The colors are beautiful and the painting itself is magnificent,50,40,20","soft and warm light colors are relaxing,12,200,20","I love vague, dreamlike styles,50,100,20","battle between nature and man,31,320,20","Pleasant fall to winter day,22,280,20","Erika","I love vague, dreamlike styles,50,100,20","Katherine","Looks like a weird blurry heaven again! I dig,32,120,20","Alexa","The colors are beautiful and the painting itself is magnificent,50,40,20","4"
"29331","","survey-text","247","1584354","0.0-245.0-0.0","A3MYRZ02DWKZW","","","","{""Q0"":""confusing, is it water, is it s dead animal fur, intrigued I like this""}","","","","","","","","","","","","","","","","","","","","","","",""
"3120.7000000029802","","image-slider-response","248","1587476","0.0-246.0","A3MYRZ02DWKZW","","","","","46","","","","","","","","","","","","","","","","","","","","","",""
"null","","image-button-response","249","1592479","0.0-247.0","A3MYRZ02DWKZW","img_art/24.jpg","null","","","","","","","","","","","","","","","","","","","","","","","","",""
"1463","","image-button-response","250","1593944","0.0-248.0","A3MYRZ02DWKZW","img_art/24.jpg","0","","","","","","","","","","","","","","","","","","","","","","","","",""
"2558","","image-button-response","251","1596504","0.0-249.0-0.0","A3MYRZ02DWKZW","img_art/24.jpg","1","","","","","","","","","","","","","","","","","","","","","","","","",""
"5850","","image-button-response","252","1602357","0.0-250.0-0.0","A3MYRZ02DWKZW","img_art/24.jpg","3","","","","","","","","","","","","","","","","","","","","","","","","",""
"null","","html-keyboard-response","253","1603877","0.0-251.0","A3MYRZ02DWKZW","<p style=""font-size: 48px;"">+</p>","","","","","null","allTrialResponses","1500","1","29","img_art/24.jpg","46","confusing, is it water, is it s dead animal fur, intrigued I like this","Katherine,Alexa,Katie,Erika,Heather,Victoria","The combination of nature / realism with abstract colors is unique.,39,120,20","I absolutely adore this painting. The colors, designs, everything. It's phenomenal,50,40,20","I see a waterfall, which is relaxing and peaceful!  I like the blue coloring,30,160,20","Very nice textures and subject,38,100,20","i feel peace and wanting. i love waterfalls,50,260,20","very peaceful and serene,47,400,20","Katherine","The combination of nature / realism with abstract colors is unique.,39,120,20","Alexa","I absolutely adore this painting. The colors, designs, everything. It's phenomenal,50,40,20","Erika","Very nice textures and subject,38,100,20","4"
"16306","","survey-text","254","1620190","0.0-252.0-0.0","A3MYRZ02DWKZW","","","","{""Q0"":""uncomfortable, looks like a crime scene""}","","","","","","","","","","","","","","","","","","","","","","",""
"2858.2000000029802","","image-slider-response","255","1623050","0.0-253.0","A3MYRZ02DWKZW","","","","","-33","","","","","","","","","","","","","","","","","","","","","",""
"2439","","image-button-response","256","1628064","0.0-254.0","A3MYRZ02DWKZW","img_art/29.jpg","3","","","","","","","","","","","","","","","","","","","","","","","","",""
"1127","","image-button-response","257","1629194","0.0-255.0","A3MYRZ02DWKZW","img_art/29.jpg","3","","","","","","","","","","","","","","","","","","","","","","","","",""
"6041","","image-button-response","258","1635236","0.0-256.0-0.0","A3MYRZ02DWKZW","img_art/29.jpg","2","","","","","","","","","","","","","","","","","","","","","","","","",""
"4739","","image-button-response","259","1639977","0.0-257.0-0.0","A3MYRZ02DWKZW","img_art/29.jpg","0","","","","","","","","","","","","","","","","","","","","","","","","",""
"null","","html-keyboard-response","260","1640978","0.0-258.0","A3MYRZ02DWKZW","<p style=""font-size: 48px;"">+</p>","","","","","null","allTrialResponses","1000","1","30","img_art/29.jpg","-33","uncomfortable, looks like a crime scene","Katherine,Alexa,Stephanie,Erika,Rebecca,Sabrina","I think the grey and red inspire negative feelings but it's not the worst thing.,13,120,20","Very wild and I like it,20,40,20","Looks like a murder,-50,300,20","Feels like an abandoned dream,13,100,20","love the texture, i don't know, i just really like it (and the paintbrush adds a nice touch),44,100,20","I love the representation of a mess,50,120,20","Erika","Feels like an abandoned dream,13,100,20","Stephanie","Looks like a murder,-50,300,20","Katherine","I think the grey and red inspire negative feelings but it's not the worst thing.,13,120,20","4"
"5638","","image-button-response_instructions","261","1646625","0.0-259.0","A3MYRZ02DWKZW","","0","instructions","","","","","","","","","","","","","","","","","","","","","","","",""
