"rt","url","trial_type","trial_index","time_elapsed","internal_node_id","participant_id","stimulus","button_pressed","Name","responses","response","key_press","variableName","fixationTime","condition","trial","photo","subjectRating","subjectResponse","agentsNames","agent_1_Response","agent_2_Response","agent_3_Response","agent_4_Response","agent_5_Response","agent_6_Response","kept_1_name","kept_1_response","kept_2_name","kept_2_response","kept_3_name","kept_3_response","errorCounter"
"8802","external_page_harvard.html","external-html","0","8884","0.0-0.0","A3NG205QJ48IM4","","","","","","","","","","","","","","","","","","","","","","","","","","",""
"1994","","image-button-response","1","10880","0.0-1.0","A3NG205QJ48IM4","","1","","","","","","","","","","","","","","","","","","","","","","","","",""
"2910","","image-button-response","2","13796","0.0-2.0-0.0","A3NG205QJ48IM4","","1","phone","","","","","","","","","","","","","","","","","","","","","","","",""
"11680","","survey-text","3","25477","0.0-3.0-0.0","A3NG205QJ48IM4","","","","{""Q0"":""A3NG205QJ48IM4""}","","","","","","","","","","","","","","","","","","","","","","",""
"4324","","image-button-response_instructions","4","29804","0.0-4.0","A3NG205QJ48IM4","","0","instructions","","","","","","","","","","","","","","","","","","","","","","","",""
"31753","","image-button-response_instructions","5","61558","0.0-5.0","A3NG205QJ48IM4","img_art/ins/popularity/ins1.png","0","instructions","","","","","","","","","","","","","","","","","","","","","","","",""
"4651","","image-button-response_instructions","6","66211","0.0-6.0","A3NG205QJ48IM4","img_art/ins/popularity/ins2.png","0","instructions","","","","","","","","","","","","","","","","","","","","","","","",""
"6109","","image-button-response_instructions","7","72322","0.0-7.0","A3NG205QJ48IM4","img_art/ins/popularity/ins2Extreme.png","0","instructions","","","","","","","","","","","","","","","","","","","","","","","",""
"6117","","image-button-response_instructions","8","78441","0.0-8.0","A3NG205QJ48IM4","img_art/ins/popularity/ins3KEEPpop.PNG","0","instructions","","","","","","","","","","","","","","","","","","","","","","","",""
"5083","","image-button-response_instructions","9","83525","0.0-9.0","A3NG205QJ48IM4","img_art/ins/popularity/ins3ANamepop.PNG","0","instructions","","","","","","","","","","","","","","","","","","","","","","","",""
"3878","","image-button-response_instructions","10","87405","0.0-10.0","A3NG205QJ48IM4","img_art/ins/popularity/ins3ARatingpop.png","0","instructions","","","","","","","","","","","","","","","","","","","","","","","",""
"3407","","image-button-response_instructions","11","90814","0.0-11.0","A3NG205QJ48IM4","img_art/ins/popularity/ins3ATextpop.png","0","instructions","","","","","","","","","","","","","","","","","","","","","","","",""
"10482","","image-button-response_instructions","12","101297","0.0-12.0","A3NG205QJ48IM4","img_art/ins/popularity/ins3ALikespop.png","0","instructions","","","","","","","","","","","","","","","","","","","","","","","",""
"12214","","image-button-response_instructions","13","113513","0.0-13.0","A3NG205QJ48IM4","img_art/ins/popularity/ins3KEEPpop.PNG","0","instructions","","","","","","","","","","","","","","","","","","","","","","","",""
"12017","","image-button-response_instructions","14","125531","0.0-14.0","A3NG205QJ48IM4","img_art/ins/popularity/ins3_5RED.png","0","instructions","","","","","","","","","","","","","","","","","","","","","","","",""
"6870","","image-button-response_instructions","15","132402","0.0-15.0","A3NG205QJ48IM4","img_art/ins/popularity/ins3KEEPpop.PNG","0","instructions","","","","","","","","","","","","","","","","","","","","","","","",""
"10004","","image-button-response_instructions","16","142407","0.0-16.0","A3NG205QJ48IM4","img_art/ins/popularity/ins4KEEPpop.PNG","0","instructions","","","","","","","","","","","","","","","","","","","","","","","",""
"5069","","image-button-response_instructions","17","147476","0.0-17.0","A3NG205QJ48IM4","img_art/ins/popularity/ins5KEEPpop.PNG","0","instructions","","","","","","","","","","","","","","","","","","","","","","","",""
"2929","","image-button-response_instructions","18","150407","0.0-18.0","A3NG205QJ48IM4","","0","instructions","","","","","","","","","","","","","","","","","","","","","","","",""
"8387","","survey-text","19","158821","0.0-19.0-0.0","A3NG205QJ48IM4","","","","{""Q0"":""but""}","","","","","","","","","","","","","","","","","","","","","","",""
"14187","","survey-text","20","173009","0.0-20.0-0.0","A3NG205QJ48IM4","","","","{""Q0"":""motion and waves""}","","","","","","","","","","","","","","","","","","","","","","",""
"9273.600000023842","","image-slider-response","21","182285","0.0-21.0","A3NG205QJ48IM4","","","","","-42","","","","","","","","","","","","","","","","","","","","","",""
"null","","image-button-response","22","187295","0.0-22.0","A3NG205QJ48IM4","img_art/ins/1.jpg","null","","","","","","","","","","","","","","","","","","","","","","","","",""
"8719","","image-button-response","23","196018","0.0-23.0","A3NG205QJ48IM4","img_art/ins/1.jpg","3","","","","","","","","","","","","","","","","","","","","","","","","",""
"2842","","image-button-response","24","198862","0.0-24.0-0.0","A3NG205QJ48IM4","img_art/ins/1.jpg","5","","","","","","","","","","","","","","","","","","","","","","","","",""
"7221","","image-button-response","25","206085","0.0-25.0-0.0","A3NG205QJ48IM4","img_art/ins/1.jpg","0","","","","","","","","","","","","","","","","","","","","","","","","",""
"null","","html-keyboard-response","26","207589","0.0-26.0","A3NG205QJ48IM4","<p style=""font-size: 48px;"">+</p>","","","","","null","allTrialResponses","1500","1","-2","img_art/ins/1.jpg","-42","motion and waves","Allison,Ashley,Beth,Dora,Erika,Jen","looks like a lot of things going on in the mist,20,20,20","I just don't get why these type of art would be popular,-32,40,20","This color reminds me of poo,-46,60,20","looks like what my niece in 3rd grade did this afternoon,-50,80,20","I like the sophisticated brushwork,40,100,20","It reminds me of a candy land dream I had,36,120,20","Dora","looks like what my niece in 3rd grade did this afternoon,-50,80,20","Jen","It reminds me of a candy land dream I had,36,120,20","Allison","looks like a lot of things going on in the mist,20,20,20","0"
"42058","","survey-text","27","249660","0.0-27.0-0.0","A3NG205QJ48IM4","","","","{""Q0"":""stucco art with many hidden faces and objects""}","","","","","","","","","","","","","","","","","","","","","","",""
"6032","","image-slider-response","28","255695","0.0-28.0","A3NG205QJ48IM4","","","","","-8","","","","","","","","","","","","","","","","","","","","","",""
"null","","image-button-response","29","260709","0.0-29.0","A3NG205QJ48IM4","img_art/ins/2.jpg","null","","","","","","","","","","","","","","","","","","","","","","","","",""
"4783","","image-button-response","30","265495","0.0-30.0","A3NG205QJ48IM4","img_art/ins/2.jpg","4","","","","","","","","","","","","","","","","","","","","","","","","",""
"1572","","image-button-response","31","267069","0.0-31.0-0.0","A3NG205QJ48IM4","img_art/ins/2.jpg","0","","","","","","","","","","","","","","","","","","","","","","","","",""
"6727","","image-button-response","32","273799","0.0-32.0-0.0","A3NG205QJ48IM4","img_art/ins/2.jpg","0","","","","","","","","","","","","","","","","","","","","","","","","",""
"5232","","image-button-response","33","286612","0.0-32.1-0.1","A3NG205QJ48IM4","img_art/ins/2.jpg","5","","","","","","","","","","","","","","","","","","","","","","","","",""
"null","","html-keyboard-response","34","287113","0.0-33.0","A3NG205QJ48IM4","<p style=""font-size: 48px;"">+</p>","","","","","null","allTrialResponses","500","1","-1","img_art/ins/2.jpg","-8","stucco art with many hidden faces and objects","Allison,Jenna,Katie,Dora,Kara,Jen","I don't have strong feelings about this,10,20,20","One of my pet peevs,-48,140,20","too much color!,-28,180,20","looks too angry,-50,80,20","I like the blocks of color arrangements,30,160,20","It reminds me of a fireplace,36,120,20","Kara","I like the blocks of color arrangements,30,160,20","Allison","I don't have strong feelings about this,10,20,20","Jen","It reminds me of a fireplace,36,120,20","2"
"30242","","survey-text","35","317368","0.0-34.0-0.0","A3NG205QJ48IM4","","","","{""Q0"":""a study in blue - reminds me of ice crystals""}","","","","","","","","","","","","","","","","","","","","","","",""
"7211.599999904633","","image-slider-response","36","324581","0.0-35.0","A3NG205QJ48IM4","","","","","-12","","","","","","","","","","","","","","","","","","","","","",""
"3366","","image-button-response","37","329584","0.0-36.0","A3NG205QJ48IM4","img_art/ins/3.jpg","3","","","","","","","","","","","","","","","","","","","","","","","","",""
"7755","","image-button-response","38","337344","0.0-37.0","A3NG205QJ48IM4","img_art/ins/3.jpg","1","","","","","","","","","","","","","","","","","","","","","","","","",""
"13224","","image-button-response","39","350570","0.0-38.0-0.0","A3NG205QJ48IM4","img_art/ins/3.jpg","5","","","","","","","","","","","","","","","","","","","","","","","","",""
"4017","","image-button-response","40","354590","0.0-39.0-0.0","A3NG205QJ48IM4","img_art/ins/3.jpg","3","","","","","","","","","","","","","","","","","","","","","","","","",""
"null","","html-keyboard-response","41","356092","0.0-40.0","A3NG205QJ48IM4","<p style=""font-size: 48px;"">+</p>","","","","","null","allTrialResponses","1500","1","0","img_art/ins/3.jpg","-12","a study in blue - reminds me of ice crystals","Allison,Rose,Mary,Leslie,Kara,Jen","enjoy the different shades of blue,22,20,20","My daily routine, it's depressing,-20,240,20","I like the overlapping of brushes,41,220,20","It's an alright work,15,200,20","calming blue is very nice,36,160,20","I can feel a rainy day from this painting,18,120,20","Rose","My daily routine, it's depressing,-20,240,20","Jen","I can feel a rainy day from this painting,18,120,20","Leslie","It's an alright work,15,200,20","2"
"6594","","image-button-response_instructions","42","362698","0.0-41.0","A3NG205QJ48IM4","","0","instructions","","","","","","","","","","","","","","","","","","","","","","","",""
"16719","","survey-likert","43","379418","0.0-42.0-0.0","A3NG205QJ48IM4","","","","{""Q0"":"""",""Q1"":0,""Q2"":1}","","","","","","","","","","","","","","","","","","","","","","",""
"6330","","survey-text","44","385754","0.0-43.0-0.0","A3NG205QJ48IM4","","","","{""Q0"":""rock""}","","","","","","","","","","","","","","","","","","","","","","",""
"34225","","survey-text","45","419981","0.0-44.0-0.0","A3NG205QJ48IM4","","","","{""Q0"":""remind me of a grim reaper collecting souls""}","","","","","","","","","","","","","","","","","","","","","","",""
"8559.700000047684","","image-slider-response","46","428543","0.0-45.0","A3NG205QJ48IM4","","","","","25","","","","","","","","","","","","","","","","","","","","","",""
"null","","image-button-response","47","433581","0.0-46.0","A3NG205QJ48IM4","img_art/18.jpg","null","","","","","","","","","","","","","","","","","","","","","","","","",""
"12279","","image-button-response","48","445863","0.0-47.0","A3NG205QJ48IM4","img_art/18.jpg","5","","","","","","","","","","","","","","","","","","","","","","","","",""
"4463","","image-button-response","49","450329","0.0-48.0-0.0","A3NG205QJ48IM4","img_art/18.jpg","2","","","","","","","","","","","","","","","","","","","","","","","","",""
"6948","","image-button-response","50","457280","0.0-49.0-0.0","A3NG205QJ48IM4","img_art/18.jpg","1","","","","","","","","","","","","","","","","","","","","","","","","",""
"null","","html-keyboard-response","51","458283","0.0-50.0","A3NG205QJ48IM4","<p style=""font-size: 48px;"">+</p>","","","","","null","allTrialResponses","1000","1","1","img_art/18.jpg","25","remind me of a grim reaper collecting souls","Gabrielle,Elizabeth,Emily,Michelle,Leah,Jenna","interesting piece, I like the horse and people inserted in spots,22,160,20","Nice abstract art,50,20,20","Not my style but I can see some serious skill went int it.,21,40,20","The small lines elicit a very nauseating response for some reason, too Dali like for me,-19,280,20","I really like it, like hells drivers,43,360,20","hauntingly beautiful. more things revealed the longer you look. love the spirit-like figure in the top left.,47,360,20","Jenna","hauntingly beautiful. more things revealed the longer you look. love the spirit-like figure in the top left.,47,360,20","Emily","Not my style but I can see some serious skill went int it.,21,40,20","Elizabeth","Nice abstract art,50,20,20","2"
"28768","","survey-text","52","487063","0.0-51.0-0.0","A3NG205QJ48IM4","","","","{""Q0"":""oh my - twizzlers gone wild""}","","","","","","","","","","","","","","","","","","","","","","",""
"5350.799999952316","","image-slider-response","53","492415","0.0-52.0","A3NG205QJ48IM4","","","","","-50","","","","","","","","","","","","","","","","","","","","","",""
"null","","image-button-response","54","497420","0.0-53.0","A3NG205QJ48IM4","img_art/3.jpg","null","","","","","","","","","","","","","","","","","","","","","","","","",""
"2608","","image-button-response","55","500031","0.0-54.0","A3NG205QJ48IM4","img_art/3.jpg","2","","","","","","","","","","","","","","","","","","","","","","","","",""
"5122","","image-button-response","56","505155","0.0-55.0-0.0","A3NG205QJ48IM4","img_art/3.jpg","4","","","","","","","","","","","","","","","","","","","","","","","","",""
"4149","","image-button-response","57","509307","0.0-56.0-0.0","A3NG205QJ48IM4","img_art/3.jpg","1","","","","","","","","","","","","","","","","","","","","","","","","",""
"null","","html-keyboard-response","58","510810","0.0-57.0","A3NG205QJ48IM4","<p style=""font-size: 48px;"">+</p>","","","","","null","allTrialResponses","1500","1","2","img_art/3.jpg","-50","oh my - twizzlers gone wild","Cynthia,Elizabeth,Emily,Paige,Kayla,Jenna","This makes me feel vulnerable,-32,320,20","It doesn't invoke any excitement,-21,20,20","Looks like someone mentalyl unstable drew and is ready to go a a killing spree.,-50,40,20","seems too angry,-50,60,20","Really have no idea what I'm looking at.,1,180,20","unique & stylized. interesting. another one I could keep staring at.,50,360,20","Emily","Looks like someone mentalyl unstable drew and is ready to go a a killing spree.,-50,40,20","Kayla","Really have no idea what I'm looking at.,1,180,20","Elizabeth","It doesn't invoke any excitement,-21,20,20","2"
"63809","","survey-text","59","574631","0.0-58.0-0.0","A3NG205QJ48IM4","","","","{""Q0"":""reminds me of drawing on the wall with 5 day old yellow mustard""}","","","","","","","","","","","","","","","","","","","","","","",""
"4846.699999928474","","image-slider-response","60","579480","0.0-59.0","A3NG205QJ48IM4","","","","","-50","","","","","","","","","","","","","","","","","","","","","",""
"null","","image-button-response","61","584498","0.0-60.0","A3NG205QJ48IM4","img_art/4.jpg","null","","","","","","","","","","","","","","","","","","","","","","","","",""
"8132","","image-button-response","62","592634","0.0-61.0","A3NG205QJ48IM4","img_art/4.jpg","3","","","","","","","","","","","","","","","","","","","","","","","","",""
"1902","","image-button-response","63","594538","0.0-62.0-0.0","A3NG205QJ48IM4","img_art/4.jpg","2","","","","","","","","","","","","","","","","","","","","","","","","",""
"4668","","image-button-response","64","599208","0.0-63.0-0.0","A3NG205QJ48IM4","img_art/4.jpg","0","","","","","","","","","","","","","","","","","","","","","","","","",""
"null","","html-keyboard-response","65","600725","0.0-64.0","A3NG205QJ48IM4","<p style=""font-size: 48px;"">+</p>","","","","","null","allTrialResponses","1500","1","3","img_art/4.jpg","-50","reminds me of drawing on the wall with 5 day old yellow mustard","Caitlin,Elizabeth,Emily,Alexandra,Kayla,Andrea","They give out trophies now for fighting with brass knuckles?,-20,80,20","Like the color vibrancy,29,20,20","Looks like a child did it.,-42,40,20","This artwork looks like a child did it,-41,60,20","It's okay, I guess. Nothing much either way.,5,180,20","I think it speaks to familial closeness but the tonality is offputting to me.,-10,240,20","Alexandra","This artwork looks like a child did it,-41,60,20","Emily","Looks like a child did it.,-42,40,20","Caitlin","They give out trophies now for fighting with brass knuckles?,-20,80,20","2"
"22083","","survey-text","66","622821","0.0-65.0-0.0","A3NG205QJ48IM4","","","","{""Q0"":""makes me feel creepy and alone""}","","","","","","","","","","","","","","","","","","","","","","",""
"6358.299999952316","","image-slider-response","67","629182","0.0-66.0","A3NG205QJ48IM4","","","","","-50","","","","","","","","","","","","","","","","","","","","","",""
"null","","image-button-response","68","634191","0.0-67.0","A3NG205QJ48IM4","img_art/20.jpg","null","","","","","","","","","","","","","","","","","","","","","","","","",""
"5087","","image-button-response","69","639280","0.0-68.0","A3NG205QJ48IM4","img_art/20.jpg","1","","","","","","","","","","","","","","","","","","","","","","","","",""
"2388","","image-button-response","70","641670","0.0-69.0-0.0","A3NG205QJ48IM4","img_art/20.jpg","2","","","","","","","","","","","","","","","","","","","","","","","","",""
"6647","","image-button-response","71","648319","0.0-70.0-0.0","A3NG205QJ48IM4","img_art/20.jpg","3","","","","","","","","","","","","","","","","","","","","","","","","",""
"null","","html-keyboard-response","72","649321","0.0-71.0","A3NG205QJ48IM4","<p style=""font-size: 48px;"">+</p>","","","","","null","allTrialResponses","1000","1","4","img_art/20.jpg","-50","makes me feel creepy and alone","Caitlin,Jamie,Emily,Alexandra,Stephanie,Amanda","Not bad for all the southwestern people.,15,80,20","Looks like some type of future dystopian civilization,35,320,20","Brings about an emotion response of dspair. Loose lines but yet has a cohesion.,8,40,20","The white blob looks like a face and it's creepy,-30,60,20","Looks like an old gold mining down now deserted.,11,300,20","Too negative looks like a car and plane crash,-50,180,20","Jamie","Looks like some type of future dystopian civilization,35,320,20","Emily","Brings about an emotion response of dspair. Loose lines but yet has a cohesion.,8,40,20","Alexandra","The white blob looks like a face and it's creepy,-30,60,20","2"
"64570","","survey-text","73","713907","0.0-72.0-0.0","A3NG205QJ48IM4","","","","{""Q0"":""tilted view of the gates of hell...ewww""}","","","","","","","","","","","","","","","","","","","","","","",""
"4784.200000047684","","image-slider-response","74","718693","0.0-73.0","A3NG205QJ48IM4","","","","","-50","","","","","","","","","","","","","","","","","","","","","",""
"null","","image-button-response","75","723702","0.0-74.0","A3NG205QJ48IM4","img_art/8.jpg","null","","","","","","","","","","","","","","","","","","","","","","","","",""
"5053","","image-button-response","76","728759","0.0-75.0","A3NG205QJ48IM4","img_art/8.jpg","3","","","","","","","","","","","","","","","","","","","","","","","","",""
"6750","","image-button-response","77","735511","0.0-76.0-0.0","A3NG205QJ48IM4","img_art/8.jpg","5","","","","","","","","","","","","","","","","","","","","","","","","",""
"6437","","image-button-response","78","741951","0.0-77.0-0.0","A3NG205QJ48IM4","img_art/8.jpg","2","","","","","","","","","","","","","","","","","","","","","","","","",""
"null","","html-keyboard-response","79","743453","0.0-78.0","A3NG205QJ48IM4","<p style=""font-size: 48px;"">+</p>","","","","","null","allTrialResponses","1500","1","5","img_art/8.jpg","-50","tilted view of the gates of hell...ewww","Olivia,Jamie,Emily,Alexandra,Dominique,Brittany","being watched over,17,40,20","Cool designs and color schemes,44,320,20","It is interesting to look at. Abstract but ordered.,9,40,20","The colors are nice but the big face in the sky is creepy,-11,60,20","This speaks volumes to me and is another favorite I'm sure by many,40,400,20","Interesting to look at, there are many things happening in the painting.,32,40,20","Alexandra","The colors are nice but the big face in the sky is creepy,-11,60,20","Brittany","Interesting to look at, there are many things happening in the painting.,32,40,20","Emily","It is interesting to look at. Abstract but ordered.,9,40,20","2"
"6251","","survey-text","80","749731","0.0-79.0-0.0","A3NG205QJ48IM4","","","","{""Q0"":""sky""}","","","","","","","","","","","","","","","","","","","","","","",""
"62567","","survey-text","81","812299","0.0-80.0-0.0","A3NG205QJ48IM4","","","","{""Q0"":""gel toothpaste squiggled over smeared toothpaste - reminds of scene after my grand daughter brushes""}","","","","","","","","","","","","","","","","","","","","","","",""
"6032.5","","image-slider-response","82","818333","0.0-81.0","A3NG205QJ48IM4","","","","","4","","","","","","","","","","","","","","","","","","","","","",""
"null","","image-button-response","83","823339","0.0-82.0","A3NG205QJ48IM4","img_art/30.jpg","null","","","","","","","","","","","","","","","","","","","","","","","","",""
"7132","","image-button-response","84","830475","0.0-83.0","A3NG205QJ48IM4","img_art/30.jpg","5","","","","","","","","","","","","","","","","","","","","","","","","",""
"4394","","image-button-response","85","834871","0.0-84.0-0.0","A3NG205QJ48IM4","img_art/30.jpg","0","","","","","","","","","","","","","","","","","","","","","","","","",""
"12974","","image-button-response","86","847847","0.0-85.0-0.0","A3NG205QJ48IM4","img_art/30.jpg","3","","","","","","","","","","","","","","","","","","","","","","","","",""
"null","","html-keyboard-response","87","848357","0.0-86.0","A3NG205QJ48IM4","<p style=""font-size: 48px;"">+</p>","","","","","null","allTrialResponses","500","1","6","img_art/30.jpg","4","gel toothpaste squiggled over smeared toothpaste - reminds of scene after my grand daughter brushes","Katelyn,Ashley,Emily,Alexandra,Isabella,Brittany","I do like the multi-dimensional aspect of this piece,10,100,20","Decent abstract art, ncie colors.,23,320,20","It looks like a child did it. There is nothing talented or special about it.,-16,40,20","I really love the pastel colors and the 3D design in this,43,60,20","I like the back but the red lines in the front distress me,-7,280,20","The colors and the brushstrokes are interesting enough.,17,40,20","Brittany","The colors and the brushstrokes are interesting enough.,17,40,20","Katelyn","I do like the multi-dimensional aspect of this piece,10,100,20","Alexandra","I really love the pastel colors and the 3D design in this,43,60,20","2"
"48322","","survey-text","88","896687","0.0-87.0-0.0","A3NG205QJ48IM4","","","","{""Q0"":""for me, teddy bear is the only thing that survived a house fire I had, so not a good memory""}","","","","","","","","","","","","","","","","","","","","","","",""
"4778","","image-slider-response","89","901467","0.0-88.0","A3NG205QJ48IM4","","","","","-45","","","","","","","","","","","","","","","","","","","","","",""
"null","","image-button-response","90","906483","0.0-89.0","A3NG205QJ48IM4","img_art/16.jpg","null","","","","","","","","","","","","","","","","","","","","","","","","",""
"874","","image-button-response","91","907359","0.0-90.0","A3NG205QJ48IM4","img_art/16.jpg","1","","","","","","","","","","","","","","","","","","","","","","","","",""
"2363","","image-button-response","92","909725","0.0-91.0-0.0","A3NG205QJ48IM4","img_art/16.jpg","3","","","","","","","","","","","","","","","","","","","","","","","","",""
"1775","","image-button-response","93","911504","0.0-92.0-0.0","A3NG205QJ48IM4","img_art/16.jpg","4","","","","","","","","","","","","","","","","","","","","","","","","",""
"null","","html-keyboard-response","94","912012","0.0-93.0","A3NG205QJ48IM4","<p style=""font-size: 48px;"">+</p>","","","","","null","allTrialResponses","500","1","7","img_art/16.jpg","-45","for me, teddy bear is the only thing that survived a house fire I had, so not a good memory","Katelyn,Marissa,Megan,Alexandra,Samantha,Brittany","I dont feel any real response,5,100,20","I do not like this dark and twisted portrayal of childhood,-42,160,20","Ugly, broken up and mismatched,-50,200,20","This is weird and creepy.,-40,60,20","Creepy teddybear,-50,140,20","Kind of dull, colors and drawings are not really interesting.,0,40,20","Marissa","I do not like this dark and twisted portrayal of childhood,-42,160,20","Alexandra","This is weird and creepy.,-40,60,20","Samantha","Creepy teddybear,-50,140,20","2"
"39199","","survey-text","95","951222","0.0-94.0-0.0","A3NG205QJ48IM4","","","","{""Q0"":""sense of interconnectedness in a fragile way""}","","","","","","","","","","","","","","","","","","","","","","",""
"6290","","image-slider-response","96","957514","0.0-95.0","A3NG205QJ48IM4","","","","","-8","","","","","","","","","","","","","","","","","","","","","",""
"3319","","image-button-response","97","962520","0.0-96.0","A3NG205QJ48IM4","img_art/11.jpg","0","","","","","","","","","","","","","","","","","","","","","","","","",""
"6368","","image-button-response","98","968892","0.0-97.0","A3NG205QJ48IM4","img_art/11.jpg","5","","","","","","","","","","","","","","","","","","","","","","","","",""
"2169","","image-button-response","99","971062","0.0-98.0-0.0","A3NG205QJ48IM4","img_art/11.jpg","3","","","","","","","","","","","","","","","","","","","","","","","","",""
"3915","","image-button-response","100","974980","0.0-99.0-0.0","A3NG205QJ48IM4","img_art/11.jpg","0","","","","","","","","","","","","","","","","","","","","","","","","",""
"null","","html-keyboard-response","101","976492","0.0-100.0","A3NG205QJ48IM4","<p style=""font-size: 48px;"">+</p>","","","","","null","allTrialResponses","1500","1","8","img_art/11.jpg","-8","sense of interconnectedness in a fragile way","Heather,Marissa,Briana,Alexandra,Samantha,Crystal","looks like highways and homes and lives intertwining.,27,260,20","I dislike how dark this is,-21,160,20","Grays arent my thing,-25,400,20","I normally would not like this photo, but the design is nice.,21,60,20","Love the colors and flow,50,140,20","Enjoyed the lines representing different paths that encompass different entities,20,300,20","Crystal","Enjoyed the lines representing different paths that encompass different entities,20,300,20","Alexandra","I normally would not like this photo, but the design is nice.,21,60,20","Heather","looks like highways and homes and lives intertwining.,27,260,20","2"
"65608","","survey-text","102","1042113","0.0-101.0-0.0","A3NG205QJ48IM4","","","","{""Q0"":""full of contrasts between elements and texture""}","","","","","","","","","","","","","","","","","","","","","","",""
"5191","","image-slider-response","103","1047307","0.0-102.0","A3NG205QJ48IM4","","","","","4","","","","","","","","","","","","","","","","","","","","","",""
"null","","image-button-response","104","1052318","0.0-103.0","A3NG205QJ48IM4","img_art/24.jpg","null","","","","","","","","","","","","","","","","","","","","","","","","",""
"4956","","image-button-response","105","1057277","0.0-104.0","A3NG205QJ48IM4","img_art/24.jpg","4","","","","","","","","","","","","","","","","","","","","","","","","",""
"10374","","image-button-response","106","1067654","0.0-105.0-0.0","A3NG205QJ48IM4","img_art/24.jpg","0","","","","","","","","","","","","","","","","","","","","","","","","",""
"3547","","image-button-response","107","1071204","0.0-106.0-0.0","A3NG205QJ48IM4","img_art/24.jpg","2","","","","","","","","","","","","","","","","","","","","","","","","",""
"null","","html-keyboard-response","108","1071706","0.0-107.0","A3NG205QJ48IM4","<p style=""font-size: 48px;"">+</p>","","","","","null","allTrialResponses","500","1","9","img_art/24.jpg","4","full of contrasts between elements and texture","Heather,Kaylee,Kelly,Alexandra,Monica,Crystal","i feel peace and wanting. i love waterfalls,50,260,20","lovely forest vibes,36,200,20","Cute; I like what the image itself & the colors.,25,220,20","This reminds me of a creek or a river. It puts me a peace,42,60,20","It looks alive, like I can hear the water flowing,41,360,20","I don't like this painting because of its blottedness. It lacks conviction, direction and purpose.,-31,300,20","Monica","It looks alive, like I can hear the water flowing,41,360,20","Heather","i feel peace and wanting. i love waterfalls,50,260,20","Kelly","Cute; I like what the image itself & the colors.,25,220,20","2"
"25763","","survey-text","109","1097482","0.0-108.0-0.0","A3NG205QJ48IM4","","","","{""Q0"":""feels like a storm is gathering""}","","","","","","","","","","","","","","","","","","","","","","",""
"6282","","image-slider-response","110","1103766","0.0-109.0","A3NG205QJ48IM4","","","","","6","","","","","","","","","","","","","","","","","","","","","",""
"null","","image-button-response","111","1108777","0.0-110.0","A3NG205QJ48IM4","img_art/21.jpg","null","","","","","","","","","","","","","","","","","","","","","","","","",""
"3802","","image-button-response","112","1112582","0.0-111.0","A3NG205QJ48IM4","img_art/21.jpg","2","","","","","","","","","","","","","","","","","","","","","","","","",""
"2443","","image-button-response","113","1115028","0.0-112.0-0.0","A3NG205QJ48IM4","img_art/21.jpg","4","","","","","","","","","","","","","","","","","","","","","","","","",""
"5718","","image-button-response","114","1120748","0.0-113.0-0.0","A3NG205QJ48IM4","img_art/21.jpg","3","","","","","","","","","","","","","","","","","","","","","","","","",""
"null","","html-keyboard-response","115","1121254","0.0-114.0","A3NG205QJ48IM4","<p style=""font-size: 48px;"">+</p>","","","","","null","allTrialResponses","500","1","10","img_art/21.jpg","6","feels like a storm is gathering","Heather,Angela,Kelly,Margaret,Monica,Shelby","The color spectrum is just beautiful.,32,260,20","I feel like I'm looking at two different paintings mashed together in the middle.,20,260,20","It actually reminded me of a place I've been to. So I had a positive reaction to it.,22,220,20","i like the colors and the blending,17,100,20","I like the dark blue in the lower right which reminds me of a storm but the orange is ugly,12,360,20","Very calming and soft, makes me feel good,31,240,20","Kelly","It actually reminded me of a place I've been to. So I had a positive reaction to it.,22,220,20","Monica","I like the dark blue in the lower right which reminds me of a storm but the orange is ugly,12,360,20","Margaret","i like the colors and the blending,17,100,20","2"
"6748","","survey-text","116","1128035","0.0-115.0-0.0","A3NG205QJ48IM4","","","","{""Q0"":""our""}","","","","","","","","","","","","","","","","","","","","","","",""
"20082","","survey-text","117","1148119","0.0-116.0-0.0","A3NG205QJ48IM4","","","","{""Q0"":""looks like it's upside down!""}","","","","","","","","","","","","","","","","","","","","","","",""
"5755.899999976158","","image-slider-response","118","1153877","0.0-117.0","A3NG205QJ48IM4","","","","","-33","","","","","","","","","","","","","","","","","","","","","",""
"null","","image-button-response","119","1158886","0.0-118.0","A3NG205QJ48IM4","img_art/2.jpg","null","","","","","","","","","","","","","","","","","","","","","","","","",""
"5138","","image-button-response","120","1164025","0.0-119.0","A3NG205QJ48IM4","img_art/2.jpg","3","","","","","","","","","","","","","","","","","","","","","","","","",""
"1419","","image-button-response","121","1165446","0.0-120.0-0.0","A3NG205QJ48IM4","img_art/2.jpg","5","","","","","","","","","","","","","","","","","","","","","","","","",""
"6790","","image-button-response","122","1172237","0.0-121.0-0.0","A3NG205QJ48IM4","img_art/2.jpg","2","","","","","","","","","","","","","","","","","","","","","","","","",""
"null","","html-keyboard-response","123","1172740","0.0-122.0","A3NG205QJ48IM4","<p style=""font-size: 48px;"">+</p>","","","","","null","allTrialResponses","500","1","11","img_art/2.jpg","-33","looks like it's upside down!","Jasmine,Madison,Kelly,Margaret,Monica,Kelsey","Color picks are a bad mesh with each other,-17,340,20","Grim and overwhelming,-6,60,20","I cant tell whats happening here and that shade of green is just not my thing.,-17,220,20","doesn't do anything for me,-7,100,20","I like the blue color in the center but that's it, the green is a gross color,-3,360,20","i dont like it, no thank you,-28,240,20","Margaret","doesn't do anything for me,-7,100,20","Kelsey","i dont like it, no thank you,-28,240,20","Kelly","I cant tell whats happening here and that shade of green is just not my thing.,-17,220,20","2"
"28395","","survey-text","124","1201142","0.0-123.0-0.0","A3NG205QJ48IM4","","","","{""Q0"":""repose, but not in a happy way""}","","","","","","","","","","","","","","","","","","","","","","",""
"4855.600000023842","","image-slider-response","125","1205999","0.0-124.0","A3NG205QJ48IM4","","","","","-28","","","","","","","","","","","","","","","","","","","","","",""
"null","","image-button-response","126","1211012","0.0-125.0","A3NG205QJ48IM4","img_art/9.jpg","null","","","","","","","","","","","","","","","","","","","","","","","","",""
"3141","","image-button-response","127","1214156","0.0-126.0","A3NG205QJ48IM4","img_art/9.jpg","5","","","","","","","","","","","","","","","","","","","","","","","","",""
"8446","","image-button-response","128","1222603","0.0-127.0-0.0","A3NG205QJ48IM4","img_art/9.jpg","0","","","","","","","","","","","","","","","","","","","","","","","","",""
"8274","","image-button-response","129","1230879","0.0-128.0-0.0","A3NG205QJ48IM4","img_art/9.jpg","4","","","","","","","","","","","","","","","","","","","","","","","","",""
"null","","html-keyboard-response","130","1231886","0.0-129.0","A3NG205QJ48IM4","<p style=""font-size: 48px;"">+</p>","","","","","null","allTrialResponses","1000","1","12","img_art/9.jpg","-28","repose, but not in a happy way","Catherine,Lindsey,Kelly,Margaret,Madeline,Kelsey","Cozy, In her own world. feminine .,30,160,20","Looks like my niece's doodles.,-50,400,20","It looks like a child drew it.,-28,220,20","keeps me interested. like the colors,17,100,20","I really like the colors and details.,8,40,20","i like the colors but not the composition,-17,240,20","Kelsey","i like the colors but not the composition,-17,240,20","Catherine","Cozy, In her own world. feminine .,30,160,20","Madeline","I really like the colors and details.,8,40,20","2"
"45485","","survey-text","131","1277385","0.0-130.0-0.0","A3NG205QJ48IM4","","","","{""Q0"":""worshipping holy place on the hill""}","","","","","","","","","","","","","","","","","","","","","","",""
"5371.600000023842","","image-slider-response","132","1282759","0.0-131.0","A3NG205QJ48IM4","","","","","-44","","","","","","","","","","","","","","","","","","","","","",""
"null","","image-button-response","133","1287763","0.0-132.0","A3NG205QJ48IM4","img_art/27.jpg","null","","","","","","","","","","","","","","","","","","","","","","","","",""
"9269","","image-button-response","134","1297036","0.0-133.0","A3NG205QJ48IM4","img_art/27.jpg","5","","","","","","","","","","","","","","","","","","","","","","","","",""
"1289","","image-button-response","135","1298327","0.0-134.0-0.0","A3NG205QJ48IM4","img_art/27.jpg","0","","","","","","","","","","","","","","","","","","","","","","","","",""
"10654","","image-button-response","136","1308984","0.0-135.0-0.0","A3NG205QJ48IM4","img_art/27.jpg","3","","","","","","","","","","","","","","","","","","","","","","","","",""
"null","","html-keyboard-response","137","1309499","0.0-136.0","A3NG205QJ48IM4","<p style=""font-size: 48px;"">+</p>","","","","","null","allTrialResponses","500","1","13","img_art/27.jpg","-44","worshipping holy place on the hill","Catherine,Haley,Jennifer,Chelsea,Madeline,Kelsey","Angelic, childlike. happiness but also with sadness.,40,160,20","First thought is again, that this looks like a child's art assignment,-20,220,20","Somewhat boring piece,-3,380,20","The green lines look like a child drew over a painting.,-36,180,20","Looks like the green bits were added on later,-1,40,20","too messy dont like the color choices either,-17,240,20","Kelsey","too messy dont like the color choices either,-17,240,20","Catherine","Angelic, childlike. happiness but also with sadness.,40,160,20","Chelsea","The green lines look like a child drew over a painting.,-36,180,20","2"
"38045","","survey-text","138","1347557","0.0-137.0-0.0","A3NG205QJ48IM4","","","","{""Q0"":""detest the colors and would walk by this one fast""}","","","","","","","","","","","","","","","","","","","","","","",""
"3892.399999976158","","image-slider-response","139","1351451","0.0-138.0","A3NG205QJ48IM4","","","","","-50","","","","","","","","","","","","","","","","","","","","","",""
"null","","image-button-response","140","1356464","0.0-139.0","A3NG205QJ48IM4","img_art/12.jpg","null","","","","","","","","","","","","","","","","","","","","","","","","",""
"4857","","image-button-response","141","1361323","0.0-140.0","A3NG205QJ48IM4","img_art/12.jpg","4","","","","","","","","","","","","","","","","","","","","","","","","",""
"1339","","image-button-response","142","1362663","0.0-141.0-0.0","A3NG205QJ48IM4","img_art/12.jpg","5","","","","","","","","","","","","","","","","","","","","","","","","",""
"10012","","image-button-response","143","1372678","0.0-142.0-0.0","A3NG205QJ48IM4","img_art/12.jpg","3","","","","","","","","","","","","","","","","","","","","","","","","",""
"null","","html-keyboard-response","144","1374179","0.0-143.0","A3NG205QJ48IM4","<p style=""font-size: 48px;"">+</p>","","","","","null","allTrialResponses","1500","1","14","img_art/12.jpg","-50","detest the colors and would walk by this one fast","Catherine,Alyssa,Jessica,Chelsea,Erika,Kelsey","confused. stages of a persons life from beginning positive to ending negative.,-10,160,20","Its cool,reminiscent of Andy Warhol type of style,10,160,20","I like this concept.,11,400,20","I like the gradient of little color on the top to colorful on the bottom.,24,180,20","I don't like it, but I appreciate the effort and technique,11,100,20","dont like the squares,-16,240,20","Erika","I don't like it, but I appreciate the effort and technique,11,100,20","Kelsey","dont like the squares,-16,240,20","Chelsea","I like the gradient of little color on the top to colorful on the bottom.,24,180,20","2"
"20175","","survey-text","145","1394365","0.0-144.0-0.0","A3NG205QJ48IM4","","","","{""Q0"":""I don't get this one at all""}","","","","","","","","","","","","","","","","","","","","","","",""
"3390.3000000715256","","image-slider-response","146","1397758","0.0-145.0","A3NG205QJ48IM4","","","","","-50","","","","","","","","","","","","","","","","","","","","","",""
"null","","image-button-response","147","1402776","0.0-146.0","A3NG205QJ48IM4","img_art/1.jpg","null","","","","","","","","","","","","","","","","","","","","","","","","",""
"2791","","image-button-response","148","1405570","0.0-147.0","A3NG205QJ48IM4","img_art/1.jpg","4","","","","","","","","","","","","","","","","","","","","","","","","",""
"3186","","image-button-response","149","1408757","0.0-148.0-0.0","A3NG205QJ48IM4","img_art/1.jpg","0","","","","","","","","","","","","","","","","","","","","","","","","",""
"3424","","image-button-response","150","1412184","0.0-149.0-0.0","A3NG205QJ48IM4","img_art/1.jpg","1","","","","","","","","","","","","","","","","","","","","","","","","",""
"null","","html-keyboard-response","151","1412687","0.0-150.0","A3NG205QJ48IM4","<p style=""font-size: 48px;"">+</p>","","","","","null","allTrialResponses","500","1","15","img_art/1.jpg","-50","I don't get this one at all","Danielle,Savannah,Maria,Chelsea,Erika,Kelsey","Not a fan of the mood, overly party-ish and bright colors do not suit my taste,-40,340,20","Its simply okay.,3,200,20","the bright colours evoke the 90s, and not their best part,-10,120,20","The colors are a little too intense.,1,180,20","Vague and directionless,-14,100,20","this ones alright,10,240,20","Erika","Vague and directionless,-14,100,20","Danielle","Not a fan of the mood, overly party-ish and bright colors do not suit my taste,-40,340,20","Savannah","Its simply okay.,3,200,20","2"
"5968","","survey-text","152","1418685","0.0-151.0-0.0","A3NG205QJ48IM4","","","","{""Q0"":""course""}","","","","","","","","","","","","","","","","","","","","","","",""
"26999","","survey-text","153","1445686","0.0-152.0-0.0","A3NG205QJ48IM4","","","","{""Q0"":""leaves me feeling lukewarm and disinterested""}","","","","","","","","","","","","","","","","","","","","","","",""
"3452.0999999046326","","image-slider-response","154","1449140","0.0-153.0","A3NG205QJ48IM4","","","","","-50","","","","","","","","","","","","","","","","","","","","","",""
"null","","image-button-response","155","1454154","0.0-154.0","A3NG205QJ48IM4","img_art/26.jpg","null","","","","","","","","","","","","","","","","","","","","","","","","",""
"6572","","image-button-response","156","1460730","0.0-155.0","A3NG205QJ48IM4","img_art/26.jpg","5","","","","","","","","","","","","","","","","","","","","","","","","",""
"13741","","image-button-response","157","1474472","0.0-156.0-0.0","A3NG205QJ48IM4","img_art/26.jpg","3","","","","","","","","","","","","","","","","","","","","","","","","",""
"1861","","image-button-response","158","1476336","0.0-157.0-0.0","A3NG205QJ48IM4","img_art/26.jpg","4","","","","","","","","","","","","","","","","","","","","","","","","",""
"null","","html-keyboard-response","159","1477846","0.0-158.0","A3NG205QJ48IM4","<p style=""font-size: 48px;"">+</p>","","","","","null","allTrialResponses","1500","1","16","img_art/26.jpg","-50","leaves me feeling lukewarm and disinterested","Danielle,Savannah,Hailey,Destiny,Erika,Cheyenne","It's a little too yellow-y for me, I'm not a huge fan of the color schemes or setting it portrays.,-20,340,20","Appears childish and unfinished.,-20,200,20","bedroom in the outdoors. warm,9,200,20","I really love pastels and they're just being dimmed down too much here,-3,360,20","Feels like still life,-13,100,20","No strong reaction but the color scheme is nice,10,200,20","Cheyenne","No strong reaction but the color scheme is nice,10,200,20","Destiny","I really love pastels and they're just being dimmed down too much here,-3,360,20","Erika","Feels like still life,-13,100,20","2"
"38697","","survey-text","160","1516560","0.0-159.0-0.0","A3NG205QJ48IM4","","","","{""Q0"":""have no idea why I like this one - reminds me of a fiddle""}","","","","","","","","","","","","","","","","","","","","","","",""
"4768","","image-slider-response","161","1521329","0.0-160.0","A3NG205QJ48IM4","","","","","15","","","","","","","","","","","","","","","","","","","","","",""
"null","","image-button-response","162","1526337","0.0-161.0","A3NG205QJ48IM4","img_art/10.jpg","null","","","","","","","","","","","","","","","","","","","","","","","","",""
"253","","image-button-response","163","1526593","0.0-162.0","A3NG205QJ48IM4","img_art/10.jpg","0","","","","","","","","","","","","","","","","","","","","","","","","",""
"12307","","image-button-response","164","1538901","0.0-163.0-0.0","A3NG205QJ48IM4","img_art/10.jpg","5","","","","","","","","","","","","","","","","","","","","","","","","",""
"3156","","image-button-response","165","1542060","0.0-164.0-0.0","A3NG205QJ48IM4","img_art/10.jpg","4","","","","","","","","","","","","","","","","","","","","","","","","",""
"null","","html-keyboard-response","166","1543565","0.0-165.0","A3NG205QJ48IM4","<p style=""font-size: 48px;"">+</p>","","","","","null","allTrialResponses","1500","1","17","img_art/10.jpg","15","have no idea why I like this one - reminds me of a fiddle","Rachel,Cassidy,Morgan,Destiny,Erika,Cheyenne","Reminds me of a terrarium with cacti inside. It reminds me of home.,27,80,20","Looks like someone just smeared some paint and called it good. Do not like.,-6,140,20","Roller coaster on an island.,9,380,20","The more I look the more I like. Reminds me of a rollercoaster and a war scene. A lot going on which is unnerving, like a rollercoaster but still fun,22,360,20","Good texture, expressive,18,100,20","Very nice painting, would like it more with different color choice.,6,200,20","Rachel","Reminds me of a terrarium with cacti inside. It reminds me of home.,27,80,20","Cheyenne","Very nice painting, would like it more with different color choice.,6,200,20","Erika","Good texture, expressive,18,100,20","2"
"33100","","survey-text","167","1576680","0.0-166.0-0.0","A3NG205QJ48IM4","","","","{""Q0"":""would love this for a flooring or a garden wall""}","","","","","","","","","","","","","","","","","","","","","","",""
"3891.5","","image-slider-response","168","1580574","0.0-167.0","A3NG205QJ48IM4","","","","","30","","","","","","","","","","","","","","","","","","","","","",""
"null","","image-button-response","169","1585589","0.0-168.0","A3NG205QJ48IM4","img_art/7.jpg","null","","","","","","","","","","","","","","","","","","","","","","","","",""
"1939","","image-button-response","170","1587530","0.0-169.0","A3NG205QJ48IM4","img_art/7.jpg","0","","","","","","","","","","","","","","","","","","","","","","","","",""
"2788","","image-button-response","171","1590320","0.0-170.0-0.0","A3NG205QJ48IM4","img_art/7.jpg","1","","","","","","","","","","","","","","","","","","","","","","","","",""
"11215","","image-button-response","172","1601538","0.0-171.0-0.0","A3NG205QJ48IM4","img_art/7.jpg","4","","","","","","","","","","","","","","","","","","","","","","","","",""
"null","","html-keyboard-response","173","1603049","0.0-172.0","A3NG205QJ48IM4","<p style=""font-size: 48px;"">+</p>","","","","","null","allTrialResponses","1500","1","18","img_art/7.jpg","30","would love this for a flooring or a garden wall","Rachel,Sarah,Miranda,Erin,Erika,Cheyenne","Looks like a desert or another planet. While the color choices are narrow, it's still interesting because it is very natural.,12,80,20","i kind of like this, it looks like a photo of a planet's surface,16,180,20","This looks like a literal picture of the ground so I'm really not too sure about this one.,-42,320,20","Color is bland and looks damaged,-37,120,20","Detail oriented, like cracked paint wall,15,100,20","Nice realistic feel but nothing stands out.,4,200,20","Rachel","Looks like a desert or another planet. While the color choices are narrow, it's still interesting because it is very natural.,12,80,20","Sarah","i kind of like this, it looks like a photo of a planet's surface,16,180,20","Erika","Detail oriented, like cracked paint wall,15,100,20","2"
"21385","","survey-text","174","1624439","0.0-173.0-0.0","A3NG205QJ48IM4","","","","{""Q0"":""feels and looks evil""}","","","","","","","","","","","","","","","","","","","","","","",""
"4016.2999999523163","","image-slider-response","175","1628458","0.0-174.0","A3NG205QJ48IM4","","","","","-50","","","","","","","","","","","","","","","","","","","","","",""
"null","","image-button-response","176","1633465","0.0-175.0","A3NG205QJ48IM4","img_art/25.jpg","null","","","","","","","","","","","","","","","","","","","","","","","","",""
"6169","","image-button-response","177","1639638","0.0-176.0","A3NG205QJ48IM4","img_art/25.jpg","4","","","","","","","","","","","","","","","","","","","","","","","","",""
"4998","","image-button-response","178","1644638","0.0-177.0-0.0","A3NG205QJ48IM4","img_art/25.jpg","3","","","","","","","","","","","","","","","","","","","","","","","","",""
"5042","","image-button-response","179","1649682","0.0-178.0-0.0","A3NG205QJ48IM4","img_art/25.jpg","0","","","","","","","","","","","","","","","","","","","","","","","","",""
"null","","html-keyboard-response","180","1650184","0.0-179.0","A3NG205QJ48IM4","<p style=""font-size: 48px;"">+</p>","","","","","null","allTrialResponses","500","1","19","img_art/25.jpg","-50","feels and looks evil","Rachel,Sarah,Leslie,Breanna,Erika,Molly","I like the green color, but the combination of green and a person with a long neck reminds me of aliens,-27,80,20","green is really cool, and the pieces in black fit together and are interesting,20,180,20","I feel like I'm looking at something larger than myself.,30,380,20","Makes me feel intrigued,13,380,20","Very cryptic and ancient,36,100,20","Well-designed, interesting.,30,340,20","Erika","Very cryptic and ancient,36,100,20","Breanna","Makes me feel intrigued,13,380,20","Rachel","I like the green color, but the combination of green and a person with a long neck reminds me of aliens,-27,80,20","2"
"46574","","survey-text","181","1696775","0.0-180.0-0.0","A3NG205QJ48IM4","","","","{""Q0"":""good painting of flamingoes at a bar :)""}","","","","","","","","","","","","","","","","","","","","","","",""
"4558","","image-slider-response","182","1701335","0.0-181.0","A3NG205QJ48IM4","","","","","-45","","","","","","","","","","","","","","","","","","","","","",""
"null","","image-button-response","183","1706339","0.0-182.0","A3NG205QJ48IM4","img_art/28.jpg","null","","","","","","","","","","","","","","","","","","","","","","","","",""
"7503","","image-button-response","184","1713846","0.0-183.0","A3NG205QJ48IM4","img_art/28.jpg","4","","","","","","","","","","","","","","","","","","","","","","","","",""
"11240","","image-button-response","185","1725087","0.0-184.0-0.0","A3NG205QJ48IM4","img_art/28.jpg","2","","","","","","","","","","","","","","","","","","","","","","","","",""
"1768","","image-button-response","186","1726858","0.0-185.0-0.0","A3NG205QJ48IM4","img_art/28.jpg","3","","","","","","","","","","","","","","","","","","","","","","","","",""
"null","","html-keyboard-response","187","1727861","0.0-186.0","A3NG205QJ48IM4","<p style=""font-size: 48px;"">+</p>","","","","","null","allTrialResponses","1000","1","20","img_art/28.jpg","-45","good painting of flamingoes at a bar :)","Rachel,Autumn,Vanessa,Breanna,Erika,Courtney","Too muted and bland. I like my art to be vivid.,-11,80,20","Looks yucky and poor.,-33,340,20","It's such a blah piece and way too abstract.,-50,380,20","The colors are depressing,-5,380,20","Invokes curiosity, I want to know it's story.,15,100,20","Looks like some guys in s band playing at a busy park.,18,280,20","Erika","Invokes curiosity, I want to know it's story.,15,100,20","Vanessa","It's such a blah piece and way too abstract.,-50,380,20","Breanna","The colors are depressing,-5,380,20","2"
"4079","","survey-text","188","1731973","0.0-187.0-0.0","A3NG205QJ48IM4","","","","{""Q0"":""we""}","","","","","","","","","","","","","","","","","","","","","","",""
"48241","","survey-text","189","1780215","0.0-188.0-0.0","A3NG205QJ48IM4","","","","{""Q0"":""like the colors very much - would have fun doing this with a paint spatter drum""}","","","","","","","","","","","","","","","","","","","","","","",""
"4180","","image-slider-response","190","1784398","0.0-189.0","A3NG205QJ48IM4","","","","","31","","","","","","","","","","","","","","","","","","","","","",""
"null","","image-button-response","191","1789401","0.0-190.0","A3NG205QJ48IM4","img_art/13.jpg","null","","","","","","","","","","","","","","","","","","","","","","","","",""
"3276","","image-button-response","192","1792680","0.0-191.0","A3NG205QJ48IM4","img_art/13.jpg","2","","","","","","","","","","","","","","","","","","","","","","","","",""
"1126","","image-button-response","193","1793808","0.0-192.0-0.0","A3NG205QJ48IM4","img_art/13.jpg","1","","","","","","","","","","","","","","","","","","","","","","","","",""
"6499","","image-button-response","194","1800310","0.0-193.0-0.0","A3NG205QJ48IM4","img_art/13.jpg","5","","","","","","","","","","","","","","","","","","","","","","","","",""
"null","","html-keyboard-response","195","1801816","0.0-194.0","A3NG205QJ48IM4","<p style=""font-size: 48px;"">+</p>","","","","","null","allTrialResponses","1500","1","21","img_art/13.jpg","31","like the colors very much - would have fun doing this with a paint spatter drum","Kristen,Christina,Vanessa,Breanna,Erika,Brianna","happy, serenity,30,280,20","i like the colors but it looks like something that would hang in a hotel,18,240,20","I love the colors and the contrast between the different blues.,21,380,20","Makes me feel nice and calm,18,380,20","Gorgeous contrast and color choice, very pleasing,50,100,20","This is a very cool painting, something an art teacher or professor would own.,22,20,20","Vanessa","I love the colors and the contrast between the different blues.,21,380,20","Christina","i like the colors but it looks like something that would hang in a hotel,18,240,20","Brianna","This is a very cool painting, something an art teacher or professor would own.,22,20,20","2"
"28976","","survey-text","196","1830809","0.0-195.0-0.0","A3NG205QJ48IM4","","","","{""Q0"":""big brother is watching me""}","","","","","","","","","","","","","","","","","","","","","","",""
"4650.899999976158","","image-slider-response","197","1835461","0.0-196.0","A3NG205QJ48IM4","","","","","-45","","","","","","","","","","","","","","","","","","","","","",""
"null","","image-button-response","198","1840479","0.0-197.0","A3NG205QJ48IM4","img_art/17.jpg","null","","","","","","","","","","","","","","","","","","","","","","","","",""
"10436","","image-button-response","199","1850918","0.0-198.0","A3NG205QJ48IM4","img_art/17.jpg","4","","","","","","","","","","","","","","","","","","","","","","","","",""
"10677","","image-button-response","200","1861598","0.0-199.0-0.0","A3NG205QJ48IM4","img_art/17.jpg","1","","","","","","","","","","","","","","","","","","","","","","","","",""
"1877","","image-button-response","201","1863478","0.0-200.0-0.0","A3NG205QJ48IM4","img_art/17.jpg","2","","","","","","","","","","","","","","","","","","","","","","","","",""
"null","","html-keyboard-response","202","1864985","0.0-201.0","A3NG205QJ48IM4","<p style=""font-size: 48px;"">+</p>","","","","","null","allTrialResponses","1500","1","22","img_art/17.jpg","-45","big brother is watching me","Rebecca,Christina,Vanessa,Angelica,Jacqueline,Brianna","tree sprouting out of a box (house) the invasion of nature?,39,100,20","I like how it looks like a tree. The colors are too muted though,12,240,20","I want to know more about this picture and where it leads if you could get inside it.,27,380,20","This could have been good but was poorly done.,-5,280,20","It's okay, I just don't see much too it.,7,300,20","It's nice and realistic looking.,12,20,20","Jacqueline","It's okay, I just don't see much too it.,7,300,20","Christina","I like how it looks like a tree. The colors are too muted though,12,240,20","Vanessa","I want to know more about this picture and where it leads if you could get inside it.,27,380,20","2"
"23377","","survey-text","203","1888376","0.0-202.0-0.0","A3NG205QJ48IM4","","","","{""Q0"":""am looking into a fish tank""}","","","","","","","","","","","","","","","","","","","","","","",""
"3980.2000000476837","","image-slider-response","204","1892358","0.0-203.0","A3NG205QJ48IM4","","","","","4","","","","","","","","","","","","","","","","","","","","","",""
"null","","image-button-response","205","1897371","0.0-204.0","A3NG205QJ48IM4","img_art/14.jpg","null","","","","","","","","","","","","","","","","","","","","","","","","",""
"8602","","image-button-response","206","1905978","0.0-205.0","A3NG205QJ48IM4","img_art/14.jpg","3","","","","","","","","","","","","","","","","","","","","","","","","",""
"2809","","image-button-response","207","1908790","0.0-206.0-0.0","A3NG205QJ48IM4","img_art/14.jpg","4","","","","","","","","","","","","","","","","","","","","","","","","",""
"7544","","image-button-response","208","1916336","0.0-207.0-0.0","A3NG205QJ48IM4","img_art/14.jpg","2","","","","","","","","","","","","","","","","","","","","","","","","",""
"null","","html-keyboard-response","209","1917846","0.0-208.0","A3NG205QJ48IM4","<p style=""font-size: 48px;"">+</p>","","","","","null","allTrialResponses","1500","1","23","img_art/14.jpg","4","am looking into a fish tank","Melissa,Christina,Vanessa,Victoria,Jacqueline,Alexandria","makes me feel sad,-2,240,20","has a tree look to it and it's colors are happy,9,240,20","I don't like the colors, but I espeically don't like all the negative space.,-20,380,20","calming to look at,37,400,20","It kind of looks like a tree but I feel very netural.,0,300,20","looks like it's symbolizing rebirth which is hopeful,22,80,20","Victoria","calming to look at,37,400,20","Jacqueline","It kind of looks like a tree but I feel very netural.,0,300,20","Vanessa","I don't like the colors, but I espeically don't like all the negative space.,-20,380,20","2"
"28628","","survey-text","210","1946495","0.0-209.0-0.0","A3NG205QJ48IM4","","","","{""Q0"":""umm..I got nothing""}","","","","","","","","","","","","","","","","","","","","","","",""
"3670.899999976158","","image-slider-response","211","1950168","0.0-210.0","A3NG205QJ48IM4","","","","","-50","","","","","","","","","","","","","","","","","","","","","",""
"4738","","image-button-response","212","1955175","0.0-211.0","A3NG205QJ48IM4","img_art/22.jpg","1","","","","","","","","","","","","","","","","","","","","","","","","",""
"3770","","image-button-response","213","1958950","0.0-212.0","A3NG205QJ48IM4","img_art/22.jpg","2","","","","","","","","","","","","","","","","","","","","","","","","",""
"3556","","image-button-response","214","1962508","0.0-213.0-0.0","A3NG205QJ48IM4","img_art/22.jpg","5","","","","","","","","","","","","","","","","","","","","","","","","",""
"3124","","image-button-response","215","1965633","0.0-214.0-0.0","A3NG205QJ48IM4","img_art/22.jpg","1","","","","","","","","","","","","","","","","","","","","","","","","",""
"null","","html-keyboard-response","216","1966136","0.0-215.0","A3NG205QJ48IM4","<p style=""font-size: 48px;"">+</p>","","","","","null","allTrialResponses","500","1","24","img_art/22.jpg","-50","umm..I got nothing","Sophia,Allison,Vanessa,Victoria,Jacqueline,Julia","I like this one. There is a lot to see if you keep looking for it.,27,280,20","Very generic mix of primary colors and shapes. Not a huge fan.,-10,140,20","I don't like the colors or the way they've been arranged.,-20,380,20","love how the colors blend,42,400,20","I feel like I've seen this one already.,-9,300,20","this is too generic,-27,40,20","Vanessa","I don't like the colors or the way they've been arranged.,-20,380,20","Julia","this is too generic,-27,40,20","Allison","Very generic mix of primary colors and shapes. Not a huge fan.,-10,140,20","2"
"49246","","survey-text","217","2015399","0.0-216.0-0.0","A3NG205QJ48IM4","","","","{""Q0"":""like the grays and the realism and the big red x over it is interesting""}","","","","","","","","","","","","","","","","","","","","","","",""
"4666","","image-slider-response","218","2020067","0.0-217.0","A3NG205QJ48IM4","","","","","27","","","","","","","","","","","","","","","","","","","","","",""
"null","","image-button-response","219","2025078","0.0-218.0","A3NG205QJ48IM4","img_art/29.jpg","null","","","","","","","","","","","","","","","","","","","","","","","","",""
"15332","","image-button-response","220","2040414","0.0-219.0","A3NG205QJ48IM4","img_art/29.jpg","0","","","","","","","","","","","","","","","","","","","","","","","","",""
"12320","","image-button-response","221","2052736","0.0-220.0-0.0","A3NG205QJ48IM4","img_art/29.jpg","4","","","","","","","","","","","","","","","","","","","","","","","","",""
"10518","","image-button-response","222","2063256","0.0-221.0-0.0","A3NG205QJ48IM4","img_art/29.jpg","1","","","","","","","","","","","","","","","","","","","","","","","","",""
"null","","html-keyboard-response","223","2064762","0.0-222.0","A3NG205QJ48IM4","<p style=""font-size: 48px;"">+</p>","","","","","null","allTrialResponses","1500","1","25","img_art/29.jpg","27","like the grays and the realism and the big red x over it is interesting","Katie,Allison,Vanessa,Erica,Shannon,Julia","Don't get it! Too dark and random. Perhaps it was the start of something but the artist stopped and cancelled out the work.,-50,160,20","Flash is too strong. Dislike the colors,-5,140,20","I hate the red x over everything, hate the black hate how hopeless this is.,-50,380,20","Looks like an accident more than an art to me,-26,80,20","I think this image looks ugly and needs more colors so it looks nicer.,-30,220,20","it looks like a top-down battle arena,26,40,20","Katie","Don't get it! Too dark and random. Perhaps it was the start of something but the artist stopped and cancelled out the work.,-50,160,20","Shannon","I think this image looks ugly and needs more colors so it looks nicer.,-30,220,20","Allison","Flash is too strong. Dislike the colors,-5,140,20","2"
"11819","","survey-text","224","2076614","0.0-223.0-0.0","A3NG205QJ48IM4","","","","{""Q0"":""table""}","","","","","","","","","","","","","","","","","","","","","","",""
"13400","","survey-text","225","2090016","0.0-224.0-0.0","A3NG205QJ48IM4","","","","{""Q0"":""nouveau trash bad!""}","","","","","","","","","","","","","","","","","","","","","","",""
"5467","","image-slider-response","226","2095485","0.0-225.0","A3NG205QJ48IM4","","","","","-48","","","","","","","","","","","","","","","","","","","","","",""
"null","","image-button-response","227","2100495","0.0-226.0","A3NG205QJ48IM4","img_art/5.jpg","null","","","","","","","","","","","","","","","","","","","","","","","","",""
"2653","","image-button-response","228","2103152","0.0-227.0","A3NG205QJ48IM4","img_art/5.jpg","2","","","","","","","","","","","","","","","","","","","","","","","","",""
"1486","","image-button-response","229","2104640","0.0-228.0-0.0","A3NG205QJ48IM4","img_art/5.jpg","3","","","","","","","","","","","","","","","","","","","","","","","","",""
"3908","","image-button-response","230","2108551","0.0-229.0-0.0","A3NG205QJ48IM4","img_art/5.jpg","4","","","","","","","","","","","","","","","","","","","","","","","","",""
"null","","html-keyboard-response","231","2109554","0.0-230.0","A3NG205QJ48IM4","<p style=""font-size: 48px;"">+</p>","","","","","null","allTrialResponses","1000","1","26","img_art/5.jpg","-48","nouveau trash bad!","Katie,Allison,Brooke,Emma,Shannon,Kimberly","I don't get it at all. But, maybe it is the top portion of a piece of fruit.,-50,160,20","Too loud. Dislike the bright yellow.,-5,140,20","No. What even is this? A mop?,-35,60,20","Kind of ugly ....,-21,60,20","I don't know what it's supposed to be and it looks ugly the way the colors are on the yellow cube.,-50,220,20","It feels positive and kind of uplifting,24,260,20","Brooke","No. What even is this? A mop?,-35,60,20","Emma","Kind of ugly ....,-21,60,20","Shannon","I don't know what it's supposed to be and it looks ugly the way the colors are on the yellow cube.,-50,220,20","2"
"31127","","survey-text","232","2140702","0.0-231.0-0.0","A3NG205QJ48IM4","","","","{""Q0"":""lots of moving pieces - feels chaotic and disconnected""}","","","","","","","","","","","","","","","","","","","","","","",""
"6624.200000047684","","image-slider-response","233","2147328","0.0-232.0","A3NG205QJ48IM4","","","","","-48","","","","","","","","","","","","","","","","","","","","","",""
"null","","image-button-response","234","2152339","0.0-233.0","A3NG205QJ48IM4","img_art/19.jpg","null","","","","","","","","","","","","","","","","","","","","","","","","",""
"2797","","image-button-response","235","2155138","0.0-234.0","A3NG205QJ48IM4","img_art/19.jpg","3","","","","","","","","","","","","","","","","","","","","","","","","",""
"2523","","image-button-response","236","2157662","0.0-235.0-0.0","A3NG205QJ48IM4","img_art/19.jpg","4","","","","","","","","","","","","","","","","","","","","","","","","",""
"992","","image-button-response","237","2158657","0.0-236.0-0.0","A3NG205QJ48IM4","img_art/19.jpg","5","","","","","","","","","","","","","","","","","","","","","","","","",""
"null","","html-keyboard-response","238","2159159","0.0-237.0","A3NG205QJ48IM4","<p style=""font-size: 48px;"">+</p>","","","","","null","allTrialResponses","500","1","27","img_art/19.jpg","-48","lots of moving pieces - feels chaotic and disconnected","Sierra,Amy,Brooke,Emma,Shannon,Gabriela","green and orange are my favorite colors.  this cityscape feels warm,34,260,20","Though provoking. Adventurous.,10,220,20","Snowy winter scene,25,60,20","Interesting, leaves you wondering what it is,40,60,20","This looks like a bunch of weird blobs and the colors don't go great together.,-10,220,20","it looks messy and non-unique.,-9,140,20","Emma","Interesting, leaves you wondering what it is,40,60,20","Shannon","This looks like a bunch of weird blobs and the colors don't go great together.,-10,220,20","Gabriela","it looks messy and non-unique.,-9,140,20","2"
"29382","","survey-text","239","2188564","0.0-238.0-0.0","A3NG205QJ48IM4","","","","{""Q0"":""a praying mantis orchestra at night""}","","","","","","","","","","","","","","","","","","","","","","",""
"4384.399999976158","","image-slider-response","240","2192950","0.0-239.0","A3NG205QJ48IM4","","","","","6","","","","","","","","","","","","","","","","","","","","","",""
"4871","","image-button-response","241","2197956","0.0-240.0","A3NG205QJ48IM4","img_art/23.jpg","1","","","","","","","","","","","","","","","","","","","","","","","","",""
"1242","","image-button-response","242","2199200","0.0-241.0","A3NG205QJ48IM4","img_art/23.jpg","1","","","","","","","","","","","","","","","","","","","","","","","","",""
"7284","","image-button-response","243","2206487","0.0-242.0-0.0","A3NG205QJ48IM4","img_art/23.jpg","5","","","","","","","","","","","","","","","","","","","","","","","","",""
"7274","","image-button-response","244","2213764","0.0-243.0-0.0","A3NG205QJ48IM4","img_art/23.jpg","4","","","","","","","","","","","","","","","","","","","","","","","","",""
"null","","html-keyboard-response","245","2214266","0.0-244.0","A3NG205QJ48IM4","<p style=""font-size: 48px;"">+</p>","","","","","null","allTrialResponses","500","1","28","img_art/23.jpg","6","a praying mantis orchestra at night","Diana,Alexa,Abigail,Emma,Shannon,Gabriela","I thought this art was exciting and it reminded me of dancing people.,12,380,20","Very colorful and wild. It's cool and I like it,32,40,20","I like the contrast,29,20,20","Love the use of colors and light,50,60,20","I really like the way all the colors look, I think this is a pretty picture.,40,220,20","It looks like a parade of musicians full of excitement. Makes me feel upbeat,33,140,20","Alexa","Very colorful and wild. It's cool and I like it,32,40,20","Gabriela","It looks like a parade of musicians full of excitement. Makes me feel upbeat,33,140,20","Shannon","I really like the way all the colors look, I think this is a pretty picture.,40,220,20","2"
"38429","","survey-text","246","2252728","0.0-245.0-0.0","A3NG205QJ48IM4","","","","{""Q0"":""an ugly natural trellis""}","","","","","","","","","","","","","","","","","","","","","","",""
"4384.399999976158","","image-slider-response","247","2257114","0.0-246.0","A3NG205QJ48IM4","","","","","-50","","","","","","","","","","","","","","","","","","","","","",""
"null","","image-button-response","248","2262123","0.0-247.0","A3NG205QJ48IM4","img_art/15.jpg","null","","","","","","","","","","","","","","","","","","","","","","","","",""
"4017","","image-button-response","249","2266144","0.0-248.0","A3NG205QJ48IM4","img_art/15.jpg","2","","","","","","","","","","","","","","","","","","","","","","","","",""
"2036","","image-button-response","250","2268182","0.0-249.0-0.0","A3NG205QJ48IM4","img_art/15.jpg","3","","","","","","","","","","","","","","","","","","","","","","","","",""
"2042","","image-button-response","251","2270226","0.0-250.0-0.0","A3NG205QJ48IM4","img_art/15.jpg","5","","","","","","","","","","","","","","","","","","","","","","","","",""
"null","","html-keyboard-response","252","2271738","0.0-251.0","A3NG205QJ48IM4","<p style=""font-size: 48px;"">+</p>","","","","","null","allTrialResponses","1500","1","29","img_art/15.jpg","-50","an ugly natural trellis","Makayla,Alexa,Grace,Jordan,Shannon,Gabriela","It's just dots. Doesn't bring any positive or negative feelings,2,80,20","Although it looks a bit bland in terms of color, I really like the print/pattern,25,40,20","Interesting. Reminds me of a biopsy slide.,21,180,20","I'm just not into it,-5,20,20","Not enough colors to make it interesting and doesn't look like anything is happening.,-20,220,20","it is dark and gloomy,-9,140,20","Grace","Interesting. Reminds me of a biopsy slide.,21,180,20","Jordan","I'm just not into it,-5,20,20","Gabriela","it is dark and gloomy,-9,140,20","2"
"30779","","survey-text","253","2302526","0.0-252.0-0.0","A3NG205QJ48IM4","","","","{""Q0"":""don't like the ocean, don't like the sand, so don't like this""}","","","","","","","","","","","","","","","","","","","","","","",""
"4126.400000095367","","image-slider-response","254","2306654","0.0-253.0","A3NG205QJ48IM4","","","","","-50","","","","","","","","","","","","","","","","","","","","","",""
"null","","image-button-response","255","2311666","0.0-254.0","A3NG205QJ48IM4","img_art/6.jpg","null","","","","","","","","","","","","","","","","","","","","","","","","",""
"9044","","image-button-response","256","2320714","0.0-255.0","A3NG205QJ48IM4","img_art/6.jpg","5","","","","","","","","","","","","","","","","","","","","","","","","",""
"3345","","image-button-response","257","2324060","0.0-256.0-0.0","A3NG205QJ48IM4","img_art/6.jpg","1","","","","","","","","","","","","","","","","","","","","","","","","",""
"5246","","image-button-response","258","2329309","0.0-257.0-0.0","A3NG205QJ48IM4","img_art/6.jpg","0","","","","","","","","","","","","","","","","","","","","","","","","",""
"null","","html-keyboard-response","259","2329811","0.0-258.0","A3NG205QJ48IM4","<p style=""font-size: 48px;"">+</p>","","","","","null","allTrialResponses","500","1","30","img_art/6.jpg","-50","don't like the ocean, don't like the sand, so don't like this","Mikayla,Cassandra,Grace,Jordan,Natalie,Gabriela","Not very exciting.,-34,300,20","No feeling...just left me feeling kind of blah,1,120,20","Growth in the desert?  Don't care for it very much.,-26,180,20","This is interesting, I feel solitude, and loneliness from this.,13,20,20","reminds me a giant peach,19,400,20","This looks like a crow, sort of bleak,-26,140,20","Gabriela","This looks like a crow, sort of bleak,-26,140,20","Cassandra","No feeling...just left me feeling kind of blah,1,120,20","Mikayla","Not very exciting.,-34,300,20","2"
"3782","","image-button-response_instructions","260","2333602","0.0-259.0","A3NG205QJ48IM4","","0","instructions","","","","","","","","","","","","","","","","","","","","","","","",""
"2156","","image-button-response","261","2335764","0.0-260.0","A3NG205QJ48IM4","","0","","","","","","","","","","","","","","","","","","","","","","","","",""
