"rt","url","trial_type","trial_index","time_elapsed","internal_node_id","participant_id","stimulus","button_pressed","Name","responses","response","key_press","variableName","fixationTime","condition","trial","photo","subjectRating","subjectResponse","agentsNames","agent_1_Response","agent_2_Response","agent_3_Response","agent_4_Response","agent_5_Response","agent_6_Response","kept_1_name","kept_1_response","kept_2_name","kept_2_response","kept_3_name","kept_3_response","errorCounter"
"120664","external_page_harvard.html","external-html","0","120719","0.0-0.0","A3NLTWZWNTWA34","","","","","","","","","","","","","","","","","","","","","","","","","","",""
"78256","","image-button-response","1","198980","0.0-1.0","A3NLTWZWNTWA34","","1","","","","","","","","","","","","","","","","","","","","","","","","",""
"2082","","image-button-response","2","201070","0.0-2.0-0.0","A3NLTWZWNTWA34","","1","phone","","","","","","","","","","","","","","","","","","","","","","","",""
"7911","","survey-text","3","208984","0.0-3.0-0.0","A3NLTWZWNTWA34","","","","{""Q0"":""A3NLTWZWNTWA34""}","","","","","","","","","","","","","","","","","","","","","","",""
"3406","","image-button-response_instructions","4","212392","0.0-4.0","A3NLTWZWNTWA34","","0","instructions","","","","","","","","","","","","","","","","","","","","","","","",""
"6497","","image-button-response_instructions","5","218893","0.0-5.0","A3NLTWZWNTWA34","img_art/ins/popularity/ins1.png","0","instructions","","","","","","","","","","","","","","","","","","","","","","","",""
"2777","","image-button-response_instructions","6","221672","0.0-6.0","A3NLTWZWNTWA34","img_art/ins/popularity/ins2.png","0","instructions","","","","","","","","","","","","","","","","","","","","","","","",""
"2368","","image-button-response_instructions","7","224042","0.0-7.0","A3NLTWZWNTWA34","img_art/ins/popularity/ins2Extreme.png","0","instructions","","","","","","","","","","","","","","","","","","","","","","","",""
"5149","","image-button-response_instructions","8","229192","0.0-8.0","A3NLTWZWNTWA34","img_art/ins/popularity/ins3KEEPpop.PNG","0","instructions","","","","","","","","","","","","","","","","","","","","","","","",""
"3296","","image-button-response_instructions","9","232490","0.0-9.0","A3NLTWZWNTWA34","img_art/ins/popularity/ins3ANamepop.PNG","0","instructions","","","","","","","","","","","","","","","","","","","","","","","",""
"1964","","image-button-response_instructions","10","234457","0.0-10.0","A3NLTWZWNTWA34","img_art/ins/popularity/ins3ARatingpop.png","0","instructions","","","","","","","","","","","","","","","","","","","","","","","",""
"1444","","image-button-response_instructions","11","235903","0.0-11.0","A3NLTWZWNTWA34","img_art/ins/popularity/ins3ATextpop.png","0","instructions","","","","","","","","","","","","","","","","","","","","","","","",""
"5834","","image-button-response_instructions","12","241741","0.0-12.0","A3NLTWZWNTWA34","img_art/ins/popularity/ins3ALikespop.png","0","instructions","","","","","","","","","","","","","","","","","","","","","","","",""
"6292","","image-button-response_instructions","13","248035","0.0-13.0","A3NLTWZWNTWA34","img_art/ins/popularity/ins3KEEPpop.PNG","0","instructions","","","","","","","","","","","","","","","","","","","","","","","",""
"5334","","image-button-response_instructions","14","253372","0.0-14.0","A3NLTWZWNTWA34","img_art/ins/popularity/ins3_5RED.png","0","instructions","","","","","","","","","","","","","","","","","","","","","","","",""
"10177","","image-button-response_instructions","15","263551","0.0-15.0","A3NLTWZWNTWA34","img_art/ins/popularity/ins3KEEPpop.PNG","0","instructions","","","","","","","","","","","","","","","","","","","","","","","",""
"4424","","image-button-response_instructions","16","267977","0.0-16.0","A3NLTWZWNTWA34","img_art/ins/popularity/ins4KEEPpop.PNG","0","instructions","","","","","","","","","","","","","","","","","","","","","","","",""
"2892","","image-button-response_instructions","17","270871","0.0-17.0","A3NLTWZWNTWA34","img_art/ins/popularity/ins5KEEPpop.PNG","0","instructions","","","","","","","","","","","","","","","","","","","","","","","",""
"2540","","image-button-response_instructions","18","273413","0.0-18.0","A3NLTWZWNTWA34","","0","instructions","","","","","","","","","","","","","","","","","","","","","","","",""
"5937","","survey-text","19","279382","0.0-19.0-0.0","A3NLTWZWNTWA34","","","","{""Q0"":""but""}","","","","","","","","","","","","","","","","","","","","","","",""
"10549","","survey-text","20","289933","0.0-20.0-0.0","A3NLTWZWNTWA34","","","","{""Q0"":""disorganized. childlike""}","","","","","","","","","","","","","","","","","","","","","","",""
"2868","","image-slider-response","21","292806","0.0-21.0","A3NLTWZWNTWA34","","","","","-25","","","","","","","","","","","","","","","","","","","","","",""
"null","","image-button-response","22","297817","0.0-22.0","A3NLTWZWNTWA34","img_art/ins/1.jpg","null","","","","","","","","","","","","","","","","","","","","","","","","",""
"3107","","image-button-response","23","300928","0.0-23.0","A3NLTWZWNTWA34","img_art/ins/1.jpg","3","","","","","","","","","","","","","","","","","","","","","","","","",""
"4777","","image-button-response","24","305709","0.0-24.0-0.0","A3NLTWZWNTWA34","img_art/ins/1.jpg","5","","","","","","","","","","","","","","","","","","","","","","","","",""
"3331","","image-button-response","25","309045","0.0-25.0-0.0","A3NLTWZWNTWA34","img_art/ins/1.jpg","2","","","","","","","","","","","","","","","","","","","","","","","","",""
"null","","html-keyboard-response","26","310050","0.0-26.0","A3NLTWZWNTWA34","<p style=""font-size: 48px;"">+</p>","","","","","null","allTrialResponses","1000","1","-2","img_art/ins/1.jpg","-25","disorganized. childlike","Allison,Ashley,Beth,Dora,Erika,Jen","looks like a lot of things going on in the mist,20,20,20","I just don't get why these type of art would be popular,-32,40,20","This color reminds me of poo,-46,60,20","looks like what my niece in 3rd grade did this afternoon,-50,80,20","I like the sophisticated brushwork,40,100,20","It reminds me of a candy land dream I had,36,120,20","Dora","looks like what my niece in 3rd grade did this afternoon,-50,80,20","Jen","It reminds me of a candy land dream I had,36,120,20","Beth","This color reminds me of poo,-46,60,20","0"
"25625","","survey-text","27","335682","0.0-27.0-0.0","A3NLTWZWNTWA34","","","","{""Q0"":""The texture is interesting but the colors are awful""}","","","","","","","","","","","","","","","","","","","","","","",""
"2054.7999999998137","","image-slider-response","28","337739","0.0-28.0","A3NLTWZWNTWA34","","","","","-12","","","","","","","","","","","","","","","","","","","","","",""
"null","","image-button-response","29","342748","0.0-29.0","A3NLTWZWNTWA34","img_art/ins/2.jpg","null","","","","","","","","","","","","","","","","","","","","","","","","",""
"3603","","image-button-response","30","346356","0.0-30.0","A3NLTWZWNTWA34","img_art/ins/2.jpg","3","","","","","","","","","","","","","","","","","","","","","","","","",""
"1733","","image-button-response","31","348093","0.0-31.0-0.0","A3NLTWZWNTWA34","img_art/ins/2.jpg","2","","","","","","","","","","","","","","","","","","","","","","","","",""
"1496","","image-button-response","32","349593","0.0-32.0-0.0","A3NLTWZWNTWA34","img_art/ins/2.jpg","1","","","","","","","","","","","","","","","","","","","","","","","","",""
"null","","html-keyboard-response","33","350095","0.0-33.0","A3NLTWZWNTWA34","<p style=""font-size: 48px;"">+</p>","","","","","null","allTrialResponses","500","1","-1","img_art/ins/2.jpg","-12","The texture is interesting but the colors are awful","Katie,Jenna,Beth,Dora,Kara,Jen","too much color!,-28,180,20","One of my pet peevs,-48,140,20","meaningless painting,-45,60,20","looks too angry,-50,80,20","I like the blocks of color arrangements,30,160,20","It reminds me of a fireplace,36,120,20","Dora","looks too angry,-50,80,20","Beth","meaningless painting,-45,60,20","Jenna","One of my pet peevs,-48,140,20","0"
"16960","","survey-text","34","367062","0.0-34.0-0.0","A3NLTWZWNTWA34","","","","{""Q0"":""Cold. Feels like winter. I can picture birds too""}","","","","","","","","","","","","","","","","","","","","","","",""
"6266.899999999907","","image-slider-response","35","373331","0.0-35.0","A3NLTWZWNTWA34","","","","","11","","","","","","","","","","","","","","","","","","","","","",""
"3621","","image-button-response","36","378340","0.0-36.0","A3NLTWZWNTWA34","img_art/ins/3.jpg","1","","","","","","","","","","","","","","","","","","","","","","","","",""
"792","","image-button-response","37","379137","0.0-37.0","A3NLTWZWNTWA34","img_art/ins/3.jpg","1","","","","","","","","","","","","","","","","","","","","","","","","",""
"3300","","image-button-response","38","382441","0.0-38.0-0.0","A3NLTWZWNTWA34","img_art/ins/3.jpg","5","","","","","","","","","","","","","","","","","","","","","","","","",""
"3028","","image-button-response","39","385474","0.0-39.0-0.0","A3NLTWZWNTWA34","img_art/ins/3.jpg","0","","","","","","","","","","","","","","","","","","","","","","","","",""
"null","","html-keyboard-response","40","386977","0.0-40.0","A3NLTWZWNTWA34","<p style=""font-size: 48px;"">+</p>","","","","","null","allTrialResponses","1500","1","0","img_art/ins/3.jpg","11","Cold. Feels like winter. I can picture birds too","Leslie,Jenna,Beth,Dora,Mary,Rose","It's an alright work,15,200,20","looks like a murder room,-35,140,20","This thing gives me anxiety,-41,60,20","My worst nightmare,-42,80,20","I like the overlapping of brushes,41,220,20","My daily routine, it's depressing,-20,240,20","Jenna","looks like a murder room,-35,140,20","Rose","My daily routine, it's depressing,-20,240,20","Leslie","It's an alright work,15,200,20","0"
"3323","","image-button-response_instructions","41","390309","0.0-41.0","A3NLTWZWNTWA34","","0","instructions","","","","","","","","","","","","","","","","","","","","","","","",""
"9465","","survey-likert","42","399777","0.0-42.0-0.0","A3NLTWZWNTWA34","","","","{""Q0"":"""",""Q1"":0,""Q2"":0}","","","","","","","","","","","","","","","","","","","","","","",""
"4906","","survey-likert","43","406490","0.0-42.1-0.1","A3NLTWZWNTWA34","","","","{""Q0"":"""",""Q1"":0,""Q2"":1}","","","","","","","","","","","","","","","","","","","","","","",""
"7103","","survey-text","44","413603","0.0-43.0-0.0","A3NLTWZWNTWA34","","","","{""Q0"":""rock""}","","","","","","","","","","","","","","","","","","","","","","",""
"15931","","survey-text","45","429535","0.0-44.0-0.0","A3NLTWZWNTWA34","","","","{""Q0"":""What happens when you tell a child to draw a tree""}","","","","","","","","","","","","","","","","","","","","","","",""
"3672.5","","image-slider-response","46","433210","0.0-45.0","A3NLTWZWNTWA34","","","","","-13","","","","","","","","","","","","","","","","","","","","","",""
"4475","","image-button-response","47","438239","0.0-46.0","A3NLTWZWNTWA34","img_art/14.jpg","0","","","","","","","","","","","","","","","","","","","","","","","","",""
"1049","","image-button-response","48","439292","0.0-47.0","A3NLTWZWNTWA34","img_art/14.jpg","0","","","","","","","","","","","","","","","","","","","","","","","","",""
"1325","","image-button-response","49","440620","0.0-48.0-0.0","A3NLTWZWNTWA34","img_art/14.jpg","0","","","","","","","","","","","","","","","","","","","","","","","","",""
"7792","","image-button-response","50","452727","0.0-48.1-0.1","A3NLTWZWNTWA34","img_art/14.jpg","2","","","","","","","","","","","","","","","","","","","","","","","","",""
"2102","","image-button-response","51","454833","0.0-49.0-0.0","A3NLTWZWNTWA34","img_art/14.jpg","0","","","","","","","","","","","","","","","","","","","","","","","","",""
"1061","","image-button-response","52","459087","0.0-49.1-0.1","A3NLTWZWNTWA34","img_art/14.jpg","1","","","","","","","","","","","","","","","","","","","","","","","","",""
"null","","html-keyboard-response","53","460592","0.0-50.0","A3NLTWZWNTWA34","<p style=""font-size: 48px;"">+</p>","","","","","null","allTrialResponses","1500","1","1","img_art/14.jpg","-13","What happens when you tell a child to draw a tree","Cassidy,Autumn,Erica,Chloe,Morgan,Cynthia","Meh. Pleasant to look at. Colors are nice,6,140,20","It's too basic.,23,340,20","positive colours, makes me to look at it and investigate what is going on,27,80,20","Like the brushstrokes but not the composition,9,220,20","Angled, colored, boxy.,10,380,20","unsure and dull feeling,-1,320,20","Cassidy","Meh. Pleasant to look at. Colors are nice,6,140,20","Erica","positive colours, makes me to look at it and investigate what is going on,27,80,20","Autumn","It's too basic.,23,340,20","5"
"8084","","survey-text","54","468683","0.0-51.0-0.0","A3NLTWZWNTWA34","","","","{""Q0"":""It's too drab and depressing""}","","","","","","","","","","","","","","","","","","","","","","",""
"2997.5","","image-slider-response","55","471683","0.0-52.0","A3NLTWZWNTWA34","","","","","-17","","","","","","","","","","","","","","","","","","","","","",""
"1792","","image-button-response","56","476686","0.0-53.0","A3NLTWZWNTWA34","img_art/26.jpg","1","","","","","","","","","","","","","","","","","","","","","","","","",""
"1855","","image-button-response","57","478544","0.0-54.0","A3NLTWZWNTWA34","img_art/26.jpg","1","","","","","","","","","","","","","","","","","","","","","","","","",""
"4185","","image-button-response","58","482732","0.0-55.0-0.0","A3NLTWZWNTWA34","img_art/26.jpg","4","","","","","","","","","","","","","","","","","","","","","","","","",""
"1923","","image-button-response","59","484659","0.0-56.0-0.0","A3NLTWZWNTWA34","img_art/26.jpg","5","","","","","","","","","","","","","","","","","","","","","","","","",""
"null","","html-keyboard-response","60","485663","0.0-57.0","A3NLTWZWNTWA34","<p style=""font-size: 48px;"">+</p>","","","","","null","allTrialResponses","1000","1","2","img_art/26.jpg","-17","It's too drab and depressing","Cassidy,Autumn,Erica,Taylor,Amy,Leslie","the trees are cool,1,140,20","Murky, messy, kid like.,-45,340,20","very relaxing and easy going,22,80,20","Makes me want to walk down a cool street,20,340,20","The feeling that I am looking at the world through a dingy filter makes this unpleasant for me.,-20,220,20","It's a cute city scene. I like the trees.,10,380,20","Autumn","Murky, messy, kid like.,-45,340,20","Amy","The feeling that I am looking at the world through a dingy filter makes this unpleasant for me.,-20,220,20","Leslie","It's a cute city scene. I like the trees.,10,380,20","5"
"40262","","survey-text","61","525933","0.0-58.0-0.0","A3NLTWZWNTWA34","","","","{""Q0"":""I like the brush strokes. At first I saw a violin but the longer I look I almost see like a shoe?""}","","","","","","","","","","","","","","","","","","","","","","",""
"10989.400000000373","","image-slider-response","62","536925","0.0-59.0","A3NLTWZWNTWA34","","","","","25","","","","","","","","","","","","","","","","","","","","","",""
"1618","","image-button-response","63","541929","0.0-60.0","A3NLTWZWNTWA34","img_art/10.jpg","1","","","","","","","","","","","","","","","","","","","","","","","","",""
"2106","","image-button-response","64","544041","0.0-61.0","A3NLTWZWNTWA34","img_art/10.jpg","4","","","","","","","","","","","","","","","","","","","","","","","","",""
"1242","","image-button-response","65","545289","0.0-62.0-0.0","A3NLTWZWNTWA34","img_art/10.jpg","5","","","","","","","","","","","","","","","","","","","","","","","","",""
"1499","","image-button-response","66","546794","0.0-63.0-0.0","A3NLTWZWNTWA34","img_art/10.jpg","1","","","","","","","","","","","","","","","","","","","","","","","","",""
"null","","html-keyboard-response","67","547798","0.0-64.0","A3NLTWZWNTWA34","<p style=""font-size: 48px;"">+</p>","","","","","null","allTrialResponses","1000","1","3","img_art/10.jpg","25","I like the brush strokes. At first I saw a violin but the longer I look I almost see like a shoe?","Allison,Autumn,Sierra,Jessica,Amy,Leslie","I like the contrast,10,140,20","It just looks like a dirty stain.,-38,340,20","it just doesnt appeal to me.,-10,260,20","I feel like this has a cool concept behind it.,11,400,20","Highly abstract and yet the shapes and colors provide an emotional accessibility for me.,20,220,20","I love the chaotic feel of the brush strokes.,35,380,20","Amy","Highly abstract and yet the shapes and colors provide an emotional accessibility for me.,20,220,20","Leslie","I love the chaotic feel of the brush strokes.,35,380,20","Autumn","It just looks like a dirty stain.,-38,340,20","5"
"8549","","survey-text","68","556354","0.0-65.0-0.0","A3NLTWZWNTWA34","","","","{""Q0"":""Feel very disturbed""}","","","","","","","","","","","","","","","","","","","","","","",""
"2901.600000000093","","image-slider-response","69","559258","0.0-66.0","A3NLTWZWNTWA34","","","","","-41","","","","","","","","","","","","","","","","","","","","","",""
"3112","","image-button-response","70","564266","0.0-67.0","A3NLTWZWNTWA34","img_art/16.jpg","3","","","","","","","","","","","","","","","","","","","","","","","","",""
"595","","image-button-response","71","564866","0.0-68.0","A3NLTWZWNTWA34","img_art/16.jpg","3","","","","","","","","","","","","","","","","","","","","","","","","",""
"1553","","image-button-response","72","566423","0.0-69.0-0.0","A3NLTWZWNTWA34","img_art/16.jpg","5","","","","","","","","","","","","","","","","","","","","","","","","",""
"2381","","image-button-response","73","568808","0.0-70.0-0.0","A3NLTWZWNTWA34","img_art/16.jpg","2","","","","","","","","","","","","","","","","","","","","","","","","",""
"null","","html-keyboard-response","74","569814","0.0-71.0","A3NLTWZWNTWA34","<p style=""font-size: 48px;"">+</p>","","","","","null","allTrialResponses","1000","1","4","img_art/16.jpg","-41","Feel very disturbed","Sydney,Autumn,Alexandria,Alicia,Amy,Leslie","This piece is unusual but unique.,5,320,20","Very cool abstraction.,19,340,20","while simple, it seems to have a deeper meaning on childhood,33,80,20","Don't get it. Hate it. ugly.,-44,120,20","visceral and a little disturbing.,10,220,20","This is making me feel nervous in an enjoyable way.,20,380,20","Alicia","Don't get it. Hate it. ugly.,-44,120,20","Leslie","This is making me feel nervous in an enjoyable way.,20,380,20","Alexandria","while simple, it seems to have a deeper meaning on childhood,33,80,20","5"
"9230","","survey-text","75","579053","0.0-72.0-0.0","A3NLTWZWNTWA34","","","","{""Q0"":""I love the colors and brush strokes""}","","","","","","","","","","","","","","","","","","","","","","",""
"2235.1999999997206","","image-slider-response","76","581290","0.0-73.0","A3NLTWZWNTWA34","","","","","35","","","","","","","","","","","","","","","","","","","","","",""
"2644","","image-button-response","77","586294","0.0-74.0","A3NLTWZWNTWA34","img_art/17.jpg","0","","","","","","","","","","","","","","","","","","","","","","","","",""
"98","","image-button-response","78","586396","0.0-75.0","A3NLTWZWNTWA34","img_art/17.jpg","1","","","","","","","","","","","","","","","","","","","","","","","","",""
"1480","","image-button-response","79","587880","0.0-76.0-0.0","A3NLTWZWNTWA34","img_art/17.jpg","2","","","","","","","","","","","","","","","","","","","","","","","","",""
"2218","","image-button-response","80","590101","0.0-77.0-0.0","A3NLTWZWNTWA34","img_art/17.jpg","3","","","","","","","","","","","","","","","","","","","","","","","","",""
"null","","html-keyboard-response","81","591604","0.0-78.0","A3NLTWZWNTWA34","<p style=""font-size: 48px;"">+</p>","","","","","null","allTrialResponses","1500","1","5","img_art/17.jpg","35","I love the colors and brush strokes","Margaret,Jenna,Alexandria,Alicia,Natalie,Leslie","gentle watercolor vibes,12,100,20","stunning. makes me feel happy, hopeful, serene, and a little wistful.,50,360,20","it looks very intricate and colorful,50,80,20","Like this one, super creative, calming.,43,120,20","my response to the picture is that it looks beautiful,27,400,20","This makes me feel trapped.,5,380,20","Jenna","stunning. makes me feel happy, hopeful, serene, and a little wistful.,50,360,20","Alexandria","it looks very intricate and colorful,50,80,20","Alicia","Like this one, super creative, calming.,43,120,20","5"
"3068","","survey-text","82","594683","0.0-79.0-0.0","A3NLTWZWNTWA34","","","","{""Q0"":""sky""}","","","","","","","","","","","","","","","","","","","","","","",""
"9498","","survey-text","83","604183","0.0-80.0-0.0","A3NLTWZWNTWA34","","","","{""Q0"":""don't like the pattern or colors used""}","","","","","","","","","","","","","","","","","","","","","","",""
"2576.100000000093","","image-slider-response","84","606761","0.0-81.0","A3NLTWZWNTWA34","","","","","-26","","","","","","","","","","","","","","","","","","","","","",""
"3885","","image-button-response","85","611767","0.0-82.0","A3NLTWZWNTWA34","img_art/12.jpg","0","","","","","","","","","","","","","","","","","","","","","","","","",""
"2959","","image-button-response","86","614730","0.0-83.0","A3NLTWZWNTWA34","img_art/12.jpg","0","","","","","","","","","","","","","","","","","","","","","","","","",""
"2121","","image-button-response","87","616855","0.0-84.0-0.0","A3NLTWZWNTWA34","img_art/12.jpg","5","","","","","","","","","","","","","","","","","","","","","","","","",""
"921","","image-button-response","88","617780","0.0-85.0-0.0","A3NLTWZWNTWA34","img_art/12.jpg","4","","","","","","","","","","","","","","","","","","","","","","","","",""
"null","","html-keyboard-response","89","619283","0.0-86.0","A3NLTWZWNTWA34","<p style=""font-size: 48px;"">+</p>","","","","","null","allTrialResponses","1500","1","6","img_art/12.jpg","-26","don't like the pattern or colors used","Olivia,Jenna,Alexandria,Alicia,Monica,Maria","feels cluttered,-11,40,20","interesting, but feels like someone cut up a picture and pasted it together wrong. want to see the original,15,360,20","don't feel a lot but it seems very simple,-6,80,20","it's ok, but blocky, looks old.,3,120,20","Reminds me of collages we made in elementary school. I like the contrast of the colors from top to bottom,43,360,20","evokes the 80s, and not in a necessarily good way,-10,120,20","Olivia","feels cluttered,-11,40,20","Maria","evokes the 80s, and not in a necessarily good way,-10,120,20","Monica","Reminds me of collages we made in elementary school. I like the contrast of the colors from top to bottom,43,360,20","5"
"14864","","survey-text","90","634157","0.0-87.0-0.0","A3NLTWZWNTWA34","","","","{""Q0"":""I love the style""}","","","","","","","","","","","","","","","","","","","","","","",""
"3513.7999999998137","","image-slider-response","91","637672","0.0-88.0","A3NLTWZWNTWA34","","","","","17","","","","","","","","","","","","","","","","","","","","","",""
"null","","image-button-response","92","642681","0.0-89.0","A3NLTWZWNTWA34","img_art/20.jpg","null","","","","","","","","","","","","","","","","","","","","","","","","",""
"1307","","image-button-response","93","643992","0.0-90.0","A3NLTWZWNTWA34","img_art/20.jpg","2","","","","","","","","","","","","","","","","","","","","","","","","",""
"964","","image-button-response","94","644960","0.0-91.0-0.0","A3NLTWZWNTWA34","img_art/20.jpg","1","","","","","","","","","","","","","","","","","","","","","","","","",""
"635","","image-button-response","95","645599","0.0-92.0-0.0","A3NLTWZWNTWA34","img_art/20.jpg","0","","","","","","","","","","","","","","","","","","","","","","","","",""
"null","","html-keyboard-response","96","646101","0.0-93.0","A3NLTWZWNTWA34","<p style=""font-size: 48px;"">+</p>","","","","","null","allTrialResponses","500","1","7","img_art/20.jpg","17","I love the style","Olivia,Isabella,Brooke,Breanna,Monica,Maria","crash after traffic causing grief,-11,40,20","Feels like a town destroyed,-19,280,20","Dinosaur skill and some dark shadow above,-30,60,20","Makes me feel impressed,9,380,20","It looks like a junkyard and isn't appealing,-22,360,20","just feels generic,-18,120,20","Brooke","Dinosaur skill and some dark shadow above,-30,60,20","Isabella","Feels like a town destroyed,-19,280,20","Olivia","crash after traffic causing grief,-11,40,20","5"
"11190","","survey-text","97","657298","0.0-94.0-0.0","A3NLTWZWNTWA34","","","","{""Q0"":""Looks like throw up""}","","","","","","","","","","","","","","","","","","","","","","",""
"4991.200000000186","","image-slider-response","98","662291","0.0-95.0","A3NLTWZWNTWA34","","","","","-35","","","","","","","","","","","","","","","","","","","","","",""
"3365","","image-button-response","99","667297","0.0-96.0","A3NLTWZWNTWA34","img_art/1.jpg","4","","","","","","","","","","","","","","","","","","","","","","","","",""
"638","","image-button-response","100","667940","0.0-97.0","A3NLTWZWNTWA34","img_art/1.jpg","2","","","","","","","","","","","","","","","","","","","","","","","","",""
"1251","","image-button-response","101","669194","0.0-98.0-0.0","A3NLTWZWNTWA34","img_art/1.jpg","4","","","","","","","","","","","","","","","","","","","","","","","","",""
"847","","image-button-response","102","670045","0.0-99.0-0.0","A3NLTWZWNTWA34","img_art/1.jpg","5","","","","","","","","","","","","","","","","","","","","","","","","",""
"null","","html-keyboard-response","103","671553","0.0-100.0","A3NLTWZWNTWA34","<p style=""font-size: 48px;"">+</p>","","","","","null","allTrialResponses","1500","1","8","img_art/1.jpg","-35","Looks like throw up","Olivia,Isabella,Brooke,Kelly,Erika,Lauren","feels like there is meaning,9,40,20","Warmth of the sun,22,280,20","It's okay, colors remind me of autumn.,10,60,20","I love colorful photos and I like this one a lot.,25,220,20","Vague and directionless,-14,100,20","This image doesn't invoke much in me.,0,340,20","Brooke","It's okay, colors remind me of autumn.,10,60,20","Erika","Vague and directionless,-14,100,20","Lauren","This image doesn't invoke much in me.,0,340,20","5"
"9615","","survey-text","104","681176","0.0-101.0-0.0","A3NLTWZWNTWA34","","","","{""Q0"":""what even is this""}","","","","","","","","","","","","","","","","","","","","","","",""
"2466.399999999907","","image-slider-response","105","683645","0.0-102.0","A3NLTWZWNTWA34","","","","","-43","","","","","","","","","","","","","","","","","","","","","",""
"3700","","image-button-response","106","688653","0.0-103.0","A3NLTWZWNTWA34","img_art/30.jpg","0","","","","","","","","","","","","","","","","","","","","","","","","",""
"463","","image-button-response","107","689120","0.0-104.0","A3NLTWZWNTWA34","img_art/30.jpg","0","","","","","","","","","","","","","","","","","","","","","","","","",""
"603","","image-button-response","108","689727","0.0-105.0-0.0","A3NLTWZWNTWA34","img_art/30.jpg","1","","","","","","","","","","","","","","","","","","","","","","","","",""
"1161","","image-button-response","109","690891","0.0-106.0-0.0","A3NLTWZWNTWA34","img_art/30.jpg","4","","","","","","","","","","","","","","","","","","","","","","","","",""
"null","","html-keyboard-response","110","691899","0.0-107.0","A3NLTWZWNTWA34","<p style=""font-size: 48px;"">+</p>","","","","","null","allTrialResponses","1000","1","9","img_art/30.jpg","-43","what even is this","Kelsey,Jordan,Brooke,Cheyenne,Erika,Lauren","dont like this much at all,-30,240,20","cant see the meaning behind it,-20,20,20","Like the color and style,31,60,20","A bit too dark for my liking,-10,200,20","I can't parse any intention or emotion,-17,100,20","I like how the strokes invokes a sense of fluidity.,20,340,20","Kelsey","dont like this much at all,-30,240,20","Jordan","cant see the meaning behind it,-20,20,20","Erika","I can't parse any intention or emotion,-17,100,20","5"
"10076","","survey-text","111","701982","0.0-108.0-0.0","A3NLTWZWNTWA34","","","","{""Q0"":""I love the colors and the dotted effect ""}","","","","","","","","","","","","","","","","","","","","","","",""
"2047.8000000002794","","image-slider-response","112","704031","0.0-109.0","A3NLTWZWNTWA34","","","","","33","","","","","","","","","","","","","","","","","","","","","",""
"4111","","image-button-response","113","709037","0.0-110.0","A3NLTWZWNTWA34","img_art/23.jpg","0","","","","","","","","","","","","","","","","","","","","","","","","",""
"751","","image-button-response","114","709792","0.0-111.0","A3NLTWZWNTWA34","img_art/23.jpg","0","","","","","","","","","","","","","","","","","","","","","","","","",""
"712","","image-button-response","115","710507","0.0-112.0-0.0","A3NLTWZWNTWA34","img_art/23.jpg","2","","","","","","","","","","","","","","","","","","","","","","","","",""
"2168","","image-button-response","116","712680","0.0-113.0-0.0","A3NLTWZWNTWA34","img_art/23.jpg","3","","","","","","","","","","","","","","","","","","","","","","","","",""
"null","","html-keyboard-response","117","713682","0.0-114.0","A3NLTWZWNTWA34","<p style=""font-size: 48px;"">+</p>","","","","","null","allTrialResponses","1000","1","10","img_art/23.jpg","33","I love the colors and the dotted effect ","Kelsey,Jordan,Miranda,Hannah,Erika,Anna","i think this ones okay,10,240,20","NO, I don't get it,-50,20,20","It's very colorful and different, the white looks like people dancing,26,320,20","This one is interesting. Looks like people with maybe musical instruments?,11,240,20","Very intense and unique,3,100,20","I love the colors and the contrast.,50,300,20","Kelsey","i think this ones okay,10,240,20","Miranda","It's very colorful and different, the white looks like people dancing,26,320,20","Hannah","This one is interesting. Looks like people with maybe musical instruments?,11,240,20","5"
"2764","","survey-text","118","716456","0.0-115.0-0.0","A3NLTWZWNTWA34","","","","{""Q0"":""our""}","","","","","","","","","","","","","","","","","","","","","","",""
"8253","","survey-text","119","724711","0.0-116.0-0.0","A3NLTWZWNTWA34","","","","{""Q0"":""don't like the green color at all ""}","","","","","","","","","","","","","","","","","","","","","","",""
"2343.399999999907","","image-slider-response","120","727056","0.0-117.0","A3NLTWZWNTWA34","","","","","-37","","","","","","","","","","","","","","","","","","","","","",""
"null","","image-button-response","121","732478","0.0-118.0","A3NLTWZWNTWA34","img_art/2.jpg","null","","","","","","","","","","","","","","","","","","","","","","","","",""
"2395","","image-button-response","122","734875","0.0-119.0","A3NLTWZWNTWA34","img_art/2.jpg","0","","","","","","","","","","","","","","","","","","","","","","","","",""
"2367","","image-button-response","123","737246","0.0-120.0-0.0","A3NLTWZWNTWA34","img_art/2.jpg","4","","","","","","","","","","","","","","","","","","","","","","","","",""
"1299","","image-button-response","124","738548","0.0-121.0-0.0","A3NLTWZWNTWA34","img_art/2.jpg","2","","","","","","","","","","","","","","","","","","","","","","","","",""
"null","","html-keyboard-response","125","740056","0.0-122.0","A3NLTWZWNTWA34","<p style=""font-size: 48px;"">+</p>","","","","","null","allTrialResponses","1500","1","11","img_art/2.jpg","-37","don't like the green color at all ","Kelsey,Andrea,Miranda,Hannah,Sarah,Caitlin","i dont like it, no thank you,-28,240,20","It feels like a party and Moulin Rouge.,20,240,20","I don't really like this but at the same time it's cute. It looks like a little monster kid.,-9,320,20","Looks like child's art.,-19,240,20","nope. just looks like a mess,-28,180,20","Have now advanced from kindergarten to the first grade.,-5,80,20","Kelsey","i dont like it, no thank you,-28,240,20","Sarah","nope. just looks like a mess,-28,180,20","Miranda","I don't really like this but at the same time it's cute. It looks like a little monster kid.,-9,320,20","5"
"9813","","survey-text","126","749879","0.0-123.0-0.0","A3NLTWZWNTWA34","","","","{""Q0"":""i love it but hate it at the same time""}","","","","","","","","","","","","","","","","","","","","","","",""
"5981.100000000093","","image-slider-response","127","755863","0.0-124.0","A3NLTWZWNTWA34","","","","","0","","","","","","","","","","","","","","","","","","","","","",""
"3185","","image-button-response","128","760867","0.0-125.0","A3NLTWZWNTWA34","img_art/18.jpg","0","","","","","","","","","","","","","","","","","","","","","","","","",""
"508","","image-button-response","129","761379","0.0-126.0","A3NLTWZWNTWA34","img_art/18.jpg","4","","","","","","","","","","","","","","","","","","","","","","","","",""
"1113","","image-button-response","130","762495","0.0-127.0-0.0","A3NLTWZWNTWA34","img_art/18.jpg","0","","","","","","","","","","","","","","","","","","","","","","","","",""
"3085","","image-button-response","131","765585","0.0-128.0-0.0","A3NLTWZWNTWA34","img_art/18.jpg","5","","","","","","","","","","","","","","","","","","","","","","","","",""
"null","","html-keyboard-response","132","766591","0.0-129.0","A3NLTWZWNTWA34","<p style=""font-size: 48px;"">+</p>","","","","","null","allTrialResponses","1000","1","12","img_art/18.jpg","0","i love it but hate it at the same time","Kelsey,Emily,Miranda,Briana,Sarah,Alexis","its messy, it seems angry,-21,240,20","Not my style but I can see some serious skill went int it.,21,40,20","This one raises some questions, there could be some sort of fight or battle going on.,11,320,20","Two people fighting with one watching,17,400,20","this is kind of cool. I like the color scheme and the figure in the upper left is interesting,15,180,20","Crusade-feel, but a little too abstract for my taste,23,100,20","Sarah","this is kind of cool. I like the color scheme and the figure in the upper left is interesting,15,180,20","Kelsey","its messy, it seems angry,-21,240,20","Alexis","Crusade-feel, but a little too abstract for my taste,23,100,20","5"
"8842","","survey-text","133","775439","0.0-130.0-0.0","A3NLTWZWNTWA34","","","","{""Q0"":""I could paint this""}","","","","","","","","","","","","","","","","","","","","","","",""
"3179.8000000002794","","image-slider-response","134","778622","0.0-131.0","A3NLTWZWNTWA34","","","","","-25","","","","","","","","","","","","","","","","","","","","","",""
"null","","image-button-response","135","783631","0.0-132.0","A3NLTWZWNTWA34","img_art/28.jpg","null","","","","","","","","","","","","","","","","","","","","","","","","",""
"2137","","image-button-response","136","785772","0.0-133.0","A3NLTWZWNTWA34","img_art/28.jpg","0","","","","","","","","","","","","","","","","","","","","","","","","",""
"2800","","image-button-response","137","788575","0.0-134.0-0.0","A3NLTWZWNTWA34","img_art/28.jpg","1","","","","","","","","","","","","","","","","","","","","","","","","",""
"2422","","image-button-response","138","791000","0.0-135.0-0.0","A3NLTWZWNTWA34","img_art/28.jpg","3","","","","","","","","","","","","","","","","","","","","","","","","",""
"null","","html-keyboard-response","139","791504","0.0-136.0","A3NLTWZWNTWA34","<p style=""font-size: 48px;"">+</p>","","","","","null","allTrialResponses","500","1","13","img_art/28.jpg","-25","I could paint this","Kelsey,Caroline,Destiny,Sabrina,Sarah,Alexis","this one is rather disturbing,-22,240,20","Colors are pleasing. Made me think of two people kneeling and talking. A curious feeling.,15,100,20","I wish I knew why I liked it, maybes its the pinky tones,36,360,20","Self-hate and abuse at home, unsafe and torturing,-30,120,20","something about all the off-greys is pretty interesting,5,180,20","Interesting. I like the ""old woman"" on the left. Lots of different entities to look at,21,100,20","Kelsey","this one is rather disturbing,-22,240,20","Caroline","Colors are pleasing. Made me think of two people kneeling and talking. A curious feeling.,15,100,20","Sabrina","Self-hate and abuse at home, unsafe and torturing,-30,120,20","5"
"13582","","survey-text","140","805095","0.0-137.0-0.0","A3NLTWZWNTWA34","","","","{""Q0"":""Looks like a child took green crayon to it""}","","","","","","","","","","","","","","","","","","","","","","",""
"2226.600000000093","","image-slider-response","141","807325","0.0-138.0","A3NLTWZWNTWA34","","","","","-26","","","","","","","","","","","","","","","","","","","","","",""
"4267","","image-button-response","142","812333","0.0-139.0","A3NLTWZWNTWA34","img_art/27.jpg","0","","","","","","","","","","","","","","","","","","","","","","","","",""
"907","","image-button-response","143","813243","0.0-140.0","A3NLTWZWNTWA34","img_art/27.jpg","0","","","","","","","","","","","","","","","","","","","","","","","","",""
"1185","","image-button-response","144","814432","0.0-141.0-0.0","A3NLTWZWNTWA34","img_art/27.jpg","4","","","","","","","","","","","","","","","","","","","","","","","","",""
"922","","image-button-response","145","815358","0.0-142.0-0.0","A3NLTWZWNTWA34","img_art/27.jpg","5","","","","","","","","","","","","","","","","","","","","","","","","",""
"null","","html-keyboard-response","146","816362","0.0-143.0","A3NLTWZWNTWA34","<p style=""font-size: 48px;"">+</p>","","","","","null","allTrialResponses","1000","1","14","img_art/27.jpg","-26","Looks like a child took green crayon to it","Kelsey,Caroline,Gabrielle,Sabrina,Meghan,Grace","too messy dont like the color choices either,-17,240,20","Didnt actually make me feel anything, sort of bland,3,100,20","like the patterns and colors all but the orange blob on the right,32,160,20","Love the representation of home,22,120,20","again looks like childrens artwork,-40,220,20","Not fond of the bad pencil drawing mixed with the drab colors.,-21,180,20","Kelsey","too messy dont like the color choices either,-17,240,20","Meghan","again looks like childrens artwork,-40,220,20","Grace","Not fond of the bad pencil drawing mixed with the drab colors.,-21,180,20","5"
"22524","","survey-text","147","838895","0.0-144.0-0.0","A3NLTWZWNTWA34","","","","{""Q0"":""It's trash ""}","","","","","","","","","","","","","","","","","","","","","","",""
"3025.100000000093","","image-slider-response","148","841922","0.0-145.0","A3NLTWZWNTWA34","","","","","-30","","","","","","","","","","","","","","","","","","","","","",""
"4071","","image-button-response","149","846931","0.0-146.0","A3NLTWZWNTWA34","img_art/5.jpg","1","","","","","","","","","","","","","","","","","","","","","","","","",""
"1553","","image-button-response","150","848488","0.0-147.0","A3NLTWZWNTWA34","img_art/5.jpg","0","","","","","","","","","","","","","","","","","","","","","","","","",""
"579","","image-button-response","151","849071","0.0-148.0-0.0","A3NLTWZWNTWA34","img_art/5.jpg","1","","","","","","","","","","","","","","","","","","","","","","","","",""
"479","","image-button-response","152","849554","0.0-149.0-0.0","A3NLTWZWNTWA34","img_art/5.jpg","2","","","","","","","","","","","","","","","","","","","","","","","","",""
"null","","html-keyboard-response","153","851059","0.0-150.0","A3NLTWZWNTWA34","<p style=""font-size: 48px;"">+</p>","","","","","null","allTrialResponses","1500","1","15","img_art/5.jpg","-30","It's trash ","Kelsey,Mary,Christina,Kaylee,Meghan,Grace","too abstract, looks like a pyramid,-22,240,20","This piece has a good flow. I like the yellow with black combo.,11,180,20","looks like a little kids painting,-50,240,20","a volcano erruption,21,200,20","I like it but I don't know why,15,220,20","Looks like a yellow plastic trash bag.,-42,180,20","Kelsey","too abstract, looks like a pyramid,-22,240,20","Mary","This piece has a good flow. I like the yellow with black combo.,11,180,20","Christina","looks like a little kids painting,-50,240,20","5"
"4341","","survey-text","154","855414","0.0-151.0-0.0","A3NLTWZWNTWA34","","","","{""Q0"":""course""}","","","","","","","","","","","","","","","","","","","","","","",""
"37519","","survey-text","155","892934","0.0-152.0-0.0","A3NLTWZWNTWA34","","","","{""Q0"":""The only thing I like is the red X over it""}","","","","","","","","","","","","","","","","","","","","","","",""
"2068.100000000093","","image-slider-response","156","895004","0.0-153.0","A3NLTWZWNTWA34","","","","","-22","","","","","","","","","","","","","","","","","","","","","",""
"3064","","image-button-response","157","900009","0.0-154.0","A3NLTWZWNTWA34","img_art/29.jpg","3","","","","","","","","","","","","","","","","","","","","","","","","",""
"493","","image-button-response","158","900507","0.0-155.0","A3NLTWZWNTWA34","img_art/29.jpg","3","","","","","","","","","","","","","","","","","","","","","","","","",""
"1152","","image-button-response","159","901663","0.0-156.0-0.0","A3NLTWZWNTWA34","img_art/29.jpg","4","","","","","","","","","","","","","","","","","","","","","","","","",""
"1783","","image-button-response","160","903450","0.0-157.0-0.0","A3NLTWZWNTWA34","img_art/29.jpg","5","","","","","","","","","","","","","","","","","","","","","","","","",""
"null","","html-keyboard-response","161","904457","0.0-158.0","A3NLTWZWNTWA34","<p style=""font-size: 48px;"">+</p>","","","","","null","allTrialResponses","1000","1","16","img_art/29.jpg","-22","The only thing I like is the red X over it","Kelsey,Mary,Christina,Jacqueline,Bailey,Kristen","dont like this one,-20,240,20","I love the angry emotion to this art. I feel very drawn to it.,18,180,20","It's too on trend with the gray and doesn't look like a lasting piece,-4,240,20","This is ugly as fuck,-50,300,20","Giant messy blob. Looks like it tries to be edgy, but fails.,-40,360,20","danger, crime scene,,10,280,20","Jacqueline","This is ugly as fuck,-50,300,20","Bailey","Giant messy blob. Looks like it tries to be edgy, but fails.,-40,360,20","Kristen","danger, crime scene,,10,280,20","5"
"9518","","survey-text","162","913984","0.0-159.0-0.0","A3NLTWZWNTWA34","","","","{""Q0"":""The colors are...interesting""}","","","","","","","","","","","","","","","","","","","","","","",""
"3488.1999999997206","","image-slider-response","163","917474","0.0-160.0","A3NLTWZWNTWA34","","","","","-10","","","","","","","","","","","","","","","","","","","","","",""
"3361","","image-button-response","164","922482","0.0-161.0","A3NLTWZWNTWA34","img_art/22.jpg","0","","","","","","","","","","","","","","","","","","","","","","","","",""
"1385","","image-button-response","165","923871","0.0-162.0","A3NLTWZWNTWA34","img_art/22.jpg","0","","","","","","","","","","","","","","","","","","","","","","","","",""
"2841","","image-button-response","166","926716","0.0-163.0-0.0","A3NLTWZWNTWA34","img_art/22.jpg","5","","","","","","","","","","","","","","","","","","","","","","","","",""
"708","","image-button-response","167","927429","0.0-164.0-0.0","A3NLTWZWNTWA34","img_art/22.jpg","4","","","","","","","","","","","","","","","","","","","","","","","","",""
"null","","html-keyboard-response","168","928936","0.0-165.0","A3NLTWZWNTWA34","<p style=""font-size: 48px;"">+</p>","","","","","null","allTrialResponses","1500","1","17","img_art/22.jpg","-10","The colors are...interesting","Kylie,Mikayla,Mariah,Jacqueline,Bailey,Kristen","Climate change in a big city,35,300,20","So colorful i love it!,22,300,20","The colors are pleasant, the shapes are inviting.,21,140,20","I feel like I've seen this one already.,-9,300,20","Looks like a giant blob,-45,360,20","fire, danger, resentful,-17,280,20","Kylie","Climate change in a big city,35,300,20","Kristen","fire, danger, resentful,-17,280,20","Bailey","Looks like a giant blob,-45,360,20","5"
"8555","","survey-text","169","937500","0.0-166.0-0.0","A3NLTWZWNTWA34","","","","{""Q0"":""Meh ""}","","","","","","","","","","","","","","","","","","","","","","",""
"7663","","survey-text","170","946792","0.0-166.1-0.1","A3NLTWZWNTWA34","","","","{""Q0"":""Meh not. much to say about it""}","","","","","","","","","","","","","","","","","","","","","","",""
"3254.7000000001863","","image-slider-response","171","950048","0.0-167.0","A3NLTWZWNTWA34","","","","","-14","","","","","","","","","","","","","","","","","","","","","",""
"1398","","image-button-response","172","955055","0.0-168.0","A3NLTWZWNTWA34","img_art/13.jpg","1","","","","","","","","","","","","","","","","","","","","","","","","",""
"2973","","image-button-response","173","958031","0.0-169.0","A3NLTWZWNTWA34","img_art/13.jpg","1","","","","","","","","","","","","","","","","","","","","","","","","",""
"1209","","image-button-response","174","959245","0.0-170.0-0.0","A3NLTWZWNTWA34","img_art/13.jpg","4","","","","","","","","","","","","","","","","","","","","","","","","",""
"1381","","image-button-response","175","960631","0.0-171.0-0.0","A3NLTWZWNTWA34","img_art/13.jpg","3","","","","","","","","","","","","","","","","","","","","","","","","",""
"null","","html-keyboard-response","176","962138","0.0-172.0","A3NLTWZWNTWA34","<p style=""font-size: 48px;"">+</p>","","","","","null","allTrialResponses","1500","1","18","img_art/13.jpg","-14","Meh not. much to say about it","Kylie,Leah,Katelyn,Marissa,Bailey,Kristen","Very abstract and soothing,40,300,20","Like it a lot, reminds me of rainy day on glass,43,360,20","Really like this. Its like looking out a window into a beautiful storm,39,100,20","It reminds me of looking out the window on a stormy night at cars drive by,21,160,20","Looks like an upclose dried set of water droplets. Boring.,-25,360,20","happy, serenity,30,280,20","Leah","Like it a lot, reminds me of rainy day on glass,43,360,20","Bailey","Looks like an upclose dried set of water droplets. Boring.,-25,360,20","Marissa","It reminds me of looking out the window on a stormy night at cars drive by,21,160,20","5"
"12813","","survey-text","177","974959","0.0-173.0-0.0","A3NLTWZWNTWA34","","","","{""Q0"":""Looks like angry scribbling ""}","","","","","","","","","","","","","","","","","","","","","","",""
"2637.7000000001863","","image-slider-response","178","977599","0.0-174.0","A3NLTWZWNTWA34","","","","","-42","","","","","","","","","","","","","","","","","","","","","",""
"3873","","image-button-response","179","982607","0.0-175.0","A3NLTWZWNTWA34","img_art/9.jpg","1","","","","","","","","","","","","","","","","","","","","","","","","",""
"2555","","image-button-response","180","985167","0.0-176.0","A3NLTWZWNTWA34","img_art/9.jpg","1","","","","","","","","","","","","","","","","","","","","","","","","",""
"636","","image-button-response","181","985807","0.0-177.0-0.0","A3NLTWZWNTWA34","img_art/9.jpg","5","","","","","","","","","","","","","","","","","","","","","","","","",""
"496","","image-button-response","182","986307","0.0-178.0-0.0","A3NLTWZWNTWA34","img_art/9.jpg","4","","","","","","","","","","","","","","","","","","","","","","","","",""
"null","","html-keyboard-response","183","987312","0.0-179.0","A3NLTWZWNTWA34","<p style=""font-size: 48px;"">+</p>","","","","","null","allTrialResponses","1000","1","19","img_art/9.jpg","-42","Looks like angry scribbling ","Katherine,Leah,Vanessa,Marissa,Bailey,Alexandra","Idk what is in the middle but the blurry image makes it seem like the subject is of the painters interest,22,120,20","Depressing to me, like a dark dream,-11,360,20","It's too abstract for my taste. I wish there were more definition.,-9,380,20","It makes me think of Snow White sleeping,11,160,20","Not very enticing. No real substance other than a lady laying down,-35,360,20","This picture is too busy and ugly,-20,60,20","Leah","Depressing to me, like a dark dream,-11,360,20","Alexandra","This picture is too busy and ugly,-20,60,20","Bailey","Not very enticing. No real substance other than a lady laying down,-35,360,20","5"
"11523","","survey-text","184","998843","0.0-180.0-0.0","A3NLTWZWNTWA34","","","","{""Q0"":""Just no to the colors""}","","","","","","","","","","","","","","","","","","","","","","",""
"2614.399999999907","","image-slider-response","185","1001459","0.0-181.0","A3NLTWZWNTWA34","","","","","-41","","","","","","","","","","","","","","","","","","","","","",""
"null","","image-button-response","186","1006465","0.0-182.0","A3NLTWZWNTWA34","img_art/19.jpg","null","","","","","","","","","","","","","","","","","","","","","","","","",""
"278","","image-button-response","187","1006746","0.0-183.0","A3NLTWZWNTWA34","img_art/19.jpg","4","","","","","","","","","","","","","","","","","","","","","","","","",""
"1382","","image-button-response","188","1008132","0.0-184.0-0.0","A3NLTWZWNTWA34","img_art/19.jpg","5","","","","","","","","","","","","","","","","","","","","","","","","",""
"610","","image-button-response","189","1008745","0.0-185.0-0.0","A3NLTWZWNTWA34","img_art/19.jpg","2","","","","","","","","","","","","","","","","","","","","","","","","",""
"null","","html-keyboard-response","190","1009752","0.0-186.0","A3NLTWZWNTWA34","<p style=""font-size: 48px;"">+</p>","","","","","null","allTrialResponses","1000","1","20","img_art/19.jpg","-41","Just no to the colors","Emma,Leah,Chelsea,Danielle,Bailey,Alexandra","Interesting, leaves you wondering what it is,40,60,20","Very abstract but I like it, it's busy, lots of colors,43,360,20","It is too busy.,-34,180,20","It looks like as if it were portraying a village that was polluted? I don't like the theme anyway,-21,340,20","Horrible. Squiggly lines everywhere.,-50,360,20","This photo has too much going on.,-19,60,20","Bailey","Horrible. Squiggly lines everywhere.,-50,360,20","Alexandra","This photo has too much going on.,-19,60,20","Chelsea","It is too busy.,-34,180,20","5"
"1936","","survey-text","191","1011702","0.0-187.0-0.0","A3NLTWZWNTWA34","","","","{""Q0"":""we""}","","","","","","","","","","","","","","","","","","","","","","",""
"7693","","survey-text","192","1019396","0.0-188.0-0.0","A3NLTWZWNTWA34","","","","{""Q0"":""The texture is interesting""}","","","","","","","","","","","","","","","","","","","","","","",""
"2062.2999999998137","","image-slider-response","193","1021460","0.0-189.0","A3NLTWZWNTWA34","","","","","3","","","","","","","","","","","","","","","","","","","","","",""
"3975","","image-button-response","194","1026464","0.0-190.0","A3NLTWZWNTWA34","img_art/7.jpg","4","","","","","","","","","","","","","","","","","","","","","","","","",""
"1127","","image-button-response","195","1027595","0.0-191.0","A3NLTWZWNTWA34","img_art/7.jpg","4","","","","","","","","","","","","","","","","","","","","","","","","",""
"1316","","image-button-response","196","1028914","0.0-192.0-0.0","A3NLTWZWNTWA34","img_art/7.jpg","0","","","","","","","","","","","","","","","","","","","","","","","","",""
"1316","","image-button-response","197","1030234","0.0-193.0-0.0","A3NLTWZWNTWA34","img_art/7.jpg","2","","","","","","","","","","","","","","","","","","","","","","","","",""
"null","","html-keyboard-response","198","1030737","0.0-194.0","A3NLTWZWNTWA34","<p style=""font-size: 48px;"">+</p>","","","","","null","allTrialResponses","500","1","21","img_art/7.jpg","3","The texture is interesting","Shannon,Amanda,Chelsea,Ashley,Bailey,Alexandra","I don't like the repetitiveness of the colors, and I think there should be more colors.,-50,220,20","I hate everything about this painting from the cors to it looking like a war,-50,180,20","It looks more like wallpaper rather than a painting.,-27,180,20","landscape of amrs, yawn.,-25,320,20","It gives off an alien-like vastness of space vibe which I like,9,360,20","I do not like the boring colors in this.,-20,60,20","Bailey","It gives off an alien-like vastness of space vibe which I like,9,360,20","Shannon","I don't like the repetitiveness of the colors, and I think there should be more colors.,-50,220,20","Chelsea","It looks more like wallpaper rather than a painting.,-27,180,20","5"
"7755","","survey-text","199","1038503","0.0-195.0-0.0","A3NLTWZWNTWA34","","","","{""Q0"":""It's like a waterfall ""}","","","","","","","","","","","","","","","","","","","","","","",""
"3626.8000000002794","","image-slider-response","200","1042132","0.0-196.0","A3NLTWZWNTWA34","","","","","24","","","","","","","","","","","","","","","","","","","","","",""
"2639","","image-button-response","201","1047140","0.0-197.0","A3NLTWZWNTWA34","img_art/24.jpg","0","","","","","","","","","","","","","","","","","","","","","","","","",""
"786","","image-button-response","202","1047930","0.0-198.0","A3NLTWZWNTWA34","img_art/24.jpg","0","","","","","","","","","","","","","","","","","","","","","","","","",""
"924","","image-button-response","203","1048857","0.0-199.0-0.0","A3NLTWZWNTWA34","img_art/24.jpg","3","","","","","","","","","","","","","","","","","","","","","","","","",""
"1611","","image-button-response","204","1050471","0.0-200.0-0.0","A3NLTWZWNTWA34","img_art/24.jpg","2","","","","","","","","","","","","","","","","","","","","","","","","",""
"null","","html-keyboard-response","205","1051975","0.0-201.0","A3NLTWZWNTWA34","<p style=""font-size: 48px;"">+</p>","","","","","null","allTrialResponses","1500","1","22","img_art/24.jpg","24","It's like a waterfall ","Shannon,Kaitlyn,Chelsea,Laura,Bailey,Nicole","I like the way the colors are put together, and I can imagine this picture in real life.,40,220,20","I like the bright colors,16,80,20","The colors are relaxing and cheerful.,32,180,20","chunky fresh color,27,320,20","Feels surreal, in a way, and vibrant,37,360,20","The colors and brush strokes make it feel adventurous,20,20,20","Shannon","I like the way the colors are put together, and I can imagine this picture in real life.,40,220,20","Laura","chunky fresh color,27,320,20","Chelsea","The colors are relaxing and cheerful.,32,180,20","5"
"11311","","survey-text","206","1063296","0.0-202.0-0.0","A3NLTWZWNTWA34","","","","{""Q0"":""What the fuck even is this""}","","","","","","","","","","","","","","","","","","","","","","",""
"2826.899999999907","","image-slider-response","207","1066125","0.0-203.0","A3NLTWZWNTWA34","","","","","-40","","","","","","","","","","","","","","","","","","","","","",""
"null","","image-button-response","208","1071131","0.0-204.0","A3NLTWZWNTWA34","img_art/4.jpg","null","","","","","","","","","","","","","","","","","","","","","","","","",""
"90","","image-button-response","209","1071225","0.0-205.0","A3NLTWZWNTWA34","img_art/4.jpg","2","","","","","","","","","","","","","","","","","","","","","","","","",""
"2938","","image-button-response","210","1074167","0.0-206.0-0.0","A3NLTWZWNTWA34","img_art/4.jpg","0","","","","","","","","","","","","","","","","","","","","","","","","",""
"939","","image-button-response","211","1075109","0.0-207.0-0.0","A3NLTWZWNTWA34","img_art/4.jpg","4","","","","","","","","","","","","","","","","","","","","","","","","",""
"null","","html-keyboard-response","212","1076617","0.0-208.0","A3NLTWZWNTWA34","<p style=""font-size: 48px;"">+</p>","","","","","null","allTrialResponses","1500","1","23","img_art/4.jpg","-40","What the fuck even is this","Shannon,Jamie,Chelsea,Laura,Madison,Molly","I think that this picture is too boring in terms of color and it looks ugly.,-41,220,20","Mustard yellow doesn't do it for me,-25,320,20","The colors remind me of McDonalds.,-41,180,20","spontaneous, without hesitation,22,320,20","This is what makes suburban dads say, ""my 4-year-old can do that."",-49,60,20","Not bad at all.,20,340,20","Chelsea","The colors remind me of McDonalds.,-41,180,20","Shannon","I think that this picture is too boring in terms of color and it looks ugly.,-41,220,20","Madison","This is what makes suburban dads say, ""my 4-year-old can do that."",-49,60,20","5"
"10332","","survey-text","213","1086960","0.0-209.0-0.0","A3NLTWZWNTWA34","","","","{""Q0"":""Probably one of the best pictures I've seen so far""}","","","","","","","","","","","","","","","","","","","","","","",""
"2874.100000000093","","image-slider-response","214","1089836","0.0-210.0","A3NLTWZWNTWA34","","","","","38","","","","","","","","","","","","","","","","","","","","","",""
"4046","","image-button-response","215","1094843","0.0-211.0","A3NLTWZWNTWA34","img_art/8.jpg","0","","","","","","","","","","","","","","","","","","","","","","","","",""
"751","","image-button-response","216","1095598","0.0-212.0","A3NLTWZWNTWA34","img_art/8.jpg","0","","","","","","","","","","","","","","","","","","","","","","","","",""
"1547","","image-button-response","217","1097148","0.0-213.0-0.0","A3NLTWZWNTWA34","img_art/8.jpg","2","","","","","","","","","","","","","","","","","","","","","","","","",""
"1545","","image-button-response","218","1098696","0.0-214.0-0.0","A3NLTWZWNTWA34","img_art/8.jpg","4","","","","","","","","","","","","","","","","","","","","","","","","",""
"null","","html-keyboard-response","219","1099702","0.0-215.0","A3NLTWZWNTWA34","<p style=""font-size: 48px;"">+</p>","","","","","null","allTrialResponses","1000","1","24","img_art/8.jpg","38","Probably one of the best pictures I've seen so far","Shannon,Julia,Chelsea,Megan,Madison,Shelby","I like that it looks like a city and the way the shapes and colors are put together,40,220,20","it's a little too classical for my tastes,-25,40,20","It looks like it took a lot of time to complete.,34,180,20","Cortez's influence with fair color choices,10,200,20","The composition is striking, and some of the images are quite dramatic,11,60,20","Too much going on, too many colors, makes me feel uneasy,-20,240,20","Shannon","I like that it looks like a city and the way the shapes and colors are put together,40,220,20","Chelsea","It looks like it took a lot of time to complete.,34,180,20","Madison","The composition is striking, and some of the images are quite dramatic,11,60,20","5"
"18683","","survey-text","220","1118390","0.0-216.0-0.0","A3NLTWZWNTWA34","","","","{""Q0"":""The colors are interesting""}","","","","","","","","","","","","","","","","","","","","","","",""
"2771","","image-slider-response","221","1121163","0.0-217.0","A3NLTWZWNTWA34","","","","","4","","","","","","","","","","","","","","","","","","","","","",""
"null","","image-button-response","222","1126170","0.0-218.0","A3NLTWZWNTWA34","img_art/21.jpg","null","","","","","","","","","","","","","","","","","","","","","","","","",""
"1068","","image-button-response","223","1127242","0.0-219.0","A3NLTWZWNTWA34","img_art/21.jpg","1","","","","","","","","","","","","","","","","","","","","","","","","",""
"760","","image-button-response","224","1128004","0.0-220.0-0.0","A3NLTWZWNTWA34","img_art/21.jpg","2","","","","","","","","","","","","","","","","","","","","","","","","",""
"1487","","image-button-response","225","1129496","0.0-221.0-0.0","A3NLTWZWNTWA34","img_art/21.jpg","0","","","","","","","","","","","","","","","","","","","","","","","","",""
"null","","html-keyboard-response","226","1129998","0.0-222.0","A3NLTWZWNTWA34","<p style=""font-size: 48px;"">+</p>","","","","","null","allTrialResponses","500","1","25","img_art/21.jpg","4","The colors are interesting","Shannon,Sophia,Chelsea,Heather,Madison,Kayla","I like the sky a little bit the way the colors look for the sky, the cliff side looks a little weird though.,10,220,20","Indifferent toward this one.,6,280,20","I like the colors. It looks dramatic.,5,180,20","The color spectrum is just beautiful.,32,260,20","War! But then, what? And then, what of it? Intention seems incomplete, or not fully committed to.,-19,60,20","I like that it reminds me of an abstract version of a Bob Ross painting.,36,180,20","Sophia","Indifferent toward this one.,6,280,20","Chelsea","I like the colors. It looks dramatic.,5,180,20","Shannon","I like the sky a little bit the way the colors look for the sky, the cliff side looks a little weird though.,10,220,20","5"
"3555","","survey-text","227","1133569","0.0-223.0-0.0","A3NLTWZWNTWA34","","","","{""Q0"":""table""}","","","","","","","","","","","","","","","","","","","","","","",""
"7410","","survey-text","228","1140980","0.0-224.0-0.0","A3NLTWZWNTWA34","","","","{""Q0"":""This one is pretty cool""}","","","","","","","","","","","","","","","","","","","","","","",""
"2958.2999999998137","","image-slider-response","229","1143940","0.0-225.0","A3NLTWZWNTWA34","","","","","32","","","","","","","","","","","","","","","","","","","","","",""
"4579","","image-button-response","230","1148947","0.0-226.0","A3NLTWZWNTWA34","img_art/11.jpg","1","","","","","","","","","","","","","","","","","","","","","","","","",""
"2811","","image-button-response","231","1151763","0.0-227.0","A3NLTWZWNTWA34","img_art/11.jpg","1","","","","","","","","","","","","","","","","","","","","","","","","",""
"554","","image-button-response","232","1152320","0.0-228.0-0.0","A3NLTWZWNTWA34","img_art/11.jpg","0","","","","","","","","","","","","","","","","","","","","","","","","",""
"1835","","image-button-response","233","1154159","0.0-229.0-0.0","A3NLTWZWNTWA34","img_art/11.jpg","4","","","","","","","","","","","","","","","","","","","","","","","","",""
"null","","html-keyboard-response","234","1155162","0.0-230.0","A3NLTWZWNTWA34","<p style=""font-size: 48px;"">+</p>","","","","","null","allTrialResponses","1000","1","26","img_art/11.jpg","32","This one is pretty cool","Shannon,Sophia,Chelsea,Lindsey,Kimberly,Tiffany","This looks like a bridge that has plenty of color.,10,220,20","WOW!  I love how the ships and the seas become one in this piece.,50,280,20","I like the harsh black lines against a soft background.,27,180,20","Not a fan of the colors but it looks interesting.,-31,400,20","It's cables in a city,21,260,20","I feel excited, like I'm in the middle of a bustling city.,26,360,20","Sophia","WOW!  I love how the ships and the seas become one in this piece.,50,280,20","Shannon","This looks like a bridge that has plenty of color.,10,220,20","Kimberly","It's cables in a city,21,260,20","5"
"10299","","survey-text","235","1165472","0.0-231.0-0.0","A3NLTWZWNTWA34","","","","{""Q0"":""It's so basic yet it's pretty cool""}","","","","","","","","","","","","","","","","","","","","","","",""
"2791.100000000093","","image-slider-response","236","1168265","0.0-232.0","A3NLTWZWNTWA34","","","","","22","","","","","","","","","","","","","","","","","","","","","",""
"4538","","image-button-response","237","1173274","0.0-233.0","A3NLTWZWNTWA34","img_art/6.jpg","5","","","","","","","","","","","","","","","","","","","","","","","","",""
"2226","","image-button-response","238","1175505","0.0-234.0","A3NLTWZWNTWA34","img_art/6.jpg","5","","","","","","","","","","","","","","","","","","","","","","","","",""
"692","","image-button-response","239","1176201","0.0-235.0-0.0","A3NLTWZWNTWA34","img_art/6.jpg","3","","","","","","","","","","","","","","","","","","","","","","","","",""
"1718","","image-button-response","240","1177922","0.0-236.0-0.0","A3NLTWZWNTWA34","img_art/6.jpg","1","","","","","","","","","","","","","","","","","","","","","","","","",""
"null","","html-keyboard-response","241","1178424","0.0-237.0","A3NLTWZWNTWA34","<p style=""font-size: 48px;"">+</p>","","","","","null","allTrialResponses","500","1","27","img_art/6.jpg","22","It's so basic yet it's pretty cool","Shannon,Sophia,Alexa,Madeline,Kimberly,Claire","I can't tell what this image is, but it's boring because of lack of color variety and nothing in it,-41,220,20","It's okay. It kind of looks like a bird with his head buried in his feathers.,2,280,20","Too basic for me,-20,40,20","Looks a bit like a pickle or something?,-16,40,20","It's pretty dour,-10,260,20","very minimalistic,22,260,20","Claire","very minimalistic,22,260,20","Madeline","Looks a bit like a pickle or something?,-16,40,20","Sophia","It's okay. It kind of looks like a bird with his head buried in his feathers.,2,280,20","5"
"18382","","survey-text","242","1196815","0.0-238.0-0.0","A3NLTWZWNTWA34","","","","{""Q0"":""This one is like birds covered by the leaves in the trees""}","","","","","","","","","","","","","","","","","","","","","","",""
"4255","","image-slider-response","243","1201073","0.0-239.0","A3NLTWZWNTWA34","","","","","14","","","","","","","","","","","","","","","","","","","","","",""
"null","","image-button-response","244","1206081","0.0-240.0","A3NLTWZWNTWA34","img_art/15.jpg","null","","","","","","","","","","","","","","","","","","","","","","","","",""
"785","","image-button-response","245","1206871","0.0-241.0","A3NLTWZWNTWA34","img_art/15.jpg","4","","","","","","","","","","","","","","","","","","","","","","","","",""
"676","","image-button-response","246","1207551","0.0-242.0-0.0","A3NLTWZWNTWA34","img_art/15.jpg","2","","","","","","","","","","","","","","","","","","","","","","","","",""
"800","","image-button-response","247","1208354","0.0-243.0-0.0","A3NLTWZWNTWA34","img_art/15.jpg","1","","","","","","","","","","","","","","","","","","","","","","","","",""
"null","","html-keyboard-response","248","1208856","0.0-244.0","A3NLTWZWNTWA34","<p style=""font-size: 48px;"">+</p>","","","","","null","allTrialResponses","500","1","28","img_art/15.jpg","14","This one is like birds covered by the leaves in the trees","Katie,Sophia,Rebecca,Madeline,Michelle,Claire","Too much black. I see weeds or dead/dying flowers.,-40,160,20","I feel like there's ski jumping going on here.,2,280,20","very unsettling! like reverse porcelain esp because of the colors,28,100,20","Simple but needs some more detail somehow,-3,40,20","Interesting to look at but I don't appreciate the abstraction,2,280,20","it's alright but a little cluttered,14,260,20","Michelle","Interesting to look at but I don't appreciate the abstraction,2,280,20","Rebecca","very unsettling! like reverse porcelain esp because of the colors,28,100,20","Sophia","I feel like there's ski jumping going on here.,2,280,20","5"
"11708","","survey-text","249","1220574","0.0-245.0-0.0","A3NLTWZWNTWA34","","","","{""Q0"":""I like the lines in this one""}","","","","","","","","","","","","","","","","","","","","","","",""
"4166.5","","image-slider-response","250","1224742","0.0-246.0","A3NLTWZWNTWA34","","","","","20","","","","","","","","","","","","","","","","","","","","","",""
"null","","image-button-response","251","1229751","0.0-247.0","A3NLTWZWNTWA34","img_art/25.jpg","null","","","","","","","","","","","","","","","","","","","","","","","","",""
"584","","image-button-response","252","1230339","0.0-248.0","A3NLTWZWNTWA34","img_art/25.jpg","0","","","","","","","","","","","","","","","","","","","","","","","","",""
"2529","","image-button-response","253","1232871","0.0-249.0-0.0","A3NLTWZWNTWA34","img_art/25.jpg","4","","","","","","","","","","","","","","","","","","","","","","","","",""
"2135","","image-button-response","254","1235011","0.0-250.0-0.0","A3NLTWZWNTWA34","img_art/25.jpg","2","","","","","","","","","","","","","","","","","","","","","","","","",""
"null","","html-keyboard-response","255","1236018","0.0-251.0","A3NLTWZWNTWA34","<p style=""font-size: 48px;"">+</p>","","","","","null","allTrialResponses","1000","1","29","img_art/25.jpg","20","I like the lines in this one","Dominique,Sophia,Rebecca,Brianna,Michelle,Alyssa","Iike this picture; it speaks to me on a personal level. But seems to scare the ones around me.,7,400,20","This one just has a dark feeling to me.,-50,280,20","I'm sorry but I don't uderstand this,-20,100,20","This would definitely be hanging in my bedroom in my house,50,20,20","I can get behind this but only because I like the green. it reminds me of a graveyard,11,280,20","Dark silhouette against the murky background Illicites an ominous feeling. Don't really like it.,-20,160,20","Dominique","Iike this picture; it speaks to me on a personal level. But seems to scare the ones around me.,7,400,20","Michelle","I can get behind this but only because I like the green. it reminds me of a graveyard,11,280,20","Rebecca","I'm sorry but I don't uderstand this,-20,100,20","5"
"11889","","survey-text","256","1247916","0.0-252.0-0.0","A3NLTWZWNTWA34","","","","{""Q0"":""I could do this. Wait...did I paint this? ""}","","","","","","","","","","","","","","","","","","","","","","",""
"2737.5","","image-slider-response","257","1250655","0.0-253.0","A3NLTWZWNTWA34","","","","","-31","","","","","","","","","","","","","","","","","","","","","",""
"null","","image-button-response","258","1255659","0.0-254.0","A3NLTWZWNTWA34","img_art/3.jpg","null","","","","","","","","","","","","","","","","","","","","","","","","",""
"413","","image-button-response","259","1256076","0.0-255.0","A3NLTWZWNTWA34","img_art/3.jpg","3","","","","","","","","","","","","","","","","","","","","","","","","",""
"1193","","image-button-response","260","1257273","0.0-256.0-0.0","A3NLTWZWNTWA34","img_art/3.jpg","4","","","","","","","","","","","","","","","","","","","","","","","","",""
"709","","image-button-response","261","1257986","0.0-257.0-0.0","A3NLTWZWNTWA34","img_art/3.jpg","5","","","","","","","","","","","","","","","","","","","","","","","","",""
"null","","html-keyboard-response","262","1258489","0.0-258.0","A3NLTWZWNTWA34","<p style=""font-size: 48px;"">+</p>","","","","","null","allTrialResponses","500","1","30","img_art/3.jpg","-31","I could do this. Wait...did I paint this? ","Dominique,Paige,Rebecca,Sara,Michelle,Diana","Iike this one it's a piece that I need to spend more time with to understand how i feel about it,20,400,20","seems too angry,-50,60,20","sorry do not understand,-26,100,20","Random use of red and looks scary,-50,160,20","Ok, just a bunch of red lines and a grey smudge. Would pass this right by in a gallery,-12,280,20","I didn't feel the color choice when I first looked. I did however like the placement of the gray.,-28,380,20","Sara","Random use of red and looks scary,-50,160,20","Michelle","Ok, just a bunch of red lines and a grey smudge. Would pass this right by in a gallery,-12,280,20","Diana","I didn't feel the color choice when I first looked. I did however like the placement of the gray.,-28,380,20","5"
"2569","","image-button-response_instructions","263","1261070","0.0-259.0","A3NLTWZWNTWA34","","0","instructions","","","","","","","","","","","","","","","","","","","","","","","",""
"1156","","image-button-response","264","1262234","0.0-260.0","A3NLTWZWNTWA34","","0","","","","","","","","","","","","","","","","","","","","","","","","",""
