"rt","url","trial_type","trial_index","time_elapsed","internal_node_id","participant_id","stimulus","button_pressed","Name","responses","response","key_press","variableName","fixationTime","condition","trial","photo","subjectRating","subjectResponse","agentsNames","agent_1_Response","agent_2_Response","agent_3_Response","agent_4_Response","agent_5_Response","agent_6_Response","kept_1_name","kept_1_response","kept_2_name","kept_2_response","kept_3_name","kept_3_response","errorCounter"
"13257","external_page_harvard.html","external-html","0","13361","0.0-0.0","A3O39S9T9LRU52","","","","","","","","","","","","","","","","","","","","","","","","","","",""
"1267","","image-button-response","1","14630","0.0-1.0","A3O39S9T9LRU52","","0","","","","","","","","","","","","","","","","","","","","","","","","",""
"2128","","image-button-response","2","16762","0.0-2.0-0.0","A3O39S9T9LRU52","","1","phone","","","","","","","","","","","","","","","","","","","","","","","",""
"6506","","survey-text","3","23270","0.0-3.0-0.0","A3O39S9T9LRU52","","","","{""Q0"":""A3O39S9T9LRU52""}","","","","","","","","","","","","","","","","","","","","","","",""
"5386","","image-button-response_instructions","4","28658","0.0-4.0","A3O39S9T9LRU52","","0","instructions","","","","","","","","","","","","","","","","","","","","","","","",""
"14672","","image-button-response_instructions","5","43331","0.0-5.0","A3O39S9T9LRU52","img_art/ins/popularity/ins1.png","0","instructions","","","","","","","","","","","","","","","","","","","","","","","",""
"8157","","image-button-response_instructions","6","51489","0.0-6.0","A3O39S9T9LRU52","img_art/ins/popularity/ins2.png","0","instructions","","","","","","","","","","","","","","","","","","","","","","","",""
"11332","","image-button-response_instructions","7","62823","0.0-7.0","A3O39S9T9LRU52","img_art/ins/popularity/ins2Extreme.png","0","instructions","","","","","","","","","","","","","","","","","","","","","","","",""
"3185","","image-button-response_instructions","8","66009","0.0-8.0","A3O39S9T9LRU52","img_art/ins/popularity/ins3KEEPpop.PNG","0","instructions","","","","","","","","","","","","","","","","","","","","","","","",""
"6709","","image-button-response_instructions","9","72719","0.0-9.0","A3O39S9T9LRU52","img_art/ins/popularity/ins3ANamepop.PNG","0","instructions","","","","","","","","","","","","","","","","","","","","","","","",""
"6432","","image-button-response_instructions","10","79153","0.0-10.0","A3O39S9T9LRU52","img_art/ins/popularity/ins3ARatingpop.png","0","instructions","","","","","","","","","","","","","","","","","","","","","","","",""
"4087","","image-button-response_instructions","11","83243","0.0-11.0","A3O39S9T9LRU52","img_art/ins/popularity/ins3ATextpop.png","0","instructions","","","","","","","","","","","","","","","","","","","","","","","",""
"7891","","image-button-response_instructions","12","91136","0.0-12.0","A3O39S9T9LRU52","img_art/ins/popularity/ins3ALikespop.png","0","instructions","","","","","","","","","","","","","","","","","","","","","","","",""
"16633","","image-button-response_instructions","13","107770","0.0-13.0","A3O39S9T9LRU52","img_art/ins/popularity/ins3KEEPpop.PNG","0","instructions","","","","","","","","","","","","","","","","","","","","","","","",""
"9492","","image-button-response_instructions","14","117263","0.0-14.0","A3O39S9T9LRU52","img_art/ins/popularity/ins3_5RED.png","0","instructions","","","","","","","","","","","","","","","","","","","","","","","",""
"4542","","image-button-response_instructions","15","121806","0.0-15.0","A3O39S9T9LRU52","img_art/ins/popularity/ins3KEEPpop.PNG","0","instructions","","","","","","","","","","","","","","","","","","","","","","","",""
"7713","","image-button-response_instructions","16","129520","0.0-16.0","A3O39S9T9LRU52","img_art/ins/popularity/ins4KEEPpop.PNG","0","instructions","","","","","","","","","","","","","","","","","","","","","","","",""
"3697","","image-button-response_instructions","17","133218","0.0-17.0","A3O39S9T9LRU52","img_art/ins/popularity/ins5KEEPpop.PNG","0","instructions","","","","","","","","","","","","","","","","","","","","","","","",""
"1683","","image-button-response_instructions","18","134902","0.0-18.0","A3O39S9T9LRU52","","0","instructions","","","","","","","","","","","","","","","","","","","","","","","",""
"6400","","survey-text","19","141322","0.0-19.0-0.0","A3O39S9T9LRU52","","","","{""Q0"":""but""}","","","","","","","","","","","","","","","","","","","","","","",""
"12653","","survey-text","20","153978","0.0-20.0-0.0","A3O39S9T9LRU52","","","","{""Q0"":""colorful but a gross mess""}","","","","","","","","","","","","","","","","","","","","","","",""
"11954","","image-slider-response","21","165936","0.0-21.0","A3O39S9T9LRU52","","","","","0","","","","","","","","","","","","","","","","","","","","","",""
"null","","image-button-response","22","170940","0.0-22.0","A3O39S9T9LRU52","img_art/ins/1.jpg","null","","","","","","","","","","","","","","","","","","","","","","","","",""
"3829","","image-button-response","23","174770","0.0-23.0","A3O39S9T9LRU52","img_art/ins/1.jpg","0","","","","","","","","","","","","","","","","","","","","","","","","",""
"2545","","image-button-response","24","177317","0.0-24.0-0.0","A3O39S9T9LRU52","img_art/ins/1.jpg","2","","","","","","","","","","","","","","","","","","","","","","","","",""
"1688","","image-button-response","25","179008","0.0-25.0-0.0","A3O39S9T9LRU52","img_art/ins/1.jpg","4","","","","","","","","","","","","","","","","","","","","","","","","",""
"null","","html-keyboard-response","26","180009","0.0-26.0","A3O39S9T9LRU52","<p style=""font-size: 48px;"">+</p>","","","","","null","allTrialResponses","1000","1","-2","img_art/ins/1.jpg","0","colorful but a gross mess","Adam,Alex,Ben,Carl,Daniel,Jack","Seems like doodles,-20,20,20","very creative work.,36,40,20","This color reminds me of poo,-46,60,20","very calming artwork,42,80,20","It looks like a murder scene.,-48,100,20","I like the sophisticated brushwork,40,120,20","Adam","Seems like doodles,-20,20,20","Ben","This color reminds me of poo,-46,60,20","Daniel","It looks like a murder scene.,-48,100,20","0"
"16662","","survey-text","27","196676","0.0-27.0-0.0","A3O39S9T9LRU52","","","","{""Q0"":""abstract but cool looking""}","","","","","","","","","","","","","","","","","","","","","","",""
"9640","","image-slider-response","28","206317","0.0-28.0","A3O39S9T9LRU52","","","","","23","","","","","","","","","","","","","","","","","","","","","",""
"null","","image-button-response","29","211318","0.0-29.0","A3O39S9T9LRU52","img_art/ins/2.jpg","null","","","","","","","","","","","","","","","","","","","","","","","","",""
"6171","","image-button-response","30","217491","0.0-30.0","A3O39S9T9LRU52","img_art/ins/2.jpg","1","","","","","","","","","","","","","","","","","","","","","","","","",""
"5500","","image-button-response","31","222992","0.0-31.0-0.0","A3O39S9T9LRU52","img_art/ins/2.jpg","2","","","","","","","","","","","","","","","","","","","","","","","","",""
"1292","","image-button-response","32","224286","0.0-32.0-0.0","A3O39S9T9LRU52","img_art/ins/2.jpg","5","","","","","","","","","","","","","","","","","","","","","","","","",""
"null","","html-keyboard-response","33","225287","0.0-33.0","A3O39S9T9LRU52","<p style=""font-size: 48px;"">+</p>","","","","","null","allTrialResponses","1000","1","-1","img_art/ins/2.jpg","23","abstract but cool looking","Adam,John,Ben,James,Daniel,Kyle","too much color,-18,20,20","love the texture of paint,48,160,20","meaningless painting,-45,60,20","looks too angry,-50,140,20","One of my pet peevs,-48,100,20","Idk, it is just annoying,-32,180,20","John","love the texture of paint,48,160,20","Ben","meaningless painting,-45,60,20","Kyle","Idk, it is just annoying,-32,180,20","0"
"27371","","survey-text","34","252662","0.0-34.0-0.0","A3O39S9T9LRU52","","","","{""Q0"":""modern looking but messy, like the blue""}","","","","","","","","","","","","","","","","","","","","","","",""
"4875","","image-slider-response","35","257540","0.0-35.0","A3O39S9T9LRU52","","","","","1","","","","","","","","","","","","","","","","","","","","","",""
"4640","","image-button-response","36","262541","0.0-36.0","A3O39S9T9LRU52","img_art/ins/3.jpg","0","","","","","","","","","","","","","","","","","","","","","","","","",""
"508","","image-button-response","37","263050","0.0-37.0","A3O39S9T9LRU52","img_art/ins/3.jpg","1","","","","","","","","","","","","","","","","","","","","","","","","",""
"2020","","image-button-response","38","265071","0.0-38.0-0.0","A3O39S9T9LRU52","img_art/ins/3.jpg","3","","","","","","","","","","","","","","","","","","","","","","","","",""
"1819","","image-button-response","39","266891","0.0-39.0-0.0","A3O39S9T9LRU52","img_art/ins/3.jpg","0","","","","","","","","","","","","","","","","","","","","","","","","",""
"null","","html-keyboard-response","40","267393","0.0-40.0","A3O39S9T9LRU52","<p style=""font-size: 48px;"">+</p>","","","","","null","allTrialResponses","500","1","0","img_art/ins/3.jpg","1","modern looking but messy, like the blue","Sam,John,Ben,Mike,Ron,Kyle","I can feel a rainy day from this painting,18,240,20","I like the overlapping of brushes,41,160,20","This thing gives me anxiety,-41,60,20","enjoy the different shades of blue,22,200,20","It looks depressing,-26,220,20","It looks like a playground for bats,-36,180,20","John","I like the overlapping of brushes,41,160,20","Mike","enjoy the different shades of blue,22,200,20","Sam","I can feel a rainy day from this painting,18,240,20","0"
"5175","","image-button-response_instructions","41","272572","0.0-41.0","A3O39S9T9LRU52","","0","instructions","","","","","","","","","","","","","","","","","","","","","","","",""
"13939","","survey-likert","42","286512","0.0-42.0-0.0","A3O39S9T9LRU52","","","","{""Q0"":"""",""Q1"":0,""Q2"":1}","","","","","","","","","","","","","","","","","","","","","","",""
"4091","","survey-text","43","290605","0.0-43.0-0.0","A3O39S9T9LRU52","","","","{""Q0"":""rock""}","","","","","","","","","","","","","","","","","","","","","","",""
"34307","","survey-text","44","324915","0.0-44.0-0.0","A3O39S9T9LRU52","","","","{""Q0"":""a mix of fun and boredom""}","","","","","","","","","","","","","","","","","","","","","","",""
"8135","","image-slider-response","45","333051","0.0-45.0","A3O39S9T9LRU52","","","","","20","","","","","","","","","","","","","","","","","","","","","",""
"null","","image-button-response","46","338063","0.0-46.0","A3O39S9T9LRU52","img_art/11.jpg","null","","","","","","","","","","","","","","","","","","","","","","","","",""
"10237","","image-button-response","47","348302","0.0-47.0","A3O39S9T9LRU52","img_art/11.jpg","2","","","","","","","","","","","","","","","","","","","","","","","","",""
"4080","","image-button-response","48","352382","0.0-48.0-0.0","A3O39S9T9LRU52","img_art/11.jpg","4","","","","","","","","","","","","","","","","","","","","","","","","",""
"430","","image-button-response","49","352814","0.0-49.0-0.0","A3O39S9T9LRU52","img_art/11.jpg","5","","","","","","","","","","","","","","","","","","","","","","","","",""
"null","","html-keyboard-response","50","353815","0.0-50.0","A3O39S9T9LRU52","<p style=""font-size: 48px;"">+</p>","","","","","null","allTrialResponses","1000","1","1","img_art/11.jpg","20","a mix of fun and boredom","Jesse,Bryce,Sean,Alejandro,Joshua,David","I like the dark lines and it interests me,13,80,20","Scary again. Not a fan.,-23,20,20","pic looks alright,8,40,20","Enjoyed the lines representing different paths that encompass different entities,20,80,20","Is interesting. Wouldn't bother me to have this hanging where I'd see it every day.,11,240,20","I like how this piece can be interpreted in different ways, such as a village on hilly terrain.,10,340,20","Sean","pic looks alright,8,40,20","Joshua","Is interesting. Wouldn't bother me to have this hanging where I'd see it every day.,11,240,20","David","I like how this piece can be interpreted in different ways, such as a village on hilly terrain.,10,340,20","0"
"26505","","survey-text","51","380323","0.0-51.0-0.0","A3O39S9T9LRU52","","","","{""Q0"":""looks like someone was on some serious drugs""}","","","","","","","","","","","","","","","","","","","","","","",""
"2379","","image-slider-response","52","382703","0.0-52.0","A3O39S9T9LRU52","","","","","-21","","","","","","","","","","","","","","","","","","","","","",""
"null","","image-button-response","53","387704","0.0-53.0","A3O39S9T9LRU52","img_art/28.jpg","null","","","","","","","","","","","","","","","","","","","","","","","","",""
"5370","","image-button-response","54","393074","0.0-54.0","A3O39S9T9LRU52","img_art/28.jpg","4","","","","","","","","","","","","","","","","","","","","","","","","",""
"4748","","image-button-response","55","397823","0.0-55.0-0.0","A3O39S9T9LRU52","img_art/28.jpg","5","","","","","","","","","","","","","","","","","","","","","","","","",""
"5566","","image-button-response","56","403391","0.0-56.0-0.0","A3O39S9T9LRU52","img_art/28.jpg","1","","","","","","","","","","","","","","","","","","","","","","","","",""
"null","","html-keyboard-response","57","403893","0.0-57.0","A3O39S9T9LRU52","<p style=""font-size: 48px;"">+</p>","","","","","null","allTrialResponses","500","1","2","img_art/28.jpg","-21","looks like someone was on some serious drugs","Christopher,Brett,Sean,Matthew,Joshua,David","something about all the off-greys is pretty interesting,5,160,20","Overpopulated city,35,360,20","it looks alright,-1,40,20","Normally don't react well to abstract art, but it looks almost like something's there.,28,120,20","The colors are drab and a little depressing.,-20,240,20","I feel that the image is invoking a sense of negativity.,-15,340,20","Joshua","The colors are drab and a little depressing.,-20,240,20","David","I feel that the image is invoking a sense of negativity.,-15,340,20","Brett","Overpopulated city,35,360,20","0"
"23165","","survey-text","58","427061","0.0-58.0-0.0","A3O39S9T9LRU52","","","","{""Q0"":""colorful but my nephew could paint this""}","","","","","","","","","","","","","","","","","","","","","","",""
"2806","","image-slider-response","59","429868","0.0-59.0","A3O39S9T9LRU52","","","","","-26","","","","","","","","","","","","","","","","","","","","","",""
"null","","image-button-response","60","434871","0.0-60.0","A3O39S9T9LRU52","img_art/22.jpg","null","","","","","","","","","","","","","","","","","","","","","","","","",""
"11814","","image-button-response","61","446687","0.0-61.0","A3O39S9T9LRU52","img_art/22.jpg","5","","","","","","","","","","","","","","","","","","","","","","","","",""
"2796","","image-button-response","62","449484","0.0-62.0-0.0","A3O39S9T9LRU52","img_art/22.jpg","2","","","","","","","","","","","","","","","","","","","","","","","","",""
"289","","image-button-response","63","449775","0.0-63.0-0.0","A3O39S9T9LRU52","img_art/22.jpg","1","","","","","","","","","","","","","","","","","","","","","","","","",""
"null","","html-keyboard-response","64","450776","0.0-64.0","A3O39S9T9LRU52","<p style=""font-size: 48px;"">+</p>","","","","","null","allTrialResponses","1000","1","3","img_art/22.jpg","-26","colorful but my nephew could paint this","Samuel,Brett,Bradley,Shane,Joshua,David","ball of light in 90s,8,400,20","Climate change in a big city,35,360,20","I like this one. There is a lot to see if you keep looking for it.,27,300,20","Sunsets at the beach,42,80,20","This one would work in the right frame. It's nice.,20,240,20","This doesn't invoke anything, since I can't tell what the piece represents.,0,340,20","David","This doesn't invoke anything, since I can't tell what the piece represents.,0,340,20","Bradley","I like this one. There is a lot to see if you keep looking for it.,27,300,20","Brett","Climate change in a big city,35,360,20","0"
"33943","","survey-text","65","484723","0.0-65.0-0.0","A3O39S9T9LRU52","","","","{""Q0"":""i like the coloring and the texture""}","","","","","","","","","","","","","","","","","","","","","","",""
"2716","","image-slider-response","66","487441","0.0-66.0","A3O39S9T9LRU52","","","","","35","","","","","","","","","","","","","","","","","","","","","",""
"null","","image-button-response","67","492443","0.0-67.0","A3O39S9T9LRU52","img_art/25.jpg","null","","","","","","","","","","","","","","","","","","","","","","","","",""
"10422","","image-button-response","68","502865","0.0-68.0","A3O39S9T9LRU52","img_art/25.jpg","4","","","","","","","","","","","","","","","","","","","","","","","","",""
"836","","image-button-response","69","503702","0.0-69.0-0.0","A3O39S9T9LRU52","img_art/25.jpg","1","","","","","","","","","","","","","","","","","","","","","","","","",""
"2214","","image-button-response","70","505918","0.0-70.0-0.0","A3O39S9T9LRU52","img_art/25.jpg","3","","","","","","","","","","","","","","","","","","","","","","","","",""
"null","","html-keyboard-response","71","506420","0.0-71.0","A3O39S9T9LRU52","<p style=""font-size: 48px;"">+</p>","","","","","null","allTrialResponses","500","1","4","img_art/25.jpg","35","i like the coloring and the texture","Dustin,Brett,Bradley,Evan,Cody,David","Reminds me of ancient civilization art. I like the aqua color; soothing to me.,1,20,20","Egyptian heiroglyphics and painting,15,360,20","This one just has a dark feeling to me.,-50,300,20","I really like the green and the fact that it is tattered on the edges,23,140,20","Like the colors and the figure,30,180,20","Depicts something negative, such as ritual. I'm not a fan.,-10,340,20","Cody","Like the colors and the figure,30,180,20","Brett","Egyptian heiroglyphics and painting,15,360,20","Evan","I really like the green and the fact that it is tattered on the edges,23,140,20","0"
"28313","","survey-text","72","534736","0.0-72.0-0.0","A3O39S9T9LRU52","","","","{""Q0"":""another grouping of senseless colors, why?""}","","","","","","","","","","","","","","","","","","","","","","",""
"2344","","image-slider-response","73","537081","0.0-73.0","A3O39S9T9LRU52","","","","","-29","","","","","","","","","","","","","","","","","","","","","",""
"null","","image-button-response","74","542082","0.0-74.0","A3O39S9T9LRU52","img_art/21.jpg","null","","","","","","","","","","","","","","","","","","","","","","","","",""
"2101","","image-button-response","75","544185","0.0-75.0","A3O39S9T9LRU52","img_art/21.jpg","3","","","","","","","","","","","","","","","","","","","","","","","","",""
"2403","","image-button-response","76","546588","0.0-76.0-0.0","A3O39S9T9LRU52","img_art/21.jpg","1","","","","","","","","","","","","","","","","","","","","","","","","",""
"8478","","image-button-response","77","555067","0.0-77.0-0.0","A3O39S9T9LRU52","img_art/21.jpg","2","","","","","","","","","","","","","","","","","","","","","","","","",""
"null","","html-keyboard-response","78","556569","0.0-78.0","A3O39S9T9LRU52","<p style=""font-size: 48px;"">+</p>","","","","","null","allTrialResponses","1500","1","5","img_art/21.jpg","-29","another grouping of senseless colors, why?","Hunter,Brett,Nathaniel,Evan,Cody,Corey","feels like a harbor scene,11,240,20","Makes me think of a battleship targeting a beautiful mountainside,0,360,20","Looks like two ships on fire. Cool image.,12,220,20","I feel confused,-18,140,20","Pretty, good colors,30,180,20","i like the colors and the blending,17,260,20","Evan","I feel confused,-18,140,20","Brett","Makes me think of a battleship targeting a beautiful mountainside,0,360,20","Nathaniel","Looks like two ships on fire. Cool image.,12,220,20","0"
"3797","","survey-text","79","560370","0.0-79.0-0.0","A3O39S9T9LRU52","","","","{""Q0"":""sky""}","","","","","","","","","","","","","","","","","","","","","","",""
"53608","","survey-text","80","613979","0.0-80.0-0.0","A3O39S9T9LRU52","","","","{""Q0"":""who buys painting like these?, maybe I have no taste""}","","","","","","","","","","","","","","","","","","","","","","",""
"2999","","image-slider-response","81","616982","0.0-81.0","A3O39S9T9LRU52","","","","","-41","","","","","","","","","","","","","","","","","","","","","",""
"null","","image-button-response","82","621985","0.0-82.0","A3O39S9T9LRU52","img_art/24.jpg","null","","","","","","","","","","","","","","","","","","","","","","","","",""
"208","","image-button-response","83","622194","0.0-83.0","A3O39S9T9LRU52","img_art/24.jpg","5","","","","","","","","","","","","","","","","","","","","","","","","",""
"491","","image-button-response","84","622685","0.0-84.0-0.0","A3O39S9T9LRU52","img_art/24.jpg","2","","","","","","","","","","","","","","","","","","","","","","","","",""
"324","","image-button-response","85","623011","0.0-85.0-0.0","A3O39S9T9LRU52","img_art/24.jpg","1","","","","","","","","","","","","","","","","","","","","","","","","",""
"null","","html-keyboard-response","86","623513","0.0-86.0","A3O39S9T9LRU52","<p style=""font-size: 48px;"">+</p>","","","","","null","allTrialResponses","500","1","6","img_art/24.jpg","-41","who buys painting like these?, maybe I have no taste","Cameron,Brett,Nathaniel,Evan,Dylan,Angel","Mountain stream pineapple texture?,30,60,20","Forest waterfall,40,360,20","Feels surreal, in a way, and vibrant,37,220,20","It feels very serene,19,140,20","This reminds me of a creek or a river. It puts me a peace,42,40,20","This is clear and healthy. It makes me think of unspoiled nature.,20,180,20","Angel","This is clear and healthy. It makes me think of unspoiled nature.,20,180,20","Nathaniel","Feels surreal, in a way, and vibrant,37,220,20","Brett","Forest waterfall,40,360,20","0"
"26039","","survey-text","87","649555","0.0-87.0-0.0","A3O39S9T9LRU52","","","","{""Q0"":""I like the choice of colors""}","","","","","","","","","","","","","","","","","","","","","","",""
"4036","","image-slider-response","88","653593","0.0-88.0","A3O39S9T9LRU52","","","","","40","","","","","","","","","","","","","","","","","","","","","",""
"4204","","image-button-response","89","658595","0.0-89.0","A3O39S9T9LRU52","img_art/20.jpg","3","","","","","","","","","","","","","","","","","","","","","","","","",""
"4700","","image-button-response","90","663296","0.0-90.0","A3O39S9T9LRU52","img_art/20.jpg","4","","","","","","","","","","","","","","","","","","","","","","","","",""
"3115","","image-button-response","91","666413","0.0-91.0-0.0","A3O39S9T9LRU52","img_art/20.jpg","1","","","","","","","","","","","","","","","","","","","","","","","","",""
"3059","","image-button-response","92","669473","0.0-92.0-0.0","A3O39S9T9LRU52","img_art/20.jpg","3","","","","","","","","","","","","","","","","","","","","","","","","",""
"null","","html-keyboard-response","93","670976","0.0-93.0","A3O39S9T9LRU52","<p style=""font-size: 48px;"">+</p>","","","","","null","allTrialResponses","1500","1","7","img_art/20.jpg","40","I like the choice of colors","Alexander,Brett,Nathaniel,Jack,Brendan,Angel","The beach and industry.,12,120,20","City life vs shore life,40,360,20","A bit hectic, but it does have a bit of coolness to it,6,220,20","could look for hours. love the brush work. color choices look like a desert.,50,320,20","i can see a car crash,13,340,20","This looks like a ruin of what was once a thriving city.,-9,180,20","Brendan","i can see a car crash,13,340,20","Brett","City life vs shore life,40,360,20","Jack","could look for hours. love the brush work. color choices look like a desert.,50,320,20","0"
"19162","","survey-text","94","690141","0.0-94.0-0.0","A3O39S9T9LRU52","","","","{""Q0"":""too plain, needs some color""}","","","","","","","","","","","","","","","","","","","","","","",""
"2551","","image-slider-response","95","692695","0.0-95.0","A3O39S9T9LRU52","","","","","-50","","","","","","","","","","","","","","","","","","","","","",""
"1910","","image-button-response","96","697696","0.0-96.0","A3O39S9T9LRU52","img_art/7.jpg","2","","","","","","","","","","","","","","","","","","","","","","","","",""
"2986","","image-button-response","97","700683","0.0-97.0","A3O39S9T9LRU52","img_art/7.jpg","2","","","","","","","","","","","","","","","","","","","","","","","","",""
"692","","image-button-response","98","701376","0.0-98.0-0.0","A3O39S9T9LRU52","img_art/7.jpg","0","","","","","","","","","","","","","","","","","","","","","","","","",""
"5143","","image-button-response","99","706520","0.0-99.0-0.0","A3O39S9T9LRU52","img_art/7.jpg","4","","","","","","","","","","","","","","","","","","","","","","","","",""
"null","","html-keyboard-response","100","707021","0.0-100.0","A3O39S9T9LRU52","<p style=""font-size: 48px;"">+</p>","","","","","null","allTrialResponses","500","1","8","img_art/7.jpg","-50","too plain, needs some color","Scott,Brett,Charles,Jack,Brendan,Tanner","I don't like the texture,-49,20,20","No particular reaction to this,10,360,20","Looks like a bad picture of a beach,-21,100,20","reminds me of a desert from far above,23,320,20","some rocks on a mars?,7,340,20","sand, beach, tranquil,10,180,20","Charles","Looks like a bad picture of a beach,-21,100,20","Scott","I don't like the texture,-49,20,20","Brendan","some rocks on a mars?,7,340,20","0"
"28792","","survey-text","101","735817","0.0-101.0-0.0","A3O39S9T9LRU52","","","","{""Q0"":""Inception! Its like a painting of the painting.""}","","","","","","","","","","","","","","","","","","","","","","",""
"3656","","image-slider-response","102","739475","0.0-102.0","A3O39S9T9LRU52","","","","","50","","","","","","","","","","","","","","","","","","","","","",""
"4842","","image-button-response","103","744477","0.0-103.0","A3O39S9T9LRU52","img_art/29.jpg","2","","","","","","","","","","","","","","","","","","","","","","","","",""
"154","","image-button-response","104","744631","0.0-104.0","A3O39S9T9LRU52","img_art/29.jpg","1","","","","","","","","","","","","","","","","","","","","","","","","",""
"409","","image-button-response","105","745041","0.0-105.0-0.0","A3O39S9T9LRU52","img_art/29.jpg","0","","","","","","","","","","","","","","","","","","","","","","","","",""
"551","","image-button-response","106","745594","0.0-106.0-0.0","A3O39S9T9LRU52","img_art/29.jpg","2","","","","","","","","","","","","","","","","","","","","","","","","",""
"null","","html-keyboard-response","107","747094","0.0-107.0","A3O39S9T9LRU52","<p style=""font-size: 48px;"">+</p>","","","","","null","allTrialResponses","1500","1","9","img_art/29.jpg","50","Inception! Its like a painting of the painting.","Scott,Trevor,Charles,John,Brendan,Adrian","feels random and not thoughtout,-37,20,20","It's too on trend with the gray and doesn't look like a lasting piece,-4,280,20","I like the usage of a physical object,33,100,20","Its interesting although doesnt illicit any strong emotions from me,10,120,20","it looks like a prison,-33,340,20","Again, ugly colors and I'm not a fan of abstract. This looks like the view into a garbage dump.,-50,60,20","Trevor","It's too on trend with the gray and doesn't look like a lasting piece,-4,280,20","Scott","feels random and not thoughtout,-37,20,20","Charles","I like the usage of a physical object,33,100,20","0"
"29660","","survey-text","108","776759","0.0-108.0-0.0","A3O39S9T9LRU52","","","","{""Q0"":""someone has a better sense of humor than me""}","","","","","","","","","","","","","","","","","","","","","","",""
"2183","","image-slider-response","109","778942","0.0-109.0","A3O39S9T9LRU52","","","","","-50","","","","","","","","","","","","","","","","","","","","","",""
"3782","","image-button-response","110","783944","0.0-110.0","A3O39S9T9LRU52","img_art/4.jpg","5","","","","","","","","","","","","","","","","","","","","","","","","",""
"553","","image-button-response","111","784498","0.0-111.0","A3O39S9T9LRU52","img_art/4.jpg","5","","","","","","","","","","","","","","","","","","","","","","","","",""
"2758","","image-button-response","112","787257","0.0-112.0-0.0","A3O39S9T9LRU52","img_art/4.jpg","2","","","","","","","","","","","","","","","","","","","","","","","","",""
"663","","image-button-response","113","787922","0.0-113.0-0.0","A3O39S9T9LRU52","img_art/4.jpg","1","","","","","","","","","","","","","","","","","","","","","","","","",""
"null","","html-keyboard-response","114","788422","0.0-114.0","A3O39S9T9LRU52","<p style=""font-size: 48px;"">+</p>","","","","","null","allTrialResponses","500","1","10","img_art/4.jpg","-50","someone has a better sense of humor than me","Scott,Trevor,Charles,Austin,Jose,Aaron","feels free flowing and relaxed,21,20,20","not enough color and too yellow for me. Not my favorite colors,-10,280,20","It's ok, theres nothing that draws me away from it I guess,0,100,20","Like the color vibrancy,29,240,20","I like how many different ways there are to interpret this.,27,200,20","It doesn't make me feel anything it just looks like a kid did it.,-30,20,20","Aaron","It doesn't make me feel anything it just looks like a kid did it.,-30,20,20","Charles","It's ok, theres nothing that draws me away from it I guess,0,100,20","Trevor","not enough color and too yellow for me. Not my favorite colors,-10,280,20","0"
"4278","","survey-text","115","792707","0.0-115.0-0.0","A3O39S9T9LRU52","","","","{""Q0"":""our""}","","","","","","","","","","","","","","","","","","","","","","",""
"44798","","survey-text","116","837506","0.0-116.0-0.0","A3O39S9T9LRU52","","","","{""Q0"":""just a jumbled mess of grossness""}","","","","","","","","","","","","","","","","","","","","","","",""
"1930","","image-slider-response","117","839437","0.0-117.0","A3O39S9T9LRU52","","","","","-50","","","","","","","","","","","","","","","","","","","","","",""
"4555","","image-button-response","118","844439","0.0-118.0","A3O39S9T9LRU52","img_art/27.jpg","2","","","","","","","","","","","","","","","","","","","","","","","","",""
"530","","image-button-response","119","844971","0.0-119.0","A3O39S9T9LRU52","img_art/27.jpg","2","","","","","","","","","","","","","","","","","","","","","","","","",""
"1535","","image-button-response","120","846507","0.0-120.0-0.0","A3O39S9T9LRU52","img_art/27.jpg","5","","","","","","","","","","","","","","","","","","","","","","","","",""
"1075","","image-button-response","121","847584","0.0-121.0-0.0","A3O39S9T9LRU52","img_art/27.jpg","3","","","","","","","","","","","","","","","","","","","","","","","","",""
"null","","html-keyboard-response","122","848086","0.0-122.0","A3O39S9T9LRU52","<p style=""font-size: 48px;"">+</p>","","","","","null","allTrialResponses","500","1","11","img_art/27.jpg","-50","just a jumbled mess of grossness","Justin,Trevor,Charles,Kenneth,Richard,Aaron","The colors are put together in an interesting way.,-9,280,20","I like the orange but it's a little blah,1,280,20","Nothing stands out,-23,100,20","The green stick drawings or whatever they are ruin it for me.,-23,300,20","like the patterns and colors all but the orange blob on the right,32,340,20","It looks like when my little sister took magic markers to the wall.,-11,20,20","Charles","Nothing stands out,-23,100,20","Aaron","It looks like when my little sister took magic markers to the wall.,-11,20,20","Kenneth","The green stick drawings or whatever they are ruin it for me.,-23,300,20","0"
"28391","","survey-text","123","876480","0.0-123.0-0.0","A3O39S9T9LRU52","","","","{""Q0"":""Is this titled \""I was just cleaning my brush?\""""}","","","","","","","","","","","","","","","","","","","","","","",""
"2306","","image-slider-response","124","878788","0.0-124.0","A3O39S9T9LRU52","","","","","-50","","","","","","","","","","","","","","","","","","","","","",""
"null","","image-button-response","125","883790","0.0-125.0","A3O39S9T9LRU52","img_art/10.jpg","null","","","","","","","","","","","","","","","","","","","","","","","","",""
"390","","image-button-response","126","884180","0.0-126.0","A3O39S9T9LRU52","img_art/10.jpg","2","","","","","","","","","","","","","","","","","","","","","","","","",""
"1313","","image-button-response","127","885495","0.0-127.0-0.0","A3O39S9T9LRU52","img_art/10.jpg","4","","","","","","","","","","","","","","","","","","","","","","","","",""
"873","","image-button-response","128","886369","0.0-128.0-0.0","A3O39S9T9LRU52","img_art/10.jpg","0","","","","","","","","","","","","","","","","","","","","","","","","",""
"null","","html-keyboard-response","129","887369","0.0-129.0","A3O39S9T9LRU52","<p style=""font-size: 48px;"">+</p>","","","","","null","allTrialResponses","1000","1","12","img_art/10.jpg","-50","Is this titled ""I was just cleaning my brush?""","James,Andrew,Charles,Kenneth,Caleb,Aaron","I have no opinions on this one,0,380,20","Makes me think of the exhilaration of a roller coaster,31,160,20","Also too all over the place, I don't see any pattern or anything that's supposed to stand out,-19,100,20","I cant tell what this is supposed to be, but I enjoy the simplicity of it.,28,300,20","This is a scribble of a mad man. Appears low effort.,-33,40,20","I like how simple but intricate it is.,30,20,20","Charles","Also too all over the place, I don't see any pattern or anything that's supposed to stand out,-19,100,20","Caleb","This is a scribble of a mad man. Appears low effort.,-33,40,20","James","I have no opinions on this one,0,380,20","0"
"51367","","survey-text","130","938742","0.0-130.0-0.0","A3O39S9T9LRU52","","","","{""Q0"":""The colors are okay, but why?""}","","","","","","","","","","","","","","","","","","","","","","",""
"3092","","image-slider-response","131","941834","0.0-131.0","A3O39S9T9LRU52","","","","","-26","","","","","","","","","","","","","","","","","","","","","",""
"null","","image-button-response","132","946836","0.0-132.0","A3O39S9T9LRU52","img_art/15.jpg","null","","","","","","","","","","","","","","","","","","","","","","","","",""
"591","","image-button-response","133","947428","0.0-133.0","A3O39S9T9LRU52","img_art/15.jpg","5","","","","","","","","","","","","","","","","","","","","","","","","",""
"817","","image-button-response","134","948246","0.0-134.0-0.0","A3O39S9T9LRU52","img_art/15.jpg","0","","","","","","","","","","","","","","","","","","","","","","","","",""
"503","","image-button-response","135","948750","0.0-135.0-0.0","A3O39S9T9LRU52","img_art/15.jpg","2","","","","","","","","","","","","","","","","","","","","","","","","",""
"null","","html-keyboard-response","136","949252","0.0-136.0","A3O39S9T9LRU52","<p style=""font-size: 48px;"">+</p>","","","","","null","allTrialResponses","500","1","13","img_art/15.jpg","-26","The colors are okay, but why?","James,Jordan,Charles,Edward,Caleb,Mason","No opinion truthfully,1,380,20","This also has nice contrast,34,160,20","it looks like lavender,10,100,20","Reminds me of lilacs,26,60,20","Love the accent colors in this piece!,20,40,20","It's ok, it makes me think. That's something I guess.,8,100,20","Mason","It's ok, it makes me think. That's something I guess.,8,100,20","James","No opinion truthfully,1,380,20","Charles","it looks like lavender,10,100,20","0"
"48889","","survey-text","137","998145","0.0-137.0-0.0","A3O39S9T9LRU52","","","","{""Q0"":""I just don't understand this piece""}","","","","","","","","","","","","","","","","","","","","","","",""
"2079","","image-slider-response","138","1000226","0.0-138.0","A3O39S9T9LRU52","","","","","-26","","","","","","","","","","","","","","","","","","","","","",""
"4037","","image-button-response","139","1005227","0.0-139.0","A3O39S9T9LRU52","img_art/16.jpg","3","","","","","","","","","","","","","","","","","","","","","","","","",""
"429","","image-button-response","140","1005657","0.0-140.0","A3O39S9T9LRU52","img_art/16.jpg","3","","","","","","","","","","","","","","","","","","","","","","","","",""
"522","","image-button-response","141","1006180","0.0-141.0-0.0","A3O39S9T9LRU52","img_art/16.jpg","4","","","","","","","","","","","","","","","","","","","","","","","","",""
"479","","image-button-response","142","1006661","0.0-142.0-0.0","A3O39S9T9LRU52","img_art/16.jpg","5","","","","","","","","","","","","","","","","","","","","","","","","",""
"null","","html-keyboard-response","143","1008162","0.0-143.0","A3O39S9T9LRU52","<p style=""font-size: 48px;"">+</p>","","","","","null","allTrialResponses","1500","1","14","img_art/16.jpg","-26","I just don't understand this piece","James,Tristan,Charles,Michael,Connor,Mason","It is interesting to say the least,0,380,20","visceral and a little disturbing.,10,300,20","Weird and creepy,-30,100,20","Looks like a kid did itt and ti looks disturbing.,-45,140,20","Not original. Bear is odd,-50,240,20","Don't get it. Hate it. ugly.,-44,100,20","Michael","Looks like a kid did itt and ti looks disturbing.,-45,140,20","Connor","Not original. Bear is odd,-50,240,20","Mason","Don't get it. Hate it. ugly.,-44,100,20","0"
"39091","","survey-text","144","1047257","0.0-144.0-0.0","A3O39S9T9LRU52","","","","{""Q0"":""Too messy for me, makes my head hurt""}","","","","","","","","","","","","","","","","","","","","","","",""
"2012","","image-slider-response","145","1049271","0.0-145.0","A3O39S9T9LRU52","","","","","-50","","","","","","","","","","","","","","","","","","","","","",""
"null","","image-button-response","146","1054272","0.0-146.0","A3O39S9T9LRU52","img_art/2.jpg","null","","","","","","","","","","","","","","","","","","","","","","","","",""
"115","","image-button-response","147","1054388","0.0-147.0","A3O39S9T9LRU52","img_art/2.jpg","2","","","","","","","","","","","","","","","","","","","","","","","","",""
"576","","image-button-response","148","1054964","0.0-148.0-0.0","A3O39S9T9LRU52","img_art/2.jpg","0","","","","","","","","","","","","","","","","","","","","","","","","",""
"630","","image-button-response","149","1055596","0.0-149.0-0.0","A3O39S9T9LRU52","img_art/2.jpg","3","","","","","","","","","","","","","","","","","","","","","","","","",""
"null","","html-keyboard-response","150","1057098","0.0-150.0","A3O39S9T9LRU52","<p style=""font-size: 48px;"">+</p>","","","","","null","allTrialResponses","1500","1","15","img_art/2.jpg","-50","Too messy for me, makes my head hurt","Spencer,Christian,Elijah,Michael,Connor,Mason","Kind of looks upside down, I need a focal point,-29,120,20","do not understand,-21,140,20","It's just a splash of paint on a canvas,-31,80,20","Random colors and shapes mashed together. Nothing artistic, but better than some of the other ones.,-37,140,20","There is an odd face here that is creepy,-4,240,20","retro, amateurish, not a fan of the colors together.,-10,100,20","Elijah","It's just a splash of paint on a canvas,-31,80,20","Spencer","Kind of looks upside down, I need a focal point,-29,120,20","Michael","Random colors and shapes mashed together. Nothing artistic, but better than some of the other ones.,-37,140,20","0"
"3909","","survey-text","151","1061013","0.0-151.0-0.0","A3O39S9T9LRU52","","","","{""Q0"":""course""}","","","","","","","","","","","","","","","","","","","","","","",""
"74066","","survey-text","152","1135080","0.0-152.0-0.0","A3O39S9T9LRU52","","","","{""Q0"":""Gives me a sense of awe""}","","","","","","","","","","","","","","","","","","","","","","",""
"2276","","image-slider-response","153","1137357","0.0-153.0","A3O39S9T9LRU52","","","","","28","","","","","","","","","","","","","","","","","","","","","",""
"3257","","image-button-response","154","1142359","0.0-154.0","A3O39S9T9LRU52","img_art/17.jpg","5","","","","","","","","","","","","","","","","","","","","","","","","",""
"104","","image-button-response","155","1142464","0.0-155.0","A3O39S9T9LRU52","img_art/17.jpg","0","","","","","","","","","","","","","","","","","","","","","","","","",""
"370","","image-button-response","156","1142835","0.0-156.0-0.0","A3O39S9T9LRU52","img_art/17.jpg","0","","","","","","","","","","","","","","","","","","","","","","","","",""
"2291","","image-button-response","157","1149513","0.0-156.1-0.1","A3O39S9T9LRU52","img_art/17.jpg","0","","","","","","","","","","","","","","","","","","","","","","","","",""
"951","","image-button-response","158","1152179","0.0-156.2-0.2","A3O39S9T9LRU52","img_art/17.jpg","5","","","","","","","","","","","","","","","","","","","","","","","","",""
"1766","","image-button-response","159","1153948","0.0-157.0-0.0","A3O39S9T9LRU52","img_art/17.jpg","4","","","","","","","","","","","","","","","","","","","","","","","","",""
"null","","html-keyboard-response","160","1154949","0.0-158.0","A3O39S9T9LRU52","<p style=""font-size: 48px;"">+</p>","","","","","null","allTrialResponses","1000","1","16","img_art/17.jpg","28","Gives me a sense of awe","Spencer,Patrick,Elijah,Michael,Jonathan,Robert","Love the colors, the flow, like a strange storm or tree off the balcony,50,120,20","Beautiful patterns but evokes sad emotions in me due to the color shades,31,280,20","Very cool, makes me feel calm,43,80,20","There is better structure and direction in this one.,19,140,20","Feels nostalgic somehow,31,140,20","The wispy trees caught my eye.,42,360,20","Spencer","Love the colors, the flow, like a strange storm or tree off the balcony,50,120,20","Robert","The wispy trees caught my eye.,42,360,20","Jonathan","Feels nostalgic somehow,31,140,20","4"
"11972","","survey-text","161","1166925","0.0-159.0-0.0","A3O39S9T9LRU52","","","","{""Q0"":""abstract but fun""}","","","","","","","","","","","","","","","","","","","","","","",""
"2173","","image-slider-response","162","1169101","0.0-160.0","A3O39S9T9LRU52","","","","","16","","","","","","","","","","","","","","","","","","","","","",""
"2278","","image-button-response","163","1174103","0.0-161.0","A3O39S9T9LRU52","img_art/13.jpg","4","","","","","","","","","","","","","","","","","","","","","","","","",""
"599","","image-button-response","164","1174704","0.0-162.0","A3O39S9T9LRU52","img_art/13.jpg","4","","","","","","","","","","","","","","","","","","","","","","","","",""
"672","","image-button-response","165","1175377","0.0-163.0-0.0","A3O39S9T9LRU52","img_art/13.jpg","3","","","","","","","","","","","","","","","","","","","","","","","","",""
"1813","","image-button-response","166","1177194","0.0-164.0-0.0","A3O39S9T9LRU52","img_art/13.jpg","0","","","","","","","","","","","","","","","","","","","","","","","","",""
"null","","html-keyboard-response","167","1178695","0.0-165.0","A3O39S9T9LRU52","<p style=""font-size: 48px;"">+</p>","","","","","null","allTrialResponses","1500","1","17","img_art/13.jpg","16","abstract but fun","Spencer,Thomas,Chase,Carlos,Jonathan,Robert","Like it a lot, reminds me of rainy day on glass,43,120,20","Nothing about this stands out to me,-10,220,20","Seems a little cold but I like the neuron looking splatters.,10,120,20","Rain on a cold window.,22,80,20","It's pretty basic but it makes me feel like I'm looking at the ocean,30,140,20","Raindrops splashing on the window.,50,360,20","Jonathan","It's pretty basic but it makes me feel like I'm looking at the ocean,30,140,20","Carlos","Rain on a cold window.,22,80,20","Spencer","Like it a lot, reminds me of rainy day on glass,43,120,20","4"
"20885","","survey-text","168","1199584","0.0-166.0-0.0","A3O39S9T9LRU52","","","","{""Q0"":""I see a woman laying down""}","","","","","","","","","","","","","","","","","","","","","","",""
"3274","","image-slider-response","169","1202859","0.0-167.0","A3O39S9T9LRU52","","","","","0","","","","","","","","","","","","","","","","","","","","","",""
"3670","","image-button-response","170","1207861","0.0-168.0","A3O39S9T9LRU52","img_art/9.jpg","1","","","","","","","","","","","","","","","","","","","","","","","","",""
"475","","image-button-response","171","1208337","0.0-169.0","A3O39S9T9LRU52","img_art/9.jpg","1","","","","","","","","","","","","","","","","","","","","","","","","",""
"675","","image-button-response","172","1209013","0.0-170.0-0.0","A3O39S9T9LRU52","img_art/9.jpg","0","","","","","","","","","","","","","","","","","","","","","","","","",""
"2587","","image-button-response","173","1211603","0.0-171.0-0.0","A3O39S9T9LRU52","img_art/9.jpg","4","","","","","","","","","","","","","","","","","","","","","","","","",""
"null","","html-keyboard-response","174","1212106","0.0-172.0","A3O39S9T9LRU52","<p style=""font-size: 48px;"">+</p>","","","","","null","allTrialResponses","500","1","18","img_art/9.jpg","0","I see a woman laying down","Spencer,Steven,Jake,Carlos,Jonathan,Shawn","Depressing to me, like a dark dream,-11,120,20","I just dont like it, no reaction from me at all,-50,160,20","The colors and image is ugly.,-7,360,20","Pleasant in all ways.,27,80,20","It's peaceful and relaxing,24,140,20","Cheesy. Looks unprofessional,-20,100,20","Steven","I just dont like it, no reaction from me at all,-50,160,20","Spencer","Depressing to me, like a dark dream,-11,120,20","Jonathan","It's peaceful and relaxing,24,140,20","4"
"27080","","survey-text","175","1239191","0.0-173.0-0.0","A3O39S9T9LRU52","","","","{""Q0"":""Is that a bird? What am I looking at?""}","","","","","","","","","","","","","","","","","","","","","","",""
"1505","","image-slider-response","176","1240696","0.0-174.0","A3O39S9T9LRU52","","","","","-13","","","","","","","","","","","","","","","","","","","","","",""
"3062","","image-button-response","177","1245699","0.0-175.0","A3O39S9T9LRU52","img_art/6.jpg","0","","","","","","","","","","","","","","","","","","","","","","","","",""
"332","","image-button-response","178","1246031","0.0-176.0","A3O39S9T9LRU52","img_art/6.jpg","0","","","","","","","","","","","","","","","","","","","","","","","","",""
"1021","","image-button-response","179","1247053","0.0-177.0-0.0","A3O39S9T9LRU52","img_art/6.jpg","2","","","","","","","","","","","","","","","","","","","","","","","","",""
"2003","","image-button-response","180","1249057","0.0-178.0-0.0","A3O39S9T9LRU52","img_art/6.jpg","4","","","","","","","","","","","","","","","","","","","","","","","","",""
"null","","html-keyboard-response","181","1249558","0.0-179.0","A3O39S9T9LRU52","<p style=""font-size: 48px;"">+</p>","","","","","null","allTrialResponses","500","1","19","img_art/6.jpg","-13","Is that a bird? What am I looking at?","Spencer,Steven,Paul,Noah,Jonathan,Alex","Boring, looks like a sad tree in wind,-37,120,20","This is interesting, I feel solitude, and loneliness from this.,13,160,20","Maybe it's supposed to be a bird but it looks like a scary cloaked figure. it's just too simple and jarring,-23,300,20","intrigues me - not sure what I'm seeing, but I like combination of colour and texture,21,260,20","The colors and rough brush strokes make me nervous,-10,140,20","Definitely belongs at a doctor's office, I think it's a crow or a tree?,-3,100,20","Spencer","Boring, looks like a sad tree in wind,-37,120,20","Paul","Maybe it's supposed to be a bird but it looks like a scary cloaked figure. it's just too simple and jarring,-23,300,20","Jonathan","The colors and rough brush strokes make me nervous,-10,140,20","4"
"31583","","survey-text","182","1281146","0.0-180.0-0.0","A3O39S9T9LRU52","","","","{""Q0"":""Is that death on horseback? Kinda cool!""}","","","","","","","","","","","","","","","","","","","","","","",""
"1610","","image-slider-response","183","1282757","0.0-181.0","A3O39S9T9LRU52","","","","","24","","","","","","","","","","","","","","","","","","","","","",""
"3347","","image-button-response","184","1287758","0.0-182.0","A3O39S9T9LRU52","img_art/18.jpg","4","","","","","","","","","","","","","","","","","","","","","","","","",""
"400","","image-button-response","185","1288159","0.0-183.0","A3O39S9T9LRU52","img_art/18.jpg","4","","","","","","","","","","","","","","","","","","","","","","","","",""
"3157","","image-button-response","186","1291318","0.0-184.0-0.0","A3O39S9T9LRU52","img_art/18.jpg","0","","","","","","","","","","","","","","","","","","","","","","","","",""
"5168","","image-button-response","187","1296487","0.0-185.0-0.0","A3O39S9T9LRU52","img_art/18.jpg","1","","","","","","","","","","","","","","","","","","","","","","","","",""
"null","","html-keyboard-response","188","1297988","0.0-186.0","A3O39S9T9LRU52","<p style=""font-size: 48px;"">+</p>","","","","","null","allTrialResponses","1500","1","20","img_art/18.jpg","24","Is that death on horseback? Kinda cool!","Spencer,Jorge,Paul,Alexis,Jonathan,Kyle","I really like it, like hells drivers,43,120,20","Imaginative, makes me feel creative.,42,180,20","It doesn't look like much, the colors are dark and it doesn't really make me feel anything.,-2,300,20","It's possibly of a mermaid luring in a ship,15,140,20","There's danger in this painting and it's awesome,40,140,20","I feel indifferent about this one,0,340,20","Jonathan","There's danger in this painting and it's awesome,40,140,20","Spencer","I really like it, like hells drivers,43,120,20","Jorge","Imaginative, makes me feel creative.,42,180,20","4"
"2919","","survey-text","189","1300914","0.0-187.0-0.0","A3O39S9T9LRU52","","","","{""Q0"":""we""}","","","","","","","","","","","","","","","","","","","","","","",""
"30402","","survey-text","190","1331317","0.0-188.0-0.0","A3O39S9T9LRU52","","","","{""Q0"":""A day in the city. Like the use of color.""}","","","","","","","","","","","","","","","","","","","","","","",""
"1480","","image-slider-response","191","1332800","0.0-189.0","A3O39S9T9LRU52","","","","","14","","","","","","","","","","","","","","","","","","","","","",""
"null","","image-button-response","192","1337802","0.0-190.0","A3O39S9T9LRU52","img_art/26.jpg","null","","","","","","","","","","","","","","","","","","","","","","","","",""
"473","","image-button-response","193","1338275","0.0-191.0","A3O39S9T9LRU52","img_art/26.jpg","5","","","","","","","","","","","","","","","","","","","","","","","","",""
"587","","image-button-response","194","1338863","0.0-192.0-0.0","A3O39S9T9LRU52","img_art/26.jpg","4","","","","","","","","","","","","","","","","","","","","","","","","",""
"522","","image-button-response","195","1339386","0.0-193.0-0.0","A3O39S9T9LRU52","img_art/26.jpg","3","","","","","","","","","","","","","","","","","","","","","","","","",""
"null","","html-keyboard-response","196","1340888","0.0-194.0","A3O39S9T9LRU52","<p style=""font-size: 48px;"">+</p>","","","","","null","allTrialResponses","1500","1","21","img_art/26.jpg","14","A day in the city. Like the use of color.","Spencer,Jorge,Dakota,Eric,Jonathan,Gabriel","Really like it, a very nice neighborhood scene to me,42,120,20","dull and boring,-6,180,20","juvenile, faint and weak,-41,280,20","I wish there was more detail, but I really like this simple piece.,35,100,20","It's relaxing to look at but I wish it was just a little more defined,20,140,20","this is nice!! i like the muted colors,34,160,20","Gabriel","this is nice!! i like the muted colors,34,160,20","Jonathan","It's relaxing to look at but I wish it was just a little more defined,20,140,20","Eric","I wish there was more detail, but I really like this simple piece.,35,100,20","4"
"32648","","survey-text","197","1373540","0.0-195.0-0.0","A3O39S9T9LRU52","","","","{""Q0"":""Words can not describe what I am seeing""}","","","","","","","","","","","","","","","","","","","","","","",""
"1594","","image-slider-response","198","1375136","0.0-196.0","A3O39S9T9LRU52","","","","","-43","","","","","","","","","","","","","","","","","","","","","",""
"4686","","image-button-response","199","1380138","0.0-197.0","A3O39S9T9LRU52","img_art/5.jpg","0","","","","","","","","","","","","","","","","","","","","","","","","",""
"819","","image-button-response","200","1380958","0.0-198.0","A3O39S9T9LRU52","img_art/5.jpg","4","","","","","","","","","","","","","","","","","","","","","","","","",""
"915","","image-button-response","201","1381874","0.0-199.0-0.0","A3O39S9T9LRU52","img_art/5.jpg","5","","","","","","","","","","","","","","","","","","","","","","","","",""
"3113","","image-button-response","202","1384988","0.0-200.0-0.0","A3O39S9T9LRU52","img_art/5.jpg","0","","","","","","","","","","","","","","","","","","","","","","","","",""
"null","","html-keyboard-response","203","1385490","0.0-201.0","A3O39S9T9LRU52","<p style=""font-size: 48px;"">+</p>","","","","","null","allTrialResponses","500","1","22","img_art/5.jpg","-43","Words can not describe what I am seeing","Nathan,Timothy,Peter,Eric,Jonathan,Gabriel","Not a fan of the themes,-30,200,20","This feels joyful,39,240,20","Bright and sunny,19,320,20","I'm reminded of a volcano with weird colors.,-5,100,20","I hate the shapes,-30,140,20","too abstract, looks like a pyramid,-22,160,20","Jonathan","I hate the shapes,-30,140,20","Gabriel","too abstract, looks like a pyramid,-22,160,20","Nathan","Not a fan of the themes,-30,200,20","4"
"15044","","survey-text","204","1400538","0.0-202.0-0.0","A3O39S9T9LRU52","","","","{""Q0"":""I see the Rockettes in a row.""}","","","","","","","","","","","","","","","","","","","","","","",""
"3537","","image-slider-response","205","1404076","0.0-203.0","A3O39S9T9LRU52","","","","","1","","","","","","","","","","","","","","","","","","","","","",""
"4039","","image-button-response","206","1409078","0.0-204.0","A3O39S9T9LRU52","img_art/23.jpg","3","","","","","","","","","","","","","","","","","","","","","","","","",""
"1861","","image-button-response","207","1410941","0.0-205.0","A3O39S9T9LRU52","img_art/23.jpg","0","","","","","","","","","","","","","","","","","","","","","","","","",""
"1213","","image-button-response","208","1412156","0.0-206.0-0.0","A3O39S9T9LRU52","img_art/23.jpg","1","","","","","","","","","","","","","","","","","","","","","","","","",""
"1836","","image-button-response","209","1413994","0.0-207.0-0.0","A3O39S9T9LRU52","img_art/23.jpg","3","","","","","","","","","","","","","","","","","","","","","","","","",""
"null","","html-keyboard-response","210","1415495","0.0-208.0","A3O39S9T9LRU52","<p style=""font-size: 48px;"">+</p>","","","","","null","allTrialResponses","1500","1","23","img_art/23.jpg","1","I see the Rockettes in a row.","Nathan,Kevin,Jesus,Devin,Jonathan,Gabriel","While I don't normally enjoy these color schemes all together, I kind of like this one,10,200,20","Looks like fish fossils,12,320,20","The usage of color is great, but not my style.,-15,100,20","background is great but the white is a bit weird,3,380,20","Those colors are awesome! And I love the strip of negative space that almost looks like a line of people,50,140,20","i think this ones okay,10,160,20","Nathan","While I don't normally enjoy these color schemes all together, I kind of like this one,10,200,20","Kevin","Looks like fish fossils,12,320,20","Devin","background is great but the white is a bit weird,3,380,20","4"
"16402","","survey-text","211","1431904","0.0-209.0-0.0","A3O39S9T9LRU52","","","","{""Q0"":""Finally a piece with some solid structure!""}","","","","","","","","","","","","","","","","","","","","","","",""
"2077","","image-slider-response","212","1433982","0.0-210.0","A3O39S9T9LRU52","","","","","50","","","","","","","","","","","","","","","","","","","","","",""
"null","","image-button-response","213","1438984","0.0-211.0","A3O39S9T9LRU52","img_art/8.jpg","null","","","","","","","","","","","","","","","","","","","","","","","","",""
"1067","","image-button-response","214","1440053","0.0-212.0","A3O39S9T9LRU52","img_art/8.jpg","1","","","","","","","","","","","","","","","","","","","","","","","","",""
"573","","image-button-response","215","1440627","0.0-213.0-0.0","A3O39S9T9LRU52","img_art/8.jpg","0","","","","","","","","","","","","","","","","","","","","","","","","",""
"1707","","image-button-response","216","1442336","0.0-214.0-0.0","A3O39S9T9LRU52","img_art/8.jpg","5","","","","","","","","","","","","","","","","","","","","","","","","",""
"null","","html-keyboard-response","217","1442838","0.0-215.0","A3O39S9T9LRU52","<p style=""font-size: 48px;"">+</p>","","","","","null","allTrialResponses","500","1","24","img_art/8.jpg","50","Finally a piece with some solid structure!","Nathan,Kevin,Devon,Devin,Bryan,Mitchell","Enjoy this, it looks like a rushing water pool, surrounded by mountains and buildings, hiding details such as faces.,30,200,20","Now that one is wild. Looks like maybe mother nature isnt happy.,28,320,20","wow - the colors were very well mixed,12,400,20","Very nice detail and colors!,10,380,20","Like the colors & the imagery - old city, native peoples maybe.,20,400,20","Lost in a big city confuse as to where to go to next. No matter if you live in a mansion or homeless. Being bigger than what is going on around you,30,180,20","Kevin","Now that one is wild. Looks like maybe mother nature isnt happy.,28,320,20","Nathan","Enjoy this, it looks like a rushing water pool, surrounded by mountains and buildings, hiding details such as faces.,30,200,20","Mitchell","Lost in a big city confuse as to where to go to next. No matter if you live in a mansion or homeless. Being bigger than what is going on around you,30,180,20","4"
"34898","","survey-text","218","1477740","0.0-216.0-0.0","A3O39S9T9LRU52","","","","{""Q0"":""Not a fan of the abstractness""}","","","","","","","","","","","","","","","","","","","","","","",""
"1280","","image-slider-response","219","1479021","0.0-217.0","A3O39S9T9LRU52","","","","","-15","","","","","","","","","","","","","","","","","","","","","",""
"2643","","image-button-response","220","1484023","0.0-218.0","A3O39S9T9LRU52","img_art/19.jpg","0","","","","","","","","","","","","","","","","","","","","","","","","",""
"298","","image-button-response","221","1484321","0.0-219.0","A3O39S9T9LRU52","img_art/19.jpg","0","","","","","","","","","","","","","","","","","","","","","","","","",""
"498","","image-button-response","222","1484822","0.0-220.0-0.0","A3O39S9T9LRU52","img_art/19.jpg","1","","","","","","","","","","","","","","","","","","","","","","","","",""
"400","","image-button-response","223","1485224","0.0-221.0-0.0","A3O39S9T9LRU52","img_art/19.jpg","2","","","","","","","","","","","","","","","","","","","","","","","","",""
"null","","html-keyboard-response","224","1486726","0.0-222.0","A3O39S9T9LRU52","<p style=""font-size: 48px;"">+</p>","","","","","null","allTrialResponses","1500","1","25","img_art/19.jpg","-15","Not a fan of the abstractness","Nathan,Kevin,Jason,Jacob,Ethan,Mitchell","It looks like as if it were portraying a village that was polluted? I don't like the theme anyway,-21,200,20","Thats a lazy town,-8,320,20","The picture contains a lot of brown and weird drips,-4,20,20","Vibrant and colorful,13,340,20","I interpret an outdoor scene. It's good because it makes me want to look longer.,22,120,20","Higher power looking down at its creation with a half smile and some hurt.,45,180,20","Nathan","It looks like as if it were portraying a village that was polluted? I don't like the theme anyway,-21,200,20","Kevin","Thats a lazy town,-8,320,20","Jason","The picture contains a lot of brown and weird drips,-4,20,20","4"
"3762","","survey-text","225","1490496","0.0-223.0-0.0","A3O39S9T9LRU52","","","","{""Q0"":""table""}","","","","","","","","","","","","","","","","","","","","","","",""
"22916","","survey-text","226","1513414","0.0-224.0-0.0","A3O39S9T9LRU52","","","","{""Q0"":""too much color and no structure""}","","","","","","","","","","","","","","","","","","","","","","",""
"1332","","image-slider-response","227","1514747","0.0-225.0","A3O39S9T9LRU52","","","","","-25","","","","","","","","","","","","","","","","","","","","","",""
"2391","","image-button-response","228","1519749","0.0-226.0","A3O39S9T9LRU52","img_art/1.jpg","1","","","","","","","","","","","","","","","","","","","","","","","","",""
"766","","image-button-response","229","1520516","0.0-227.0","A3O39S9T9LRU52","img_art/1.jpg","1","","","","","","","","","","","","","","","","","","","","","","","","",""
"514","","image-button-response","230","1521031","0.0-228.0-0.0","A3O39S9T9LRU52","img_art/1.jpg","0","","","","","","","","","","","","","","","","","","","","","","","","",""
"1000","","image-button-response","231","1522033","0.0-229.0-0.0","A3O39S9T9LRU52","img_art/1.jpg","3","","","","","","","","","","","","","","","","","","","","","","","","",""
"null","","html-keyboard-response","232","1523535","0.0-230.0","A3O39S9T9LRU52","<p style=""font-size: 48px;"">+</p>","","","","","null","allTrialResponses","1500","1","26","img_art/1.jpg","-25","too much color and no structure","Nathan,Kevin,Jason,Miguel,Joseph,Garrett","Not a fan of the mood, overly party-ish and bright colors do not suit my taste,-40,200,20","I cant make anything of this one.,-7,320,20","Interesting blend of colors,9,20,20","Doesn't represent anything in particular.,-47,160,20","Happy! Reminds me of hiking in tennesee.,18,220,20","I think that this picture has nice colors and its pleasing to the eyes.,20,180,20","Kevin","I cant make anything of this one.,-7,320,20","Nathan","Not a fan of the mood, overly party-ish and bright colors do not suit my taste,-40,200,20","Miguel","Doesn't represent anything in particular.,-47,160,20","4"
"21118","","survey-text","233","1544657","0.0-231.0-0.0","A3O39S9T9LRU52","","","","{""Q0"":""I like the use of the lines""}","","","","","","","","","","","","","","","","","","","","","","",""
"2067","","image-slider-response","234","1546726","0.0-232.0","A3O39S9T9LRU52","","","","","5","","","","","","","","","","","","","","","","","","","","","",""
"4222","","image-button-response","235","1551727","0.0-233.0","A3O39S9T9LRU52","img_art/14.jpg","5","","","","","","","","","","","","","","","","","","","","","","","","",""
"377","","image-button-response","236","1552106","0.0-234.0","A3O39S9T9LRU52","img_art/14.jpg","5","","","","","","","","","","","","","","","","","","","","","","","","",""
"2231","","image-button-response","237","1554337","0.0-235.0-0.0","A3O39S9T9LRU52","img_art/14.jpg","1","","","","","","","","","","","","","","","","","","","","","","","","",""
"2489","","image-button-response","238","1556827","0.0-236.0-0.0","A3O39S9T9LRU52","img_art/14.jpg","3","","","","","","","","","","","","","","","","","","","","","","","","",""
"null","","html-keyboard-response","239","1557329","0.0-237.0","A3O39S9T9LRU52","<p style=""font-size: 48px;"">+</p>","","","","","null","allTrialResponses","500","1","27","img_art/14.jpg","5","I like the use of the lines","Nathan,Kevin,Tyler,Miguel,Logan,Seth","Too much yellow in this image, i'm not a fan of art that is overly-saturated with yellow,-30,200,20","The pirates ship is sinking.,27,320,20","No strong feelings either direction.,-4,320,20","It's too basic.,23,160,20","I dont really vibe with the grayish color palette,-7,360,20","This piece feels inviting. It's like opening up the pages of your favorite book for the first time.,26,60,20","Seth","This piece feels inviting. It's like opening up the pages of your favorite book for the first time.,26,60,20","Kevin","The pirates ship is sinking.,27,320,20","Miguel","It's too basic.,23,160,20","4"
"23597","","survey-text","240","1580929","0.0-238.0-0.0","A3O39S9T9LRU52","","","","{""Q0"":""I dont like the dark and colors stacked in this way""}","","","","","","","","","","","","","","","","","","","","","","",""
"1648","","image-slider-response","241","1582578","0.0-239.0","A3O39S9T9LRU52","","","","","-32","","","","","","","","","","","","","","","","","","","","","",""
"4722","","image-button-response","242","1587579","0.0-240.0","A3O39S9T9LRU52","img_art/12.jpg","0","","","","","","","","","","","","","","","","","","","","","","","","",""
"707","","image-button-response","243","1588287","0.0-241.0","A3O39S9T9LRU52","img_art/12.jpg","0","","","","","","","","","","","","","","","","","","","","","","","","",""
"981","","image-button-response","244","1589269","0.0-242.0-0.0","A3O39S9T9LRU52","img_art/12.jpg","4","","","","","","","","","","","","","","","","","","","","","","","","",""
"3429","","image-button-response","245","1592699","0.0-243.0-0.0","A3O39S9T9LRU52","img_art/12.jpg","2","","","","","","","","","","","","","","","","","","","","","","","","",""
"null","","html-keyboard-response","246","1594201","0.0-244.0","A3O39S9T9LRU52","<p style=""font-size: 48px;"">+</p>","","","","","null","allTrialResponses","1500","1","28","img_art/12.jpg","-32","I dont like the dark and colors stacked in this way","Daniel,Kevin,Brandon,Miguel,Jeremy,Seth","Blocky windowed, safe and selfish,-41,320,20","That is a warn quilt grama made.,11,320,20","I like the cubic feel.,11,320,20","Good too basic.,18,160,20","do not like it. Seems too busy,-10,60,20","This is beautiful. It looks like 1,000 different sunrises and sunsets.,44,60,20","Daniel","Blocky windowed, safe and selfish,-41,320,20","Jeremy","do not like it. Seems too busy,-10,60,20","Brandon","I like the cubic feel.,11,320,20","4"
"13321","","survey-text","247","1607526","0.0-245.0-0.0","A3O39S9T9LRU52","","","","{""Q0"":""looks like a murder scene""}","","","","","","","","","","","","","","","","","","","","","","",""
"1956","","image-slider-response","248","1609483","0.0-246.0","A3O39S9T9LRU52","","","","","-37","","","","","","","","","","","","","","","","","","","","","",""
"2351","","image-button-response","249","1614484","0.0-247.0","A3O39S9T9LRU52","img_art/3.jpg","1","","","","","","","","","","","","","","","","","","","","","","","","",""
"427","","image-button-response","250","1614912","0.0-248.0","A3O39S9T9LRU52","img_art/3.jpg","1","","","","","","","","","","","","","","","","","","","","","","","","",""
"574","","image-button-response","251","1615488","0.0-249.0-0.0","A3O39S9T9LRU52","img_art/3.jpg","0","","","","","","","","","","","","","","","","","","","","","","","","",""
"550","","image-button-response","252","1616039","0.0-250.0-0.0","A3O39S9T9LRU52","img_art/3.jpg","2","","","","","","","","","","","","","","","","","","","","","","","","",""
"null","","html-keyboard-response","253","1616540","0.0-251.0","A3O39S9T9LRU52","<p style=""font-size: 48px;"">+</p>","","","","","null","allTrialResponses","500","1","29","img_art/3.jpg","-37","looks like a murder scene","Daniel,Cole,Brandon,Ian,Jeremy,Jeffrey","5 min scribble by a 3 year old,-46,320,20","Sharp peaks look like sharp teeth,-37,200,20","Just scribbles. Not a fan.,-40,320,20","It just makes me think of blood splattered everywhere.,-31,260,20","seems too angry,-50,60,20","Associates with blood and crime scene,-12,40,20","Cole","Sharp peaks look like sharp teeth,-37,200,20","Daniel","5 min scribble by a 3 year old,-46,320,20","Brandon","Just scribbles. Not a fan.,-40,320,20","4"
"12493","","survey-text","254","1629038","0.0-252.0-0.0","A3O39S9T9LRU52","","","","{""Q0"":""the use of color is nice""}","","","","","","","","","","","","","","","","","","","","","","",""
"1358","","image-slider-response","255","1630397","0.0-253.0","A3O39S9T9LRU52","","","","","8","","","","","","","","","","","","","","","","","","","","","",""
"1693","","image-button-response","256","1635399","0.0-254.0","A3O39S9T9LRU52","img_art/30.jpg","4","","","","","","","","","","","","","","","","","","","","","","","","",""
"420","","image-button-response","257","1635821","0.0-255.0","A3O39S9T9LRU52","img_art/30.jpg","4","","","","","","","","","","","","","","","","","","","","","","","","",""
"1153","","image-button-response","258","1636974","0.0-256.0-0.0","A3O39S9T9LRU52","img_art/30.jpg","1","","","","","","","","","","","","","","","","","","","","","","","","",""
"772","","image-button-response","259","1637747","0.0-257.0-0.0","A3O39S9T9LRU52","img_art/30.jpg","2","","","","","","","","","","","","","","","","","","","","","","","","",""
"null","","html-keyboard-response","260","1638749","0.0-258.0","A3O39S9T9LRU52","<p style=""font-size: 48px;"">+</p>","","","","","null","allTrialResponses","1000","1","30","img_art/30.jpg","8","the use of color is nice","Daniel,Cole,Brandon,William,Vincent,Victor","10 year old 10 minute project ""Fun with Painting"",-42,320,20","Its ugly. Too simple,-23,200,20","Too abstract, looks like something I could paint,-50,320,20","to dark and dreary,-28,380,20","Personal , calming conservative signature business ideal.,32,360,20","I just don't see the point of this piece,-11,340,20","Vincent","Personal , calming conservative signature business ideal.,32,360,20","Cole","Its ugly. Too simple,-23,200,20","Brandon","Too abstract, looks like something I could paint,-50,320,20","4"
"2754","","image-button-response_instructions","261","1641508","0.0-259.0","A3O39S9T9LRU52","","0","instructions","","","","","","","","","","","","","","","","","","","","","","","",""
