"rt","url","trial_type","trial_index","time_elapsed","internal_node_id","participant_id","stimulus","button_pressed","Name","responses","response","key_press","variableName","fixationTime","condition","trial","photo","subjectRating","subjectResponse","agentsNames","agent_1_Response","agent_2_Response","agent_3_Response","agent_4_Response","agent_5_Response","agent_6_Response","kept_1_name","kept_1_response","kept_2_name","kept_2_response","kept_3_name","kept_3_response","errorCounter"
"3965","external_page_harvard.html","external-html","0","4011","0.0-0.0","A3P3T6XWCUWJEM","","","","","","","","","","","","","","","","","","","","","","","","","","",""
"1381","","image-button-response","1","5392","0.0-1.0","A3P3T6XWCUWJEM","","0","","","","","","","","","","","","","","","","","","","","","","","","",""
"1061","","image-button-response","2","6456","0.0-2.0-0.0","A3P3T6XWCUWJEM","","1","phone","","","","","","","","","","","","","","","","","","","","","","","",""
"10974","","survey-text","3","17430","0.0-3.0-0.0","A3P3T6XWCUWJEM","","","","{""Q0"":""A3P3T6XWCUWJEM""}","","","","","","","","","","","","","","","","","","","","","","",""
"1561","","image-button-response_instructions","4","18992","0.0-4.0","A3P3T6XWCUWJEM","","0","instructions","","","","","","","","","","","","","","","","","","","","","","","",""
"523","","image-button-response_instructions","5","19516","0.0-5.0","A3P3T6XWCUWJEM","img_art/ins/popularity/ins1.png","0","instructions","","","","","","","","","","","","","","","","","","","","","","","",""
"983","","image-button-response_instructions","6","20500","0.0-6.0","A3P3T6XWCUWJEM","img_art/ins/popularity/ins2.png","0","instructions","","","","","","","","","","","","","","","","","","","","","","","",""
"571","","image-button-response_instructions","7","21072","0.0-7.0","A3P3T6XWCUWJEM","img_art/ins/popularity/ins2Extreme.png","0","instructions","","","","","","","","","","","","","","","","","","","","","","","",""
"385","","image-button-response_instructions","8","21458","0.0-8.0","A3P3T6XWCUWJEM","img_art/ins/popularity/ins3KEEPpop.PNG","0","instructions","","","","","","","","","","","","","","","","","","","","","","","",""
"450","","image-button-response_instructions","9","21908","0.0-9.0","A3P3T6XWCUWJEM","img_art/ins/popularity/ins3ANamepop.PNG","0","instructions","","","","","","","","","","","","","","","","","","","","","","","",""
"500","","image-button-response_instructions","10","22408","0.0-10.0","A3P3T6XWCUWJEM","img_art/ins/popularity/ins3ARatingpop.png","0","instructions","","","","","","","","","","","","","","","","","","","","","","","",""
"264","","image-button-response_instructions","11","22674","0.0-11.0","A3P3T6XWCUWJEM","img_art/ins/popularity/ins3ATextpop.png","0","instructions","","","","","","","","","","","","","","","","","","","","","","","",""
"531","","image-button-response_instructions","12","23206","0.0-12.0","A3P3T6XWCUWJEM","img_art/ins/popularity/ins3ALikespop.png","0","instructions","","","","","","","","","","","","","","","","","","","","","","","",""
"402","","image-button-response_instructions","13","23608","0.0-13.0","A3P3T6XWCUWJEM","img_art/ins/popularity/ins3KEEPpop.PNG","0","instructions","","","","","","","","","","","","","","","","","","","","","","","",""
"523","","image-button-response_instructions","14","24132","0.0-14.0","A3P3T6XWCUWJEM","img_art/ins/popularity/ins3_5RED.png","0","instructions","","","","","","","","","","","","","","","","","","","","","","","",""
"444","","image-button-response_instructions","15","24576","0.0-15.0","A3P3T6XWCUWJEM","img_art/ins/popularity/ins3KEEPpop.PNG","0","instructions","","","","","","","","","","","","","","","","","","","","","","","",""
"668","","image-button-response_instructions","16","25244","0.0-16.0","A3P3T6XWCUWJEM","img_art/ins/popularity/ins4KEEPpop.PNG","0","instructions","","","","","","","","","","","","","","","","","","","","","","","",""
"701","","image-button-response_instructions","17","25946","0.0-17.0","A3P3T6XWCUWJEM","img_art/ins/popularity/ins5KEEPpop.PNG","0","instructions","","","","","","","","","","","","","","","","","","","","","","","",""
"418","","image-button-response_instructions","18","26364","0.0-18.0","A3P3T6XWCUWJEM","","0","instructions","","","","","","","","","","","","","","","","","","","","","","","",""
"4133","","survey-text","19","30510","0.0-19.0-0.0","A3P3T6XWCUWJEM","","","","{""Q0"":""but""}","","","","","","","","","","","","","","","","","","","","","","",""
"8664","","survey-text","20","39174","0.0-20.0-0.0","A3P3T6XWCUWJEM","","","","{""Q0"":""Looks messy to me. Hate it!""}","","","","","","","","","","","","","","","","","","","","","","",""
"2680.5999999046326","","image-slider-response","21","41856","0.0-21.0","A3P3T6XWCUWJEM","","","","","-50","","","","","","","","","","","","","","","","","","","","","",""
"1504","","image-button-response","22","46858","0.0-22.0","A3P3T6XWCUWJEM","img_art/ins/1.jpg","0","","","","","","","","","","","","","","","","","","","","","","","","",""
"871","","image-button-response","23","47730","0.0-23.0","A3P3T6XWCUWJEM","img_art/ins/1.jpg","2","","","","","","","","","","","","","","","","","","","","","","","","",""
"3543","","image-button-response","24","51274","0.0-24.0-0.0","A3P3T6XWCUWJEM","img_art/ins/1.jpg","4","","","","","","","","","","","","","","","","","","","","","","","","",""
"1464","","image-button-response","25","52740","0.0-25.0-0.0","A3P3T6XWCUWJEM","img_art/ins/1.jpg","0","","","","","","","","","","","","","","","","","","","","","","","","",""
"null","","html-keyboard-response","26","53241","0.0-26.0","A3P3T6XWCUWJEM","<p style=""font-size: 48px;"">+</p>","","","","","null","allTrialResponses","500","1","-2","img_art/ins/1.jpg","-50","Looks messy to me. Hate it!","Adam,Alex,Ben,Carl,Daniel,Jack","Seems like doodles,-20,20,20","very creative work.,36,40,20","This color reminds me of poo,-46,60,20","very calming artwork,42,80,20","It looks like a murder scene.,-48,100,20","I like the sophisticated brushwork,40,120,20","Ben","This color reminds me of poo,-46,60,20","Daniel","It looks like a murder scene.,-48,100,20","Adam","Seems like doodles,-20,20,20","0"
"14094","","survey-text","27","67337","0.0-27.0-0.0","A3P3T6XWCUWJEM","","","","{""Q0"":""Interesting patterns and colors""}","","","","","","","","","","","","","","","","","","","","","","",""
"3133.2000000476837","","image-slider-response","28","70471","0.0-28.0","A3P3T6XWCUWJEM","","","","","15","","","","","","","","","","","","","","","","","","","","","",""
"2385","","image-button-response","29","75473","0.0-29.0","A3P3T6XWCUWJEM","img_art/ins/2.jpg","1","","","","","","","","","","","","","","","","","","","","","","","","",""
"3636","","image-button-response","30","79109","0.0-30.0","A3P3T6XWCUWJEM","img_art/ins/2.jpg","0","","","","","","","","","","","","","","","","","","","","","","","","",""
"1553","","image-button-response","31","80664","0.0-31.0-0.0","A3P3T6XWCUWJEM","img_art/ins/2.jpg","1","","","","","","","","","","","","","","","","","","","","","","","","",""
"4027","","image-button-response","32","84692","0.0-32.0-0.0","A3P3T6XWCUWJEM","img_art/ins/2.jpg","3","","","","","","","","","","","","","","","","","","","","","","","","",""
"null","","html-keyboard-response","33","85693","0.0-33.0","A3P3T6XWCUWJEM","<p style=""font-size: 48px;"">+</p>","","","","","null","allTrialResponses","1000","1","-1","img_art/ins/2.jpg","15","Interesting patterns and colors","Adam,John,Ben,James,Daniel,Kyle","too much color,-18,20,20","love the texture of paint,48,160,20","meaningless painting,-45,60,20","looks too angry,-50,140,20","One of my pet peevs,-48,100,20","Idk, it is just annoying,-32,180,20","Adam","too much color,-18,20,20","John","love the texture of paint,48,160,20","James","looks too angry,-50,140,20","0"
"9200","","survey-text","34","94895","0.0-34.0-0.0","A3P3T6XWCUWJEM","","","","{""Q0"":""Makes me feel cold""}","","","","","","","","","","","","","","","","","","","","","","",""
"2779.2000000476837","","image-slider-response","35","97675","0.0-35.0","A3P3T6XWCUWJEM","","","","","-23","","","","","","","","","","","","","","","","","","","","","",""
"4793","","image-button-response","36","102678","0.0-36.0","A3P3T6XWCUWJEM","img_art/ins/3.jpg","2","","","","","","","","","","","","","","","","","","","","","","","","",""
"1056","","image-button-response","37","103735","0.0-37.0","A3P3T6XWCUWJEM","img_art/ins/3.jpg","5","","","","","","","","","","","","","","","","","","","","","","","","",""
"655","","image-button-response","38","104391","0.0-38.0-0.0","A3P3T6XWCUWJEM","img_art/ins/3.jpg","4","","","","","","","","","","","","","","","","","","","","","","","","",""
"571","","image-button-response","39","104963","0.0-39.0-0.0","A3P3T6XWCUWJEM","img_art/ins/3.jpg","3","","","","","","","","","","","","","","","","","","","","","","","","",""
"null","","html-keyboard-response","40","105964","0.0-40.0","A3P3T6XWCUWJEM","<p style=""font-size: 48px;"">+</p>","","","","","null","allTrialResponses","1000","1","0","img_art/ins/3.jpg","-23","Makes me feel cold","Adam,John,Mike,James,Ron,Sam","My daily routine, it's depressing,-20,20,20","I like the overlapping of brushes,41,160,20","enjoy the different shades of blue,22,200,20","My worst nightmare,-42,140,20","It looks depressing,-26,220,20","I can feel a rainy day from this painting,18,240,20","Sam","I can feel a rainy day from this painting,18,240,20","Ron","It looks depressing,-26,220,20","James","My worst nightmare,-42,140,20","0"
"5249","","image-button-response_instructions","41","111215","0.0-41.0","A3P3T6XWCUWJEM","","0","instructions","","","","","","","","","","","","","","","","","","","","","","","",""
"8320","","survey-likert","42","119536","0.0-42.0-0.0","A3P3T6XWCUWJEM","","","","{""Q0"":"""",""Q1"":0,""Q2"":1}","","","","","","","","","","","","","","","","","","","","","","",""
"4118","","survey-text","43","123656","0.0-43.0-0.0","A3P3T6XWCUWJEM","","","","{""Q0"":""rock""}","","","","","","","","","","","","","","","","","","","","","","",""
"12788","","survey-text","44","136446","0.0-44.0-0.0","A3P3T6XWCUWJEM","","","","{""Q0"":""Looks angry and upsetting.""}","","","","","","","","","","","","","","","","","","","","","","",""
"3029.2000000476837","","image-slider-response","45","139476","0.0-45.0","A3P3T6XWCUWJEM","","","","","-22","","","","","","","","","","","","","","","","","","","","","",""
"4102","","image-button-response","46","144490","0.0-46.0","A3P3T6XWCUWJEM","img_art/9.jpg","0","","","","","","","","","","","","","","","","","","","","","","","","",""
"839","","image-button-response","47","145330","0.0-47.0","A3P3T6XWCUWJEM","img_art/9.jpg","0","","","","","","","","","","","","","","","","","","","","","","","","",""
"934","","image-button-response","48","146264","0.0-48.0-0.0","A3P3T6XWCUWJEM","img_art/9.jpg","0","","","","","","","","","","","","","","","","","","","","","","","","",""
"2720","","image-button-response","49","152202","0.0-48.1-0.1","A3P3T6XWCUWJEM","img_art/9.jpg","5","","","","","","","","","","","","","","","","","","","","","","","","",""
"2158","","image-button-response","50","154362","0.0-49.0-0.0","A3P3T6XWCUWJEM","img_art/9.jpg","2","","","","","","","","","","","","","","","","","","","","","","","","",""
"null","","html-keyboard-response","51","154878","0.0-50.0","A3P3T6XWCUWJEM","<p style=""font-size: 48px;"">+</p>","","","","","null","allTrialResponses","500","1","1","img_art/9.jpg","-22","Looks angry and upsetting.","Jeremy,Garrett,Christopher,Steven,Joseph,Cody","I feel this incites anger,-16,60,20","This looks like someone sleeping in a bed, and I think the colors make it look interesting.,20,180,20","I really like the color balance but the image is odd,-5,160,20","I just dont like it, no reaction from me at all,-50,160,20","It's nice. Peaceful. Calming.,11,220,20","Feels angry .....,-40,180,20","Jeremy","I feel this incites anger,-16,60,20","Cody","Feels angry .....,-40,180,20","Christopher","I really like the color balance but the image is odd,-5,160,20","2"
"8622","","survey-text","52","163502","0.0-51.0-0.0","A3P3T6XWCUWJEM","","","","{""Q0"":""Very cool, fall-like!""}","","","","","","","","","","","","","","","","","","","","","","",""
"2479.0999999046326","","image-slider-response","53","165982","0.0-52.0","A3P3T6XWCUWJEM","","","","","35","","","","","","","","","","","","","","","","","","","","","",""
"3549","","image-button-response","54","170983","0.0-53.0","A3P3T6XWCUWJEM","img_art/17.jpg","1","","","","","","","","","","","","","","","","","","","","","","","","",""
"159","","image-button-response","55","171144","0.0-54.0","A3P3T6XWCUWJEM","img_art/17.jpg","4","","","","","","","","","","","","","","","","","","","","","","","","",""
"2138","","image-button-response","56","173282","0.0-55.0-0.0","A3P3T6XWCUWJEM","img_art/17.jpg","2","","","","","","","","","","","","","","","","","","","","","","","","",""
"4080","","image-button-response","57","177364","0.0-56.0-0.0","A3P3T6XWCUWJEM","img_art/17.jpg","0","","","","","","","","","","","","","","","","","","","","","","","","",""
"null","","html-keyboard-response","58","177865","0.0-57.0","A3P3T6XWCUWJEM","<p style=""font-size: 48px;"">+</p>","","","","","null","allTrialResponses","500","1","2","img_art/17.jpg","35","Very cool, fall-like!","Jeremy,Nicholas,Christopher,Dalton,Brendan,Cody","very pretty. Makes me happy,45,60,20","Nice colors, shapes, flow,31,240,20","i like the delicate wispy part, but overall i don't love it,10,160,20","Beautiful simply beautiful. i would love this,,50,300,20","colorful tree really cool,27,340,20","Love the colors and the movement,46,180,20","Brendan","colorful tree really cool,27,340,20","Christopher","i like the delicate wispy part, but overall i don't love it,10,160,20","Jeremy","very pretty. Makes me happy,45,60,20","2"
"7954","","survey-text","59","185822","0.0-58.0-0.0","A3P3T6XWCUWJEM","","","","{""Q0"":""Looks like a crime scene""}","","","","","","","","","","","","","","","","","","","","","","",""
"2215","","image-slider-response","60","188037","0.0-59.0","A3P3T6XWCUWJEM","","","","","-50","","","","","","","","","","","","","","","","","","","","","",""
"4381","","image-button-response","61","193038","0.0-60.0","A3P3T6XWCUWJEM","img_art/3.jpg","4","","","","","","","","","","","","","","","","","","","","","","","","",""
"158","","image-button-response","62","193198","0.0-61.0","A3P3T6XWCUWJEM","img_art/3.jpg","4","","","","","","","","","","","","","","","","","","","","","","","","",""
"1579","","image-button-response","63","194778","0.0-62.0-0.0","A3P3T6XWCUWJEM","img_art/3.jpg","1","","","","","","","","","","","","","","","","","","","","","","","","",""
"1655","","image-button-response","64","196434","0.0-63.0-0.0","A3P3T6XWCUWJEM","img_art/3.jpg","0","","","","","","","","","","","","","","","","","","","","","","","","",""
"null","","html-keyboard-response","65","196943","0.0-64.0","A3P3T6XWCUWJEM","<p style=""font-size: 48px;"">+</p>","","","","","null","allTrialResponses","500","1","3","img_art/3.jpg","-50","Looks like a crime scene","Jeremy,Scott,Christopher,Antonio,Brendan,Isaiah","seems too angry,-50,60,20","I like that it's messy,14,20,20","the red is impactful but the work overall doesn't say anything to me,-8,160,20","The red makes me think of blood which makes me think of pain,-50,220,20","i really cant get it,-44,340,20","I feel uncomfortable, like I am looking at a crime scene.,-17,300,20","Brendan","i really cant get it,-44,340,20","Scott","I like that it's messy,14,20,20","Jeremy","seems too angry,-50,60,20","2"
"12974","","survey-text","66","209920","0.0-65.0-0.0","A3P3T6XWCUWJEM","","","","{""Q0"":""Somewhat interesting...IDK""}","","","","","","","","","","","","","","","","","","","","","","",""
"2737","","image-slider-response","67","212657","0.0-66.0","A3P3T6XWCUWJEM","","","","","20","","","","","","","","","","","","","","","","","","","","","",""
"3569","","image-button-response","68","217659","0.0-67.0","A3P3T6XWCUWJEM","img_art/25.jpg","3","","","","","","","","","","","","","","","","","","","","","","","","",""
"243","","image-button-response","69","217904","0.0-68.0","A3P3T6XWCUWJEM","img_art/25.jpg","3","","","","","","","","","","","","","","","","","","","","","","","","",""
"2633","","image-button-response","70","220538","0.0-69.0-0.0","A3P3T6XWCUWJEM","img_art/25.jpg","2","","","","","","","","","","","","","","","","","","","","","","","","",""
"659","","image-button-response","71","221198","0.0-70.0-0.0","A3P3T6XWCUWJEM","img_art/25.jpg","2","","","","","","","","","","","","","","","","","","","","","","","","",""
"845","","image-button-response","72","225435","0.0-70.1-0.1","A3P3T6XWCUWJEM","img_art/25.jpg","0","","","","","","","","","","","","","","","","","","","","","","","","",""
"null","","html-keyboard-response","73","225937","0.0-71.0","A3P3T6XWCUWJEM","<p style=""font-size: 48px;"">+</p>","","","","","null","allTrialResponses","500","1","4","img_art/25.jpg","20","Somewhat interesting...IDK","Jeremy,Scott,Dustin,Spencer,Brendan,Corey","reminds me of ancient history which makes me happy,40,60,20","reminds me of a zombie,-36,20,20","Reminds me of ancient civilization art. I like the aqua color; soothing to me.,1,20,20","I really like it, very simple, very tribal,38,120,20","is this an ancient woman?,-16,340,20","love the color and the contrast of the black on teal,50,260,20","Spencer","I really like it, very simple, very tribal,38,120,20","Dustin","Reminds me of ancient civilization art. I like the aqua color; soothing to me.,1,20,20","Jeremy","reminds me of ancient history which makes me happy,40,60,20","4"
"7884","","survey-text","74","233823","0.0-72.0-0.0","A3P3T6XWCUWJEM","","","","{""Q0"":""Nice colors and composition""}","","","","","","","","","","","","","","","","","","","","","","",""
"2359.2000000476837","","image-slider-response","75","236183","0.0-73.0","A3P3T6XWCUWJEM","","","","","50","","","","","","","","","","","","","","","","","","","","","",""
"4249","","image-button-response","76","241185","0.0-74.0","A3P3T6XWCUWJEM","img_art/26.jpg","1","","","","","","","","","","","","","","","","","","","","","","","","",""
"1568","","image-button-response","77","242753","0.0-75.0","A3P3T6XWCUWJEM","img_art/26.jpg","1","","","","","","","","","","","","","","","","","","","","","","","","",""
"3697","","image-button-response","78","246452","0.0-76.0-0.0","A3P3T6XWCUWJEM","img_art/26.jpg","3","","","","","","","","","","","","","","","","","","","","","","","","",""
"2457","","image-button-response","79","248909","0.0-77.0-0.0","A3P3T6XWCUWJEM","img_art/26.jpg","2","","","","","","","","","","","","","","","","","","","","","","","","",""
"null","","html-keyboard-response","80","249911","0.0-78.0","A3P3T6XWCUWJEM","<p style=""font-size: 48px;"">+</p>","","","","","null","allTrialResponses","1000","1","5","img_art/26.jpg","50","Nice colors and composition","Jeremy,Ryan,Dustin,Spencer,Robert,Edward","somewhat happy, like being outside on a nice day,30,60,20","Pleasant to look at,28,380,20","Reminds me of watercolor. Muted tones and blurry soft brush strokes. Calm to me.,1,20,20","Really like it, a very nice neighborhood scene to me,42,120,20","Day just begun in the city and the stores are opening their doors.,41,360,20","Elevator art but the watercolors are good,29,60,20","Ryan","Pleasant to look at,28,380,20","Spencer","Really like it, a very nice neighborhood scene to me,42,120,20","Dustin","Reminds me of watercolor. Muted tones and blurry soft brush strokes. Calm to me.,1,20,20","4"
"3987","","survey-text","81","253901","0.0-79.0-0.0","A3P3T6XWCUWJEM","","","","{""Q0"":""sky""}","","","","","","","","","","","","","","","","","","","","","","",""
"13377","","survey-text","82","267279","0.0-80.0-0.0","A3P3T6XWCUWJEM","","","","{""Q0"":""Looks like an auto accident diagram""}","","","","","","","","","","","","","","","","","","","","","","",""
"3051","","image-slider-response","83","270331","0.0-81.0","A3P3T6XWCUWJEM","","","","","-37","","","","","","","","","","","","","","","","","","","","","",""
"4807","","image-button-response","84","275336","0.0-82.0","A3P3T6XWCUWJEM","img_art/10.jpg","2","","","","","","","","","","","","","","","","","","","","","","","","",""
"636","","image-button-response","85","275973","0.0-83.0","A3P3T6XWCUWJEM","img_art/10.jpg","2","","","","","","","","","","","","","","","","","","","","","","","","",""
"2411","","image-button-response","86","278385","0.0-84.0-0.0","A3P3T6XWCUWJEM","img_art/10.jpg","5","","","","","","","","","","","","","","","","","","","","","","","","",""
"1245","","image-button-response","87","279631","0.0-85.0-0.0","A3P3T6XWCUWJEM","img_art/10.jpg","4","","","","","","","","","","","","","","","","","","","","","","","","",""
"null","","html-keyboard-response","88","280134","0.0-86.0","A3P3T6XWCUWJEM","<p style=""font-size: 48px;"">+</p>","","","","","null","allTrialResponses","500","1","6","img_art/10.jpg","-37","Looks like an auto accident diagram","Dylan,Ryan,Dustin,Spencer,Bryce,Alejandro","The longer I looked at this, the more I liked it,33,40,20","Reminds me of a beautiful ship wreck,36,380,20","Dark and weird. Unidentifiable shape. I can't tell what it is, so I don't like it.,-50,20,20","Dark with no object, looks like experimentation, slightly like a storm on the ocean,-21,120,20","Kinda creepy not my favorite,-26,20,20","The contrast between the messy dots/dabs vs the straight affluent lines is unappealing,-20,80,20","Dustin","Dark and weird. Unidentifiable shape. I can't tell what it is, so I don't like it.,-50,20,20","Alejandro","The contrast between the messy dots/dabs vs the straight affluent lines is unappealing,-20,80,20","Bryce","Kinda creepy not my favorite,-26,20,20","4"
"12524","","survey-text","89","292659","0.0-87.0-0.0","A3P3T6XWCUWJEM","","","","{""Q0"":""Creepy and weird and abstract""}","","","","","","","","","","","","","","","","","","","","","","",""
"2021","","image-slider-response","90","294681","0.0-88.0","A3P3T6XWCUWJEM","","","","","-50","","","","","","","","","","","","","","","","","","","","","",""
"3995","","image-button-response","91","299684","0.0-89.0","A3P3T6XWCUWJEM","img_art/18.jpg","2","","","","","","","","","","","","","","","","","","","","","","","","",""
"661","","image-button-response","92","300346","0.0-90.0","A3P3T6XWCUWJEM","img_art/18.jpg","2","","","","","","","","","","","","","","","","","","","","","","","","",""
"2447","","image-button-response","93","302794","0.0-91.0-0.0","A3P3T6XWCUWJEM","img_art/18.jpg","4","","","","","","","","","","","","","","","","","","","","","","","","",""
"2537","","image-button-response","94","305331","0.0-92.0-0.0","A3P3T6XWCUWJEM","img_art/18.jpg","0","","","","","","","","","","","","","","","","","","","","","","","","",""
"null","","html-keyboard-response","95","305833","0.0-93.0","A3P3T6XWCUWJEM","<p style=""font-size: 48px;"">+</p>","","","","","null","allTrialResponses","500","1","7","img_art/18.jpg","-50","Creepy and weird and abstract","Adam,Mark,Dustin,Noah,Bryce,Alejandro","Colors are okay. Reminds me of cavalry.,10,40,20","I see an artistic representation of the riding of last of the four horseman. Its stunning.,45,80,20","Looks messy. Reminds me of a battle or war. I have an unpleasant feeling the more I look.,-20,20,20","enjoy the juxtaposition of abstract with tangible elements & the use of color,10,260,20","Kinda boring. Not my favorite,-34,20,20","I love this because abstractly depicts the apocalypse. The white horse and its rider as Death, described in religious texts and pop culture. ""He rode a pale horse and his name was death."",50,80,20","Dustin","Looks messy. Reminds me of a battle or war. I have an unpleasant feeling the more I look.,-20,20,20","Bryce","Kinda boring. Not my favorite,-34,20,20","Adam","Colors are okay. Reminds me of cavalry.,10,40,20","4"
"12492","","survey-text","96","318327","0.0-94.0-0.0","A3P3T6XWCUWJEM","","","","{""Q0"":""Two people arguing? Unsettling.""}","","","","","","","","","","","","","","","","","","","","","","",""
"2874.899999856949","","image-slider-response","97","321203","0.0-95.0","A3P3T6XWCUWJEM","","","","","-35","","","","","","","","","","","","","","","","","","","","","",""
"3833","","image-button-response","98","326205","0.0-96.0","A3P3T6XWCUWJEM","img_art/28.jpg","0","","","","","","","","","","","","","","","","","","","","","","","","",""
"1213","","image-button-response","99","327420","0.0-97.0","A3P3T6XWCUWJEM","img_art/28.jpg","1","","","","","","","","","","","","","","","","","","","","","","","","",""
"2415","","image-button-response","100","329835","0.0-98.0-0.0","A3P3T6XWCUWJEM","img_art/28.jpg","5","","","","","","","","","","","","","","","","","","","","","","","","",""
"2035","","image-button-response","101","331871","0.0-99.0-0.0","A3P3T6XWCUWJEM","img_art/28.jpg","4","","","","","","","","","","","","","","","","","","","","","","","","",""
"null","","html-keyboard-response","102","332873","0.0-100.0","A3P3T6XWCUWJEM","<p style=""font-size: 48px;"">+</p>","","","","","null","allTrialResponses","1000","1","8","img_art/28.jpg","-35","Two people arguing? Unsettling.","Adam,Michael,Dustin,Alexander,Bryce,Devon","Dislike the colors.,-20,40,20","Incoherent ugly mess.,-50,140,20","Like the muted pink colors. However, the mood is sad because of the blurriness,22,20,20","Apartment throw up.,-5,120,20","It gives me weird vibes.,-25,20,20","i'm not too impressed with this one.,-10,400,20","Michael","Incoherent ugly mess.,-50,140,20","Devon","i'm not too impressed with this one.,-10,400,20","Bryce","It gives me weird vibes.,-25,20,20","4"
"12310","","survey-text","103","345185","0.0-101.0-0.0","A3P3T6XWCUWJEM","","","","{""Q0"":""Cool abstract beach scene! Like it!""}","","","","","","","","","","","","","","","","","","","","","","",""
"2375.0999999046326","","image-slider-response","104","347561","0.0-102.0","A3P3T6XWCUWJEM","","","","","50","","","","","","","","","","","","","","","","","","","","","",""
"3371","","image-button-response","105","352562","0.0-103.0","A3P3T6XWCUWJEM","img_art/19.jpg","2","","","","","","","","","","","","","","","","","","","","","","","","",""
"744","","image-button-response","106","353307","0.0-104.0","A3P3T6XWCUWJEM","img_art/19.jpg","5","","","","","","","","","","","","","","","","","","","","","","","","",""
"1437","","image-button-response","107","354745","0.0-105.0-0.0","A3P3T6XWCUWJEM","img_art/19.jpg","4","","","","","","","","","","","","","","","","","","","","","","","","",""
"3335","","image-button-response","108","358081","0.0-106.0-0.0","A3P3T6XWCUWJEM","img_art/19.jpg","2","","","","","","","","","","","","","","","","","","","","","","","","",""
"null","","html-keyboard-response","109","358583","0.0-107.0","A3P3T6XWCUWJEM","<p style=""font-size: 48px;"">+</p>","","","","","null","allTrialResponses","500","1","9","img_art/19.jpg","50","Cool abstract beach scene! Like it!","Stephen,Michael,Trevor,Blake,Bryce,Devon","Solid use of colors but wished it looked more realistic.,12,140,20","Loks like an amature did it, Not pleasing.,-45,140,20","i like the colors and the way it looks like an actual scene,18,280,20","an old cityfrom many years ago. its ok,6,280,20","Very pretty and colorful.,23,20,20","this looks like a busy city lifestyle,24,400,20","Devon","this looks like a busy city lifestyle,24,400,20","Bryce","Very pretty and colorful.,23,20,20","Trevor","i like the colors and the way it looks like an actual scene,18,280,20","4"
"18289","","survey-text","110","376874","0.0-108.0-0.0","A3P3T6XWCUWJEM","","","","{""Q0"":""Doesn't do anything for me...""}","","","","","","","","","","","","","","","","","","","","","","",""
"2473.2999999523163","","image-slider-response","111","379348","0.0-109.0","A3P3T6XWCUWJEM","","","","","-41","","","","","","","","","","","","","","","","","","","","","",""
"3617","","image-button-response","112","384362","0.0-110.0","A3P3T6XWCUWJEM","img_art/20.jpg","1","","","","","","","","","","","","","","","","","","","","","","","","",""
"463","","image-button-response","113","384826","0.0-111.0","A3P3T6XWCUWJEM","img_art/20.jpg","2","","","","","","","","","","","","","","","","","","","","","","","","",""
"2553","","image-button-response","114","387380","0.0-112.0-0.0","A3P3T6XWCUWJEM","img_art/20.jpg","4","","","","","","","","","","","","","","","","","","","","","","","","",""
"1786","","image-button-response","115","389168","0.0-113.0-0.0","A3P3T6XWCUWJEM","img_art/20.jpg","3","","","","","","","","","","","","","","","","","","","","","","","","",""
"null","","html-keyboard-response","116","389668","0.0-114.0","A3P3T6XWCUWJEM","<p style=""font-size: 48px;"">+</p>","","","","","null","allTrialResponses","500","1","10","img_art/20.jpg","-41","Doesn't do anything for me...","Victor,Alex,Trevor,Angel,Bryce,Devon","sort of pleasant to look at, but can't tell if it's supposed to be something,13,340,20","Reminds me of Dali for some reason, whom I don't like,-7,100,20","it looks like a piccasso knock off,-23,280,20","This looks like a ruin of what was once a thriving city.,-9,180,20","Kinda freaks me out.,-40,20,20","i can feel the intensity in this,11,400,20","Trevor","it looks like a piccasso knock off,-23,280,20","Bryce","Kinda freaks me out.,-40,20,20","Angel","This looks like a ruin of what was once a thriving city.,-9,180,20","4"
"3903","","survey-text","117","393576","0.0-115.0-0.0","A3P3T6XWCUWJEM","","","","{""Q0"":""our""}","","","","","","","","","","","","","","","","","","","","","","",""
"15468","","survey-text","118","409044","0.0-116.0-0.0","A3P3T6XWCUWJEM","","","","{""Q0"":""Looks like a child's drawing.""}","","","","","","","","","","","","","","","","","","","","","","",""
"2407.0999999046326","","image-slider-response","119","411452","0.0-117.0","A3P3T6XWCUWJEM","","","","","-39","","","","","","","","","","","","","","","","","","","","","",""
"4825","","image-button-response","120","416453","0.0-118.0","A3P3T6XWCUWJEM","img_art/4.jpg","1","","","","","","","","","","","","","","","","","","","","","","","","",""
"1145","","image-button-response","121","417600","0.0-119.0","A3P3T6XWCUWJEM","img_art/4.jpg","2","","","","","","","","","","","","","","","","","","","","","","","","",""
"733","","image-button-response","122","418334","0.0-120.0-0.0","A3P3T6XWCUWJEM","img_art/4.jpg","1","","","","","","","","","","","","","","","","","","","","","","","","",""
"1674","","image-button-response","123","420010","0.0-121.0-0.0","A3P3T6XWCUWJEM","img_art/4.jpg","5","","","","","","","","","","","","","","","","","","","","","","","","",""
"null","","html-keyboard-response","124","421514","0.0-122.0","A3P3T6XWCUWJEM","<p style=""font-size: 48px;"">+</p>","","","","","null","allTrialResponses","1500","1","11","img_art/4.jpg","-39","Looks like a child's drawing.","Kenneth,Cameron,Trevor,Angel,Bryce,Aaron","The longer I stare at this the less I like it.,-19,300,20","Looks like the roomba got into dog poop,-30,60,20","not enough color and too yellow for me. Not my favorite colors,-10,280,20","I feel kind of guilty looking at this, like I'm receiving a reward I don't I deserve.,-10,180,20","Not very interesting to look at.,-34,20,20","It doesn't make me feel anything it just looks like a kid did it.,-30,20,20","Trevor","not enough color and too yellow for me. Not my favorite colors,-10,280,20","Cameron","Looks like the roomba got into dog poop,-30,60,20","Aaron","It doesn't make me feel anything it just looks like a kid did it.,-30,20,20","4"
"7563","","survey-text","125","429080","0.0-123.0-0.0","A3P3T6XWCUWJEM","","","","{""Q0"":""Very pretty and calming.""}","","","","","","","","","","","","","","","","","","","","","","",""
"2182.9000000953674","","image-slider-response","126","431263","0.0-124.0","A3P3T6XWCUWJEM","","","","","50","","","","","","","","","","","","","","","","","","","","","",""
"1345","","image-button-response","127","436265","0.0-125.0","A3P3T6XWCUWJEM","img_art/14.jpg","1","","","","","","","","","","","","","","","","","","","","","","","","",""
"1340","","image-button-response","128","437606","0.0-126.0","A3P3T6XWCUWJEM","img_art/14.jpg","2","","","","","","","","","","","","","","","","","","","","","","","","",""
"643","","image-button-response","129","438249","0.0-127.0-0.0","A3P3T6XWCUWJEM","img_art/14.jpg","1","","","","","","","","","","","","","","","","","","","","","","","","",""
"1474","","image-button-response","130","439724","0.0-128.0-0.0","A3P3T6XWCUWJEM","img_art/14.jpg","4","","","","","","","","","","","","","","","","","","","","","","","","",""
"null","","html-keyboard-response","131","441225","0.0-129.0","A3P3T6XWCUWJEM","<p style=""font-size: 48px;"">+</p>","","","","","null","allTrialResponses","1500","1","12","img_art/14.jpg","50","Very pretty and calming.","Gabriel,Cameron,Trevor,Kyle,Richard,Aaron","i like this one!,23,160,20","cotton candy skies. pretty.,35,60,20","has a tree look to it and it's colors are happy,9,280,20","The colors are nice and it reminds me of a shrub or tree,10,340,20","the colors are peaceful and nature colors, soft,37,340,20","It reminds me of a tree in the desert.,15,20,20","Trevor","has a tree look to it and it's colors are happy,9,280,20","Cameron","cotton candy skies. pretty.,35,60,20","Richard","the colors are peaceful and nature colors, soft,37,340,20","4"
"14708","","survey-text","132","455935","0.0-130.0-0.0","A3P3T6XWCUWJEM","","","","{""Q0"":""Neat! Reminds me of the movie Inception!""}","","","","","","","","","","","","","","","","","","","","","","",""
"2657.5","","image-slider-response","133","458594","0.0-131.0","A3P3T6XWCUWJEM","","","","","50","","","","","","","","","","","","","","","","","","","","","",""
"3237","","image-button-response","134","463595","0.0-132.0","A3P3T6XWCUWJEM","img_art/8.jpg","5","","","","","","","","","","","","","","","","","","","","","","","","",""
"569","","image-button-response","135","464166","0.0-133.0","A3P3T6XWCUWJEM","img_art/8.jpg","4","","","","","","","","","","","","","","","","","","","","","","","","",""
"703","","image-button-response","136","464870","0.0-134.0-0.0","A3P3T6XWCUWJEM","img_art/8.jpg","5","","","","","","","","","","","","","","","","","","","","","","","","",""
"1175","","image-button-response","137","466046","0.0-135.0-0.0","A3P3T6XWCUWJEM","img_art/8.jpg","3","","","","","","","","","","","","","","","","","","","","","","","","",""
"null","","html-keyboard-response","138","466547","0.0-136.0","A3P3T6XWCUWJEM","<p style=""font-size: 48px;"">+</p>","","","","","null","allTrialResponses","500","1","13","img_art/8.jpg","50","Neat! Reminds me of the movie Inception!","Andrew,Cameron,Trevor,Devin,Richard,Thomas","Looks like it would be an interesting place to live,35,160,20","what's going on here. looks like scary town.,-25,60,20","it looks very 80's and kind of scary,-11,280,20","Very nice detail and colors!,10,380,20","lots going on with great use of lots of color and geometry,24,340,20","Gorgeous! I love the colors and the details.,50,220,20","Richard","lots going on with great use of lots of color and geometry,24,340,20","Thomas","Gorgeous! I love the colors and the details.,50,220,20","Devin","Very nice detail and colors!,10,380,20","4"
"15160","","survey-text","139","481710","0.0-137.0-0.0","A3P3T6XWCUWJEM","","","","{""Q0"":""Weird and bizarre, I don't get it.""}","","","","","","","","","","","","","","","","","","","","","","",""
"2430.9000000953674","","image-slider-response","140","484141","0.0-138.0","A3P3T6XWCUWJEM","","","","","-35","","","","","","","","","","","","","","","","","","","","","",""
"4305","","image-button-response","141","489157","0.0-139.0","A3P3T6XWCUWJEM","img_art/2.jpg","2","","","","","","","","","","","","","","","","","","","","","","","","",""
"861","","image-button-response","142","490019","0.0-140.0","A3P3T6XWCUWJEM","img_art/2.jpg","1","","","","","","","","","","","","","","","","","","","","","","","","",""
"1611","","image-button-response","143","491632","0.0-141.0-0.0","A3P3T6XWCUWJEM","img_art/2.jpg","5","","","","","","","","","","","","","","","","","","","","","","","","",""
"1893","","image-button-response","144","493525","0.0-142.0-0.0","A3P3T6XWCUWJEM","img_art/2.jpg","3","","","","","","","","","","","","","","","","","","","","","","","","",""
"null","","html-keyboard-response","145","494527","0.0-143.0","A3P3T6XWCUWJEM","<p style=""font-size: 48px;"">+</p>","","","","","null","allTrialResponses","1000","1","14","img_art/2.jpg","-35","Weird and bizarre, I don't get it.","Justin,Anthony,Ian,Devin,Richard,Thomas","This one feels rather flat and not engaging.,-15,280,20","Ugly color scheme,-50,200,20","I don't really like this but at the same time it's cute. It looks like a little monster kid.,-9,260,20","I don't really like this style,-5,380,20","doctor's office art work, nice colors and not offensive,23,340,20","My first thought was that it looks like a children's art project,-30,220,20","Anthony","Ugly color scheme,-50,200,20","Thomas","My first thought was that it looks like a children's art project,-30,220,20","Devin","I don't really like this style,-5,380,20","4"
"19930","","survey-text","146","514459","0.0-144.0-0.0","A3P3T6XWCUWJEM","","","","{""Q0"":""Interesting and colorful and semi-symmetrical.""}","","","","","","","","","","","","","","","","","","","","","","",""
"2667.2000000476837","","image-slider-response","147","517127","0.0-145.0","A3P3T6XWCUWJEM","","","","","36","","","","","","","","","","","","","","","","","","","","","",""
"4743","","image-button-response","148","522133","0.0-146.0","A3P3T6XWCUWJEM","img_art/30.jpg","4","","","","","","","","","","","","","","","","","","","","","","","","",""
"624","","image-button-response","149","522758","0.0-147.0","A3P3T6XWCUWJEM","img_art/30.jpg","4","","","","","","","","","","","","","","","","","","","","","","","","",""
"741","","image-button-response","150","523500","0.0-148.0-0.0","A3P3T6XWCUWJEM","img_art/30.jpg","5","","","","","","","","","","","","","","","","","","","","","","","","",""
"1449","","image-button-response","151","524949","0.0-149.0-0.0","A3P3T6XWCUWJEM","img_art/30.jpg","3","","","","","","","","","","","","","","","","","","","","","","","","",""
"null","","html-keyboard-response","152","525950","0.0-150.0","A3P3T6XWCUWJEM","<p style=""font-size: 48px;"">+</p>","","","","","null","allTrialResponses","1000","1","15","img_art/30.jpg","36","Interesting and colorful and semi-symmetrical.","John,Anthony,Chase,Devin,Jordan,Thomas","ugly nasty colors,-10,120,20","The color scheme used in this piece is very ugly.,-50,200,20","Too dark and ugly with all the black smears,-20,120,20","A bit haphazard looking and lacking in vision,2,380,20","Combination of colors arent good,-6,160,20","I like the colors,18,220,20","Jordan","Combination of colors arent good,-6,160,20","Thomas","I like the colors,18,220,20","Devin","A bit haphazard looking and lacking in vision,2,380,20","4"
"3694","","survey-text","153","529648","0.0-151.0-0.0","A3P3T6XWCUWJEM","","","","{""Q0"":""course""}","","","","","","","","","","","","","","","","","","","","","","",""
"13250","","survey-text","154","542899","0.0-152.0-0.0","A3P3T6XWCUWJEM","","","","{""Q0"":""Like looking through a car windshield in a rainstorm.""}","","","","","","","","","","","","","","","","","","","","","","",""
"2393","","image-slider-response","155","545292","0.0-153.0","A3P3T6XWCUWJEM","","","","","-32","","","","","","","","","","","","","","","","","","","","","",""
"3528","","image-button-response","156","550294","0.0-154.0","A3P3T6XWCUWJEM","img_art/11.jpg","4","","","","","","","","","","","","","","","","","","","","","","","","",""
"1194","","image-button-response","157","551489","0.0-155.0","A3P3T6XWCUWJEM","img_art/11.jpg","2","","","","","","","","","","","","","","","","","","","","","","","","",""
"1029","","image-button-response","158","552519","0.0-156.0-0.0","A3P3T6XWCUWJEM","img_art/11.jpg","4","","","","","","","","","","","","","","","","","","","","","","","","",""
"1027","","image-button-response","159","553547","0.0-157.0-0.0","A3P3T6XWCUWJEM","img_art/11.jpg","1","","","","","","","","","","","","","","","","","","","","","","","","",""
"null","","html-keyboard-response","160","555048","0.0-158.0","A3P3T6XWCUWJEM","<p style=""font-size: 48px;"">+</p>","","","","","null","allTrialResponses","1500","1","16","img_art/11.jpg","-32","Like looking through a car windshield in a rainstorm.","Tanner,Carlos,Jacob,Devin,Jordan,Thomas","small town, friendly. calm,35,180,20","The colors are lovely. February getting ready to yield to March.,41,80,20","This looks cool, and definitely comes to life in a way,36,340,20","I like the vibe of the painting,-3,380,20","Rainy highways in RI,20,160,20","Lovely. I could look at this for a really long time. I love the details and the composition.,40,220,20","Jacob","This looks cool, and definitely comes to life in a way,36,340,20","Jordan","Rainy highways in RI,20,160,20","Carlos","The colors are lovely. February getting ready to yield to March.,41,80,20","4"
"9748","","survey-text","161","564799","0.0-159.0-0.0","A3P3T6XWCUWJEM","","","","{""Q0"":""Looks unfinished to me...""}","","","","","","","","","","","","","","","","","","","","","","",""
"2231.2000000476837","","image-slider-response","162","567031","0.0-160.0","A3P3T6XWCUWJEM","","","","","-50","","","","","","","","","","","","","","","","","","","","","",""
"3721","","image-button-response","163","572032","0.0-161.0","A3P3T6XWCUWJEM","img_art/21.jpg","5","","","","","","","","","","","","","","","","","","","","","","","","",""
"722","","image-button-response","164","572755","0.0-162.0","A3P3T6XWCUWJEM","img_art/21.jpg","5","","","","","","","","","","","","","","","","","","","","","","","","",""
"1277","","image-button-response","165","574033","0.0-163.0-0.0","A3P3T6XWCUWJEM","img_art/21.jpg","4","","","","","","","","","","","","","","","","","","","","","","","","",""
"1895","","image-button-response","166","575929","0.0-164.0-0.0","A3P3T6XWCUWJEM","img_art/21.jpg","1","","","","","","","","","","","","","","","","","","","","","","","","",""
"null","","html-keyboard-response","167","576430","0.0-165.0","A3P3T6XWCUWJEM","<p style=""font-size: 48px;"">+</p>","","","","","null","allTrialResponses","500","1","17","img_art/21.jpg","-50","Looks unfinished to me...","Derek,Carlos,Jacob,Ethan,Jordan,Nathaniel","I love the colors in this painting,30,360,20","Motion, the light marks in the lower right corner are very appealing.,15,80,20","I like how the colors blend together like a beautiful sunset.,25,340,20","This is lovely. I like the mix of colors, the warn and cool slowly combining.,39,120,20","Beautiful colors, remind me of my yoga studio,50,160,20","Looks like two ships on fire. Cool image.,12,220,20","Nathaniel","Looks like two ships on fire. Cool image.,12,220,20","Jordan","Beautiful colors, remind me of my yoga studio,50,160,20","Carlos","Motion, the light marks in the lower right corner are very appealing.,15,80,20","4"
"15108","","survey-text","168","591541","0.0-166.0-0.0","A3P3T6XWCUWJEM","","","","{""Q0"":""Nice colors. Key going into a lock?""}","","","","","","","","","","","","","","","","","","","","","","",""
"2640.899999856949","","image-slider-response","169","594182","0.0-167.0","A3P3T6XWCUWJEM","","","","","30","","","","","","","","","","","","","","","","","","","","","",""
"3255","","image-button-response","170","599185","0.0-168.0","A3P3T6XWCUWJEM","img_art/22.jpg","5","","","","","","","","","","","","","","","","","","","","","","","","",""
"220","","image-button-response","171","599406","0.0-169.0","A3P3T6XWCUWJEM","img_art/22.jpg","0","","","","","","","","","","","","","","","","","","","","","","","","",""
"1837","","image-button-response","172","601243","0.0-170.0-0.0","A3P3T6XWCUWJEM","img_art/22.jpg","1","","","","","","","","","","","","","","","","","","","","","","","","",""
"1207","","image-button-response","173","602452","0.0-171.0-0.0","A3P3T6XWCUWJEM","img_art/22.jpg","2","","","","","","","","","","","","","","","","","","","","","","","","",""
"null","","html-keyboard-response","174","603957","0.0-172.0","A3P3T6XWCUWJEM","<p style=""font-size: 48px;"">+</p>","","","","","null","allTrialResponses","1500","1","18","img_art/22.jpg","30","Nice colors. Key going into a lock?","Benjamin,Carlos,Bryan,Samuel,Jordan,Nathaniel","Colors are bright and cheerful.,5,260,20","The colors are pleasant, the shapes are inviting.,21,80,20","Love vibrant colors & the abstractness.,43,400,20","ball of light in 90s,8,400,20","The colors are too dark, too much red,2,160,20","Looks like a giant blob,-45,220,20","Benjamin","Colors are bright and cheerful.,5,260,20","Carlos","The colors are pleasant, the shapes are inviting.,21,80,20","Bryan","Love vibrant colors & the abstractness.,43,400,20","4"
"10513","","survey-text","175","614474","0.0-173.0-0.0","A3P3T6XWCUWJEM","","","","{""Q0"":""CONGA LINE!!!! Cool.""}","","","","","","","","","","","","","","","","","","","","","","",""
"2375","","image-slider-response","176","616849","0.0-174.0","A3P3T6XWCUWJEM","","","","","50","","","","","","","","","","","","","","","","","","","","","",""
"1321","","image-button-response","177","621850","0.0-175.0","A3P3T6XWCUWJEM","img_art/23.jpg","1","","","","","","","","","","","","","","","","","","","","","","","","",""
"670","","image-button-response","178","622522","0.0-176.0","A3P3T6XWCUWJEM","img_art/23.jpg","4","","","","","","","","","","","","","","","","","","","","","","","","",""
"1175","","image-button-response","179","623698","0.0-177.0-0.0","A3P3T6XWCUWJEM","img_art/23.jpg","5","","","","","","","","","","","","","","","","","","","","","","","","",""
"1091","","image-button-response","180","624790","0.0-178.0-0.0","A3P3T6XWCUWJEM","img_art/23.jpg","1","","","","","","","","","","","","","","","","","","","","","","","","",""
"null","","html-keyboard-response","181","625291","0.0-179.0","A3P3T6XWCUWJEM","<p style=""font-size: 48px;"">+</p>","","","","","null","allTrialResponses","500","1","19","img_art/23.jpg","50","CONGA LINE!!!! Cool.","Benjamin,Carlos,Bryan,Zachary,Caleb,Lucas","The background colors seem too dark and the middle images take away from it.,4,260,20","It feels active and vibrant.,20,80,20","Looks like fireworks.,21,400,20","Vivid colors and the white in the middle looks like people dancing.,31,400,20","Very colorful. Nice contrasts.,26,40,20","Shocked, beautiful.,20,380,20","Caleb","Very colorful. Nice contrasts.,26,40,20","Lucas","Shocked, beautiful.,20,380,20","Carlos","It feels active and vibrant.,20,80,20","4"
"10542","","survey-text","182","635835","0.0-180.0-0.0","A3P3T6XWCUWJEM","","","","{""Q0"":""Calm, peaceful""}","","","","","","","","","","","","","","","","","","","","","","",""
"2343","","image-slider-response","183","638179","0.0-181.0","A3P3T6XWCUWJEM","","","","","50","","","","","","","","","","","","","","","","","","","","","",""
"3339","","image-button-response","184","643181","0.0-182.0","A3P3T6XWCUWJEM","img_art/24.jpg","2","","","","","","","","","","","","","","","","","","","","","","","","",""
"940","","image-button-response","185","644122","0.0-183.0","A3P3T6XWCUWJEM","img_art/24.jpg","2","","","","","","","","","","","","","","","","","","","","","","","","",""
"1119","","image-button-response","186","645242","0.0-184.0-0.0","A3P3T6XWCUWJEM","img_art/24.jpg","5","","","","","","","","","","","","","","","","","","","","","","","","",""
"1313","","image-button-response","187","646556","0.0-185.0-0.0","A3P3T6XWCUWJEM","img_art/24.jpg","4","","","","","","","","","","","","","","","","","","","","","","","","",""
"null","","html-keyboard-response","188","648057","0.0-186.0","A3P3T6XWCUWJEM","<p style=""font-size: 48px;"">+</p>","","","","","null","allTrialResponses","1500","1","20","img_art/24.jpg","50","Calm, peaceful","Jack,Carlos,Miguel,Patrick,Caleb,Lucas","colors are a bit cramped together. really unique take on a waterfall though.,32,320,20","It is like a really bad impressionist painting.,-40,80,20","Very cute amateur piece.,18,160,20","Beautiful scenic drawing with perfect color coordination,43,280,20","This is gorgeous. Strong, saturated colors and clear meaning.,50,40,20","Extraordinary and unusual.,30,380,20","Miguel","Very cute amateur piece.,18,160,20","Lucas","Extraordinary and unusual.,30,380,20","Caleb","This is gorgeous. Strong, saturated colors and clear meaning.,50,40,20","4"
"2569","","survey-text","189","650631","0.0-187.0-0.0","A3P3T6XWCUWJEM","","","","{""Q0"":""we""}","","","","","","","","","","","","","","","","","","","","","","",""
"15149","","survey-text","190","665782","0.0-188.0-0.0","A3P3T6XWCUWJEM","","","","{""Q0"":""Just don't like the colors""}","","","","","","","","","","","","","","","","","","","","","","",""
"2360.7999999523163","","image-slider-response","191","668143","0.0-189.0","A3P3T6XWCUWJEM","","","","","-32","","","","","","","","","","","","","","","","","","","","","",""
"1859","","image-button-response","192","673146","0.0-190.0","A3P3T6XWCUWJEM","img_art/27.jpg","1","","","","","","","","","","","","","","","","","","","","","","","","",""
"760","","image-button-response","193","673908","0.0-191.0","A3P3T6XWCUWJEM","img_art/27.jpg","1","","","","","","","","","","","","","","","","","","","","","","","","",""
"2053","","image-button-response","194","675961","0.0-192.0-0.0","A3P3T6XWCUWJEM","img_art/27.jpg","4","","","","","","","","","","","","","","","","","","","","","","","","",""
"2283","","image-button-response","195","678245","0.0-193.0-0.0","A3P3T6XWCUWJEM","img_art/27.jpg","3","","","","","","","","","","","","","","","","","","","","","","","","",""
"null","","html-keyboard-response","196","678748","0.0-194.0","A3P3T6XWCUWJEM","<p style=""font-size: 48px;"">+</p>","","","","","null","allTrialResponses","500","1","21","img_art/27.jpg","-32","Just don't like the colors","William,Sean,Miguel,Tristan,Caleb,Lucas","reminds me of fall,33,380,20","also gives me anxiety,-21,40,20","Adult contemporary painting with child.,-33,160,20","The colors provide a complexity to the nearly child-like sketches.,5,300,20","An abstract piece with such lifeless colors.,-26,40,20","No clue what to say.,0,380,20","Sean","also gives me anxiety,-21,40,20","Caleb","An abstract piece with such lifeless colors.,-26,40,20","Tristan","The colors provide a complexity to the nearly child-like sketches.,5,300,20","4"
"13876","","survey-text","197","692627","0.0-195.0-0.0","A3P3T6XWCUWJEM","","","","{""Q0"":""Another child's painting? Unfinished...""}","","","","","","","","","","","","","","","","","","","","","","",""
"1917","","image-slider-response","198","694545","0.0-196.0","A3P3T6XWCUWJEM","","","","","-50","","","","","","","","","","","","","","","","","","","","","",""
"3921","","image-button-response","199","699546","0.0-197.0","A3P3T6XWCUWJEM","img_art/5.jpg","2","","","","","","","","","","","","","","","","","","","","","","","","",""
"660","","image-button-response","200","700208","0.0-198.0","A3P3T6XWCUWJEM","img_art/5.jpg","2","","","","","","","","","","","","","","","","","","","","","","","","",""
"1369","","image-button-response","201","701578","0.0-199.0-0.0","A3P3T6XWCUWJEM","img_art/5.jpg","5","","","","","","","","","","","","","","","","","","","","","","","","",""
"1981","","image-button-response","202","703560","0.0-200.0-0.0","A3P3T6XWCUWJEM","img_art/5.jpg","4","","","","","","","","","","","","","","","","","","","","","","","","",""
"null","","html-keyboard-response","203","704561","0.0-201.0","A3P3T6XWCUWJEM","<p style=""font-size: 48px;"">+</p>","","","","","null","allTrialResponses","1000","1","22","img_art/5.jpg","-50","Another child's painting? Unfinished...","Peter,Sean,Mason,Tristan,Caleb,Isaac","Bright and sunny,19,320,20","the picture looks ok,8,40,20","pointless, ugly, not creative.,-50,100,20","Nearly white background gives a lack of context. Questionable skills,-45,300,20","Boring and appears low effort,-41,40,20","I'm not sure what is going on here.,-46,280,20","Mason","pointless, ugly, not creative.,-50,100,20","Isaac","I'm not sure what is going on here.,-46,280,20","Caleb","Boring and appears low effort,-41,40,20","4"
"12000","","survey-text","204","716563","0.0-202.0-0.0","A3P3T6XWCUWJEM","","","","{""Q0"":""Looks like Scrapple. Ew!""}","","","","","","","","","","","","","","","","","","","","","","",""
"2981.600000143051","","image-slider-response","205","719545","0.0-203.0","A3P3T6XWCUWJEM","","","","","-50","","","","","","","","","","","","","","","","","","","","","",""
"2473","","image-button-response","206","724552","0.0-204.0","A3P3T6XWCUWJEM","img_art/7.jpg","0","","","","","","","","","","","","","","","","","","","","","","","","",""
"898","","image-button-response","207","725451","0.0-205.0","A3P3T6XWCUWJEM","img_art/7.jpg","0","","","","","","","","","","","","","","","","","","","","","","","","",""
"3173","","image-button-response","208","728625","0.0-206.0-0.0","A3P3T6XWCUWJEM","img_art/7.jpg","2","","","","","","","","","","","","","","","","","","","","","","","","",""
"3599","","image-button-response","209","732225","0.0-207.0-0.0","A3P3T6XWCUWJEM","img_art/7.jpg","3","","","","","","","","","","","","","","","","","","","","","","","","",""
"null","","html-keyboard-response","210","733226","0.0-208.0","A3P3T6XWCUWJEM","<p style=""font-size: 48px;"">+</p>","","","","","null","allTrialResponses","1000","1","23","img_art/7.jpg","-50","Looks like Scrapple. Ew!","Nathan,Eric,Mason,Jared,Caleb,Isaac","I don't like this kind of color scheme or look they went for,-50,200,20","This piece is really simple but the colors and texture work well together.,20,100,20","I don't get it. looks like a picture of the ground.,-42,100,20","it looks like a dog ran through some wet cement,-22,400,20","More saturated color, even more interpretations to have.,44,40,20","It looks more like wallpaper rather than a painting.,-27,280,20","Nathan","I don't like this kind of color scheme or look they went for,-50,200,20","Mason","I don't get it. looks like a picture of the ground.,-42,100,20","Jared","it looks like a dog ran through some wet cement,-22,400,20","4"
"19614","","survey-text","211","752843","0.0-209.0-0.0","A3P3T6XWCUWJEM","","","","{""Q0"":""Confusion, upset, despair""}","","","","","","","","","","","","","","","","","","","","","","",""
"2649.7000000476837","","image-slider-response","212","755494","0.0-210.0","A3P3T6XWCUWJEM","","","","","-50","","","","","","","","","","","","","","","","","","","","","",""
"3001","","image-button-response","213","760495","0.0-211.0","A3P3T6XWCUWJEM","img_art/29.jpg","0","","","","","","","","","","","","","","","","","","","","","","","","",""
"625","","image-button-response","214","761121","0.0-212.0","A3P3T6XWCUWJEM","img_art/29.jpg","2","","","","","","","","","","","","","","","","","","","","","","","","",""
"877","","image-button-response","215","761999","0.0-213.0-0.0","A3P3T6XWCUWJEM","img_art/29.jpg","0","","","","","","","","","","","","","","","","","","","","","","","","",""
"3497","","image-button-response","216","765497","0.0-214.0-0.0","A3P3T6XWCUWJEM","img_art/29.jpg","5","","","","","","","","","","","","","","","","","","","","","","","","",""
"null","","html-keyboard-response","217","766498","0.0-215.0","A3P3T6XWCUWJEM","<p style=""font-size: 48px;"">+</p>","","","","","null","allTrialResponses","1000","1","24","img_art/29.jpg","-50","Confusion, upset, despair","Nathan,Malik,Mason,Jared,Daniel,Jason","Quite ugly in my opinion,-30,200,20","Feels like an abandoned dream,13,40,20","easy, too abstract for me, don't get it.,-25,100,20","not digging the paintbrush,1,400,20","Pinball meets a dark dream meets whale alien, drab,13,320,20","I do not like the red x present in the picture,-6,20,20","Mason","easy, too abstract for me, don't get it.,-25,100,20","Nathan","Quite ugly in my opinion,-30,200,20","Jason","I do not like the red x present in the picture,-6,20,20","4"
"13133","","survey-text","218","779634","0.0-216.0-0.0","A3P3T6XWCUWJEM","","","","{""Q0"":""calm water in a fall lake scene""}","","","","","","","","","","","","","","","","","","","","","","",""
"2656.300000190735","","image-slider-response","219","782291","0.0-217.0","A3P3T6XWCUWJEM","","","","","50","","","","","","","","","","","","","","","","","","","","","",""
"3806","","image-button-response","220","787292","0.0-218.0","A3P3T6XWCUWJEM","img_art/1.jpg","1","","","","","","","","","","","","","","","","","","","","","","","","",""
"1187","","image-button-response","221","788479","0.0-219.0","A3P3T6XWCUWJEM","img_art/1.jpg","1","","","","","","","","","","","","","","","","","","","","","","","","",""
"1155","","image-button-response","222","789635","0.0-220.0-0.0","A3P3T6XWCUWJEM","img_art/1.jpg","4","","","","","","","","","","","","","","","","","","","","","","","","",""
"1027","","image-button-response","223","790663","0.0-221.0-0.0","A3P3T6XWCUWJEM","img_art/1.jpg","5","","","","","","","","","","","","","","","","","","","","","","","","",""
"null","","html-keyboard-response","224","791165","0.0-222.0","A3P3T6XWCUWJEM","<p style=""font-size: 48px;"">+</p>","","","","","null","allTrialResponses","500","1","25","img_art/1.jpg","50","calm water in a fall lake scene","Nathan,Taylor,Mason,Colton,Jeffrey,Jason","Not a fan of the mood, overly party-ish and bright colors do not suit my taste,-40,200,20","Deja vu. Haven't I seen this one before? Not bad for those living in the backwoods.,10,200,20","just colors mixed together. not interesting.,5,100,20","the colors are nice,8,220,20","Makes me warm and relaxed,38,40,20","Interesting blend of colors,9,20,20","Taylor","Deja vu. Haven't I seen this one before? Not bad for those living in the backwoods.,10,200,20","Jeffrey","Makes me warm and relaxed,38,40,20","Jason","Interesting blend of colors,9,20,20","4"
"3658","","survey-text","225","794828","0.0-223.0-0.0","A3P3T6XWCUWJEM","","","","{""Q0"":""table""}","","","","","","","","","","","","","","","","","","","","","","",""
"16459","","survey-text","226","811287","0.0-224.0-0.0","A3P3T6XWCUWJEM","","","","{""Q0"":""Nice transition from B&W to color""}","","","","","","","","","","","","","","","","","","","","","","",""
"2406.9000000953674","","image-slider-response","227","813695","0.0-225.0","A3P3T6XWCUWJEM","","","","","35","","","","","","","","","","","","","","","","","","","","","",""
"2957","","image-button-response","228","818697","0.0-226.0","A3P3T6XWCUWJEM","img_art/12.jpg","0","","","","","","","","","","","","","","","","","","","","","","","","",""
"562","","image-button-response","229","819259","0.0-227.0","A3P3T6XWCUWJEM","img_art/12.jpg","5","","","","","","","","","","","","","","","","","","","","","","","","",""
"1357","","image-button-response","230","820617","0.0-228.0-0.0","A3P3T6XWCUWJEM","img_art/12.jpg","2","","","","","","","","","","","","","","","","","","","","","","","","",""
"1247","","image-button-response","231","821865","0.0-229.0-0.0","A3P3T6XWCUWJEM","img_art/12.jpg","0","","","","","","","","","","","","","","","","","","","","","","","","",""
"null","","html-keyboard-response","232","822867","0.0-230.0","A3P3T6XWCUWJEM","<p style=""font-size: 48px;"">+</p>","","","","","null","allTrialResponses","1000","1","26","img_art/12.jpg","35","Nice transition from B&W to color","Brett,Taylor,Seth,Joshua,Jeffrey,Jason","Night and day, light and dark,35,360,20","Just wish it was more colorful.,20,200,20","This is beautiful. It looks like 1,000 different sunrises and sunsets.,44,60,20","I don't get this one. Doesn't evoke an emotional response.,-10,240,20","good colours scheme; organised,17,40,20","The shapes present in the picture make it very interesting,17,20,20","Jason","The shapes present in the picture make it very interesting,17,20,20","Seth","This is beautiful. It looks like 1,000 different sunrises and sunsets.,44,60,20","Brett","Night and day, light and dark,35,360,20","4"
"31524","","survey-text","233","854393","0.0-231.0-0.0","A3P3T6XWCUWJEM","","","","{""Q0"":""Confusing, dark, moody""}","","","","","","","","","","","","","","","","","","","","","","",""
"2303.2000000476837","","image-slider-response","234","856697","0.0-232.0","A3P3T6XWCUWJEM","","","","","-50","","","","","","","","","","","","","","","","","","","","","",""
"1711","","image-button-response","235","861698","0.0-233.0","A3P3T6XWCUWJEM","img_art/15.jpg","0","","","","","","","","","","","","","","","","","","","","","","","","",""
"650","","image-button-response","236","862349","0.0-234.0","A3P3T6XWCUWJEM","img_art/15.jpg","3","","","","","","","","","","","","","","","","","","","","","","","","",""
"1059","","image-button-response","237","863409","0.0-235.0-0.0","A3P3T6XWCUWJEM","img_art/15.jpg","0","","","","","","","","","","","","","","","","","","","","","","","","",""
"4785","","image-button-response","238","868195","0.0-236.0-0.0","A3P3T6XWCUWJEM","img_art/15.jpg","4","","","","","","","","","","","","","","","","","","","","","","","","",""
"null","","html-keyboard-response","239","869710","0.0-237.0","A3P3T6XWCUWJEM","<p style=""font-size: 48px;"">+</p>","","","","","null","allTrialResponses","1500","1","27","img_art/15.jpg","-50","Confusing, dark, moody","Brett,Connor,Seth,Marcus,Bradley,Jason","I don't know how I feel about this,31,360,20","Neat to explore meaning, blue is interesting,11,240,20","There should be more space between the black marks. The black comes off harsh and the blue between the trees can barely be seen.,-21,60,20","Interesting, but don't really like it. Gloomy.,-10,60,20","I feel like there's ski jumping going on here.,2,300,20","Simplicity of colors is nice,11,20,20","Marcus","Interesting, but don't really like it. Gloomy.,-10,60,20","Brett","I don't know how I feel about this,31,360,20","Bradley","I feel like there's ski jumping going on here.,2,300,20","4"
"16884","","survey-text","240","886597","0.0-238.0-0.0","A3P3T6XWCUWJEM","","","","{""Q0"":""Interesting splatter pattern""}","","","","","","","","","","","","","","","","","","","","","","",""
"2069.0999999046326","","image-slider-response","241","888667","0.0-239.0","A3P3T6XWCUWJEM","","","","","50","","","","","","","","","","","","","","","","","","","","","",""
"2025","","image-button-response","242","893668","0.0-240.0","A3P3T6XWCUWJEM","img_art/13.jpg","0","","","","","","","","","","","","","","","","","","","","","","","","",""
"792","","image-button-response","243","894461","0.0-241.0","A3P3T6XWCUWJEM","img_art/13.jpg","4","","","","","","","","","","","","","","","","","","","","","","","","",""
"1021","","image-button-response","244","895483","0.0-242.0-0.0","A3P3T6XWCUWJEM","img_art/13.jpg","0","","","","","","","","","","","","","","","","","","","","","","","","",""
"861","","image-button-response","245","896345","0.0-243.0-0.0","A3P3T6XWCUWJEM","img_art/13.jpg","0","","","","","","","","","","","","","","","","","","","","","","","","",""
"695","","image-button-response","246","901445","0.0-243.1-0.1","A3P3T6XWCUWJEM","img_art/13.jpg","5","","","","","","","","","","","","","","","","","","","","","","","","",""
"null","","html-keyboard-response","247","902951","0.0-244.0","A3P3T6XWCUWJEM","<p style=""font-size: 48px;"">+</p>","","","","","null","allTrialResponses","1500","1","28","img_art/13.jpg","50","Interesting splatter pattern","Brett,Shane,Brian,Marcus,Bradley,Evan","Very abstract and soothing,40,360,20","Rain drops on a window,35,80,20","I don't really care for splatter paintings; the spectral colors underneath are nice.,-18,380,20","It's okay. Feels like a blander take on a Jackson Pollack,11,60,20","I like the colors used in this piece.,2,300,20","It reminds me of looking out the window on a stormy night at cars drive by,21,140,20","Bradley","I like the colors used in this piece.,2,300,20","Brett","Very abstract and soothing,40,360,20","Evan","It reminds me of looking out the window on a stormy night at cars drive by,21,140,20","6"
"11922","","survey-text","248","914877","0.0-245.0-0.0","A3P3T6XWCUWJEM","","","","{""Q0"":""A one-legged bird?""}","","","","","","","","","","","","","","","","","","","","","","",""
"2108.899999856949","","image-slider-response","249","916986","0.0-246.0","A3P3T6XWCUWJEM","","","","","-50","","","","","","","","","","","","","","","","","","","","","",""
"4133","","image-button-response","250","921988","0.0-247.0","A3P3T6XWCUWJEM","img_art/6.jpg","1","","","","","","","","","","","","","","","","","","","","","","","","",""
"289","","image-button-response","251","922277","0.0-248.0","A3P3T6XWCUWJEM","img_art/6.jpg","0","","","","","","","","","","","","","","","","","","","","","","","","",""
"772","","image-button-response","252","923051","0.0-249.0-0.0","A3P3T6XWCUWJEM","img_art/6.jpg","1","","","","","","","","","","","","","","","","","","","","","","","","",""
"1327","","image-button-response","253","924379","0.0-250.0-0.0","A3P3T6XWCUWJEM","img_art/6.jpg","2","","","","","","","","","","","","","","","","","","","","","","","","",""
"null","","html-keyboard-response","254","925380","0.0-251.0","A3P3T6XWCUWJEM","<p style=""font-size: 48px;"">+</p>","","","","","null","allTrialResponses","1000","1","29","img_art/6.jpg","-50","A one-legged bird?","Brett,Kevin,Grant,Travis,Bradley,Evan","Reminds me of feeling incomplete,1,360,20","Its the headless bird. But why?,21,320,20","The limited colors make me feel lonely.,36,200,20","No feeling...just left me feeling kind of blah,1,260,20","It's okay. It kind of looks like a bird with his head buried in his feathers.,2,300,20","I am intrigued but unsure whether I enjoy this or not,6,140,20","Brett","Reminds me of feeling incomplete,1,360,20","Kevin","Its the headless bird. But why?,21,320,20","Grant","The limited colors make me feel lonely.,36,200,20","6"
"17225","","survey-text","255","942609","0.0-252.0-0.0","A3P3T6XWCUWJEM","","","","{""Q0"":""Looks like a ransom note by a 4 year old""}","","","","","","","","","","","","","","","","","","","","","","",""
"2971","","image-slider-response","256","945580","0.0-253.0","A3P3T6XWCUWJEM","","","","","-30","","","","","","","","","","","","","","","","","","","","","",""
"1471","","image-button-response","257","950582","0.0-254.0","A3P3T6XWCUWJEM","img_art/16.jpg","1","","","","","","","","","","","","","","","","","","","","","","","","",""
"2310","","image-button-response","258","952893","0.0-255.0","A3P3T6XWCUWJEM","img_art/16.jpg","3","","","","","","","","","","","","","","","","","","","","","","","","",""
"1337","","image-button-response","259","954230","0.0-256.0-0.0","A3P3T6XWCUWJEM","img_art/16.jpg","0","","","","","","","","","","","","","","","","","","","","","","","","",""
"707","","image-button-response","260","954939","0.0-257.0-0.0","A3P3T6XWCUWJEM","img_art/16.jpg","1","","","","","","","","","","","","","","","","","","","","","","","","",""
"null","","html-keyboard-response","261","955440","0.0-258.0","A3P3T6XWCUWJEM","<p style=""font-size: 48px;"">+</p>","","","","","null","allTrialResponses","500","1","30","img_art/16.jpg","-30","Looks like a ransom note by a 4 year old","Brett,Kevin,Grant,Gregory,Vincent,Jorge","Mixed feelings. Warm and comfy yet somewhat violent. A stark contrast,0,360,20","Hmm i don't know what going on here.,1,320,20","This is making me feel nervous in an enjoyable way.,20,200,20","Weird and funny,40,220,20","Toys toys toys. Happy playful free spirit,30,360,20","Dreamy and chaotic,-9,180,20","Gregory","Weird and funny,40,220,20","Brett","Mixed feelings. Warm and comfy yet somewhat violent. A stark contrast,0,360,20","Kevin","Hmm i don't know what going on here.,1,320,20","6"
"3029","","image-button-response_instructions","262","958473","0.0-259.0","A3P3T6XWCUWJEM","","0","instructions","","","","","","","","","","","","","","","","","","","","","","","",""
"1243","","image-button-response","263","959718","0.0-260.0","A3P3T6XWCUWJEM","","0","","","","","","","","","","","","","","","","","","","","","","","","",""
