"rt","url","trial_type","trial_index","time_elapsed","internal_node_id","participant_id","stimulus","button_pressed","Name","responses","response","key_press","variableName","fixationTime","condition","trial","photo","subjectRating","subjectResponse","agentsNames","agent_1_Response","agent_2_Response","agent_3_Response","agent_4_Response","agent_5_Response","agent_6_Response","kept_1_name","kept_1_response","kept_2_name","kept_2_response","kept_3_name","kept_3_response","errorCounter"
"9326","external_page_harvard.html","external-html","0","9349","0.0-0.0","A3P8XKLTF07QZW","","","","","","","","","","","","","","","","","","","","","","","","","","",""
"1934","","image-button-response","1","11288","0.0-1.0","A3P8XKLTF07QZW","","1","","","","","","","","","","","","","","","","","","","","","","","","",""
"1667","","image-button-response","2","12968","0.0-2.0-0.0","A3P8XKLTF07QZW","","1","phone","","","","","","","","","","","","","","","","","","","","","","","",""
"4335","","survey-text","3","17309","0.0-3.0-0.0","A3P8XKLTF07QZW","","","","{""Q0"":""A3P8XKLTF07QZW""}","","","","","","","","","","","","","","","","","","","","","","",""
"2227","","image-button-response_instructions","4","19541","0.0-4.0","A3P8XKLTF07QZW","","0","instructions","","","","","","","","","","","","","","","","","","","","","","","",""
"1133","","image-button-response_instructions","5","20678","0.0-5.0","A3P8XKLTF07QZW","img_art/ins/popularity/ins1.png","0","instructions","","","","","","","","","","","","","","","","","","","","","","","",""
"961","","image-button-response_instructions","6","21645","0.0-6.0","A3P8XKLTF07QZW","img_art/ins/popularity/ins2.png","0","instructions","","","","","","","","","","","","","","","","","","","","","","","",""
"760","","image-button-response_instructions","7","22410","0.0-7.0","A3P8XKLTF07QZW","img_art/ins/popularity/ins2Extreme.png","0","instructions","","","","","","","","","","","","","","","","","","","","","","","",""
"837","","image-button-response_instructions","8","23252","0.0-8.0","A3P8XKLTF07QZW","img_art/ins/popularity/ins3KEEPpop.PNG","0","instructions","","","","","","","","","","","","","","","","","","","","","","","",""
"702","","image-button-response_instructions","9","23958","0.0-9.0","A3P8XKLTF07QZW","img_art/ins/popularity/ins3ANamepop.PNG","0","instructions","","","","","","","","","","","","","","","","","","","","","","","",""
"657","","image-button-response_instructions","10","24620","0.0-10.0","A3P8XKLTF07QZW","img_art/ins/popularity/ins3ARatingpop.png","0","instructions","","","","","","","","","","","","","","","","","","","","","","","",""
"649","","image-button-response_instructions","11","25273","0.0-11.0","A3P8XKLTF07QZW","img_art/ins/popularity/ins3ATextpop.png","0","instructions","","","","","","","","","","","","","","","","","","","","","","","",""
"611","","image-button-response_instructions","12","25889","0.0-12.0","A3P8XKLTF07QZW","img_art/ins/popularity/ins3ALikespop.png","0","instructions","","","","","","","","","","","","","","","","","","","","","","","",""
"807","","image-button-response_instructions","13","26701","0.0-13.0","A3P8XKLTF07QZW","img_art/ins/popularity/ins3KEEPpop.PNG","0","instructions","","","","","","","","","","","","","","","","","","","","","","","",""
"756","","image-button-response_instructions","14","27463","0.0-14.0","A3P8XKLTF07QZW","img_art/ins/popularity/ins3_5RED.png","0","instructions","","","","","","","","","","","","","","","","","","","","","","","",""
"1986","","image-button-response_instructions","15","29453","0.0-15.0","A3P8XKLTF07QZW","img_art/ins/popularity/ins3KEEPpop.PNG","0","instructions","","","","","","","","","","","","","","","","","","","","","","","",""
"758","","image-button-response_instructions","16","30214","0.0-16.0","A3P8XKLTF07QZW","img_art/ins/popularity/ins4KEEPpop.PNG","0","instructions","","","","","","","","","","","","","","","","","","","","","","","",""
"910","","image-button-response_instructions","17","31129","0.0-17.0","A3P8XKLTF07QZW","img_art/ins/popularity/ins5KEEPpop.PNG","0","instructions","","","","","","","","","","","","","","","","","","","","","","","",""
"2098","","image-button-response_instructions","18","33233","0.0-18.0","A3P8XKLTF07QZW","","0","instructions","","","","","","","","","","","","","","","","","","","","","","","",""
"8729","","survey-text","19","42056","0.0-19.0-0.0","A3P8XKLTF07QZW","","","","{""Q0"":""but""}","","","","","","","","","","","","","","","","","","","","","","",""
"16584","","survey-text","20","58649","0.0-20.0-0.0","A3P8XKLTF07QZW","","","","{""Q0"":""drab boring dull""}","","","","","","","","","","","","","","","","","","","","","","",""
"6051.5","","image-slider-response","21","64709","0.0-21.0","A3P8XKLTF07QZW","","","","","-50","","","","","","","","","","","","","","","","","","","","","",""
"null","","image-button-response","22","69723","0.0-22.0","A3P8XKLTF07QZW","img_art/ins/1.jpg","null","","","","","","","","","","","","","","","","","","","","","","","","",""
"14527","","image-button-response","23","84264","0.0-23.0","A3P8XKLTF07QZW","img_art/ins/1.jpg","1","","","","","","","","","","","","","","","","","","","","","","","","",""
"6817","","image-button-response","24","91090","0.0-24.0-0.0","A3P8XKLTF07QZW","img_art/ins/1.jpg","0","","","","","","","","","","","","","","","","","","","","","","","","",""
"2403","","image-button-response","25","93507","0.0-25.0-0.0","A3P8XKLTF07QZW","img_art/ins/1.jpg","4","","","","","","","","","","","","","","","","","","","","","","","","",""
"null","","html-keyboard-response","26","94014","0.0-26.0","A3P8XKLTF07QZW","<p style=""font-size: 48px;"">+</p>","","","","","null","allTrialResponses","500","1","-2","img_art/ins/1.jpg","-50","drab boring dull","Allison,Ashley,Beth,Dora,Erika,Jen","looks like a lot of things going on in the mist,20,20,20","I just don't get why these type of art would be popular,-32,40,20","This color reminds me of poo,-46,60,20","looks like what my niece in 3rd grade did this afternoon,-50,80,20","I like the sophisticated brushwork,40,100,20","It reminds me of a candy land dream I had,36,120,20","Ashley","I just don't get why these type of art would be popular,-32,40,20","Allison","looks like a lot of things going on in the mist,20,20,20","Erika","I like the sophisticated brushwork,40,100,20","0"
"20258","","survey-text","27","114291","0.0-27.0-0.0","A3P8XKLTF07QZW","","","","{""Q0"":""vibrant, bold, structured""}","","","","","","","","","","","","","","","","","","","","","","",""
"5684.4000000059605","","image-slider-response","28","119982","0.0-28.0","A3P8XKLTF07QZW","","","","","50","","","","","","","","","","","","","","","","","","","","","",""
"null","","image-button-response","29","124996","0.0-29.0","A3P8XKLTF07QZW","img_art/ins/2.jpg","null","","","","","","","","","","","","","","","","","","","","","","","","",""
"2232","","image-button-response","30","127244","0.0-30.0","A3P8XKLTF07QZW","img_art/ins/2.jpg","2","","","","","","","","","","","","","","","","","","","","","","","","",""
"6464","","image-button-response","31","133717","0.0-31.0-0.0","A3P8XKLTF07QZW","img_art/ins/2.jpg","4","","","","","","","","","","","","","","","","","","","","","","","","",""
"1797","","image-button-response","32","135523","0.0-32.0-0.0","A3P8XKLTF07QZW","img_art/ins/2.jpg","5","","","","","","","","","","","","","","","","","","","","","","","","",""
"null","","html-keyboard-response","33","136030","0.0-33.0","A3P8XKLTF07QZW","<p style=""font-size: 48px;"">+</p>","","","","","null","allTrialResponses","500","1","-1","img_art/ins/2.jpg","50","vibrant, bold, structured","Allison,Ashley,Kara,Jenna,Erika,Katie","I don't have strong feelings about this,10,20,20","Idk, it is just annoying,-32,40,20","I like the blocks of color arrangements,30,160,20","One of my pet peevs,-48,140,20","I would never be able to compose a sophisticated pallete like this,48,100,20","too much color!,-28,180,20","Kara","I like the blocks of color arrangements,30,160,20","Erika","I would never be able to compose a sophisticated pallete like this,48,100,20","Katie","too much color!,-28,180,20","0"
"15819","","survey-text","34","151870","0.0-34.0-0.0","A3P8XKLTF07QZW","","","","{""Q0"":""icy, cold, winter""}","","","","","","","","","","","","","","","","","","","","","","",""
"14294.300000011921","","image-slider-response","35","166172","0.0-35.0","A3P8XKLTF07QZW","","","","","-26","","","","","","","","","","","","","","","","","","","","","",""
"null","","image-button-response","36","171183","0.0-36.0","A3P8XKLTF07QZW","img_art/ins/3.jpg","null","","","","","","","","","","","","","","","","","","","","","","","","",""
"8567","","image-button-response","37","179762","0.0-37.0","A3P8XKLTF07QZW","img_art/ins/3.jpg","5","","","","","","","","","","","","","","","","","","","","","","","","",""
"1768","","image-button-response","38","181538","0.0-38.0-0.0","A3P8XKLTF07QZW","img_art/ins/3.jpg","0","","","","","","","","","","","","","","","","","","","","","","","","",""
"4304","","image-button-response","39","185854","0.0-39.0-0.0","A3P8XKLTF07QZW","img_art/ins/3.jpg","3","","","","","","","","","","","","","","","","","","","","","","","","",""
"null","","html-keyboard-response","40","186859","0.0-40.0","A3P8XKLTF07QZW","<p style=""font-size: 48px;"">+</p>","","","","","null","allTrialResponses","1000","1","0","img_art/ins/3.jpg","-26","icy, cold, winter","Mary,Rose,Kara,Leslie,Erika,Katie","I like the overlapping of brushes,41,220,20","My daily routine, it's depressing,-20,240,20","calming blue is very nice,36,160,20","It's an alright work,15,200,20","I feel connected to the artist,40,100,20","It looks depressing,-26,180,20","Katie","It looks depressing,-26,180,20","Mary","I like the overlapping of brushes,41,220,20","Leslie","It's an alright work,15,200,20","0"
"9165","","image-button-response_instructions","41","196044","0.0-41.0","A3P8XKLTF07QZW","","0","instructions","","","","","","","","","","","","","","","","","","","","","","","",""
"27359","","survey-likert","42","223412","0.0-42.0-0.0","A3P8XKLTF07QZW","","","","{""Q0"":"""",""Q1"":0,""Q2"":1}","","","","","","","","","","","","","","","","","","","","","","",""
"7822","","survey-text","43","231252","0.0-43.0-0.0","A3P8XKLTF07QZW","","","","{""Q0"":""rock""}","","","","","","","","","","","","","","","","","","","","","","",""
"20911","","survey-text","44","252169","0.0-44.0-0.0","A3P8XKLTF07QZW","","","","{""Q0"":""Bad vibes, disturbing""}","","","","","","","","","","","","","","","","","","","","","","",""
"5338.9000000059605","","image-slider-response","45","257515","0.0-45.0","A3P8XKLTF07QZW","","","","","-50","","","","","","","","","","","","","","","","","","","","","",""
"null","","image-button-response","46","262602","0.0-46.0","A3P8XKLTF07QZW","img_art/23.jpg","null","","","","","","","","","","","","","","","","","","","","","","","","",""
"5193","","image-button-response","47","267804","0.0-47.0","A3P8XKLTF07QZW","img_art/23.jpg","3","","","","","","","","","","","","","","","","","","","","","","","","",""
"1276","","image-button-response","48","269088","0.0-48.0-0.0","A3P8XKLTF07QZW","img_art/23.jpg","4","","","","","","","","","","","","","","","","","","","","","","","","",""
"1322","","image-button-response","49","270422","0.0-49.0-0.0","A3P8XKLTF07QZW","img_art/23.jpg","5","","","","","","","","","","","","","","","","","","","","","","","","",""
"null","","html-keyboard-response","50","270928","0.0-50.0","A3P8XKLTF07QZW","<p style=""font-size: 48px;"">+</p>","","","","","null","allTrialResponses","500","1","1","img_art/23.jpg","-50","Bad vibes, disturbing","Shannon,Taylor,Tiffany,Gabrielle,Cassandra,Natalie","I really like the way all the colors look, I think this is a pretty picture.,40,220,20","The color contrast makes me happy,40,340,20","I feel happy and a little excited. Like watching fireworks with family.,26,360,20","it's OK, but just OK, kind of interesting but I wouldn't spend money on it,4,160,20","I had a very neutral feeling to this,no feelings at all.,1,120,20","so much detail .,31,400,20","Gabrielle","it's OK, but just OK, kind of interesting but I wouldn't spend money on it,4,160,20","Cassandra","I had a very neutral feeling to this,no feelings at all.,1,120,20","Natalie","so much detail .,31,400,20","0"
"27796","","survey-text","51","298743","0.0-51.0-0.0","A3P8XKLTF07QZW","","","","{""Q0"":""Loosely done, uninspiring""}","","","","","","","","","","","","","","","","","","","","","","",""
"5843.0999999940395","","image-slider-response","52","304593","0.0-52.0","A3P8XKLTF07QZW","","","","","-50","","","","","","","","","","","","","","","","","","","","","",""
"null","","image-button-response","53","309603","0.0-53.0","A3P8XKLTF07QZW","img_art/4.jpg","null","","","","","","","","","","","","","","","","","","","","","","","","",""
"62","","image-button-response","54","309675","0.0-54.0","A3P8XKLTF07QZW","img_art/4.jpg","0","","","","","","","","","","","","","","","","","","","","","","","","",""
"1643","","image-button-response","55","311330","0.0-55.0-0.0","A3P8XKLTF07QZW","img_art/4.jpg","3","","","","","","","","","","","","","","","","","","","","","","","","",""
"2142","","image-button-response","56","313482","0.0-56.0-0.0","A3P8XKLTF07QZW","img_art/4.jpg","4","","","","","","","","","","","","","","","","","","","","","","","","",""
"null","","html-keyboard-response","57","314487","0.0-57.0","A3P8XKLTF07QZW","<p style=""font-size: 48px;"">+</p>","","","","","null","allTrialResponses","1000","1","2","img_art/4.jpg","-50","Loosely done, uninspiring","Ashley,Katie,Sabrina,Gabrielle,Cassandra,Natalie","It looks like a hand.,25,320,20","Warm colors, but too random. I feel like I'm seeing something mangled. It is unpleasant.,-30,160,20","Its just not giving the vibe i should be finding,-31,120,20","too childish, not really art in my world,-50,160,20","I don't like this...a mustardy scibble.,-47,120,20","dont know what im looking at,1,400,20","Ashley","It looks like a hand.,25,320,20","Gabrielle","too childish, not really art in my world,-50,160,20","Cassandra","I don't like this...a mustardy scibble.,-47,120,20","0"
"49332","","survey-text","58","363836","0.0-58.0-0.0","A3P8XKLTF07QZW","","","","{""Q0"":""Uninspiring, childish""}","","","","","","","","","","","","","","","","","","","","","","",""
"6855","","image-slider-response","59","370700","0.0-59.0","A3P8XKLTF07QZW","","","","","-50","","","","","","","","","","","","","","","","","","","","","",""
"null","","image-button-response","60","375708","0.0-60.0","A3P8XKLTF07QZW","img_art/16.jpg","null","","","","","","","","","","","","","","","","","","","","","","","","",""
"779","","image-button-response","61","376501","0.0-61.0","A3P8XKLTF07QZW","img_art/16.jpg","1","","","","","","","","","","","","","","","","","","","","","","","","",""
"5813","","image-button-response","62","382322","0.0-62.0-0.0","A3P8XKLTF07QZW","img_art/16.jpg","2","","","","","","","","","","","","","","","","","","","","","","","","",""
"1530","","image-button-response","63","383864","0.0-63.0-0.0","A3P8XKLTF07QZW","img_art/16.jpg","3","","","","","","","","","","","","","","","","","","","","","","","","",""
"null","","html-keyboard-response","64","384871","0.0-64.0","A3P8XKLTF07QZW","<p style=""font-size: 48px;"">+</p>","","","","","null","allTrialResponses","1000","1","3","img_art/16.jpg","-50","Uninspiring, childish","Ashley,Lauren,Margaret,Gabrielle,Cassandra,Amy","A lot fo these could abstract or childrens work.,23,320,20","The colored teddy bear clashes with the color scheme.,-20,340,20","i like how it incorporates mixed visual art with the photo of the bear and the drawings,30,100,20","nonsense art, not really art,-44,160,20","I like the teddy bear,but a neutral feeling,5,120,20","visceral and a little disturbing.,10,220,20","Lauren","The colored teddy bear clashes with the color scheme.,-20,340,20","Margaret","i like how it incorporates mixed visual art with the photo of the bear and the drawings,30,100,20","Gabrielle","nonsense art, not really art,-44,160,20","0"
"29025","","survey-text","65","413913","0.0-65.0-0.0","A3P8XKLTF07QZW","","","","{""Q0"":""creative use of color, but uninspiring""}","","","","","","","","","","","","","","","","","","","","","","",""
"5706.600000023842","","image-slider-response","66","419628","0.0-66.0","A3P8XKLTF07QZW","","","","","-38","","","","","","","","","","","","","","","","","","","","","",""
"null","","image-button-response","67","424637","0.0-67.0","A3P8XKLTF07QZW","img_art/2.jpg","null","","","","","","","","","","","","","","","","","","","","","","","","",""
"2224","","image-button-response","68","426873","0.0-68.0","A3P8XKLTF07QZW","img_art/2.jpg","3","","","","","","","","","","","","","","","","","","","","","","","","",""
"3286","","image-button-response","69","430175","0.0-69.0-0.0","A3P8XKLTF07QZW","img_art/2.jpg","4","","","","","","","","","","","","","","","","","","","","","","","","",""
"6732","","image-button-response","70","436916","0.0-70.0-0.0","A3P8XKLTF07QZW","img_art/2.jpg","1","","","","","","","","","","","","","","","","","","","","","","","","",""
"null","","html-keyboard-response","71","438422","0.0-71.0","A3P8XKLTF07QZW","<p style=""font-size: 48px;"">+</p>","","","","","null","allTrialResponses","1500","1","4","img_art/2.jpg","-38","creative use of color, but uninspiring","Alexis,Lauren,Margaret,Gabrielle,Alexandra,Kaitlin","Do not like this type of abstract work,-50,100,20","I feel that its too abstract for me to understand what I'm looking at.,-15,340,20","doesn't do anything for me,-7,100,20","doctor's office art work, nice colors and not offensive,23,160,20","This is ugly- too plain and busy at the same time,-9,60,20","another confusing piece of art,-12,60,20","Gabrielle","doctor's office art work, nice colors and not offensive,23,160,20","Alexandra","This is ugly- too plain and busy at the same time,-9,60,20","Lauren","I feel that its too abstract for me to understand what I'm looking at.,-15,340,20","0"
"16900","","survey-text","72","455339","0.0-72.0-0.0","A3P8XKLTF07QZW","","","","{""Q0"":""Calm, nice use of space""}","","","","","","","","","","","","","","","","","","","","","","",""
"4362.300000011921","","image-slider-response","73","459708","0.0-73.0","A3P8XKLTF07QZW","","","","","7","","","","","","","","","","","","","","","","","","","","","",""
"4330","","image-button-response","74","464718","0.0-74.0","A3P8XKLTF07QZW","img_art/6.jpg","1","","","","","","","","","","","","","","","","","","","","","","","","",""
"5642","","image-button-response","75","470374","0.0-75.0","A3P8XKLTF07QZW","img_art/6.jpg","4","","","","","","","","","","","","","","","","","","","","","","","","",""
"5878","","image-button-response","76","476265","0.0-76.0-0.0","A3P8XKLTF07QZW","img_art/6.jpg","3","","","","","","","","","","","","","","","","","","","","","","","","",""
"10070","","image-button-response","77","486345","0.0-77.0-0.0","A3P8XKLTF07QZW","img_art/6.jpg","1","","","","","","","","","","","","","","","","","","","","","","","","",""
"null","","html-keyboard-response","78","487850","0.0-78.0","A3P8XKLTF07QZW","<p style=""font-size: 48px;"">+</p>","","","","","null","allTrialResponses","1500","1","5","img_art/6.jpg","7","Calm, nice use of space","Angelica,Lauren,Miranda,Gabrielle,Alexandra,Christina","It feels sad but it's nice to look at.,4,280,20","I like the simplicity of the piece.,10,340,20","It's slightly unnerving to look at, it looks a little creepy/eerie,-16,320,20","simplistic but reminds me of a crow in a field,-10,160,20","this is interesting and unique,11,60,20","i like the simplicity of the tree and the colors,50,240,20","Alexandra","this is interesting and unique,11,60,20","Gabrielle","simplistic but reminds me of a crow in a field,-10,160,20","Lauren","I like the simplicity of the piece.,10,340,20","0"
"5561","","survey-text","79","493441","0.0-79.0-0.0","A3P8XKLTF07QZW","","","","{""Q0"":""sky""}","","","","","","","","","","","","","","","","","","","","","","",""
"27882","","survey-text","80","521329","0.0-80.0-0.0","A3P8XKLTF07QZW","","","","{""Q0"":""Busy, interesting layers""}","","","","","","","","","","","","","","","","","","","","","","",""
"5418.5999999940395","","image-slider-response","81","526755","0.0-81.0","A3P8XKLTF07QZW","","","","","10","","","","","","","","","","","","","","","","","","","","","",""
"4929","","image-button-response","82","531767","0.0-82.0","A3P8XKLTF07QZW","img_art/8.jpg","3","","","","","","","","","","","","","","","","","","","","","","","","",""
"3411","","image-button-response","83","535186","0.0-83.0","A3P8XKLTF07QZW","img_art/8.jpg","4","","","","","","","","","","","","","","","","","","","","","","","","",""
"1700","","image-button-response","84","536895","0.0-84.0-0.0","A3P8XKLTF07QZW","img_art/8.jpg","3","","","","","","","","","","","","","","","","","","","","","","","","",""
"4743","","image-button-response","85","541648","0.0-85.0-0.0","A3P8XKLTF07QZW","img_art/8.jpg","2","","","","","","","","","","","","","","","","","","","","","","","","",""
"null","","html-keyboard-response","86","543154","0.0-86.0","A3P8XKLTF07QZW","<p style=""font-size: 48px;"">+</p>","","","","","null","allTrialResponses","1500","1","6","img_art/8.jpg","10","Busy, interesting layers","Andrea,Lauren,Amber,Gabrielle,Alexandra,Maria","The face makes me think its a statement of the almighty of big brother watching us. onfuCsion limits my enjoyment.,6,240,20","I like how the piece is showcasing emotion in relation to something.,25,340,20","Very colorful. Looks like the hustle and bustle of a city.,11,200,20","lots going on with great use of lots of color and geometry,24,160,20","The colors are nice but the big face in the sky is creepy,-11,60,20","not sure what to make of this - just neutral again,-1,120,20","Alexandra","The colors are nice but the big face in the sky is creepy,-11,60,20","Gabrielle","lots going on with great use of lots of color and geometry,24,160,20","Amber","Very colorful. Looks like the hustle and bustle of a city.,11,200,20","0"
"22735","","survey-text","87","565910","0.0-87.0-0.0","A3P8XKLTF07QZW","","","","{""Q0"":""Looks like a rough draft, but nice""}","","","","","","","","","","","","","","","","","","","","","","",""
"5868.299999982119","","image-slider-response","88","571785","0.0-88.0","A3P8XKLTF07QZW","","","","","6","","","","","","","","","","","","","","","","","","","","","",""
"2873","","image-button-response","89","576796","0.0-89.0","A3P8XKLTF07QZW","img_art/26.jpg","0","","","","","","","","","","","","","","","","","","","","","","","","",""
"1318","","image-button-response","90","578125","0.0-90.0","A3P8XKLTF07QZW","img_art/26.jpg","4","","","","","","","","","","","","","","","","","","","","","","","","",""
"1992","","image-button-response","91","580128","0.0-91.0-0.0","A3P8XKLTF07QZW","img_art/26.jpg","3","","","","","","","","","","","","","","","","","","","","","","","","",""
"1583","","image-button-response","92","581719","0.0-92.0-0.0","A3P8XKLTF07QZW","img_art/26.jpg","0","","","","","","","","","","","","","","","","","","","","","","","","",""
"null","","html-keyboard-response","93","582225","0.0-93.0","A3P8XKLTF07QZW","<p style=""font-size: 48px;"">+</p>","","","","","null","allTrialResponses","500","1","7","img_art/26.jpg","6","Looks like a rough draft, but nice","Alyssa,Michaela,Amber,Gabrielle,Alexandra,Mackenzie","Its pretty.And a nice use of water colors.,25,160,20","Elevator art but the watercolors are good,29,260,20","The colors are muted.,1,200,20","subtle use of colors, city street view?,8,160,20","I like the colors but it is still a little boring,22,60,20","Very interesting to look at, I like the shapes, textures and colors.,30,20,20","Alexandra","I like the colors but it is still a little boring,22,60,20","Gabrielle","subtle use of colors, city street view?,8,160,20","Alyssa","Its pretty.And a nice use of water colors.,25,160,20","0"
"12455","","survey-text","94","594698","0.0-94.0-0.0","A3P8XKLTF07QZW","","","","{""Q0"":""Hurts my eyes, blurry""}","","","","","","","","","","","","","","","","","","","","","","",""
"4761.9000000059605","","image-slider-response","95","599467","0.0-95.0","A3P8XKLTF07QZW","","","","","-50","","","","","","","","","","","","","","","","","","","","","",""
"null","","image-button-response","96","604482","0.0-96.0","A3P8XKLTF07QZW","img_art/1.jpg","null","","","","","","","","","","","","","","","","","","","","","","","","",""
"3492","","image-button-response","97","607986","0.0-97.0","A3P8XKLTF07QZW","img_art/1.jpg","5","","","","","","","","","","","","","","","","","","","","","","","","",""
"2959","","image-button-response","98","610954","0.0-98.0-0.0","A3P8XKLTF07QZW","img_art/1.jpg","1","","","","","","","","","","","","","","","","","","","","","","","","",""
"1325","","image-button-response","99","612288","0.0-99.0-0.0","A3P8XKLTF07QZW","img_art/1.jpg","0","","","","","","","","","","","","","","","","","","","","","","","","",""
"null","","html-keyboard-response","100","612795","0.0-100.0","A3P8XKLTF07QZW","<p style=""font-size: 48px;"">+</p>","","","","","null","allTrialResponses","500","1","8","img_art/1.jpg","-50","Hurts my eyes, blurry","Alyssa,Sara,Crystal,Gabrielle,Alexandra,Haley","Its okay,not great.,1,160,20","I feel uneasy looking at this,-41,160,20","Interesting color scheme but to bled to me,11,300,20","nice piece, fall like,31,160,20","I love the warm colors of the art,32,60,20","Pleasant, but a tad too monochromatic in some areas for my taste,7,220,20","Haley","Pleasant, but a tad too monochromatic in some areas for my taste,7,220,20","Sara","I feel uneasy looking at this,-41,160,20","Alyssa","Its okay,not great.,1,160,20","0"
"16974","","survey-text","101","629788","0.0-101.0-0.0","A3P8XKLTF07QZW","","","","{""Q0"":""Looks like a blurred sidewalk""}","","","","","","","","","","","","","","","","","","","","","","",""
"5293","","image-slider-response","102","635091","0.0-102.0","A3P8XKLTF07QZW","","","","","-50","","","","","","","","","","","","","","","","","","","","","",""
"3938","","image-button-response","103","640100","0.0-103.0","A3P8XKLTF07QZW","img_art/7.jpg","0","","","","","","","","","","","","","","","","","","","","","","","","",""
"754","","image-button-response","104","640866","0.0-104.0","A3P8XKLTF07QZW","img_art/7.jpg","1","","","","","","","","","","","","","","","","","","","","","","","","",""
"1508","","image-button-response","105","642381","0.0-105.0-0.0","A3P8XKLTF07QZW","img_art/7.jpg","0","","","","","","","","","","","","","","","","","","","","","","","","",""
"1560","","image-button-response","106","643949","0.0-106.0-0.0","A3P8XKLTF07QZW","img_art/7.jpg","2","","","","","","","","","","","","","","","","","","","","","","","","",""
"null","","html-keyboard-response","107","645453","0.0-107.0","A3P8XKLTF07QZW","<p style=""font-size: 48px;"">+</p>","","","","","null","allTrialResponses","1500","1","9","img_art/7.jpg","-50","Looks like a blurred sidewalk","Alyssa,Sara,Kayla,Kaylee,Lindsey,Haley","It looks like someone took a picture of a muddy ground and called it art.,-41,160,20","It feels cold and hard,-40,160,20","Dinosaur bones. Death.,-14,180,20","some rocks on a mars?,7,200,20","It's dirty. I don't mind the colors so much as the way they are put together in this dirty-looking pattern.,-41,400,20","Confusion, mild aversion,-36,220,20","Sara","It feels cold and hard,-40,160,20","Alyssa","It looks like someone took a picture of a muddy ground and called it art.,-41,160,20","Kayla","Dinosaur bones. Death.,-14,180,20","0"
"28651","","survey-text","108","674128","0.0-108.0-0.0","A3P8XKLTF07QZW","","","","{""Q0"":""Interesting, visually engaging""}","","","","","","","","","","","","","","","","","","","","","","",""
"4982.700000017881","","image-slider-response","109","679120","0.0-109.0","A3P8XKLTF07QZW","","","","","3","","","","","","","","","","","","","","","","","","","","","",""
"2752","","image-button-response","110","684133","0.0-110.0","A3P8XKLTF07QZW","img_art/10.jpg","0","","","","","","","","","","","","","","","","","","","","","","","","",""
"1425","","image-button-response","111","685570","0.0-111.0","A3P8XKLTF07QZW","img_art/10.jpg","3","","","","","","","","","","","","","","","","","","","","","","","","",""
"1641","","image-button-response","112","687222","0.0-112.0-0.0","A3P8XKLTF07QZW","img_art/10.jpg","4","","","","","","","","","","","","","","","","","","","","","","","","",""
"4319","","image-button-response","113","691553","0.0-113.0-0.0","A3P8XKLTF07QZW","img_art/10.jpg","5","","","","","","","","","","","","","","","","","","","","","","","","",""
"null","","html-keyboard-response","114","693059","0.0-114.0","A3P8XKLTF07QZW","<p style=""font-size: 48px;"">+</p>","","","","","null","allTrialResponses","1500","1","10","img_art/10.jpg","3","Interesting, visually engaging","Alyssa,Sara,Kayla,Alexa,Erika,Courtney","Bleak and uninteresting,-10,160,20","I don't like the colors,-20,160,20","The loop type thing reminds me of interconnectedness and life and hope.,12,180,20","Cute and has a vintage feel to it,45,40,20","Good texture, expressive,18,100,20","Thats a horses head,10,280,20","Alexa","Cute and has a vintage feel to it,45,40,20","Erika","Good texture, expressive,18,100,20","Courtney","Thats a horses head,10,280,20","0"
"5829","","survey-text","115","698924","0.0-115.0-0.0","A3P8XKLTF07QZW","","","","{""Q0"":""our""}","","","","","","","","","","","","","","","","","","","","","","",""
"17596","","survey-text","116","716526","0.0-116.0-0.0","A3P8XKLTF07QZW","","","","{""Q0"":""Too much going on, distracting""}","","","","","","","","","","","","","","","","","","","","","","",""
"7673.9000000059605","","image-slider-response","117","724207","0.0-117.0","A3P8XKLTF07QZW","","","","","-50","","","","","","","","","","","","","","","","","","","","","",""
"null","","image-button-response","118","729218","0.0-118.0","A3P8XKLTF07QZW","img_art/12.jpg","null","","","","","","","","","","","","","","","","","","","","","","","","",""
"4612","","image-button-response","119","733844","0.0-119.0","A3P8XKLTF07QZW","img_art/12.jpg","4","","","","","","","","","","","","","","","","","","","","","","","","",""
"2492","","image-button-response","120","736344","0.0-120.0-0.0","A3P8XKLTF07QZW","img_art/12.jpg","2","","","","","","","","","","","","","","","","","","","","","","","","",""
"1994","","image-button-response","121","738347","0.0-121.0-0.0","A3P8XKLTF07QZW","img_art/12.jpg","1","","","","","","","","","","","","","","","","","","","","","","","","",""
"null","","html-keyboard-response","122","739353","0.0-122.0","A3P8XKLTF07QZW","<p style=""font-size: 48px;"">+</p>","","","","","null","allTrialResponses","1000","1","11","img_art/12.jpg","-50","Too much going on, distracting","Anna,Makayla,Erin,Alexa,Erika,Courtney","Therapist wall art.,10,300,20","Reminds me Early 2000's decor, don't favor it,-10,80,20","City scape but palette is odd,4,120,20","I love the pattern and this looks like it took a good deal of effort,35,40,20","I don't like it, but I appreciate the effort and technique,11,100,20","That is a warn quilt grama made.,11,280,20","Erika","I don't like it, but I appreciate the effort and technique,11,100,20","Erin","City scape but palette is odd,4,120,20","Makayla","Reminds me Early 2000's decor, don't favor it,-10,80,20","0"
"18065","","survey-text","123","757442","0.0-123.0-0.0","A3P8XKLTF07QZW","","","","{""Q0"":""Interesting and varied subject matter""}","","","","","","","","","","","","","","","","","","","","","","",""
"5739.5","","image-slider-response","124","763187","0.0-124.0","A3P8XKLTF07QZW","","","","","27","","","","","","","","","","","","","","","","","","","","","",""
"4981","","image-button-response","125","768195","0.0-125.0","A3P8XKLTF07QZW","img_art/19.jpg","0","","","","","","","","","","","","","","","","","","","","","","","","",""
"2154","","image-button-response","126","770357","0.0-126.0","A3P8XKLTF07QZW","img_art/19.jpg","0","","","","","","","","","","","","","","","","","","","","","","","","",""
"2421","","image-button-response","127","772785","0.0-127.0-0.0","A3P8XKLTF07QZW","img_art/19.jpg","0","","","","","","","","","","","","","","","","","","","","","","","","",""
"3547","","image-button-response","128","781931","0.0-127.1-0.1","A3P8XKLTF07QZW","img_art/19.jpg","4","","","","","","","","","","","","","","","","","","","","","","","","",""
"4278","","image-button-response","129","786218","0.0-128.0-0.0","A3P8XKLTF07QZW","img_art/19.jpg","5","","","","","","","","","","","","","","","","","","","","","","","","",""
"null","","html-keyboard-response","130","786725","0.0-129.0","A3P8XKLTF07QZW","<p style=""font-size: 48px;"">+</p>","","","","","null","allTrialResponses","500","1","12","img_art/19.jpg","27","Interesting and varied subject matter","Dominique,Makayla,Erin,Madeline,Erika,Angela","I really like the colors and feel of this one and alot of life,41,400,20","Looks like hustle and bustle ,,3,80,20","Childish music hall,-20,120,20","Looks a bit too loose,-2,40,20","Very dreamlike,26,100,20","I like the colors but the scene itself feels too jumbled and cluttered,9,260,20","Dominique","I really like the colors and feel of this one and alot of life,41,400,20","Erika","Very dreamlike,26,100,20","Angela","I like the colors but the scene itself feels too jumbled and cluttered,9,260,20","2"
"39674","","survey-text","131","826428","0.0-130.0-0.0","A3P8XKLTF07QZW","","","","{""Q0"":""Simple, yet has purpose""}","","","","","","","","","","","","","","","","","","","","","","",""
"4803.5","","image-slider-response","132","831242","0.0-131.0","A3P8XKLTF07QZW","","","","","-8","","","","","","","","","","","","","","","","","","","","","",""
"3286","","image-button-response","133","836251","0.0-132.0","A3P8XKLTF07QZW","img_art/30.jpg","4","","","","","","","","","","","","","","","","","","","","","","","","",""
"1051","","image-button-response","134","837316","0.0-133.0","A3P8XKLTF07QZW","img_art/30.jpg","4","","","","","","","","","","","","","","","","","","","","","","","","",""
"3990","","image-button-response","135","841316","0.0-134.0-0.0","A3P8XKLTF07QZW","img_art/30.jpg","5","","","","","","","","","","","","","","","","","","","","","","","","",""
"3355","","image-button-response","136","844683","0.0-135.0-0.0","A3P8XKLTF07QZW","img_art/30.jpg","2","","","","","","","","","","","","","","","","","","","","","","","","",""
"null","","html-keyboard-response","137","845688","0.0-136.0","A3P8XKLTF07QZW","<p style=""font-size: 48px;"">+</p>","","","","","null","allTrialResponses","1000","1","13","img_art/30.jpg","-8","Simple, yet has purpose","Dominique,Caitlin,Amanda,Morgan,Erika,Angela","Personal , calming conservative signature business ideal.,32,400,20","My kid drew this same picture at daycare!!!,5,80,20","Love how the red stands out,20,180,20","Sleek eel in the abstract ocean.,30,380,20","I can't parse any intention or emotion,-17,100,20","Really don't like this piece. It feels very lazy to me.,-31,260,20","Erika","I can't parse any intention or emotion,-17,100,20","Angela","Really don't like this piece. It feels very lazy to me.,-31,260,20","Amanda","Love how the red stands out,20,180,20","2"
"18491","","survey-text","138","864201","0.0-137.0-0.0","A3P8XKLTF07QZW","","","","{""Q0"":""Dreamlike, but eery""}","","","","","","","","","","","","","","","","","","","","","","",""
"4829.0999999940395","","image-slider-response","139","869036","0.0-138.0","A3P8XKLTF07QZW","","","","","-30","","","","","","","","","","","","","","","","","","","","","",""
"3765","","image-button-response","140","874046","0.0-139.0","A3P8XKLTF07QZW","img_art/17.jpg","1","","","","","","","","","","","","","","","","","","","","","","","","",""
"2492","","image-button-response","141","876549","0.0-140.0","A3P8XKLTF07QZW","img_art/17.jpg","2","","","","","","","","","","","","","","","","","","","","","","","","",""
"6813","","image-button-response","142","883371","0.0-141.0-0.0","A3P8XKLTF07QZW","img_art/17.jpg","4","","","","","","","","","","","","","","","","","","","","","","","","",""
"1896","","image-button-response","143","885281","0.0-142.0-0.0","A3P8XKLTF07QZW","img_art/17.jpg","5","","","","","","","","","","","","","","","","","","","","","","","","",""
"null","","html-keyboard-response","144","886287","0.0-143.0","A3P8XKLTF07QZW","<p style=""font-size: 48px;"">+</p>","","","","","null","allTrialResponses","1000","1","14","img_art/17.jpg","-30","Dreamlike, but eery","Laura,Hannah,Amanda,Destiny,Erika,Angela","home - reminds me of fond memories of the Barnes Museum courtyard (looks just like it),30,320,20","Looks like an abandoned building that is being overtaken by nature.,-10,240,20","Feels supernatural and scary,-16,180,20","similar to last one, still pretty cool but I liked arrangement of last one better,13,360,20","I love vague, dreamlike styles,50,100,20","I like this, but it's a bit bland.,10,260,20","Amanda","Feels supernatural and scary,-16,180,20","Erika","I love vague, dreamlike styles,50,100,20","Angela","I like this, but it's a bit bland.,10,260,20","2"
"15437","","survey-text","145","901754","0.0-144.0-0.0","A3P8XKLTF07QZW","","","","{""Q0"":""Nice color, but too blurry""}","","","","","","","","","","","","","","","","","","","","","","",""
"6481","","image-slider-response","146","908240","0.0-145.0","A3P8XKLTF07QZW","","","","","-50","","","","","","","","","","","","","","","","","","","","","",""
"4083","","image-button-response","147","913252","0.0-146.0","A3P8XKLTF07QZW","img_art/22.jpg","2","","","","","","","","","","","","","","","","","","","","","","","","",""
"976","","image-button-response","148","914237","0.0-147.0","A3P8XKLTF07QZW","img_art/22.jpg","2","","","","","","","","","","","","","","","","","","","","","","","","",""
"4034","","image-button-response","149","918281","0.0-148.0-0.0","A3P8XKLTF07QZW","img_art/22.jpg","3","","","","","","","","","","","","","","","","","","","","","","","","",""
"3942","","image-button-response","150","922235","0.0-149.0-0.0","A3P8XKLTF07QZW","img_art/22.jpg","5","","","","","","","","","","","","","","","","","","","","","","","","",""
"null","","html-keyboard-response","151","923741","0.0-150.0","A3P8XKLTF07QZW","<p style=""font-size: 48px;"">+</p>","","","","","null","allTrialResponses","1500","1","15","img_art/22.jpg","-50","Nice color, but too blurry","Mary,Briana,Amanda,Chelsea,Erika,Angela","I do not like the color combo. This piece is too much the same throughout.,-1,180,20","Bright colors feel warm,22,400,20","Very generic, seen many times before,-43,180,20","The colors clash, and I don't know what is happening.,-23,180,20","Beautiful forms, using color to define shape,14,100,20","Like the colors. I enjoy looking at this one.,15,260,20","Amanda","Very generic, seen many times before,-43,180,20","Chelsea","The colors clash, and I don't know what is happening.,-23,180,20","Angela","Like the colors. I enjoy looking at this one.,15,260,20","2"
"7029","","survey-text","152","930804","0.0-151.0-0.0","A3P8XKLTF07QZW","","","","{""Q0"":""course""}","","","","","","","","","","","","","","","","","","","","","","",""
"17089","","survey-text","153","947899","0.0-152.0-0.0","A3P8XKLTF07QZW","","","","{""Q0"":""Fun to look at, nice border""}","","","","","","","","","","","","","","","","","","","","","","",""
"4897.5999999940395","","image-slider-response","154","952804","0.0-153.0","A3P8XKLTF07QZW","","","","","21","","","","","","","","","","","","","","","","","","","","","",""
"1909","","image-button-response","155","957813","0.0-154.0","A3P8XKLTF07QZW","img_art/29.jpg","4","","","","","","","","","","","","","","","","","","","","","","","","",""
"904","","image-button-response","156","958725","0.0-155.0","A3P8XKLTF07QZW","img_art/29.jpg","3","","","","","","","","","","","","","","","","","","","","","","","","",""
"1559","","image-button-response","157","960293","0.0-156.0-0.0","A3P8XKLTF07QZW","img_art/29.jpg","4","","","","","","","","","","","","","","","","","","","","","","","","",""
"2701","","image-button-response","158","963004","0.0-157.0-0.0","A3P8XKLTF07QZW","img_art/29.jpg","5","","","","","","","","","","","","","","","","","","","","","","","","",""
"null","","html-keyboard-response","159","963509","0.0-158.0","A3P8XKLTF07QZW","<p style=""font-size: 48px;"">+</p>","","","","","null","allTrialResponses","500","1","16","img_art/29.jpg","21","Fun to look at, nice border","Cassidy,Elizabeth,Amanda,Chelsea,Mariah,Angela","I like the colors but it looks very amateur,1,140,20","Has a haunting feel to it,22,20,20","Once again, very modern, activists will love,27,180,20","It is intriguing but I don't like the red X.,6,180,20","It feels like looking through layers of frustration.,19,140,20","I would like this piece better without the red X across it,-10,260,20","Chelsea","It is intriguing but I don't like the red X.,6,180,20","Mariah","It feels like looking through layers of frustration.,19,140,20","Angela","I would like this piece better without the red X across it,-10,260,20","2"
"24273","","survey-text","160","987806","0.0-159.0-0.0","A3P8XKLTF07QZW","","","","{""Q0"":""Looks like an abstract pear ,maybe""}","","","","","","","","","","","","","","","","","","","","","","",""
"5477.600000023842","","image-slider-response","161","993291","0.0-160.0","A3P8XKLTF07QZW","","","","","32","","","","","","","","","","","","","","","","","","","","","",""
"4323","","image-button-response","162","998299","0.0-161.0","A3P8XKLTF07QZW","img_art/5.jpg","4","","","","","","","","","","","","","","","","","","","","","","","","",""
"1344","","image-button-response","163","999654","0.0-162.0","A3P8XKLTF07QZW","img_art/5.jpg","4","","","","","","","","","","","","","","","","","","","","","","","","",""
"5504","","image-button-response","164","1005170","0.0-163.0-0.0","A3P8XKLTF07QZW","img_art/5.jpg","1","","","","","","","","","","","","","","","","","","","","","","","","",""
"3331","","image-button-response","165","1008511","0.0-164.0-0.0","A3P8XKLTF07QZW","img_art/5.jpg","0","","","","","","","","","","","","","","","","","","","","","","","","",""
"null","","html-keyboard-response","166","1009017","0.0-165.0","A3P8XKLTF07QZW","<p style=""font-size: 48px;"">+</p>","","","","","null","allTrialResponses","500","1","17","img_art/5.jpg","32","Looks like an abstract pear ,maybe","Julia,Sophia,Molly,Chelsea,Mariah,Angela","I like this one but wish it had more context around it,18,40,20","Looks like a tied up trash bag.,-10,280,20","Very non-dynamic painting, dislike it.,-10,340,20","I'm not sure what is going on here.,-46,180,20","It feels very strong and open.,31,140,20","I really dislike this. It's ugly and looks dirty.,-44,260,20","Mariah","It feels very strong and open.,31,140,20","Sophia","Looks like a tied up trash bag.,-10,280,20","Julia","I like this one but wish it had more context around it,18,40,20","2"
"17213","","survey-text","167","1026251","0.0-166.0-0.0","A3P8XKLTF07QZW","","","","{""Q0"":""Tribal feel, the color is too strong""}","","","","","","","","","","","","","","","","","","","","","","",""
"5537","","image-slider-response","168","1031795","0.0-167.0","A3P8XKLTF07QZW","","","","","-37","","","","","","","","","","","","","","","","","","","","","",""
"4476","","image-button-response","169","1036805","0.0-168.0","A3P8XKLTF07QZW","img_art/25.jpg","1","","","","","","","","","","","","","","","","","","","","","","","","",""
"1020","","image-button-response","170","1037836","0.0-169.0","A3P8XKLTF07QZW","img_art/25.jpg","1","","","","","","","","","","","","","","","","","","","","","","","","",""
"9155","","image-button-response","171","1047001","0.0-170.0-0.0","A3P8XKLTF07QZW","img_art/25.jpg","4","","","","","","","","","","","","","","","","","","","","","","","","",""
"2701","","image-button-response","172","1049712","0.0-171.0-0.0","A3P8XKLTF07QZW","img_art/25.jpg","5","","","","","","","","","","","","","","","","","","","","","","","","",""
"null","","html-keyboard-response","173","1050217","0.0-172.0","A3P8XKLTF07QZW","<p style=""font-size: 48px;"">+</p>","","","","","null","allTrialResponses","500","1","18","img_art/25.jpg","-37","Tribal feel, the color is too strong","Julia,Sophia,Alicia,Michelle,Mariah,Megan","the color is pleasing and draws out the contrast of the lines,10,40,20","This one just has a dark feeling to me.,-50,280,20","death. childish nightmare.,-29,120,20","I can get behind this but only because I like the green. it reminds me of a graveyard,11,280,20","The proportions are unpleasant.,-30,140,20","Beautiful color with an interesting otherworldly figure,29,200,20","Sophia","This one just has a dark feeling to me.,-50,280,20","Mariah","The proportions are unpleasant.,-30,140,20","Megan","Beautiful color with an interesting otherworldly figure,29,200,20","2"
"31440","","survey-text","174","1081681","0.0-173.0-0.0","A3P8XKLTF07QZW","","","","{""Q0"":""Nice color, looks like a ship in the water""}","","","","","","","","","","","","","","","","","","","","","","",""
"5669","","image-slider-response","175","1087358","0.0-174.0","A3P8XKLTF07QZW","","","","","42","","","","","","","","","","","","","","","","","","","","","",""
"null","","image-button-response","176","1092371","0.0-175.0","A3P8XKLTF07QZW","img_art/21.jpg","null","","","","","","","","","","","","","","","","","","","","","","","","",""
"421","","image-button-response","177","1092802","0.0-176.0","A3P8XKLTF07QZW","img_art/21.jpg","5","","","","","","","","","","","","","","","","","","","","","","","","",""
"4515","","image-button-response","178","1097329","0.0-177.0-0.0","A3P8XKLTF07QZW","img_art/21.jpg","4","","","","","","","","","","","","","","","","","","","","","","","","",""
"7334","","image-button-response","179","1104674","0.0-178.0-0.0","A3P8XKLTF07QZW","img_art/21.jpg","0","","","","","","","","","","","","","","","","","","","","","","","","",""
"null","","html-keyboard-response","180","1105179","0.0-179.0","A3P8XKLTF07QZW","<p style=""font-size: 48px;"">+</p>","","","","","null","allTrialResponses","500","1","19","img_art/21.jpg","42","Nice color, looks like a ship in the water","Kylie,Sophia,Cheyenne,Cynthia,Mariah,Megan","Makes me think of a battleship targeting a beautiful mountainside,0,300,20","Indifferent toward this one.,6,280,20","Don't see anything special about it,-21,200,20","mythical between good and evil,16,320,20","Motion, the light marks in the lower right corner are very appealing.,15,140,20","Nice asymmetry with maritime colors city meets the sea,34,200,20","Megan","Nice asymmetry with maritime colors city meets the sea,34,200,20","Mariah","Motion, the light marks in the lower right corner are very appealing.,15,140,20","Kylie","Makes me think of a battleship targeting a beautiful mountainside,0,300,20","2"
"15098","","survey-text","181","1120300","0.0-180.0-0.0","A3P8XKLTF07QZW","","","","{""Q0"":""Too much red, uneasy""}","","","","","","","","","","","","","","","","","","","","","","",""
"4433.5","","image-slider-response","182","1124739","0.0-181.0","A3P8XKLTF07QZW","","","","","-50","","","","","","","","","","","","","","","","","","","","","",""
"4901","","image-button-response","183","1129750","0.0-182.0","A3P8XKLTF07QZW","img_art/3.jpg","0","","","","","","","","","","","","","","","","","","","","","","","","",""
"864","","image-button-response","184","1130625","0.0-183.0","A3P8XKLTF07QZW","img_art/3.jpg","0","","","","","","","","","","","","","","","","","","","","","","","","",""
"5719","","image-button-response","185","1136354","0.0-184.0-0.0","A3P8XKLTF07QZW","img_art/3.jpg","3","","","","","","","","","","","","","","","","","","","","","","","","",""
"4192","","image-button-response","186","1140559","0.0-185.0-0.0","A3P8XKLTF07QZW","img_art/3.jpg","5","","","","","","","","","","","","","","","","","","","","","","","","",""
"null","","html-keyboard-response","187","1141065","0.0-186.0","A3P8XKLTF07QZW","<p style=""font-size: 48px;"">+</p>","","","","","null","allTrialResponses","500","1","20","img_art/3.jpg","-50","Too much red, uneasy","Kylie,Katelyn,Jamie,Jacqueline,Mariah,Megan","Confusion and mayhem,-10,300,20","No substance or feeling to it,-20,100,20","Looks like somebody squirted ketchup everywhere,-40,320,20","Looks like a bloody head with teeth.,-16,300,20","The composition keeps the eye moving, the colors are satisfying.,31,140,20","5 min scribble by a 3 year old,-46,200,20","Kylie","Confusion and mayhem,-10,300,20","Jacqueline","Looks like a bloody head with teeth.,-16,300,20","Megan","5 min scribble by a 3 year old,-46,200,20","2"
"5063","","survey-text","188","1146176","0.0-187.0-0.0","A3P8XKLTF07QZW","","","","{""Q0"":""we""}","","","","","","","","","","","","","","","","","","","","","","",""
"30717","","survey-text","189","1176899","0.0-188.0-0.0","A3P8XKLTF07QZW","","","","{""Q0"":""Look like someone sleeping in a cave room""}","","","","","","","","","","","","","","","","","","","","","","",""
"5938.0999999940395","","image-slider-response","190","1182843","0.0-189.0","A3P8XKLTF07QZW","","","","","26","","","","","","","","","","","","","","","","","","","","","",""
"3184","","image-button-response","191","1187855","0.0-190.0","A3P8XKLTF07QZW","img_art/9.jpg","0","","","","","","","","","","","","","","","","","","","","","","","","",""
"362","","image-button-response","192","1188228","0.0-191.0","A3P8XKLTF07QZW","img_art/9.jpg","0","","","","","","","","","","","","","","","","","","","","","","","","",""
"3980","","image-button-response","193","1192217","0.0-192.0-0.0","A3P8XKLTF07QZW","img_art/9.jpg","4","","","","","","","","","","","","","","","","","","","","","","","","",""
"8716","","image-button-response","194","1200943","0.0-193.0-0.0","A3P8XKLTF07QZW","img_art/9.jpg","2","","","","","","","","","","","","","","","","","","","","","","","","",""
"null","","html-keyboard-response","195","1201948","0.0-194.0","A3P8XKLTF07QZW","<p style=""font-size: 48px;"">+</p>","","","","","null","allTrialResponses","1000","1","21","img_art/9.jpg","26","Look like someone sleeping in a cave room","Kylie,Breanna,Melissa,Jacqueline,Rachel,Megan","Peaceful dreaming,40,300,20","It's a mix of paint splash and scribbling,-33,380,20","strong focal point, appealing use of selective line,11,240,20","Looks like a sloppy iguana.,-11,300,20","It looks like a lady taking a peaceful nap on a blanket in the grass.,41,80,20","A troubled painter was influenced by anger and mad at the woman in the middle, color not bad,-32,200,20","Kylie","Peaceful dreaming,40,300,20","Rachel","It looks like a lady taking a peaceful nap on a blanket in the grass.,41,80,20","Melissa","strong focal point, appealing use of selective line,11,240,20","2"
"17848","","survey-text","196","1219821","0.0-195.0-0.0","A3P8XKLTF07QZW","","","","{""Q0"":""Too commercial, not interesting""}","","","","","","","","","","","","","","","","","","","","","","",""
"5223","","image-slider-response","197","1225051","0.0-196.0","A3P8XKLTF07QZW","","","","","-50","","","","","","","","","","","","","","","","","","","","","",""
"4188","","image-button-response","198","1230062","0.0-197.0","A3P8XKLTF07QZW","img_art/13.jpg","1","","","","","","","","","","","","","","","","","","","","","","","","",""
"840","","image-button-response","199","1230911","0.0-198.0","A3P8XKLTF07QZW","img_art/13.jpg","1","","","","","","","","","","","","","","","","","","","","","","","","",""
"1955","","image-button-response","200","1232875","0.0-199.0-0.0","A3P8XKLTF07QZW","img_art/13.jpg","2","","","","","","","","","","","","","","","","","","","","","","","","",""
"9849","","image-button-response","201","1242737","0.0-200.0-0.0","A3P8XKLTF07QZW","img_art/13.jpg","3","","","","","","","","","","","","","","","","","","","","","","","","",""
"null","","html-keyboard-response","202","1244245","0.0-201.0","A3P8XKLTF07QZW","<p style=""font-size: 48px;"">+</p>","","","","","null","allTrialResponses","1500","1","22","img_art/13.jpg","-50","Too commercial, not interesting","Kylie,Bailey,Melissa,Diana,Rachel,Isabella","Very abstract and soothing,40,300,20","Looks like an upclose dried set of water droplets. Boring.,-25,360,20","feels sterile/manufactured,1,240,20","I really loved the color contrast. Having the white stripe in the center makes the it appear 3D.,11,380,20","Peaceful colors.,20,80,20","Rain drops on a window,35,280,20","Bailey","Looks like an upclose dried set of water droplets. Boring.,-25,360,20","Melissa","feels sterile/manufactured,1,240,20","Diana","I really loved the color contrast. Having the white stripe in the center makes the it appear 3D.,11,380,20","2"
"15165","","survey-text","203","1259436","0.0-202.0-0.0","A3P8XKLTF07QZW","","","","{""Q0"":""Too dense, no feeling""}","","","","","","","","","","","","","","","","","","","","","","",""
"6636.5","","image-slider-response","204","1266078","0.0-203.0","A3P8XKLTF07QZW","","","","","-2","","","","","","","","","","","","","","","","","","","","","",""
"null","","image-button-response","205","1271086","0.0-204.0","A3P8XKLTF07QZW","img_art/15.jpg","null","","","","","","","","","","","","","","","","","","","","","","","","",""
"619","","image-button-response","206","1271713","0.0-205.0","A3P8XKLTF07QZW","img_art/15.jpg","1","","","","","","","","","","","","","","","","","","","","","","","","",""
"2367","","image-button-response","207","1274087","0.0-206.0-0.0","A3P8XKLTF07QZW","img_art/15.jpg","2","","","","","","","","","","","","","","","","","","","","","","","","",""
"5654","","image-button-response","208","1279750","0.0-207.0-0.0","A3P8XKLTF07QZW","img_art/15.jpg","3","","","","","","","","","","","","","","","","","","","","","","","","",""
"null","","html-keyboard-response","209","1280755","0.0-208.0","A3P8XKLTF07QZW","<p style=""font-size: 48px;"">+</p>","","","","","null","allTrialResponses","1000","1","23","img_art/15.jpg","-2","Too dense, no feeling","Shelby,Bailey,Melissa,Diana,Catherine,Kaitlyn","This painting gives a calm vibe but no stronger emotions than that,10,240,20","This is passable, but personally it just has nothing I'd like to see.,-14,360,20","reminds me of birds in trees,14,240,20","There should be more space between the black marks. The black comes off harsh and the blue between the trees can barely be seen.,-21,380,20","ants on the ground playing with bubble gum. They may be thinking of how they can use it to build something,-30,160,20","Simplicity of colors is nice,11,80,20","Bailey","This is passable, but personally it just has nothing I'd like to see.,-14,360,20","Melissa","reminds me of birds in trees,14,240,20","Diana","There should be more space between the black marks. The black comes off harsh and the blue between the trees can barely be seen.,-21,380,20","2"
"12899","","survey-text","210","1293681","0.0-209.0-0.0","A3P8XKLTF07QZW","","","","{""Q0"":""Pretty and dreamy""}","","","","","","","","","","","","","","","","","","","","","","",""
"5336.9000000059605","","image-slider-response","211","1299025","0.0-210.0","A3P8XKLTF07QZW","","","","","21","","","","","","","","","","","","","","","","","","","","","",""
"4776","","image-button-response","212","1304038","0.0-211.0","A3P8XKLTF07QZW","img_art/24.jpg","4","","","","","","","","","","","","","","","","","","","","","","","","",""
"1977","","image-button-response","213","1306025","0.0-212.0","A3P8XKLTF07QZW","img_art/24.jpg","4","","","","","","","","","","","","","","","","","","","","","","","","",""
"2264","","image-button-response","214","1308299","0.0-213.0-0.0","A3P8XKLTF07QZW","img_art/24.jpg","3","","","","","","","","","","","","","","","","","","","","","","","","",""
"2818","","image-button-response","215","1311127","0.0-214.0-0.0","A3P8XKLTF07QZW","img_art/24.jpg","0","","","","","","","","","","","","","","","","","","","","","","","","",""
"null","","html-keyboard-response","216","1311632","0.0-215.0","A3P8XKLTF07QZW","<p style=""font-size: 48px;"">+</p>","","","","","null","allTrialResponses","500","1","24","img_art/24.jpg","21","Pretty and dreamy","Heather,Bailey,Melissa,Diana,Jessica,Brittany","i feel peace and wanting. i love waterfalls,50,260,20","Feels surreal, in a way, and vibrant,37,360,20","feels overdone, but still executed well,0,240,20","This is stunning. I love how the brown, red and oranges are blended in together.,40,380,20","Vibrant, beautiful depiction.,50,400,20","Nice colors, but doesn't do much for me.,1,40,20","Jessica","Vibrant, beautiful depiction.,50,400,20","Diana","This is stunning. I love how the brown, red and oranges are blended in together.,40,380,20","Heather","i feel peace and wanting. i love waterfalls,50,260,20","2"
"29069","","survey-text","217","1340726","0.0-216.0-0.0","A3P8XKLTF07QZW","","","","{""Q0"":""I like this, nice color and interesting, balanced""}","","","","","","","","","","","","","","","","","","","","","","",""
"5067.5999999940395","","image-slider-response","218","1345801","0.0-217.0","A3P8XKLTF07QZW","","","","","50","","","","","","","","","","","","","","","","","","","","","",""
"4680","","image-button-response","219","1350811","0.0-218.0","A3P8XKLTF07QZW","img_art/27.jpg","0","","","","","","","","","","","","","","","","","","","","","","","","",""
"1783","","image-button-response","220","1352606","0.0-219.0","A3P8XKLTF07QZW","img_art/27.jpg","0","","","","","","","","","","","","","","","","","","","","","","","","",""
"8827","","image-button-response","221","1361440","0.0-220.0-0.0","A3P8XKLTF07QZW","img_art/27.jpg","2","","","","","","","","","","","","","","","","","","","","","","","","",""
"2092","","image-button-response","222","1363545","0.0-221.0-0.0","A3P8XKLTF07QZW","img_art/27.jpg","1","","","","","","","","","","","","","","","","","","","","","","","","",""
"null","","html-keyboard-response","223","1364050","0.0-222.0","A3P8XKLTF07QZW","<p style=""font-size: 48px;"">+</p>","","","","","null","allTrialResponses","500","1","25","img_art/27.jpg","50","I like this, nice color and interesting, balanced","Heather,Kimberly,Sydney,Diana,Jessica,Monica","looks like a garden in between two storms.,33,260,20","Nothing stands out,-23,260,20","This piece reminds me of a summer day.,30,320,20","I don't care for the green scribbles; not sure what they are. But I adore the colors in the background.,24,380,20","Don't get the point of this piece that much, but it doesn't bug me,1,400,20","It tries to remind me of the autumn season but it's grey and looks dirty,-5,360,20","Heather","looks like a garden in between two storms.,33,260,20","Sydney","This piece reminds me of a summer day.,30,320,20","Kimberly","Nothing stands out,-23,260,20","2"
"5231","","survey-text","224","1369322","0.0-223.0-0.0","A3P8XKLTF07QZW","","","","{""Q0"":""table""}","","","","","","","","","","","","","","","","","","","","","","",""
"32474","","survey-text","225","1401803","0.0-224.0-0.0","A3P8XKLTF07QZW","","","","{""Q0"":""Reminds me of a chat at the cafe, I like the colors""}","","","","","","","","","","","","","","","","","","","","","","",""
"4913.200000017881","","image-slider-response","226","1406722","0.0-225.0","A3P8XKLTF07QZW","","","","","45","","","","","","","","","","","","","","","","","","","","","",""
"4682","","image-button-response","227","1411735","0.0-226.0","A3P8XKLTF07QZW","img_art/28.jpg","2","","","","","","","","","","","","","","","","","","","","","","","","",""
"3277","","image-button-response","228","1415027","0.0-227.0","A3P8XKLTF07QZW","img_art/28.jpg","5","","","","","","","","","","","","","","","","","","","","","","","","",""
"2813","","image-button-response","229","1417848","0.0-228.0-0.0","A3P8XKLTF07QZW","img_art/28.jpg","2","","","","","","","","","","","","","","","","","","","","","","","","",""
"9772","","image-button-response","230","1427631","0.0-229.0-0.0","A3P8XKLTF07QZW","img_art/28.jpg","4","","","","","","","","","","","","","","","","","","","","","","","","",""
"null","","html-keyboard-response","231","1428636","0.0-230.0","A3P8XKLTF07QZW","<p style=""font-size: 48px;"">+</p>","","","","","null","allTrialResponses","1000","1","26","img_art/28.jpg","45","Reminds me of a chat at the cafe, I like the colors","Heather,Kimberly,Sydney,Savannah,Alexandria,Madison","not sure what i feel but it makes me feel uncomfortable,1,260,20","The thing on the right is kind of weird/fetus-y,-12,260,20","I enjoy the colors.,25,320,20","White and dark balance is way off- Seems dull.,-33,200,20","no clear colors or meaning to evoke emotions,-15,80,20","It's okay. There is harmony and balance.,11,60,20","Madison","It's okay. There is harmony and balance.,11,60,20","Sydney","I enjoy the colors.,25,320,20","Alexandria","no clear colors or meaning to evoke emotions,-15,80,20","2"
"33870","","survey-text","232","1462540","0.0-231.0-0.0","A3P8XKLTF07QZW","","","","{""Q0"":""Reminds me of Kandinsky, looks professional""}","","","","","","","","","","","","","","","","","","","","","","",""
"4728.5999999940395","","image-slider-response","233","1467277","0.0-232.0","A3P8XKLTF07QZW","","","","","50","","","","","","","","","","","","","","","","","","","","","",""
"null","","image-button-response","234","1472286","0.0-233.0","A3P8XKLTF07QZW","img_art/18.jpg","null","","","","","","","","","","","","","","","","","","","","","","","","",""
"3264","","image-button-response","235","1475562","0.0-234.0","A3P8XKLTF07QZW","img_art/18.jpg","3","","","","","","","","","","","","","","","","","","","","","","","","",""
"4515","","image-button-response","236","1480089","0.0-235.0-0.0","A3P8XKLTF07QZW","img_art/18.jpg","4","","","","","","","","","","","","","","","","","","","","","","","","",""
"4914","","image-button-response","237","1485012","0.0-236.0-0.0","A3P8XKLTF07QZW","img_art/18.jpg","2","","","","","","","","","","","","","","","","","","","","","","","","",""
"null","","html-keyboard-response","238","1486017","0.0-237.0","A3P8XKLTF07QZW","<p style=""font-size: 48px;"">+</p>","","","","","null","allTrialResponses","1000","1","27","img_art/18.jpg","50","Reminds me of Kandinsky, looks professional","Olivia,Mikayla,Sydney,Rebecca,Alexandria,Madison","death rides in life,-25,40,20","Kinda boring. Not my favorite,-34,300,20","I like the colors being used, but I don't like the chaos in the middle of it.,20,320,20","reminds me of the little prince, with the color scheme and all,16,100,20","the harsh lines with the smooth lines makes me think of wild animals,20,80,20","Pleasant design and composition, unpleasant theme and focus.,-19,60,20","Rebecca","reminds me of the little prince, with the color scheme and all,16,100,20","Alexandria","the harsh lines with the smooth lines makes me think of wild animals,20,80,20","Sydney","I like the colors being used, but I don't like the chaos in the middle of it.,20,320,20","2"
"31412","","survey-text","239","1517461","0.0-238.0-0.0","A3P8XKLTF07QZW","","","","{""Q0"":""I like the abstract and the color, but it looks like a rough draft""}","","","","","","","","","","","","","","","","","","","","","","",""
"5583.300000011921","","image-slider-response","240","1523052","0.0-239.0","A3P8XKLTF07QZW","","","","","45","","","","","","","","","","","","","","","","","","","","","",""
"3767","","image-button-response","241","1528065","0.0-240.0","A3P8XKLTF07QZW","img_art/14.jpg","1","","","","","","","","","","","","","","","","","","","","","","","","",""
"1495","","image-button-response","242","1529574","0.0-241.0","A3P8XKLTF07QZW","img_art/14.jpg","1","","","","","","","","","","","","","","","","","","","","","","","","",""
"4568","","image-button-response","243","1534152","0.0-242.0-0.0","A3P8XKLTF07QZW","img_art/14.jpg","4","","","","","","","","","","","","","","","","","","","","","","","","",""
"2578","","image-button-response","244","1536741","0.0-243.0-0.0","A3P8XKLTF07QZW","img_art/14.jpg","3","","","","","","","","","","","","","","","","","","","","","","","","",""
"null","","html-keyboard-response","245","1537246","0.0-244.0","A3P8XKLTF07QZW","<p style=""font-size: 48px;"">+</p>","","","","","null","allTrialResponses","500","1","28","img_art/14.jpg","45","I like the abstract and the color, but it looks like a rough draft","Sierra,Marissa,Sydney,Rebecca,Alexandria,Hailey","it put me on edge.,-11,260,20","I like the sharpness of the lines,20,160,20","I'm imagining a flower bouquet with pretty colors which I like.,35,320,20","medium recalls back to an oriental style,16,100,20","looks like it's symbolizing rebirth which is hopeful,22,80,20","fuzzy and confused. ok then well,16,200,20","Marissa","I like the sharpness of the lines,20,160,20","Alexandria","looks like it's symbolizing rebirth which is hopeful,22,80,20","Rebecca","medium recalls back to an oriental style,16,100,20","2"
"40212","","survey-text","246","1577494","0.0-245.0-0.0","A3P8XKLTF07QZW","","","","{""Q0"":""Abstract, very nice, can be interpreted in many ways""}","","","","","","","","","","","","","","","","","","","","","","",""
"5356.0999999940395","","image-slider-response","247","1582856","0.0-246.0","A3P8XKLTF07QZW","","","","","50","","","","","","","","","","","","","","","","","","","","","",""
"null","","image-button-response","248","1587867","0.0-247.0","A3P8XKLTF07QZW","img_art/11.jpg","null","","","","","","","","","","","","","","","","","","","","","","","","",""
"3234","","image-button-response","249","1591115","0.0-248.0","A3P8XKLTF07QZW","img_art/11.jpg","3","","","","","","","","","","","","","","","","","","","","","","","","",""
"2203","","image-button-response","250","1593330","0.0-249.0-0.0","A3P8XKLTF07QZW","img_art/11.jpg","4","","","","","","","","","","","","","","","","","","","","","","","","",""
"5748","","image-button-response","251","1599092","0.0-250.0-0.0","A3P8XKLTF07QZW","img_art/11.jpg","5","","","","","","","","","","","","","","","","","","","","","","","","",""
"null","","html-keyboard-response","252","1600098","0.0-251.0","A3P8XKLTF07QZW","<p style=""font-size: 48px;"">+</p>","","","","","null","allTrialResponses","1000","1","29","img_art/11.jpg","50","Abstract, very nice, can be interpreted in many ways","Caroline,Marissa,Jenna,Rebecca,Alexandria,Claire","Makes me think of far away places and traveling. Makes me feel like wandering,20,100,20","I dislike how dark this is,-21,160,20","makes me think of city highways & bridges on a rainy, foggy day. I like the melancholy it evokes.,43,360,20","to me, perfect reflection of the modern commute,32,100,20","it reminds me of music,43,80,20","the wavy lines are nice and pleasing,13,260,20","Rebecca","to me, perfect reflection of the modern commute,32,100,20","Alexandria","it reminds me of music,43,80,20","Claire","the wavy lines are nice and pleasing,13,260,20","2"
"25004","","survey-text","253","1625127","0.0-252.0-0.0","A3P8XKLTF07QZW","","","","{""Q0"":""Moody abstract, nice color and composition""}","","","","","","","","","","","","","","","","","","","","","","",""
"4543.200000017881","","image-slider-response","254","1629679","0.0-253.0","A3P8XKLTF07QZW","","","","","50","","","","","","","","","","","","","","","","","","","","","",""
"3877","","image-button-response","255","1634689","0.0-254.0","A3P8XKLTF07QZW","img_art/20.jpg","3","","","","","","","","","","","","","","","","","","","","","","","","",""
"1264","","image-button-response","256","1635963","0.0-255.0","A3P8XKLTF07QZW","img_art/20.jpg","3","","","","","","","","","","","","","","","","","","","","","","","","",""
"3030","","image-button-response","257","1639005","0.0-256.0-0.0","A3P8XKLTF07QZW","img_art/20.jpg","5","","","","","","","","","","","","","","","","","","","","","","","","",""
"7363","","image-button-response","258","1646378","0.0-257.0-0.0","A3P8XKLTF07QZW","img_art/20.jpg","2","","","","","","","","","","","","","","","","","","","","","","","","",""
"null","","html-keyboard-response","259","1647384","0.0-258.0","A3P8XKLTF07QZW","<p style=""font-size: 48px;"">+</p>","","","","","null","allTrialResponses","1000","1","30","img_art/20.jpg","50","Moody abstract, nice color and composition","Vanessa,Kristen,Danielle,Rebecca,Alexandria,Claire","I like the deep blues, but I don't like the way this picture makes me feel.,-13,380,20","danger, car crash, stressful,-12,280,20","Don't really like the subject it focuses on, however the color usage is great,-10,340,20","reminds me of georgia o'keeffe's skull,22,100,20","it looks like a car crash which is depressing,-19,80,20","reminds me of Salvadore Dali,24,260,20","Rebecca","reminds me of georgia o'keeffe's skull,22,100,20","Claire","reminds me of Salvadore Dali,24,260,20","Danielle","Don't really like the subject it focuses on, however the color usage is great,-10,340,20","2"
