"rt","url","trial_type","trial_index","time_elapsed","internal_node_id","participant_id","stimulus","button_pressed","Name","responses","response","key_press","variableName","fixationTime","condition","trial","photo","subjectRating","subjectResponse","agentsNames","agent_1_Response","agent_2_Response","agent_3_Response","agent_4_Response","agent_5_Response","agent_6_Response","kept_1_name","kept_1_response","kept_2_name","kept_2_response","kept_3_name","kept_3_response","errorCounter"
"7836","external_page_harvard.html","external-html","0","7938","0.0-0.0","A3P9YXCVZEPKGG","","","","","","","","","","","","","","","","","","","","","","","","","","",""
"1455","","image-button-response","1","9395","0.0-1.0","A3P9YXCVZEPKGG","","0","","","","","","","","","","","","","","","","","","","","","","","","",""
"1611","","image-button-response","2","11009","0.0-2.0-0.0","A3P9YXCVZEPKGG","","1","phone","","","","","","","","","","","","","","","","","","","","","","","",""
"6519","","survey-text","3","17529","0.0-3.0-0.0","A3P9YXCVZEPKGG","","","","{""Q0"":""A3P9YXCVZEPKGG""}","","","","","","","","","","","","","","","","","","","","","","",""
"3798","","image-button-response_instructions","4","21330","0.0-4.0","A3P9YXCVZEPKGG","","0","instructions","","","","","","","","","","","","","","","","","","","","","","","",""
"14950","","image-button-response_instructions","5","36282","0.0-5.0","A3P9YXCVZEPKGG","img_art/ins/popularity/ins1.png","0","instructions","","","","","","","","","","","","","","","","","","","","","","","",""
"5079","","image-button-response_instructions","6","41362","0.0-6.0","A3P9YXCVZEPKGG","img_art/ins/popularity/ins2.png","0","instructions","","","","","","","","","","","","","","","","","","","","","","","",""
"2015","","image-button-response_instructions","7","43378","0.0-7.0","A3P9YXCVZEPKGG","img_art/ins/popularity/ins2Extreme.png","0","instructions","","","","","","","","","","","","","","","","","","","","","","","",""
"6703","","image-button-response_instructions","8","50083","0.0-8.0","A3P9YXCVZEPKGG","img_art/ins/popularity/ins3KEEPpop.PNG","0","instructions","","","","","","","","","","","","","","","","","","","","","","","",""
"1895","","image-button-response_instructions","9","51978","0.0-9.0","A3P9YXCVZEPKGG","img_art/ins/popularity/ins3ANamepop.PNG","0","instructions","","","","","","","","","","","","","","","","","","","","","","","",""
"4815","","image-button-response_instructions","10","56794","0.0-10.0","A3P9YXCVZEPKGG","img_art/ins/popularity/ins3ARatingpop.png","0","instructions","","","","","","","","","","","","","","","","","","","","","","","",""
"3911","","image-button-response_instructions","11","60707","0.0-11.0","A3P9YXCVZEPKGG","img_art/ins/popularity/ins3ATextpop.png","0","instructions","","","","","","","","","","","","","","","","","","","","","","","",""
"4072","","image-button-response_instructions","12","64780","0.0-12.0","A3P9YXCVZEPKGG","img_art/ins/popularity/ins3ALikespop.png","0","instructions","","","","","","","","","","","","","","","","","","","","","","","",""
"16702","","image-button-response_instructions","13","81483","0.0-13.0","A3P9YXCVZEPKGG","img_art/ins/popularity/ins3KEEPpop.PNG","0","instructions","","","","","","","","","","","","","","","","","","","","","","","",""
"12192","","image-button-response_instructions","14","93675","0.0-14.0","A3P9YXCVZEPKGG","img_art/ins/popularity/ins3_5RED.png","0","instructions","","","","","","","","","","","","","","","","","","","","","","","",""
"2519","","image-button-response_instructions","15","96196","0.0-15.0","A3P9YXCVZEPKGG","img_art/ins/popularity/ins3KEEPpop.PNG","0","instructions","","","","","","","","","","","","","","","","","","","","","","","",""
"10383","","image-button-response_instructions","16","106580","0.0-16.0","A3P9YXCVZEPKGG","img_art/ins/popularity/ins4KEEPpop.PNG","0","instructions","","","","","","","","","","","","","","","","","","","","","","","",""
"9624","","image-button-response_instructions","17","116204","0.0-17.0","A3P9YXCVZEPKGG","img_art/ins/popularity/ins5KEEPpop.PNG","0","instructions","","","","","","","","","","","","","","","","","","","","","","","",""
"2439","","image-button-response_instructions","18","118644","0.0-18.0","A3P9YXCVZEPKGG","","0","instructions","","","","","","","","","","","","","","","","","","","","","","","",""
"6598","","survey-text","19","125260","0.0-19.0-0.0","A3P9YXCVZEPKGG","","","","{""Q0"":""but""}","","","","","","","","","","","","","","","","","","","","","","",""
"40560","","survey-text","20","165822","0.0-20.0-0.0","A3P9YXCVZEPKGG","","","","{""Q0"":""this feels to me like a mix of attempted brush strokes and random line work, which is a little messy.""}","","","","","","","","","","","","","","","","","","","","","","",""
"4349.5","","image-slider-response","21","170174","0.0-21.0","A3P9YXCVZEPKGG","","","","","-8","","","","","","","","","","","","","","","","","","","","","",""
"null","","image-button-response","22","175178","0.0-22.0","A3P9YXCVZEPKGG","img_art/ins/1.jpg","null","","","","","","","","","","","","","","","","","","","","","","","","",""
"8026","","image-button-response","23","183206","0.0-23.0","A3P9YXCVZEPKGG","img_art/ins/1.jpg","0","","","","","","","","","","","","","","","","","","","","","","","","",""
"877","","image-button-response","24","184086","0.0-24.0-0.0","A3P9YXCVZEPKGG","img_art/ins/1.jpg","1","","","","","","","","","","","","","","","","","","","","","","","","",""
"1647","","image-button-response","25","185735","0.0-25.0-0.0","A3P9YXCVZEPKGG","img_art/ins/1.jpg","0","","","","","","","","","","","","","","","","","","","","","","","","",""
"10591","","image-button-response","26","200103","0.0-25.1-0.1","A3P9YXCVZEPKGG","img_art/ins/1.jpg","5","","","","","","","","","","","","","","","","","","","","","","","","",""
"null","","html-keyboard-response","27","201105","0.0-26.0","A3P9YXCVZEPKGG","<p style=""font-size: 48px;"">+</p>","","","","","null","allTrialResponses","1000","1","-2","img_art/ins/1.jpg","-8","this feels to me like a mix of attempted brush strokes and random line work, which is a little messy.","Adam,Alex,Ben,Carl,Daniel,Jack","Seems like doodles,-20,20,20","very creative work.,36,40,20","This color reminds me of poo,-46,60,20","very calming artwork,42,80,20","It looks like a murder scene.,-48,100,20","I like the sophisticated brushwork,40,120,20","Adam","Seems like doodles,-20,20,20","Alex","very creative work.,36,40,20","Jack","I like the sophisticated brushwork,40,120,20","2"
"16993","","survey-text","28","218103","0.0-27.0-0.0","A3P9YXCVZEPKGG","","","","{""Q0"":""I like how industrial this looks.""}","","","","","","","","","","","","","","","","","","","","","","",""
"2246.7999999988824","","image-slider-response","29","220351","0.0-28.0","A3P9YXCVZEPKGG","","","","","20","","","","","","","","","","","","","","","","","","","","","",""
"2359","","image-button-response","30","225353","0.0-29.0","A3P9YXCVZEPKGG","img_art/ins/2.jpg","4","","","","","","","","","","","","","","","","","","","","","","","","",""
"1661","","image-button-response","31","227016","0.0-30.0","A3P9YXCVZEPKGG","img_art/ins/2.jpg","4","","","","","","","","","","","","","","","","","","","","","","","","",""
"3822","","image-button-response","32","230840","0.0-31.0-0.0","A3P9YXCVZEPKGG","img_art/ins/2.jpg","5","","","","","","","","","","","","","","","","","","","","","","","","",""
"4726","","image-button-response","33","235568","0.0-32.0-0.0","A3P9YXCVZEPKGG","img_art/ins/2.jpg","1","","","","","","","","","","","","","","","","","","","","","","","","",""
"null","","html-keyboard-response","34","236071","0.0-33.0","A3P9YXCVZEPKGG","<p style=""font-size: 48px;"">+</p>","","","","","null","allTrialResponses","500","1","-1","img_art/ins/2.jpg","20","I like how industrial this looks.","Adam,Alex,Kyle,James,John,Jack","too much color,-18,20,20","I like the blocks of color arrangements,30,40,20","Idk, it is just annoying,-32,180,20","looks too angry,-50,140,20","love the texture of paint,48,160,20","I would never be able to compose a sophisticated pallete like this,48,120,20","John","love the texture of paint,48,160,20","Jack","I would never be able to compose a sophisticated pallete like this,48,120,20","Alex","I like the blocks of color arrangements,30,40,20","2"
"11174","","survey-text","35","247248","0.0-34.0-0.0","A3P9YXCVZEPKGG","","","","{""Q0"":""These looks like birds in the sky.""}","","","","","","","","","","","","","","","","","","","","","","",""
"1798.9000000003725","","image-slider-response","36","249048","0.0-35.0","A3P9YXCVZEPKGG","","","","","24","","","","","","","","","","","","","","","","","","","","","",""
"4911","","image-button-response","37","254050","0.0-36.0","A3P9YXCVZEPKGG","img_art/ins/3.jpg","3","","","","","","","","","","","","","","","","","","","","","","","","",""
"813","","image-button-response","38","254865","0.0-37.0","A3P9YXCVZEPKGG","img_art/ins/3.jpg","3","","","","","","","","","","","","","","","","","","","","","","","","",""
"7342","","image-button-response","39","262208","0.0-38.0-0.0","A3P9YXCVZEPKGG","img_art/ins/3.jpg","0","","","","","","","","","","","","","","","","","","","","","","","","",""
"4263","","image-button-response","40","266473","0.0-39.0-0.0","A3P9YXCVZEPKGG","img_art/ins/3.jpg","1","","","","","","","","","","","","","","","","","","","","","","","","",""
"null","","html-keyboard-response","41","266974","0.0-40.0","A3P9YXCVZEPKGG","<p style=""font-size: 48px;"">+</p>","","","","","null","allTrialResponses","500","1","0","img_art/ins/3.jpg","24","These looks like birds in the sky.","Sam,Alex,Ron,Mike,John,Jack","I can feel a rainy day from this painting,18,240,20","calming blue is very nice,36,40,20","It looks depressing,-26,220,20","enjoy the different shades of blue,22,200,20","I like the overlapping of brushes,41,160,20","I feel connected to the artist,40,120,20","Mike","enjoy the different shades of blue,22,200,20","Sam","I can feel a rainy day from this painting,18,240,20","Alex","calming blue is very nice,36,40,20","2"
"6183","","image-button-response_instructions","42","273161","0.0-41.0","A3P9YXCVZEPKGG","","0","instructions","","","","","","","","","","","","","","","","","","","","","","","",""
"9200","","survey-likert","43","282361","0.0-42.0-0.0","A3P9YXCVZEPKGG","","","","{""Q0"":"""",""Q1"":0,""Q2"":1}","","","","","","","","","","","","","","","","","","","","","","",""
"3555","","survey-text","44","285921","0.0-43.0-0.0","A3P9YXCVZEPKGG","","","","{""Q0"":""rock""}","","","","","","","","","","","","","","","","","","","","","","",""
"9527","","survey-text","45","295449","0.0-44.0-0.0","A3P9YXCVZEPKGG","","","","{""Q0"":""The line work is astounding""}","","","","","","","","","","","","","","","","","","","","","","",""
"2415.300000000745","","image-slider-response","46","297866","0.0-45.0","A3P9YXCVZEPKGG","","","","","40","","","","","","","","","","","","","","","","","","","","","",""
"null","","image-button-response","47","302884","0.0-46.0","A3P9YXCVZEPKGG","img_art/18.jpg","null","","","","","","","","","","","","","","","","","","","","","","","","",""
"8981","","image-button-response","48","311867","0.0-47.0","A3P9YXCVZEPKGG","img_art/18.jpg","3","","","","","","","","","","","","","","","","","","","","","","","","",""
"3470","","image-button-response","49","315338","0.0-48.0-0.0","A3P9YXCVZEPKGG","img_art/18.jpg","1","","","","","","","","","","","","","","","","","","","","","","","","",""
"2126","","image-button-response","50","317466","0.0-49.0-0.0","A3P9YXCVZEPKGG","img_art/18.jpg","0","","","","","","","","","","","","","","","","","","","","","","","","",""
"null","","html-keyboard-response","51","317968","0.0-50.0","A3P9YXCVZEPKGG","<p style=""font-size: 48px;"">+</p>","","","","","null","allTrialResponses","500","1","1","img_art/18.jpg","40","The line work is astounding","Richard,Jeffrey,Elijah,Brett,Patrick,Bryan","interesting piece, I like the horse and people inserted in spots,22,340,20","Makes me to look at it and investigate what it is about and what is going on,17,40,20","Makes me feel confused,16,80,20","Kind of weird in a confusing way,10,360,20","Too abstract and swirly,-21,280,20","First saw sailing ship in bad weather but then saw woman in upper left - not sure what I'm seeing.,21,400,20","Brett","Kind of weird in a confusing way,10,360,20","Jeffrey","Makes me to look at it and investigate what it is about and what is going on,17,40,20","Richard","interesting piece, I like the horse and people inserted in spots,22,340,20","2"
"21337","","survey-text","52","339307","0.0-51.0-0.0","A3P9YXCVZEPKGG","","","","{""Q0"":""This looks rather odd honestly""}","","","","","","","","","","","","","","","","","","","","","","",""
"2238","","image-slider-response","53","341546","0.0-52.0","A3P9YXCVZEPKGG","","","","","-17","","","","","","","","","","","","","","","","","","","","","",""
"3999","","image-button-response","54","346551","0.0-53.0","A3P9YXCVZEPKGG","img_art/5.jpg","2","","","","","","","","","","","","","","","","","","","","","","","","",""
"1803","","image-button-response","55","348355","0.0-54.0","A3P9YXCVZEPKGG","img_art/5.jpg","2","","","","","","","","","","","","","","","","","","","","","","","","",""
"10919","","image-button-response","56","359276","0.0-55.0-0.0","A3P9YXCVZEPKGG","img_art/5.jpg","5","","","","","","","","","","","","","","","","","","","","","","","","",""
"1814","","image-button-response","57","361092","0.0-56.0-0.0","A3P9YXCVZEPKGG","img_art/5.jpg","1","","","","","","","","","","","","","","","","","","","","","","","","",""
"null","","html-keyboard-response","58","362096","0.0-57.0","A3P9YXCVZEPKGG","<p style=""font-size: 48px;"">+</p>","","","","","null","allTrialResponses","1000","1","2","img_art/5.jpg","-17","This looks rather odd honestly","Richard,Jeffrey,Isaiah,Brett,Samuel,Gabriel","looks like a 2nd grader did it,-50,340,20","positive colours; yellow calls attention,6,40,20","I feel nothing looking at this.,-5,300,20","It reminds me of a piece of lemon candy, which is one of my favorite flavors,20,360,20","a brush in time,-14,400,20","too abstract, looks like a pyramid,-22,160,20","Isaiah","I feel nothing looking at this.,-5,300,20","Gabriel","too abstract, looks like a pyramid,-22,160,20","Jeffrey","positive colours; yellow calls attention,6,40,20","2"
"17049","","survey-text","59","379148","0.0-58.0-0.0","A3P9YXCVZEPKGG","","","","{""Q0"":""the colors are nice, but it looks jumbled together.""}","","","","","","","","","","","","","","","","","","","","","","",""
"3398.2999999988824","","image-slider-response","60","382548","0.0-59.0","A3P9YXCVZEPKGG","","","","","-24","","","","","","","","","","","","","","","","","","","","","",""
"4623","","image-button-response","61","387553","0.0-60.0","A3P9YXCVZEPKGG","img_art/2.jpg","5","","","","","","","","","","","","","","","","","","","","","","","","",""
"866","","image-button-response","62","388420","0.0-61.0","A3P9YXCVZEPKGG","img_art/2.jpg","3","","","","","","","","","","","","","","","","","","","","","","","","",""
"607","","image-button-response","63","389028","0.0-62.0-0.0","A3P9YXCVZEPKGG","img_art/2.jpg","5","","","","","","","","","","","","","","","","","","","","","","","","",""
"1607","","image-button-response","64","390636","0.0-63.0-0.0","A3P9YXCVZEPKGG","img_art/2.jpg","0","","","","","","","","","","","","","","","","","","","","","","","","",""
"null","","html-keyboard-response","65","392138","0.0-64.0","A3P9YXCVZEPKGG","<p style=""font-size: 48px;"">+</p>","","","","","null","allTrialResponses","1500","1","3","img_art/2.jpg","-24","the colors are nice, but it looks jumbled together.","Steven,Jeffrey,Isaiah,Caleb,Lucas,Gabriel","I can't get past the fact that it looks like someone wearing a mask,-46,160,20","positive, seems like someone really happy and colourful is looking at me,22,40,20","I feel claustrophobic. I'm looking at a busy shop, but the simple shapes and continuous colors make it hectic.,-8,300,20","Very gross colors. What were they thinking?,-47,40,20","Colorful, curious.,20,380,20","i dont like it, no thank you,-28,160,20","Caleb","Very gross colors. What were they thinking?,-47,40,20","Gabriel","i dont like it, no thank you,-28,160,20","Steven","I can't get past the fact that it looks like someone wearing a mask,-46,160,20","2"
"13002","","survey-text","66","405143","0.0-65.0-0.0","A3P9YXCVZEPKGG","","","","{""Q0"":""The emphasis of the lines and strokes is nice.""}","","","","","","","","","","","","","","","","","","","","","","",""
"1572.0999999996275","","image-slider-response","67","406717","0.0-66.0","A3P9YXCVZEPKGG","","","","","15","","","","","","","","","","","","","","","","","","","","","",""
"4951","","image-button-response","68","411720","0.0-67.0","A3P9YXCVZEPKGG","img_art/30.jpg","4","","","","","","","","","","","","","","","","","","","","","","","","",""
"818","","image-button-response","69","412541","0.0-68.0","A3P9YXCVZEPKGG","img_art/30.jpg","4","","","","","","","","","","","","","","","","","","","","","","","","",""
"2935","","image-button-response","70","415478","0.0-69.0-0.0","A3P9YXCVZEPKGG","img_art/30.jpg","2","","","","","","","","","","","","","","","","","","","","","","","","",""
"8006","","image-button-response","71","423485","0.0-70.0-0.0","A3P9YXCVZEPKGG","img_art/30.jpg","1","","","","","","","","","","","","","","","","","","","","","","","","",""
"null","","html-keyboard-response","72","424487","0.0-71.0","A3P9YXCVZEPKGG","<p style=""font-size: 48px;"">+</p>","","","","","null","allTrialResponses","1000","1","4","img_art/30.jpg","15","The emphasis of the lines and strokes is nice.","Steven,Robert,Juan,Caleb,Matthew,Gabriel","cant see the meaning behind it,-20,160,20","My kindergarten class could do this,-50,360,20","I like the red against the blue, but otherwise, it's not really my taste,4,260,20","Colors are nice but it just seems too simple.,-26,40,20","Decent abstract art, ncie colors.,23,120,20","dont like this much at all,-30,160,20","Matthew","Decent abstract art, ncie colors.,23,120,20","Juan","I like the red against the blue, but otherwise, it's not really my taste,4,260,20","Robert","My kindergarten class could do this,-50,360,20","2"
"36253","","survey-text","73","460743","0.0-72.0-0.0","A3P9YXCVZEPKGG","","","","{""Q0"":""This looks like a small insight to small opening offering opportunity.""}","","","","","","","","","","","","","","","","","","","","","","",""
"4541.0999999996275","","image-slider-response","74","465286","0.0-73.0","A3P9YXCVZEPKGG","","","","","20","","","","","","","","","","","","","","","","","","","","","",""
"1871","","image-button-response","75","470291","0.0-74.0","A3P9YXCVZEPKGG","img_art/11.jpg","5","","","","","","","","","","","","","","","","","","","","","","","","",""
"1410","","image-button-response","76","471703","0.0-75.0","A3P9YXCVZEPKGG","img_art/11.jpg","5","","","","","","","","","","","","","","","","","","","","","","","","",""
"3614","","image-button-response","77","475319","0.0-76.0-0.0","A3P9YXCVZEPKGG","img_art/11.jpg","4","","","","","","","","","","","","","","","","","","","","","","","","",""
"2638","","image-button-response","78","477959","0.0-77.0-0.0","A3P9YXCVZEPKGG","img_art/11.jpg","3","","","","","","","","","","","","","","","","","","","","","","","","",""
"null","","html-keyboard-response","79","478960","0.0-78.0","A3P9YXCVZEPKGG","<p style=""font-size: 48px;"">+</p>","","","","","null","allTrialResponses","1000","1","5","img_art/11.jpg","20","This looks like a small insight to small opening offering opportunity.","Antonio,Robert,Juan,Jesse,Matthew,Alejandro","Makes me think of far away places and traveling. Makes me feel like wandering,20,220,20","Rainy dreary day in a town.,7,360,20","It makes me think of a rainy day and I like the colors. Also like the wavy lines.,22,260,20","I like the dark lines and it interests me,13,80,20","Dark but bright, city but ocean, musical scales.,50,120,20","Enjoyed the lines representing different paths that encompass different entities,20,80,20","Alejandro","Enjoyed the lines representing different paths that encompass different entities,20,80,20","Matthew","Dark but bright, city but ocean, musical scales.,50,120,20","Jesse","I like the dark lines and it interests me,13,80,20","2"
"3697","","survey-text","80","482663","0.0-79.0-0.0","A3P9YXCVZEPKGG","","","","{""Q0"":""sky""}","","","","","","","","","","","","","","","","","","","","","","",""
"13792","","survey-text","81","496455","0.0-80.0-0.0","A3P9YXCVZEPKGG","","","","{""Q0"":""this looks to be a crashed vehicle""}","","","","","","","","","","","","","","","","","","","","","","",""
"3055","","image-slider-response","82","499511","0.0-81.0","A3P9YXCVZEPKGG","","","","","-9","","","","","","","","","","","","","","","","","","","","","",""
"null","","image-button-response","83","504513","0.0-82.0","A3P9YXCVZEPKGG","img_art/20.jpg","null","","","","","","","","","","","","","","","","","","","","","","","","",""
"2453","","image-button-response","84","506968","0.0-83.0","A3P9YXCVZEPKGG","img_art/20.jpg","0","","","","","","","","","","","","","","","","","","","","","","","","",""
"13024","","image-button-response","85","519993","0.0-84.0-0.0","A3P9YXCVZEPKGG","img_art/20.jpg","3","","","","","","","","","","","","","","","","","","","","","","","","",""
"2621","","image-button-response","86","522616","0.0-85.0-0.0","A3P9YXCVZEPKGG","img_art/20.jpg","2","","","","","","","","","","","","","","","","","","","","","","","","",""
"null","","html-keyboard-response","87","524118","0.0-86.0","A3P9YXCVZEPKGG","<p style=""font-size: 48px;"">+</p>","","","","","null","allTrialResponses","1500","1","6","img_art/20.jpg","-9","this looks to be a crashed vehicle","Timothy,John,Cole,Jesse,Matthew,Alejandro","Makes me think if a car crash or some sort of disaster,-20,240,20","Its interesting.It almost seems like a painting of a landscape,14,120,20","Someone trying to be dali,-15,200,20","I do at least like the dark colors blending,6,80,20","Painting within a painting, abstract.,32,120,20","The pulling and sagging nature is very beautiful.,30,80,20","Timothy","Makes me think if a car crash or some sort of disaster,-20,240,20","Jesse","I do at least like the dark colors blending,6,80,20","Cole","Someone trying to be dali,-15,200,20","2"
"17564","","survey-text","88","541685","0.0-87.0-0.0","A3P9YXCVZEPKGG","","","","{""Q0"":""This looks like a scratch pad honestly.""}","","","","","","","","","","","","","","","","","","","","","","",""
"2214.5999999996275","","image-slider-response","89","543901","0.0-88.0","A3P9YXCVZEPKGG","","","","","-29","","","","","","","","","","","","","","","","","","","","","",""
"2007","","image-button-response","90","548902","0.0-89.0","A3P9YXCVZEPKGG","img_art/28.jpg","2","","","","","","","","","","","","","","","","","","","","","","","","",""
"4622","","image-button-response","91","553526","0.0-90.0","A3P9YXCVZEPKGG","img_art/28.jpg","3","","","","","","","","","","","","","","","","","","","","","","","","",""
"1132","","image-button-response","92","554661","0.0-91.0-0.0","A3P9YXCVZEPKGG","img_art/28.jpg","2","","","","","","","","","","","","","","","","","","","","","","","","",""
"2493","","image-button-response","93","557157","0.0-92.0-0.0","A3P9YXCVZEPKGG","img_art/28.jpg","4","","","","","","","","","","","","","","","","","","","","","","","","",""
"null","","html-keyboard-response","94","558660","0.0-93.0","A3P9YXCVZEPKGG","<p style=""font-size: 48px;"">+</p>","","","","","null","allTrialResponses","1500","1","7","img_art/28.jpg","-29","This looks like a scratch pad honestly.","Timothy,Derek,Cole,Jesse,Travis,Shawn","This one gives me an uneasy feeling,-10,240,20","The colors are dull but there's some kind of nostalgic essence of this painting,15,360,20","Is this anything?,-20,200,20","Just all blurs together for me. No substance.,-23,80,20","Hate it...brown and drab,-37,260,20","Evocative but a little dreary.,20,100,20","Jesse","Just all blurs together for me. No substance.,-23,80,20","Cole","Is this anything?,-20,200,20","Travis","Hate it...brown and drab,-37,260,20","2"
"16446","","survey-text","95","575109","0.0-94.0-0.0","A3P9YXCVZEPKGG","","","","{""Q0"":""This reminds me of a soft sunset and autumn""}","","","","","","","","","","","","","","","","","","","","","","",""
"2350.7000000011176","","image-slider-response","96","577461","0.0-95.0","A3P9YXCVZEPKGG","","","","","34","","","","","","","","","","","","","","","","","","","","","",""
"null","","image-button-response","97","582463","0.0-96.0","A3P9YXCVZEPKGG","img_art/21.jpg","null","","","","","","","","","","","","","","","","","","","","","","","","",""
"582","","image-button-response","98","583045","0.0-97.0","A3P9YXCVZEPKGG","img_art/21.jpg","1","","","","","","","","","","","","","","","","","","","","","","","","",""
"2415","","image-button-response","99","585461","0.0-98.0-0.0","A3P9YXCVZEPKGG","img_art/21.jpg","4","","","","","","","","","","","","","","","","","","","","","","","","",""
"1711","","image-button-response","100","587174","0.0-99.0-0.0","A3P9YXCVZEPKGG","img_art/21.jpg","5","","","","","","","","","","","","","","","","","","","","","","","","",""
"null","","html-keyboard-response","101","588180","0.0-100.0","A3P9YXCVZEPKGG","<p style=""font-size: 48px;"">+</p>","","","","","null","allTrialResponses","1000","1","8","img_art/21.jpg","34","This reminds me of a soft sunset and autumn","Nathaniel,Jake,Cole,Jesse,Travis,Christian","Looks like two ships on fire. Cool image.,12,220,20","It looks epic and is nice to look at in terms of colors/style.,23,360,20","Unfinished. Confusing to look at,-12,200,20","I dont like how nothing is defined and the colors dont work for me,-5,80,20","I liked it...it looked like a storm raging.,12,260,20","stormy with gold lining,0,140,20","Jake","It looks epic and is nice to look at in terms of colors/style.,23,360,20","Travis","I liked it...it looked like a storm raging.,12,260,20","Christian","stormy with gold lining,0,140,20","2"
"22325","","survey-text","102","610510","0.0-101.0-0.0","A3P9YXCVZEPKGG","","","","{""Q0"":""This looks abandoned""}","","","","","","","","","","","","","","","","","","","","","","",""
"2983.2999999988824","","image-slider-response","103","613494","0.0-102.0","A3P9YXCVZEPKGG","","","","","-8","","","","","","","","","","","","","","","","","","","","","",""
"null","","image-button-response","104","618496","0.0-103.0","A3P9YXCVZEPKGG","img_art/29.jpg","null","","","","","","","","","","","","","","","","","","","","","","","","",""
"1030","","image-button-response","105","619528","0.0-104.0","A3P9YXCVZEPKGG","img_art/29.jpg","2","","","","","","","","","","","","","","","","","","","","","","","","",""
"2997","","image-button-response","106","622527","0.0-105.0-0.0","A3P9YXCVZEPKGG","img_art/29.jpg","0","","","","","","","","","","","","","","","","","","","","","","","","",""
"3454","","image-button-response","107","625983","0.0-106.0-0.0","A3P9YXCVZEPKGG","img_art/29.jpg","3","","","","","","","","","","","","","","","","","","","","","","","","",""
"null","","html-keyboard-response","108","627488","0.0-107.0","A3P9YXCVZEPKGG","<p style=""font-size: 48px;"">+</p>","","","","","null","allTrialResponses","1500","1","9","img_art/29.jpg","-8","This looks abandoned","Mason,Jake,Zachary,Dustin,Travis,Christian","easy, too abstract for me, don't get it.,-25,100,20","This is very gross and odd looking.,-8,360,20","It looks like someone did not like their art and drew an x over it.,-32,400,20","Don't get it! Too dark and random. Perhaps it was the start of something but the artist stopped and cancelled out the work.,-50,20,20","Neural...just a blackboard jungle.,3,260,20","love the texture, i don't know, i just really like it (and the paintbrush adds a nice touch),44,140,20","Zachary","It looks like someone did not like their art and drew an x over it.,-32,400,20","Mason","easy, too abstract for me, don't get it.,-25,100,20","Dustin","Don't get it! Too dark and random. Perhaps it was the start of something but the artist stopped and cancelled out the work.,-50,20,20","2"
"20259","","survey-text","109","647751","0.0-108.0-0.0","A3P9YXCVZEPKGG","","","","{""Q0"":""I like the rough sketch lines.""}","","","","","","","","","","","","","","","","","","","","","","",""
"2134.800000000745","","image-slider-response","110","649887","0.0-109.0","A3P9YXCVZEPKGG","","","","","8","","","","","","","","","","","","","","","","","","","","","",""
"null","","image-button-response","111","654892","0.0-110.0","A3P9YXCVZEPKGG","img_art/25.jpg","null","","","","","","","","","","","","","","","","","","","","","","","","",""
"131","","image-button-response","112","655024","0.0-111.0","A3P9YXCVZEPKGG","img_art/25.jpg","1","","","","","","","","","","","","","","","","","","","","","","","","",""
"4094","","image-button-response","113","659120","0.0-112.0-0.0","A3P9YXCVZEPKGG","img_art/25.jpg","5","","","","","","","","","","","","","","","","","","","","","","","","",""
"1910","","image-button-response","114","661032","0.0-113.0-0.0","A3P9YXCVZEPKGG","img_art/25.jpg","3","","","","","","","","","","","","","","","","","","","","","","","","",""
"null","","html-keyboard-response","115","662035","0.0-114.0","A3P9YXCVZEPKGG","<p style=""font-size: 48px;"">+</p>","","","","","null","allTrialResponses","1000","1","10","img_art/25.jpg","8","I like the rough sketch lines.","Mason,Luis,Zachary,Dustin,Gregory,Mark","death. childish nightmare.,-29,100,20","New life, rising from your personal battles,50,400,20","I like the green color, but the combination of green and a person with a long neck reminds me of aliens,-27,400,20","Reminds me of ancient civilization art. I like the aqua color; soothing to me.,1,20,20","Cool color scheme and appears to be a statue of some type of revered god,40,220,20","Looks like Burning Man, dont care for the colors.,-5,80,20","Luis","New life, rising from your personal battles,50,400,20","Mark","Looks like Burning Man, dont care for the colors.,-5,80,20","Dustin","Reminds me of ancient civilization art. I like the aqua color; soothing to me.,1,20,20","2"
"3560","","survey-text","116","665599","0.0-115.0-0.0","A3P9YXCVZEPKGG","","","","{""Q0"":""our""}","","","","","","","","","","","","","","","","","","","","","","",""
"9607","","survey-text","117","675208","0.0-116.0-0.0","A3P9YXCVZEPKGG","","","","{""Q0"":""The color dynamics are wonderful""}","","","","","","","","","","","","","","","","","","","","","","",""
"1366.800000000745","","image-slider-response","118","676576","0.0-117.0","A3P9YXCVZEPKGG","","","","","40","","","","","","","","","","","","","","","","","","","","","",""
"null","","image-button-response","119","681580","0.0-118.0","A3P9YXCVZEPKGG","img_art/13.jpg","null","","","","","","","","","","","","","","","","","","","","","","","","",""
"747","","image-button-response","120","682329","0.0-119.0","A3P9YXCVZEPKGG","img_art/13.jpg","5","","","","","","","","","","","","","","","","","","","","","","","","",""
"6686","","image-button-response","121","689016","0.0-120.0-0.0","A3P9YXCVZEPKGG","img_art/13.jpg","1","","","","","","","","","","","","","","","","","","","","","","","","",""
"735","","image-button-response","122","689752","0.0-121.0-0.0","A3P9YXCVZEPKGG","img_art/13.jpg","0","","","","","","","","","","","","","","","","","","","","","","","","",""
"null","","html-keyboard-response","123","690253","0.0-122.0","A3P9YXCVZEPKGG","<p style=""font-size: 48px;"">+</p>","","","","","null","allTrialResponses","500","1","11","img_art/13.jpg","40","The color dynamics are wonderful","Michael,Luis,Garrett,Dustin,Dakota,Mark","I don't car for it but it does seem organized and like it took considereably more skill that others.,9,140,20","I love the edgy nature,50,400,20","It looks like someone splattered a bunch of different colors to make a picture; I think its ugly.,-40,180,20","Cool and calming colors. I like splatter art.,10,20,20","water on my shower curtain - I feel refreshed, renewed,9,280,20","Raindrops on a window. Makes me feel like traveling.,31,80,20","Mark","Raindrops on a window. Makes me feel like traveling.,31,80,20","Luis","I love the edgy nature,50,400,20","Michael","I don't car for it but it does seem organized and like it took considereably more skill that others.,9,140,20","2"
"12369","","survey-text","124","702625","0.0-123.0-0.0","A3P9YXCVZEPKGG","","","","{""Q0"":""a mix of a sunset and a skyline to me.""}","","","","","","","","","","","","","","","","","","","","","","",""
"2454.2999999988824","","image-slider-response","125","705080","0.0-124.0","A3P9YXCVZEPKGG","","","","","12","","","","","","","","","","","","","","","","","","","","","",""
"null","","image-button-response","126","710082","0.0-125.0","A3P9YXCVZEPKGG","img_art/22.jpg","null","","","","","","","","","","","","","","","","","","","","","","","","",""
"1589","","image-button-response","127","711673","0.0-126.0","A3P9YXCVZEPKGG","img_art/22.jpg","0","","","","","","","","","","","","","","","","","","","","","","","","",""
"2752","","image-button-response","128","714425","0.0-127.0-0.0","A3P9YXCVZEPKGG","img_art/22.jpg","4","","","","","","","","","","","","","","","","","","","","","","","","",""
"3872","","image-button-response","129","718299","0.0-128.0-0.0","A3P9YXCVZEPKGG","img_art/22.jpg","3","","","","","","","","","","","","","","","","","","","","","","","","",""
"null","","html-keyboard-response","130","718800","0.0-129.0","A3P9YXCVZEPKGG","<p style=""font-size: 48px;"">+</p>","","","","","null","allTrialResponses","500","1","12","img_art/22.jpg","12","a mix of a sunset and a skyline to me.","Michael,Luis,Connor,Malik,Alexander,Mark","There is some flow and organization.,10,140,20","Just not feeling it,-19,400,20","Seems dated with geometic forms,-20,240,20","Beautiful forms, using color to define shape,14,40,20","Glowing city of many emotions.,10,120,20","I don't feel much of anything.,0,80,20","Michael","There is some flow and organization.,10,140,20","Alexander","Glowing city of many emotions.,10,120,20","Malik","Beautiful forms, using color to define shape,14,40,20","2"
"10909","","survey-text","131","729713","0.0-130.0-0.0","A3P9YXCVZEPKGG","","","","{""Q0"":""this reminds me of a field.""}","","","","","","","","","","","","","","","","","","","","","","",""
"2286.7000000011176","","image-slider-response","132","732001","0.0-131.0","A3P9YXCVZEPKGG","","","","","8","","","","","","","","","","","","","","","","","","","","","",""
"null","","image-button-response","133","737006","0.0-132.0","A3P9YXCVZEPKGG","img_art/27.jpg","null","","","","","","","","","","","","","","","","","","","","","","","","",""
"554","","image-button-response","134","737562","0.0-133.0","A3P9YXCVZEPKGG","img_art/27.jpg","4","","","","","","","","","","","","","","","","","","","","","","","","",""
"470","","image-button-response","135","738034","0.0-134.0-0.0","A3P9YXCVZEPKGG","img_art/27.jpg","5","","","","","","","","","","","","","","","","","","","","","","","","",""
"2566","","image-button-response","136","740602","0.0-135.0-0.0","A3P9YXCVZEPKGG","img_art/27.jpg","1","","","","","","","","","","","","","","","","","","","","","","","","",""
"null","","html-keyboard-response","137","742105","0.0-136.0","A3P9YXCVZEPKGG","<p style=""font-size: 48px;"">+</p>","","","","","null","allTrialResponses","1500","1","13","img_art/27.jpg","8","this reminds me of a field.","Michael,Edward,Dalton,Malik,Alexander,Eric","Anyone could do that.,-31,140,20","It looks like a kid colored a picture and an adult added to it,19,60,20","looks like a garden in between two storms.,33,300,20","Nice color, but too vague,-12,40,20","Messy field of various plants.,-5,120,20","This piece reminds me of a summer day.,30,100,20","Alexander","Messy field of various plants.,-5,120,20","Eric","This piece reminds me of a summer day.,30,100,20","Edward","It looks like a kid colored a picture and an adult added to it,19,60,20","2"
"14214","","survey-text","138","756323","0.0-137.0-0.0","A3P9YXCVZEPKGG","","","","{""Q0"":""The color and brush work is wonderful.""}","","","","","","","","","","","","","","","","","","","","","","",""
"1798.1000000014901","","image-slider-response","139","758123","0.0-138.0","A3P9YXCVZEPKGG","","","","","34","","","","","","","","","","","","","","","","","","","","","",""
"null","","image-button-response","140","763125","0.0-139.0","A3P9YXCVZEPKGG","img_art/24.jpg","null","","","","","","","","","","","","","","","","","","","","","","","","",""
"868","","image-button-response","141","763995","0.0-140.0","A3P9YXCVZEPKGG","img_art/24.jpg","3","","","","","","","","","","","","","","","","","","","","","","","","",""
"1838","","image-button-response","142","765834","0.0-141.0-0.0","A3P9YXCVZEPKGG","img_art/24.jpg","1","","","","","","","","","","","","","","","","","","","","","","","","",""
"623","","image-button-response","143","766459","0.0-142.0-0.0","A3P9YXCVZEPKGG","img_art/24.jpg","2","","","","","","","","","","","","","","","","","","","","","","","","",""
"null","","html-keyboard-response","144","766959","0.0-143.0","A3P9YXCVZEPKGG","<p style=""font-size: 48px;"">+</p>","","","","","null","allTrialResponses","500","1","14","img_art/24.jpg","34","The color and brush work is wonderful.","Charles,Edward,Jorge,Paul,Alexander,Eric","It just feels a little bland for me,-23,100,20","Very pretty and soft,37,60,20","Interested in visiting this place,18,180,20","It looks alive, like I can hear the water flowing,41,300,20","Water through the fruit.,15,120,20","I'm reminded of a waterfall, but I feel like it could've been better portrayed.,5,100,20","Paul","It looks alive, like I can hear the water flowing,41,300,20","Edward","Very pretty and soft,37,60,20","Jorge","Interested in visiting this place,18,180,20","2"
"14849","","survey-text","145","781811","0.0-144.0-0.0","A3P9YXCVZEPKGG","","","","{""Q0"":""A pieced together society.""}","","","","","","","","","","","","","","","","","","","","","","",""
"1902.2000000011176","","image-slider-response","146","783715","0.0-145.0","A3P9YXCVZEPKGG","","","","","9","","","","","","","","","","","","","","","","","","","","","",""
"null","","image-button-response","147","788717","0.0-146.0","A3P9YXCVZEPKGG","img_art/8.jpg","null","","","","","","","","","","","","","","","","","","","","","","","","",""
"726","","image-button-response","148","789443","0.0-147.0","A3P9YXCVZEPKGG","img_art/8.jpg","2","","","","","","","","","","","","","","","","","","","","","","","","",""
"5880","","image-button-response","149","795325","0.0-148.0-0.0","A3P9YXCVZEPKGG","img_art/8.jpg","4","","","","","","","","","","","","","","","","","","","","","","","","",""
"1352","","image-button-response","150","796679","0.0-149.0-0.0","A3P9YXCVZEPKGG","img_art/8.jpg","5","","","","","","","","","","","","","","","","","","","","","","","","",""
"null","","html-keyboard-response","151","797184","0.0-150.0","A3P9YXCVZEPKGG","<p style=""font-size: 48px;"">+</p>","","","","","null","allTrialResponses","500","1","15","img_art/8.jpg","9","A pieced together society.","Angel,Edward,Jorge,Paul,Alex,Joseph","The angle makes it kind of disorienting but I enjoy the fantastical colors and imagery. It's like a dream.,10,180,20","It's too boxy for my taste,-10,60,20","New power in the community,22,180,20","The faces in the upper left show agony and contrast with the geometric shapes too much,-31,300,20","I appreciate the complexity of this piece but it's too cubist for me,3,100,20","The faces are kinda freaky.,-17,220,20","Jorge","New power in the community,22,180,20","Alex","I appreciate the complexity of this piece but it's too cubist for me,3,100,20","Joseph","The faces are kinda freaky.,-17,220,20","2"
"4575","","survey-text","152","801764","0.0-151.0-0.0","A3P9YXCVZEPKGG","","","","{""Q0"":""course""}","","","","","","","","","","","","","","","","","","","","","","",""
"13176","","survey-text","153","814940","0.0-152.0-0.0","A3P9YXCVZEPKGG","","","","{""Q0"":""I get the feeling of a fire from this.""}","","","","","","","","","","","","","","","","","","","","","","",""
"2606.39999999851","","image-slider-response","154","817548","0.0-153.0","A3P9YXCVZEPKGG","","","","","-4","","","","","","","","","","","","","","","","","","","","","",""
"null","","image-button-response","155","822550","0.0-154.0","A3P9YXCVZEPKGG","img_art/1.jpg","null","","","","","","","","","","","","","","","","","","","","","","","","",""
"1837","","image-button-response","156","824388","0.0-155.0","A3P9YXCVZEPKGG","img_art/1.jpg","0","","","","","","","","","","","","","","","","","","","","","","","","",""
"2231","","image-button-response","157","826620","0.0-156.0-0.0","A3P9YXCVZEPKGG","img_art/1.jpg","4","","","","","","","","","","","","","","","","","","","","","","","","",""
"1151","","image-button-response","158","827772","0.0-157.0-0.0","A3P9YXCVZEPKGG","img_art/1.jpg","3","","","","","","","","","","","","","","","","","","","","","","","","",""
"null","","html-keyboard-response","159","828273","0.0-158.0","A3P9YXCVZEPKGG","<p style=""font-size: 48px;"">+</p>","","","","","null","allTrialResponses","500","1","16","img_art/1.jpg","-4","I get the feeling of a fire from this.","Brian,Joshua,Jorge,Thomas,Alex,Joseph","I don't feel like much is happening in this painting,-25,380,20","Reminds me of fall.,7,240,20","fishing on the lake surrounded by trees,42,180,20","Pleasant, but a tad too monochromatic in some areas for my taste,7,220,20","Random paint does not make art,-5,100,20","Happy! Reminds me of hiking in tennesee.,18,220,20","Brian","I don't feel like much is happening in this painting,-25,380,20","Alex","Random paint does not make art,-5,100,20","Thomas","Pleasant, but a tad too monochromatic in some areas for my taste,7,220,20","2"
"19783","","survey-text","160","848061","0.0-159.0-0.0","A3P9YXCVZEPKGG","","","","{""Q0"":""Smoke from a smoke stack""}","","","","","","","","","","","","","","","","","","","","","","",""
"3486.800000000745","","image-slider-response","161","851549","0.0-160.0","A3P9YXCVZEPKGG","","","","","2","","","","","","","","","","","","","","","","","","","","","",""
"null","","image-button-response","162","856551","0.0-161.0","A3P9YXCVZEPKGG","img_art/4.jpg","null","","","","","","","","","","","","","","","","","","","","","","","","",""
"765","","image-button-response","163","857318","0.0-162.0","A3P9YXCVZEPKGG","img_art/4.jpg","0","","","","","","","","","","","","","","","","","","","","","","","","",""
"1302","","image-button-response","164","858621","0.0-163.0-0.0","A3P9YXCVZEPKGG","img_art/4.jpg","1","","","","","","","","","","","","","","","","","","","","","","","","",""
"5079","","image-button-response","165","863702","0.0-164.0-0.0","A3P9YXCVZEPKGG","img_art/4.jpg","4","","","","","","","","","","","","","","","","","","","","","","","","",""
"null","","html-keyboard-response","166","864703","0.0-165.0","A3P9YXCVZEPKGG","<p style=""font-size: 48px;"">+</p>","","","","","null","allTrialResponses","1000","1","17","img_art/4.jpg","2","Smoke from a smoke stack","Brian,Cody,Victor,Thomas,Alex,Blake","it reminds me of McDonalds, and not in a good way.,-34,380,20","Interesting but maybe a little creepy,0,180,20","Hate the color, and just do not get the point.,-13,340,20","This image doesn't invoke anything in me,-9,220,20","Looks like more paint smearing but at least there is structure,-5,100,20","ugly puke yellow is cold and dark,-29,280,20","Brian","it reminds me of McDonalds, and not in a good way.,-34,380,20","Cody","Interesting but maybe a little creepy,0,180,20","Alex","Looks like more paint smearing but at least there is structure,-5,100,20","2"
"20740","","survey-text","167","885446","0.0-166.0-0.0","A3P9YXCVZEPKGG","","","","{""Q0"":""Makes me think of emotions and trees.""}","","","","","","","","","","","","","","","","","","","","","","",""
"2409.5999999996275","","image-slider-response","168","887858","0.0-167.0","A3P9YXCVZEPKGG","","","","","23","","","","","","","","","","","","","","","","","","","","","",""
"null","","image-button-response","169","892861","0.0-168.0","A3P9YXCVZEPKGG","img_art/14.jpg","null","","","","","","","","","","","","","","","","","","","","","","","","",""
"464","","image-button-response","170","893327","0.0-169.0","A3P9YXCVZEPKGG","img_art/14.jpg","3","","","","","","","","","","","","","","","","","","","","","","","","",""
"2270","","image-button-response","171","895598","0.0-170.0-0.0","A3P9YXCVZEPKGG","img_art/14.jpg","2","","","","","","","","","","","","","","","","","","","","","","","","",""
"7430","","image-button-response","172","903031","0.0-171.0-0.0","A3P9YXCVZEPKGG","img_art/14.jpg","0","","","","","","","","","","","","","","","","","","","","","","","","",""
"null","","html-keyboard-response","173","903531","0.0-172.0","A3P9YXCVZEPKGG","<p style=""font-size: 48px;"">+</p>","","","","","null","allTrialResponses","500","1","18","img_art/14.jpg","23","Makes me think of emotions and trees.","Brian,Cody,Vincent,Carlos,Alex,Brandon","I don't care for the style,-38,380,20","Don't love it.,-10,180,20","Reminds me of the old days with my family and my grandma,41,360,20","The lighting feels like spring.,20,80,20","Too abstract with annoying little details. Just draw a regular tree already,-6,100,20","Don't like the colors on this. Too simple,-20,320,20","Carlos","The lighting feels like spring.,20,80,20","Vincent","Reminds me of the old days with my family and my grandma,41,360,20","Brian","I don't care for the style,-38,380,20","2"
"11720","","survey-text","174","915255","0.0-173.0-0.0","A3P9YXCVZEPKGG","","","","{""Q0"":""View of a side street""}","","","","","","","","","","","","","","","","","","","","","","",""
"2007.0999999996275","","image-slider-response","175","917263","0.0-174.0","A3P9YXCVZEPKGG","","","","","5","","","","","","","","","","","","","","","","","","","","","",""
"null","","image-button-response","176","922270","0.0-175.0","A3P9YXCVZEPKGG","img_art/26.jpg","null","","","","","","","","","","","","","","","","","","","","","","","","",""
"609","","image-button-response","177","922879","0.0-176.0","A3P9YXCVZEPKGG","img_art/26.jpg","2","","","","","","","","","","","","","","","","","","","","","","","","",""
"2447","","image-button-response","178","925328","0.0-177.0-0.0","A3P9YXCVZEPKGG","img_art/26.jpg","4","","","","","","","","","","","","","","","","","","","","","","","","",""
"2190","","image-button-response","179","927520","0.0-178.0-0.0","A3P9YXCVZEPKGG","img_art/26.jpg","3","","","","","","","","","","","","","","","","","","","","","","","","",""
"null","","html-keyboard-response","180","928524","0.0-179.0","A3P9YXCVZEPKGG","<p style=""font-size: 48px;"">+</p>","","","","","null","allTrialResponses","1000","1","19","img_art/26.jpg","5","View of a side street","Brian,James,Vincent,Carlos,Anthony,Ryan","I'm not really into landscapes unless I have a personal connection to them,-21,380,20","This picture is ok; just a normal city,11,380,20","Small town and home feel on A nice day.,28,360,20","Pleasant but bland.,10,80,20","This picture doesn't really stand out.,0,200,20","Pleasant to look at,28,380,20","Vincent","Small town and home feel on A nice day.,28,360,20","Anthony","This picture doesn't really stand out.,0,200,20","Carlos","Pleasant but bland.,10,80,20","2"
"14847","","survey-text","181","943376","0.0-180.0-0.0","A3P9YXCVZEPKGG","","","","{""Q0"":""representation of a instrument.""}","","","","","","","","","","","","","","","","","","","","","","",""
"3126.5999999996275","","image-slider-response","182","946504","0.0-181.0","A3P9YXCVZEPKGG","","","","","29","","","","","","","","","","","","","","","","","","","","","",""
"null","","image-button-response","183","951509","0.0-182.0","A3P9YXCVZEPKGG","img_art/10.jpg","null","","","","","","","","","","","","","","","","","","","","","","","","",""
"578","","image-button-response","184","952088","0.0-183.0","A3P9YXCVZEPKGG","img_art/10.jpg","3","","","","","","","","","","","","","","","","","","","","","","","","",""
"3671","","image-button-response","185","955760","0.0-184.0-0.0","A3P9YXCVZEPKGG","img_art/10.jpg","2","","","","","","","","","","","","","","","","","","","","","","","","",""
"2374","","image-button-response","186","958136","0.0-185.0-0.0","A3P9YXCVZEPKGG","img_art/10.jpg","0","","","","","","","","","","","","","","","","","","","","","","","","",""
"null","","html-keyboard-response","187","959638","0.0-186.0","A3P9YXCVZEPKGG","<p style=""font-size: 48px;"">+</p>","","","","","null","allTrialResponses","1500","1","20","img_art/10.jpg","29","representation of a instrument.","Corey,Devon,Vincent,Carlos,Anthony,Adam","I think this was going to be a guitar but then the artist got mad and gave up,-4,260,20","awww... this looks very nice,32,400,20","A very conversational piece could be of many different ideas,38,360,20","The colors and shapes are soothing but also disconcerting.,21,80,20","I am neutral towards the artwork,1,200,20","I like the contrast,10,40,20","Carlos","The colors and shapes are soothing but also disconcerting.,21,80,20","Vincent","A very conversational piece could be of many different ideas,38,360,20","Corey","I think this was going to be a guitar but then the artist got mad and gave up,-4,260,20","2"
"3446","","survey-text","188","963089","0.0-187.0-0.0","A3P9YXCVZEPKGG","","","","{""Q0"":""we""}","","","","","","","","","","","","","","","","","","","","","","",""
"16286","","survey-text","189","979377","0.0-188.0-0.0","A3P9YXCVZEPKGG","","","","{""Q0"":""I like the heft and feel to the piece.""}","","","","","","","","","","","","","","","","","","","","","","",""
"3654.800000000745","","image-slider-response","190","983033","0.0-189.0","A3P9YXCVZEPKGG","","","","","27","","","","","","","","","","","","","","","","","","","","","",""
"null","","image-button-response","191","988038","0.0-190.0","A3P9YXCVZEPKGG","img_art/15.jpg","null","","","","","","","","","","","","","","","","","","","","","","","","",""
"458","","image-button-response","192","988498","0.0-191.0","A3P9YXCVZEPKGG","img_art/15.jpg","2","","","","","","","","","","","","","","","","","","","","","","","","",""
"590","","image-button-response","193","989089","0.0-192.0-0.0","A3P9YXCVZEPKGG","img_art/15.jpg","0","","","","","","","","","","","","","","","","","","","","","","","","",""
"1920","","image-button-response","194","991010","0.0-193.0-0.0","A3P9YXCVZEPKGG","img_art/15.jpg","3","","","","","","","","","","","","","","","","","","","","","","","","",""
"null","","html-keyboard-response","195","992513","0.0-194.0","A3P9YXCVZEPKGG","<p style=""font-size: 48px;"">+</p>","","","","","null","allTrialResponses","1500","1","21","img_art/15.jpg","27","I like the heft and feel to the piece.","Corey,Jared,Vincent,Carlos,Tristan,Jordan","i like the pop of blue within all the black,8,260,20","i cant find somthing ilike about it,-31,400,20","I like the colors and the different style This brings,7,360,20","It is visually appealing, stark and simple but natural.,41,80,20","basic colors and pleasing shapes providing a calming effect,15,300,20","This also has nice contrast,34,160,20","Vincent","I like the colors and the different style This brings,7,360,20","Corey","i like the pop of blue within all the black,8,260,20","Carlos","It is visually appealing, stark and simple but natural.,41,80,20","2"
"17413","","survey-text","196","1009930","0.0-195.0-0.0","A3P9YXCVZEPKGG","","","","{""Q0"":""This feels jarring.""}","","","","","","","","","","","","","","","","","","","","","","",""
"3222.7000000011176","","image-slider-response","197","1013154","0.0-196.0","A3P9YXCVZEPKGG","","","","","-42","","","","","","","","","","","","","","","","","","","","","",""
"null","","image-button-response","198","1018158","0.0-197.0","A3P9YXCVZEPKGG","img_art/16.jpg","null","","","","","","","","","","","","","","","","","","","","","","","","",""
"691","","image-button-response","199","1018850","0.0-198.0","A3P9YXCVZEPKGG","img_art/16.jpg","1","","","","","","","","","","","","","","","","","","","","","","","","",""
"3391","","image-button-response","200","1022243","0.0-199.0-0.0","A3P9YXCVZEPKGG","img_art/16.jpg","3","","","","","","","","","","","","","","","","","","","","","","","","",""
"1830","","image-button-response","201","1024075","0.0-200.0-0.0","A3P9YXCVZEPKGG","img_art/16.jpg","4","","","","","","","","","","","","","","","","","","","","","","","","",""
"null","","html-keyboard-response","202","1024576","0.0-201.0","A3P9YXCVZEPKGG","<p style=""font-size: 48px;"">+</p>","","","","","null","allTrialResponses","500","1","22","img_art/16.jpg","-42","This feels jarring.","Corey,Shane,Vincent,Carlos,Grant,David","i like how it incorporates mixed visual art with the photo of the bear and the drawings,30,260,20","This looks chaotic,-25,80,20","Toys toys toys. Happy playful free spirit,30,360,20","Why is that bear there? It looks like it would be gross to touch. The texture bothers me.,-20,80,20","This is making me feel nervous in an enjoyable way.,20,200,20","The colored teddy bear clashes with the color scheme.,-20,340,20","Shane","This looks chaotic,-25,80,20","Carlos","Why is that bear there? It looks like it would be gross to touch. The texture bothers me.,-20,80,20","Grant","This is making me feel nervous in an enjoyable way.,20,200,20","2"
"20192","","survey-text","203","1044771","0.0-202.0-0.0","A3P9YXCVZEPKGG","","","","{""Q0"":""Disassociated association of styles.""}","","","","","","","","","","","","","","","","","","","","","","",""
"1967.699999999255","","image-slider-response","204","1046740","0.0-203.0","A3P9YXCVZEPKGG","","","","","14","","","","","","","","","","","","","","","","","","","","","",""
"null","","image-button-response","205","1051746","0.0-204.0","A3P9YXCVZEPKGG","img_art/12.jpg","null","","","","","","","","","","","","","","","","","","","","","","","","",""
"1152","","image-button-response","206","1052899","0.0-205.0","A3P9YXCVZEPKGG","img_art/12.jpg","0","","","","","","","","","","","","","","","","","","","","","","","","",""
"407","","image-button-response","207","1053307","0.0-206.0-0.0","A3P9YXCVZEPKGG","img_art/12.jpg","1","","","","","","","","","","","","","","","","","","","","","","","","",""
"5927","","image-button-response","208","1059235","0.0-207.0-0.0","A3P9YXCVZEPKGG","img_art/12.jpg","4","","","","","","","","","","","","","","","","","","","","","","","","",""
"null","","html-keyboard-response","209","1060738","0.0-208.0","A3P9YXCVZEPKGG","<p style=""font-size: 48px;"">+</p>","","","","","null","allTrialResponses","1500","1","23","img_art/12.jpg","14","Disassociated association of styles.","William,Shane,Sean,Carlos,Grant,Jeremy","to contemporary for me,3,380,20","Something you would see in a government building hallway,3,80,20","my reaction is that the picture is wierd,-11,40,20","It is very bland and the colors are not cohesive.,-20,80,20","This elicits no reaction in me.,0,200,20","do not like it. Seems too busy,-10,60,20","William","to contemporary for me,3,380,20","Shane","Something you would see in a government building hallway,3,80,20","Grant","This elicits no reaction in me.,0,200,20","2"
"15526","","survey-text","210","1076268","0.0-209.0-0.0","A3P9YXCVZEPKGG","","","","{""Q0"":""view looking down a street onto a marina.""}","","","","","","","","","","","","","","","","","","","","","","",""
"1806.5999999996275","","image-slider-response","211","1078076","0.0-210.0","A3P9YXCVZEPKGG","","","","","16","","","","","","","","","","","","","","","","","","","","","",""
"null","","image-button-response","212","1083080","0.0-211.0","A3P9YXCVZEPKGG","img_art/19.jpg","null","","","","","","","","","","","","","","","","","","","","","","","","",""
"666","","image-button-response","213","1083748","0.0-212.0","A3P9YXCVZEPKGG","img_art/19.jpg","2","","","","","","","","","","","","","","","","","","","","","","","","",""
"1846","","image-button-response","214","1085596","0.0-213.0-0.0","A3P9YXCVZEPKGG","img_art/19.jpg","1","","","","","","","","","","","","","","","","","","","","","","","","",""
"4503","","image-button-response","215","1090101","0.0-214.0-0.0","A3P9YXCVZEPKGG","img_art/19.jpg","5","","","","","","","","","","","","","","","","","","","","","","","","",""
"null","","html-keyboard-response","216","1091606","0.0-215.0","A3P9YXCVZEPKGG","<p style=""font-size: 48px;"">+</p>","","","","","null","allTrialResponses","1500","1","24","img_art/19.jpg","16","view looking down a street onto a marina.","William,Shane,Adrian,Brendan,Grant,Trevor","to much going on,-22,380,20","A day in a small city,45,80,20","Pleasant colors with just enough detail to be recognizable. I can see a scene in it that tells a story.,7,60,20","beautiful old town,37,340,20","It's a cute city scene, but nothing special.,10,200,20","i like the colors and the way it looks like an actual scene,18,280,20","Adrian","Pleasant colors with just enough detail to be recognizable. I can see a scene in it that tells a story.,7,60,20","Shane","A day in a small city,45,80,20","Trevor","i like the colors and the way it looks like an actual scene,18,280,20","2"
"10171","","survey-text","217","1101781","0.0-216.0-0.0","A3P9YXCVZEPKGG","","","","{""Q0"":""wonderful light and line work""}","","","","","","","","","","","","","","","","","","","","","","",""
"2558.4000000003725","","image-slider-response","218","1104340","0.0-217.0","A3P9YXCVZEPKGG","","","","","43","","","","","","","","","","","","","","","","","","","","","",""
"null","","image-button-response","219","1109343","0.0-218.0","A3P9YXCVZEPKGG","img_art/17.jpg","null","","","","","","","","","","","","","","","","","","","","","","","","",""
"757","","image-button-response","220","1110101","0.0-219.0","A3P9YXCVZEPKGG","img_art/17.jpg","3","","","","","","","","","","","","","","","","","","","","","","","","",""
"2647","","image-button-response","221","1112749","0.0-220.0-0.0","A3P9YXCVZEPKGG","img_art/17.jpg","1","","","","","","","","","","","","","","","","","","","","","","","","",""
"1622","","image-button-response","222","1114373","0.0-221.0-0.0","A3P9YXCVZEPKGG","img_art/17.jpg","2","","","","","","","","","","","","","","","","","","","","","","","","",""
"null","","html-keyboard-response","223","1115876","0.0-222.0","A3P9YXCVZEPKGG","<p style=""font-size: 48px;"">+</p>","","","","","null","allTrialResponses","1500","1","25","img_art/17.jpg","43","wonderful light and line work","Chase,Shane,Adrian,Jack,Jesus,Trevor","It's okay, I just don't see much too it.,7,120,20","Pleasant fall to winter day,22,80,20","Pretty composition and I like the colors.,20,60,20","stunning. makes me feel happy, hopeful, serene, and a little wistful.,50,320,20","Very fun textures,32,100,20","I like how it looks like a tree. The colors are too muted though,12,280,20","Jack","stunning. makes me feel happy, hopeful, serene, and a little wistful.,50,320,20","Shane","Pleasant fall to winter day,22,80,20","Adrian","Pretty composition and I like the colors.,20,60,20","2"
"3547","","survey-text","224","1119429","0.0-223.0-0.0","A3P9YXCVZEPKGG","","","","{""Q0"":""table""}","","","","","","","","","","","","","","","","","","","","","","",""
"9079","","survey-text","225","1128509","0.0-224.0-0.0","A3P9YXCVZEPKGG","","","","{""Q0"":""a nap in a field.""}","","","","","","","","","","","","","","","","","","","","","","",""
"1974.800000000745","","image-slider-response","226","1130485","0.0-225.0","A3P9YXCVZEPKGG","","","","","27","","","","","","","","","","","","","","","","","","","","","",""
"null","","image-button-response","227","1135488","0.0-226.0","A3P9YXCVZEPKGG","img_art/9.jpg","null","","","","","","","","","","","","","","","","","","","","","","","","",""
"1421","","image-button-response","228","1136910","0.0-227.0","A3P9YXCVZEPKGG","img_art/9.jpg","0","","","","","","","","","","","","","","","","","","","","","","","","",""
"1758","","image-button-response","229","1138670","0.0-228.0-0.0","A3P9YXCVZEPKGG","img_art/9.jpg","3","","","","","","","","","","","","","","","","","","","","","","","","",""
"870","","image-button-response","230","1139542","0.0-229.0-0.0","A3P9YXCVZEPKGG","img_art/9.jpg","4","","","","","","","","","","","","","","","","","","","","","","","","",""
"null","","html-keyboard-response","231","1140044","0.0-230.0","A3P9YXCVZEPKGG","<p style=""font-size: 48px;"">+</p>","","","","","null","allTrialResponses","500","1","26","img_art/9.jpg","27","a nap in a field.","Alexis,Shane,Adrian,Jack,Logan,Mitchell","This photo make me feel peaceful. It looks like a woman sleeping in a garden,42,140,20","Angry beast mouth,-37,80,20","Looks like my niece's doodles.,-50,60,20","gorgeous colors, love the little details,42,320,20","is that sleeping beauty,33,360,20","Cozy, In her own world. feminine .,30,180,20","Alexis","This photo make me feel peaceful. It looks like a woman sleeping in a garden,42,140,20","Jack","gorgeous colors, love the little details,42,320,20","Logan","is that sleeping beauty,33,360,20","2"
"9478","","survey-text","232","1149526","0.0-231.0-0.0","A3P9YXCVZEPKGG","","","","{""Q0"":""rejection and chaos""}","","","","","","","","","","","","","","","","","","","","","","",""
"2038.5999999996275","","image-slider-response","233","1151566","0.0-232.0","A3P9YXCVZEPKGG","","","","","-11","","","","","","","","","","","","","","","","","","","","","",""
"null","","image-button-response","234","1156567","0.0-233.0","A3P9YXCVZEPKGG","img_art/3.jpg","null","","","","","","","","","","","","","","","","","","","","","","","","",""
"1838","","image-button-response","235","1158406","0.0-234.0","A3P9YXCVZEPKGG","img_art/3.jpg","4","","","","","","","","","","","","","","","","","","","","","","","","",""
"615","","image-button-response","236","1159023","0.0-235.0-0.0","A3P9YXCVZEPKGG","img_art/3.jpg","5","","","","","","","","","","","","","","","","","","","","","","","","",""
"7102","","image-button-response","237","1166127","0.0-236.0-0.0","A3P9YXCVZEPKGG","img_art/3.jpg","0","","","","","","","","","","","","","","","","","","","","","","","","",""
"null","","html-keyboard-response","238","1167131","0.0-237.0","A3P9YXCVZEPKGG","<p style=""font-size: 48px;"">+</p>","","","","","null","allTrialResponses","1000","1","27","img_art/3.jpg","-11","rejection and chaos","Alexis,Nathan,Nicholas,Jack,Logan,Andrew","It looks like a child drawing,-29,140,20","Looks like it was painted with blood, which I'm aware is an art style, but it just looks messy.,-20,200,20","Too angry and scribbly,-43,240,20","unique & stylized. interesting. another one I could keep staring at.,50,320,20","im just getting more agitated and less appreciative of art. I have absolutely no scale to base on,-34,360,20","It doesn't make me think of art,-20,160,20","Logan","im just getting more agitated and less appreciative of art. I have absolutely no scale to base on,-34,360,20","Andrew","It doesn't make me think of art,-20,160,20","Alexis","It looks like a child drawing,-29,140,20","2"
"8110","","survey-text","239","1175246","0.0-238.0-0.0","A3P9YXCVZEPKGG","","","","{""Q0"":""a simple bird""}","","","","","","","","","","","","","","","","","","","","","","",""
"1863.199999999255","","image-slider-response","240","1177111","0.0-239.0","A3P9YXCVZEPKGG","","","","","-29","","","","","","","","","","","","","","","","","","","","","",""
"null","","image-button-response","241","1182116","0.0-240.0","A3P9YXCVZEPKGG","img_art/6.jpg","null","","","","","","","","","","","","","","","","","","","","","","","","",""
"986","","image-button-response","242","1183103","0.0-241.0","A3P9YXCVZEPKGG","img_art/6.jpg","0","","","","","","","","","","","","","","","","","","","","","","","","",""
"4303","","image-button-response","243","1187407","0.0-242.0-0.0","A3P9YXCVZEPKGG","img_art/6.jpg","4","","","","","","","","","","","","","","","","","","","","","","","","",""
"998","","image-button-response","244","1188407","0.0-243.0-0.0","A3P9YXCVZEPKGG","img_art/6.jpg","3","","","","","","","","","","","","","","","","","","","","","","","","",""
"null","","html-keyboard-response","245","1188909","0.0-244.0","A3P9YXCVZEPKGG","<p style=""font-size: 48px;"">+</p>","","","","","null","allTrialResponses","500","1","28","img_art/6.jpg","-29","a simple bird","Alexis,Peter,Marcus,Kenneth,Logan,Andrew","This looks like a crow, sort of bleak,-26,140,20","Don't like the black space,2,320,20","I like the orange color, and I don't know why but I like this piece.,22,60,20","Simple and pretty.,18,300,20","boring. don't really like birds,1,360,20","Reminds me of my friend's bird,21,160,20","Alexis","This looks like a crow, sort of bleak,-26,140,20","Logan","boring. don't really like birds,1,360,20","Kenneth","Simple and pretty.,18,300,20","2"
"11039","","survey-text","246","1199951","0.0-245.0-0.0","A3P9YXCVZEPKGG","","","","{""Q0"":""a 3 dimensional piece.""}","","","","","","","","","","","","","","","","","","","","","","",""
"2062.800000000745","","image-slider-response","247","1202015","0.0-246.0","A3P9YXCVZEPKGG","","","","","18","","","","","","","","","","","","","","","","","","","","","",""
"null","","image-button-response","248","1207017","0.0-247.0","A3P9YXCVZEPKGG","img_art/7.jpg","null","","","","","","","","","","","","","","","","","","","","","","","","",""
"2853","","image-button-response","249","1209872","0.0-248.0","A3P9YXCVZEPKGG","img_art/7.jpg","4","","","","","","","","","","","","","","","","","","","","","","","","",""
"3575","","image-button-response","250","1213448","0.0-249.0-0.0","A3P9YXCVZEPKGG","img_art/7.jpg","2","","","","","","","","","","","","","","","","","","","","","","","","",""
"847","","image-button-response","251","1214297","0.0-250.0-0.0","A3P9YXCVZEPKGG","img_art/7.jpg","0","","","","","","","","","","","","","","","","","","","","","","","","",""
"null","","html-keyboard-response","252","1215301","0.0-251.0","A3P9YXCVZEPKGG","<p style=""font-size: 48px;"">+</p>","","","","","null","allTrialResponses","1000","1","29","img_art/7.jpg","18","a 3 dimensional piece.","Alexis,Jose,Kevin,Kenneth,Logan,Luke","it looks like an ant farm,12,140,20","Reminds me of bugs, I hate bugs,-7,200,20","That a desert floor,16,320,20","My firs thought was ""gross""...not sure what this is and I dont think i want to know.,-19,300,20","mars also crunchy leaves maybe a beehive,32,360,20","reminds me of the desert,-20,20,20","Logan","mars also crunchy leaves maybe a beehive,32,360,20","Kevin","That a desert floor,16,320,20","Alexis","it looks like an ant farm,12,140,20","2"
"12495","","survey-text","253","1227800","0.0-252.0-0.0","A3P9YXCVZEPKGG","","","","{""Q0"":""wonderful color transitions.""}","","","","","","","","","","","","","","","","","","","","","","",""
"1822.7000000011176","","image-slider-response","254","1229624","0.0-253.0","A3P9YXCVZEPKGG","","","","","50","","","","","","","","","","","","","","","","","","","","","",""
"null","","image-button-response","255","1234626","0.0-254.0","A3P9YXCVZEPKGG","img_art/23.jpg","null","","","","","","","","","","","","","","","","","","","","","","","","",""
"757","","image-button-response","256","1235385","0.0-255.0","A3P9YXCVZEPKGG","img_art/23.jpg","3","","","","","","","","","","","","","","","","","","","","","","","","",""
"2478","","image-button-response","257","1237865","0.0-256.0-0.0","A3P9YXCVZEPKGG","img_art/23.jpg","2","","","","","","","","","","","","","","","","","","","","","","","","",""
"3902","","image-button-response","258","1241769","0.0-257.0-0.0","A3P9YXCVZEPKGG","img_art/23.jpg","0","","","","","","","","","","","","","","","","","","","","","","","","",""
"null","","html-keyboard-response","259","1243274","0.0-258.0","A3P9YXCVZEPKGG","<p style=""font-size: 48px;"">+</p>","","","","","null","allTrialResponses","1500","1","30","img_art/23.jpg","50","wonderful color transitions.","Alexis,Seth,Kevin,Dylan,Logan,Colton","It looks like a parade of musicians full of excitement. Makes me feel upbeat,33,140,20","I thought this art was exciting and it reminded me of dancing people.,12,60,20","Looks like fish fossils,12,320,20","This is my favorite of them all. I love the colors.,41,40,20","This looks like the cover art for a scene band,-29,360,20","the pattern is pleasing to the eye,28,220,20","Dylan","This is my favorite of them all. I love the colors.,41,40,20","Kevin","Looks like fish fossils,12,320,20","Alexis","It looks like a parade of musicians full of excitement. Makes me feel upbeat,33,140,20","2"
"3155","","image-button-response_instructions","260","1246434","0.0-259.0","A3P9YXCVZEPKGG","","0","instructions","","","","","","","","","","","","","","","","","","","","","","","",""
"1426","","image-button-response","261","1247865","0.0-260.0","A3P9YXCVZEPKGG","","0","","","","","","","","","","","","","","","","","","","","","","","","",""
