"rt","url","trial_type","trial_index","time_elapsed","internal_node_id","participant_id","stimulus","button_pressed","Name","responses","response","key_press","variableName","fixationTime","condition","trial","photo","subjectRating","subjectResponse","agentsNames","agent_1_Response","agent_2_Response","agent_3_Response","agent_4_Response","agent_5_Response","agent_6_Response","kept_1_name","kept_1_response","kept_2_name","kept_2_response","kept_3_name","kept_3_response","errorCounter"
"20141","external_page_harvard.html","external-html","0","20309","0.0-0.0","A3PIHDC8LXVQ4H","","","","","","","","","","","","","","","","","","","","","","","","","","",""
"2197","","image-button-response","1","22508","0.0-1.0","A3PIHDC8LXVQ4H","","1","","","","","","","","","","","","","","","","","","","","","","","","",""
"6795","","image-button-response","2","29307","0.0-2.0-0.0","A3PIHDC8LXVQ4H","","1","phone","","","","","","","","","","","","","","","","","","","","","","","",""
"29527","","survey-text","3","58837","0.0-3.0-0.0","A3PIHDC8LXVQ4H","","","","{""Q0"":""A3PIHDC8LXVQ4H""}","","","","","","","","","","","","","","","","","","","","","","",""
"6117","","image-button-response_instructions","4","64956","0.0-4.0","A3PIHDC8LXVQ4H","","0","instructions","","","","","","","","","","","","","","","","","","","","","","","",""
"47534","","image-button-response_instructions","5","112492","0.0-5.0","A3PIHDC8LXVQ4H","img_art/ins/popularity/ins1.png","0","instructions","","","","","","","","","","","","","","","","","","","","","","","",""
"13966","","image-button-response_instructions","6","126460","0.0-6.0","A3PIHDC8LXVQ4H","img_art/ins/popularity/ins2.png","0","instructions","","","","","","","","","","","","","","","","","","","","","","","",""
"11806","","image-button-response_instructions","7","138268","0.0-7.0","A3PIHDC8LXVQ4H","img_art/ins/popularity/ins2Extreme.png","0","instructions","","","","","","","","","","","","","","","","","","","","","","","",""
"52567","","image-button-response_instructions","8","190837","0.0-8.0","A3PIHDC8LXVQ4H","img_art/ins/popularity/ins3KEEPpop.PNG","0","instructions","","","","","","","","","","","","","","","","","","","","","","","",""
"18102","","image-button-response_instructions","9","208940","0.0-9.0","A3PIHDC8LXVQ4H","img_art/ins/popularity/ins3ANamepop.PNG","0","instructions","","","","","","","","","","","","","","","","","","","","","","","",""
"16775","","image-button-response_instructions","10","225717","0.0-10.0","A3PIHDC8LXVQ4H","img_art/ins/popularity/ins3ARatingpop.png","0","instructions","","","","","","","","","","","","","","","","","","","","","","","",""
"9814","","image-button-response_instructions","11","235532","0.0-11.0","A3PIHDC8LXVQ4H","img_art/ins/popularity/ins3ATextpop.png","0","instructions","","","","","","","","","","","","","","","","","","","","","","","",""
"12246","","image-button-response_instructions","12","247780","0.0-12.0","A3PIHDC8LXVQ4H","img_art/ins/popularity/ins3ALikespop.png","0","instructions","","","","","","","","","","","","","","","","","","","","","","","",""
"13271","","image-button-response_instructions","13","261053","0.0-13.0","A3PIHDC8LXVQ4H","img_art/ins/popularity/ins3KEEPpop.PNG","0","instructions","","","","","","","","","","","","","","","","","","","","","","","",""
"24399","","image-button-response_instructions","14","285453","0.0-14.0","A3PIHDC8LXVQ4H","img_art/ins/popularity/ins3_5RED.png","0","instructions","","","","","","","","","","","","","","","","","","","","","","","",""
"17374","","image-button-response_instructions","15","302829","0.0-15.0","A3PIHDC8LXVQ4H","img_art/ins/popularity/ins3KEEPpop.PNG","0","instructions","","","","","","","","","","","","","","","","","","","","","","","",""
"9022","","image-button-response_instructions","16","311853","0.0-16.0","A3PIHDC8LXVQ4H","img_art/ins/popularity/ins4KEEPpop.PNG","0","instructions","","","","","","","","","","","","","","","","","","","","","","","",""
"5902","","image-button-response_instructions","17","317756","0.0-17.0","A3PIHDC8LXVQ4H","img_art/ins/popularity/ins5KEEPpop.PNG","0","instructions","","","","","","","","","","","","","","","","","","","","","","","",""
"2103","","image-button-response_instructions","18","319860","0.0-18.0","A3PIHDC8LXVQ4H","","0","instructions","","","","","","","","","","","","","","","","","","","","","","","",""
"12755","","survey-text","19","332637","0.0-19.0-0.0","A3PIHDC8LXVQ4H","","","","{""Q0"":""but""}","","","","","","","","","","","","","","","","","","","","","","",""
"36374","","survey-text","20","369013","0.0-20.0-0.0","A3PIHDC8LXVQ4H","","","","{""Q0"":""It looks very messy to me.""}","","","","","","","","","","","","","","","","","","","","","","",""
"8068.700000047684","","image-slider-response","21","377084","0.0-21.0","A3PIHDC8LXVQ4H","","","","","-35","","","","","","","","","","","","","","","","","","","","","",""
"null","","image-button-response","22","382088","0.0-22.0","A3PIHDC8LXVQ4H","img_art/ins/1.jpg","null","","","","","","","","","","","","","","","","","","","","","","","","",""
"1890","","image-button-response","23","383981","0.0-23.0","A3PIHDC8LXVQ4H","img_art/ins/1.jpg","1","","","","","","","","","","","","","","","","","","","","","","","","",""
"7038","","image-button-response","24","391021","0.0-24.0-0.0","A3PIHDC8LXVQ4H","img_art/ins/1.jpg","3","","","","","","","","","","","","","","","","","","","","","","","","",""
"20141","","image-button-response","25","411165","0.0-25.0-0.0","A3PIHDC8LXVQ4H","img_art/ins/1.jpg","2","","","","","","","","","","","","","","","","","","","","","","","","",""
"null","","html-keyboard-response","26","412168","0.0-26.0","A3PIHDC8LXVQ4H","<p style=""font-size: 48px;"">+</p>","","","","","null","allTrialResponses","1000","1","-2","img_art/ins/1.jpg","-35","It looks very messy to me.","Allison,Ashley,Beth,Dora,Erika,Jen","looks like a lot of things going on in the mist,20,20,20","I just don't get why these type of art would be popular,-32,40,20","This color reminds me of poo,-46,60,20","looks like what my niece in 3rd grade did this afternoon,-50,80,20","I like the sophisticated brushwork,40,100,20","It reminds me of a candy land dream I had,36,120,20","Ashley","I just don't get why these type of art would be popular,-32,40,20","Dora","looks like what my niece in 3rd grade did this afternoon,-50,80,20","Beth","This color reminds me of poo,-46,60,20","0"
"25804","","survey-text","27","437980","0.0-27.0-0.0","A3PIHDC8LXVQ4H","","","","{""Q0"":""A bad combination of colors, looks dreary""}","","","","","","","","","","","","","","","","","","","","","","",""
"5142.5","","image-slider-response","28","443124","0.0-28.0","A3PIHDC8LXVQ4H","","","","","-42","","","","","","","","","","","","","","","","","","","","","",""
"null","","image-button-response","29","448138","0.0-29.0","A3PIHDC8LXVQ4H","img_art/ins/2.jpg","null","","","","","","","","","","","","","","","","","","","","","","","","",""
"2721","","image-button-response","30","450861","0.0-30.0","A3PIHDC8LXVQ4H","img_art/ins/2.jpg","3","","","","","","","","","","","","","","","","","","","","","","","","",""
"3862","","image-button-response","31","454724","0.0-31.0-0.0","A3PIHDC8LXVQ4H","img_art/ins/2.jpg","2","","","","","","","","","","","","","","","","","","","","","","","","",""
"2485","","image-button-response","32","457212","0.0-32.0-0.0","A3PIHDC8LXVQ4H","img_art/ins/2.jpg","1","","","","","","","","","","","","","","","","","","","","","","","","",""
"null","","html-keyboard-response","33","458713","0.0-33.0","A3PIHDC8LXVQ4H","<p style=""font-size: 48px;"">+</p>","","","","","null","allTrialResponses","1500","1","-1","img_art/ins/2.jpg","-42","A bad combination of colors, looks dreary","Jenna,Ashley,Beth,Dora,Kara,Katie","One of my pet peevs,-48,140,20","Idk, it is just annoying,-32,40,20","meaningless painting,-45,60,20","looks too angry,-50,80,20","I like the blocks of color arrangements,30,160,20","too much color!,-28,180,20","Dora","looks too angry,-50,80,20","Beth","meaningless painting,-45,60,20","Ashley","Idk, it is just annoying,-32,40,20","0"
"29219","","survey-text","34","487940","0.0-34.0-0.0","A3PIHDC8LXVQ4H","","","","{""Q0"":""I like the colors but not the style""}","","","","","","","","","","","","","","","","","","","","","","",""
"9790.100000023842","","image-slider-response","35","497732","0.0-35.0","A3PIHDC8LXVQ4H","","","","","1","","","","","","","","","","","","","","","","","","","","","",""
"null","","image-button-response","36","502735","0.0-36.0","A3PIHDC8LXVQ4H","img_art/ins/3.jpg","null","","","","","","","","","","","","","","","","","","","","","","","","",""
"163","","image-button-response","37","502900","0.0-37.0","A3PIHDC8LXVQ4H","img_art/ins/3.jpg","0","","","","","","","","","","","","","","","","","","","","","","","","",""
"13511","","image-button-response","38","516413","0.0-38.0-0.0","A3PIHDC8LXVQ4H","img_art/ins/3.jpg","1","","","","","","","","","","","","","","","","","","","","","","","","",""
"3742","","image-button-response","39","520156","0.0-39.0-0.0","A3PIHDC8LXVQ4H","img_art/ins/3.jpg","0","","","","","","","","","","","","","","","","","","","","","","","","",""
"15487","","image-button-response","40","541765","0.0-39.1-0.1","A3PIHDC8LXVQ4H","img_art/ins/3.jpg","2","","","","","","","","","","","","","","","","","","","","","","","","",""
"null","","html-keyboard-response","41","543266","0.0-40.0","A3PIHDC8LXVQ4H","<p style=""font-size: 48px;"">+</p>","","","","","null","allTrialResponses","1500","1","0","img_art/ins/3.jpg","1","I like the colors but not the style","Leslie,Ashley,Beth,Dora,Mary,Rose","It's an alright work,15,200,20","It looks like a playground for bats,-36,40,20","This thing gives me anxiety,-41,60,20","My worst nightmare,-42,80,20","I like the overlapping of brushes,41,220,20","My daily routine, it's depressing,-20,240,20","Leslie","It's an alright work,15,200,20","Ashley","It looks like a playground for bats,-36,40,20","Beth","This thing gives me anxiety,-41,60,20","2"
"5203","","image-button-response_instructions","42","548476","0.0-41.0","A3PIHDC8LXVQ4H","","0","instructions","","","","","","","","","","","","","","","","","","","","","","","",""
"14735","","survey-likert","43","563213","0.0-42.0-0.0","A3PIHDC8LXVQ4H","","","","{""Q0"":"""",""Q1"":0,""Q2"":1}","","","","","","","","","","","","","","","","","","","","","","",""
"6051","","survey-text","44","569268","0.0-43.0-0.0","A3PIHDC8LXVQ4H","","","","{""Q0"":""rock""}","","","","","","","","","","","","","","","","","","","","","","",""
"15805","","survey-text","45","585076","0.0-44.0-0.0","A3PIHDC8LXVQ4H","","","","{""Q0"":""Looks a mess""}","","","","","","","","","","","","","","","","","","","","","","",""
"5238.199999928474","","image-slider-response","46","590317","0.0-45.0","A3PIHDC8LXVQ4H","","","","","-46","","","","","","","","","","","","","","","","","","","","","",""
"null","","image-button-response","47","595360","0.0-46.0","A3PIHDC8LXVQ4H","img_art/3.jpg","null","","","","","","","","","","","","","","","","","","","","","","","","",""
"754","","image-button-response","48","596117","0.0-47.0","A3PIHDC8LXVQ4H","img_art/3.jpg","1","","","","","","","","","","","","","","","","","","","","","","","","",""
"1533","","image-button-response","49","597652","0.0-48.0-0.0","A3PIHDC8LXVQ4H","img_art/3.jpg","2","","","","","","","","","","","","","","","","","","","","","","","","",""
"4278","","image-button-response","50","601933","0.0-49.0-0.0","A3PIHDC8LXVQ4H","img_art/3.jpg","4","","","","","","","","","","","","","","","","","","","","","","","","",""
"null","","html-keyboard-response","51","602434","0.0-50.0","A3PIHDC8LXVQ4H","<p style=""font-size: 48px;"">+</p>","","","","","null","allTrialResponses","500","1","1","img_art/3.jpg","-46","Looks a mess","Briana,Hailey,Brooke,Kylie,Haley,Jennifer","Sharp peaks look like sharp teeth,-37,400,20","painted by a 2 year old. cold and boring,-30,200,20","kid scribbled on the wall again,-35,60,20","Confusion and mayhem,-10,300,20","Too messy and structure-less,-10,220,20","This looks like something a child created in 5 minutes.,-50,380,20","Hailey","painted by a 2 year old. cold and boring,-30,200,20","Brooke","kid scribbled on the wall again,-35,60,20","Haley","Too messy and structure-less,-10,220,20","2"
"20108","","survey-text","52","622548","0.0-51.0-0.0","A3PIHDC8LXVQ4H","","","","{""Q0"":""Gloomy combination of colors""}","","","","","","","","","","","","","","","","","","","","","","",""
"4846.200000047684","","image-slider-response","53","627396","0.0-52.0","A3PIHDC8LXVQ4H","","","","","-36","","","","","","","","","","","","","","","","","","","","","",""
"3894","","image-button-response","54","632399","0.0-53.0","A3PIHDC8LXVQ4H","img_art/27.jpg","0","","","","","","","","","","","","","","","","","","","","","","","","",""
"5923","","image-button-response","55","638325","0.0-54.0","A3PIHDC8LXVQ4H","img_art/27.jpg","4","","","","","","","","","","","","","","","","","","","","","","","","",""
"2725","","image-button-response","56","641053","0.0-55.0-0.0","A3PIHDC8LXVQ4H","img_art/27.jpg","5","","","","","","","","","","","","","","","","","","","","","","","","",""
"8566","","image-button-response","57","649621","0.0-56.0-0.0","A3PIHDC8LXVQ4H","img_art/27.jpg","0","","","","","","","","","","","","","","","","","","","","","","","","",""
"null","","html-keyboard-response","58","650123","0.0-57.0","A3PIHDC8LXVQ4H","<p style=""font-size: 48px;"">+</p>","","","","","null","allTrialResponses","500","1","2","img_art/27.jpg","-36","Gloomy combination of colors","Jordan,Hailey,Brooke,Erika,Haley,Caitlin","two warring cities, separated by a small desert,50,20,20","fruity and sweet. warm and juicy,10,200,20","Like it, autumn colors, trees and foliage scene.,25,60,20","Nice color, but too vague,-12,100,20","First thought is again, that this looks like a child's art assignment,-20,220,20","Looks like a child added his own interpretation with a black marker.,-5,80,20","Haley","First thought is again, that this looks like a child's art assignment,-20,220,20","Caitlin","Looks like a child added his own interpretation with a black marker.,-5,80,20","Jordan","two warring cities, separated by a small desert,50,20,20","2"
"65170","","survey-text","59","715300","0.0-58.0-0.0","A3PIHDC8LXVQ4H","","","","{""Q0"":""Too many colors, looks uninviting""}","","","","","","","","","","","","","","","","","","","","","","",""
"4463.199999928474","","image-slider-response","60","719764","0.0-59.0","A3PIHDC8LXVQ4H","","","","","-26","","","","","","","","","","","","","","","","","","","","","",""
"4358","","image-button-response","61","724767","0.0-60.0","A3PIHDC8LXVQ4H","img_art/21.jpg","1","","","","","","","","","","","","","","","","","","","","","","","","",""
"6323","","image-button-response","62","731093","0.0-61.0","A3PIHDC8LXVQ4H","img_art/21.jpg","2","","","","","","","","","","","","","","","","","","","","","","","","",""
"2646","","image-button-response","63","733741","0.0-62.0-0.0","A3PIHDC8LXVQ4H","img_art/21.jpg","1","","","","","","","","","","","","","","","","","","","","","","","","",""
"12902","","image-button-response","64","746645","0.0-63.0-0.0","A3PIHDC8LXVQ4H","img_art/21.jpg","3","","","","","","","","","","","","","","","","","","","","","","","","",""
"null","","html-keyboard-response","65","747648","0.0-64.0","A3PIHDC8LXVQ4H","<p style=""font-size: 48px;"">+</p>","","","","","null","allTrialResponses","1000","1","3","img_art/21.jpg","-26","Too many colors, looks uninviting","Jordan,Natalie,Cheyenne,Kimberly,Haley,Caitlin","Okay, I love the color schemes, I can't quite figure it out though,14,20,20","my response to the picture is what is going on?,-13,400,20","Don't see anything special about it,-21,200,20","Another swathe of ocean,31,260,20","Again, I love the use of color,50,220,20","Remove the rocks(?) on the lower right.,5,80,20","Cheyenne","Don't see anything special about it,-21,200,20","Natalie","my response to the picture is what is going on?,-13,400,20","Kimberly","Another swathe of ocean,31,260,20","2"
"55159","","survey-text","66","802812","0.0-65.0-0.0","A3PIHDC8LXVQ4H","","","","{""Q0"":""I like the bottom right hand side""}","","","","","","","","","","","","","","","","","","","","","","",""
"5030.099999904633","","image-slider-response","67","807844","0.0-66.0","A3PIHDC8LXVQ4H","","","","","17","","","","","","","","","","","","","","","","","","","","","",""
"null","","image-button-response","68","812849","0.0-67.0","A3PIHDC8LXVQ4H","img_art/24.jpg","null","","","","","","","","","","","","","","","","","","","","","","","","",""
"11111","","image-button-response","69","823964","0.0-68.0","A3PIHDC8LXVQ4H","img_art/24.jpg","3","","","","","","","","","","","","","","","","","","","","","","","","",""
"2383","","image-button-response","70","826348","0.0-69.0-0.0","A3PIHDC8LXVQ4H","img_art/24.jpg","0","","","","","","","","","","","","","","","","","","","","","","","","",""
"14694","","image-button-response","71","841045","0.0-70.0-0.0","A3PIHDC8LXVQ4H","img_art/24.jpg","5","","","","","","","","","","","","","","","","","","","","","","","","",""
"null","","html-keyboard-response","72","842546","0.0-71.0","A3PIHDC8LXVQ4H","<p style=""font-size: 48px;"">+</p>","","","","","null","allTrialResponses","1500","1","4","img_art/24.jpg","17","I like the bottom right hand side","Kelsey,Natalie,Cheyenne,Kimberly,Katie,Alyssa","this one is just a bit too harsh,-13,240,20","I like the waterfall,22,400,20","I like how the colors mix in this one.,20,200,20","It just feels a little bland for me,-23,260,20","I see a waterfall, which is relaxing and peaceful!  I like the blue coloring,30,160,20","Beautiful.Nice use of colors and invokes feelings of serene and peace,40,160,20","Kimberly","It just feels a little bland for me,-23,260,20","Kelsey","this one is just a bit too harsh,-13,240,20","Alyssa","Beautiful.Nice use of colors and invokes feelings of serene and peace,40,160,20","2"
"56027","","survey-text","73","898580","0.0-72.0-0.0","A3PIHDC8LXVQ4H","","","","{""Q0"":""Interesting to see the hidden faces""}","","","","","","","","","","","","","","","","","","","","","","",""
"5238.099999904633","","image-slider-response","74","903820","0.0-73.0","A3PIHDC8LXVQ4H","","","","","-6","","","","","","","","","","","","","","","","","","","","","",""
"2423","","image-button-response","75","908822","0.0-74.0","A3PIHDC8LXVQ4H","img_art/8.jpg","0","","","","","","","","","","","","","","","","","","","","","","","","",""
"15811","","image-button-response","76","924636","0.0-75.0","A3PIHDC8LXVQ4H","img_art/8.jpg","2","","","","","","","","","","","","","","","","","","","","","","","","",""
"2303","","image-button-response","77","926941","0.0-76.0-0.0","A3PIHDC8LXVQ4H","img_art/8.jpg","0","","","","","","","","","","","","","","","","","","","","","","","","",""
"9110","","image-button-response","78","936053","0.0-77.0-0.0","A3PIHDC8LXVQ4H","img_art/8.jpg","4","","","","","","","","","","","","","","","","","","","","","","","","",""
"null","","html-keyboard-response","79","937556","0.0-78.0","A3PIHDC8LXVQ4H","<p style=""font-size: 48px;"">+</p>","","","","","null","allTrialResponses","1500","1","5","img_art/8.jpg","-6","Interesting to see the hidden faces","Kelsey,Cassandra,Michelle,Kimberly,Amber,Alyssa","i like all the different faces,19,240,20","I like the colors and the scene.,24,120,20","I appreciate the complexity of this piece but it's too cubist for me,3,280,20","Feels very 90's but I like the doorway,15,260,20","Very colorful. Looks like the hustle and bustle of a city.,11,200,20","I like how the more you like at it there are more things to discover.Very creative.,33,160,20","Michelle","I appreciate the complexity of this piece but it's too cubist for me,3,280,20","Kelsey","i like all the different faces,19,240,20","Amber","Very colorful. Looks like the hustle and bustle of a city.,11,200,20","2"
"6484","","survey-text","80","944052","0.0-79.0-0.0","A3PIHDC8LXVQ4H","","","","{""Q0"":""sky""}","","","","","","","","","","","","","","","","","","","","","","",""
"40926","","survey-text","81","984980","0.0-80.0-0.0","A3PIHDC8LXVQ4H","","","","{""Q0"":""Looks like musicians playing amongst the stars""}","","","","","","","","","","","","","","","","","","","","","","",""
"4494.799999952316","","image-slider-response","82","989477","0.0-81.0","A3PIHDC8LXVQ4H","","","","","21","","","","","","","","","","","","","","","","","","","","","",""
"null","","image-button-response","83","994486","0.0-82.0","A3PIHDC8LXVQ4H","img_art/23.jpg","null","","","","","","","","","","","","","","","","","","","","","","","","",""
"4564","","image-button-response","84","999052","0.0-83.0","A3PIHDC8LXVQ4H","img_art/23.jpg","2","","","","","","","","","","","","","","","","","","","","","","","","",""
"5990","","image-button-response","85","1005044","0.0-84.0-0.0","A3PIHDC8LXVQ4H","img_art/23.jpg","0","","","","","","","","","","","","","","","","","","","","","","","","",""
"12101","","image-button-response","86","1017148","0.0-85.0-0.0","A3PIHDC8LXVQ4H","img_art/23.jpg","5","","","","","","","","","","","","","","","","","","","","","","","","",""
"null","","html-keyboard-response","87","1018650","0.0-86.0","A3PIHDC8LXVQ4H","<p style=""font-size: 48px;"">+</p>","","","","","null","allTrialResponses","1500","1","6","img_art/23.jpg","21","Looks like musicians playing amongst the stars","Kelsey,Brianna,Michelle,Megan,Amber,Katelyn","i think this ones okay,10,240,20","I love the rainbow!,12,20,20","This is nice, the colorful background is fun and the white looks like dancing figures,5,280,20","Too busy with color with warrior lineup,0,200,20","The background colors seem too dark and the middle images take away from it.,4,200,20","Makes me want to stare at it for hours. Like there is something deeper to find.,37,100,20","Michelle","This is nice, the colorful background is fun and the white looks like dancing figures,5,280,20","Kelsey","i think this ones okay,10,240,20","Katelyn","Makes me want to stare at it for hours. Like there is something deeper to find.,37,100,20","2"
"30555","","survey-text","88","1049212","0.0-87.0-0.0","A3PIHDC8LXVQ4H","","","","{""Q0"":""Very unusual, not sure what it's meant to be""}","","","","","","","","","","","","","","","","","","","","","","",""
"5166.699999928474","","image-slider-response","89","1054380","0.0-88.0","A3PIHDC8LXVQ4H","","","","","-35","","","","","","","","","","","","","","","","","","","","","",""
"2606","","image-button-response","90","1059384","0.0-89.0","A3PIHDC8LXVQ4H","img_art/5.jpg","0","","","","","","","","","","","","","","","","","","","","","","","","",""
"1210","","image-button-response","91","1060597","0.0-90.0","A3PIHDC8LXVQ4H","img_art/5.jpg","1","","","","","","","","","","","","","","","","","","","","","","","","",""
"4774","","image-button-response","92","1065373","0.0-91.0-0.0","A3PIHDC8LXVQ4H","img_art/5.jpg","3","","","","","","","","","","","","","","","","","","","","","","","","",""
"4166","","image-button-response","93","1069541","0.0-92.0-0.0","A3PIHDC8LXVQ4H","img_art/5.jpg","5","","","","","","","","","","","","","","","","","","","","","","","","",""
"null","","html-keyboard-response","94","1070542","0.0-93.0","A3PIHDC8LXVQ4H","<p style=""font-size: 48px;"">+</p>","","","","","null","allTrialResponses","1000","1","7","img_art/5.jpg","-35","Very unusual, not sure what it's meant to be","Kelsey,Stephanie,Michelle,Marissa,Katherine,Katelyn","too abstract, looks like a pyramid,-22,240,20","This did not do a thing for me.,-50,300,20","What is this? It looks like no effort was put into this work,-2,280,20","I am confused as to what I am seeing is it a handbag, duck foot, bell?,-18,160,20","Don't love don't hate,8,120,20","I just dont get it. Means very little to me,-22,100,20","Stephanie","This did not do a thing for me.,-50,300,20","Marissa","I am confused as to what I am seeing is it a handbag, duck foot, bell?,-18,160,20","Katelyn","I just dont get it. Means very little to me,-22,100,20","2"
"78040","","survey-text","95","1148590","0.0-94.0-0.0","A3PIHDC8LXVQ4H","","","","{""Q0"":""The colors of the vehicles on the bridges stand out""}","","","","","","","","","","","","","","","","","","","","","","",""
"4629","","image-slider-response","96","1153221","0.0-95.0","A3PIHDC8LXVQ4H","","","","","-20","","","","","","","","","","","","","","","","","","","","","",""
"2398","","image-button-response","97","1158225","0.0-96.0","A3PIHDC8LXVQ4H","img_art/11.jpg","0","","","","","","","","","","","","","","","","","","","","","","","","",""
"5546","","image-button-response","98","1163773","0.0-97.0","A3PIHDC8LXVQ4H","img_art/11.jpg","2","","","","","","","","","","","","","","","","","","","","","","","","",""
"9589","","image-button-response","99","1173365","0.0-98.0-0.0","A3PIHDC8LXVQ4H","img_art/11.jpg","1","","","","","","","","","","","","","","","","","","","","","","","","",""
"2558","","image-button-response","100","1175926","0.0-99.0-0.0","A3PIHDC8LXVQ4H","img_art/11.jpg","0","","","","","","","","","","","","","","","","","","","","","","","","",""
"null","","html-keyboard-response","101","1177442","0.0-100.0","A3PIHDC8LXVQ4H","<p style=""font-size: 48px;"">+</p>","","","","","null","allTrialResponses","1500","1","8","img_art/11.jpg","-20","The colors of the vehicles on the bridges stand out","Victoria,Stephanie,Jenna,Marissa,Leah,Katelyn","reminds me of a rainy day in the city,32,400,20","Rainy dreary day in a town.,7,300,20","makes me think of city highways & bridges on a rainy, foggy day. I like the melancholy it evokes.,43,360,20","I dislike how dark this is,-21,160,20","Even with the colors, it is dreary to me,-32,360,20","I like the dark lines and it interests me,13,100,20","Jenna","makes me think of city highways & bridges on a rainy, foggy day. I like the melancholy it evokes.,43,360,20","Stephanie","Rainy dreary day in a town.,7,300,20","Victoria","reminds me of a rainy day in the city,32,400,20","2"
"27164","","survey-text","102","1204613","0.0-101.0-0.0","A3PIHDC8LXVQ4H","","","","{""Q0"":""A nice combination of colors""}","","","","","","","","","","","","","","","","","","","","","","",""
"5605.899999976158","","image-slider-response","103","1210221","0.0-102.0","A3PIHDC8LXVQ4H","","","","","22","","","","","","","","","","","","","","","","","","","","","",""
"2470","","image-button-response","104","1215225","0.0-103.0","A3PIHDC8LXVQ4H","img_art/20.jpg","0","","","","","","","","","","","","","","","","","","","","","","","","",""
"14201","","image-button-response","105","1229430","0.0-104.0","A3PIHDC8LXVQ4H","img_art/20.jpg","5","","","","","","","","","","","","","","","","","","","","","","","","",""
"2750","","image-button-response","106","1232181","0.0-105.0-0.0","A3PIHDC8LXVQ4H","img_art/20.jpg","0","","","","","","","","","","","","","","","","","","","","","","","","",""
"6430","","image-button-response","107","1238614","0.0-106.0-0.0","A3PIHDC8LXVQ4H","img_art/20.jpg","1","","","","","","","","","","","","","","","","","","","","","","","","",""
"null","","html-keyboard-response","108","1240123","0.0-107.0","A3PIHDC8LXVQ4H","<p style=""font-size: 48px;"">+</p>","","","","","null","allTrialResponses","1500","1","9","img_art/20.jpg","22","A nice combination of colors","Victoria,Stephanie,Jenna,Olivia,Maria,Abigail","like the colors and desert feel,7,400,20","Looks like an old gold mining down now deserted.,11,300,20","could look for hours. love the brush work. color choices look like a desert.,50,360,20","crash after traffic causing grief,-11,40,20","just feels generic,-18,120,20","A mountain vacation,46,20,20","Abigail","A mountain vacation,46,20,20","Victoria","like the colors and desert feel,7,400,20","Stephanie","Looks like an old gold mining down now deserted.,11,300,20","2"
"31331","","survey-text","109","1271462","0.0-108.0-0.0","A3PIHDC8LXVQ4H","","","","{""Q0"":""Way too busy and gloomy colors""}","","","","","","","","","","","","","","","","","","","","","","",""
"4277.799999952316","","image-slider-response","110","1275742","0.0-109.0","A3PIHDC8LXVQ4H","","","","","-41","","","","","","","","","","","","","","","","","","","","","",""
"null","","image-button-response","111","1280745","0.0-110.0","A3PIHDC8LXVQ4H","img_art/18.jpg","null","","","","","","","","","","","","","","","","","","","","","","","","",""
"7083","","image-button-response","112","1287829","0.0-111.0","A3PIHDC8LXVQ4H","img_art/18.jpg","1","","","","","","","","","","","","","","","","","","","","","","","","",""
"1358","","image-button-response","113","1289190","0.0-112.0-0.0","A3PIHDC8LXVQ4H","img_art/18.jpg","0","","","","","","","","","","","","","","","","","","","","","","","","",""
"5670","","image-button-response","114","1294861","0.0-113.0-0.0","A3PIHDC8LXVQ4H","img_art/18.jpg","3","","","","","","","","","","","","","","","","","","","","","","","","",""
"null","","html-keyboard-response","115","1295365","0.0-114.0","A3PIHDC8LXVQ4H","<p style=""font-size: 48px;"">+</p>","","","","","null","allTrialResponses","500","1","10","img_art/18.jpg","-41","Way too busy and gloomy colors","Victoria,Stephanie,Cassidy,Erica,Leslie,Abigail","Makes me think of stormy oceans,20,400,20","It made me think of a car crash,-39,300,20","nice balance of color. The different sizes and types of strokes give a lot to look at,18,140,20","Makes me to look at it and investigate what it is about and what is going on,17,80,20","This is a very energetic painting, and brings to mind scenes of battle.,50,380,20","Interesting and capitvating to look at,19,20,20","Stephanie","It made me think of a car crash,-39,300,20","Victoria","Makes me think of stormy oceans,20,400,20","Erica","Makes me to look at it and investigate what it is about and what is going on,17,80,20","2"
"7922","","survey-text","116","1303300","0.0-115.0-0.0","A3PIHDC8LXVQ4H","","","","{""Q0"":""our""}","","","","","","","","","","","","","","","","","","","","","","",""
"31967","","survey-text","117","1335269","0.0-116.0-0.0","A3PIHDC8LXVQ4H","","","","{""Q0"":""A crow sitting on a brick, interesting.""}","","","","","","","","","","","","","","","","","","","","","","",""
"5462.300000071526","","image-slider-response","118","1340733","0.0-117.0","A3PIHDC8LXVQ4H","","","","","37","","","","","","","","","","","","","","","","","","","","","",""
"null","","image-button-response","119","1345748","0.0-118.0","A3PIHDC8LXVQ4H","img_art/6.jpg","null","","","","","","","","","","","","","","","","","","","","","","","","",""
"6614","","image-button-response","120","1352365","0.0-119.0","A3PIHDC8LXVQ4H","img_art/6.jpg","3","","","","","","","","","","","","","","","","","","","","","","","","",""
"7006","","image-button-response","121","1359373","0.0-120.0-0.0","A3PIHDC8LXVQ4H","img_art/6.jpg","1","","","","","","","","","","","","","","","","","","","","","","","","",""
"1909","","image-button-response","122","1361284","0.0-121.0-0.0","A3PIHDC8LXVQ4H","img_art/6.jpg","0","","","","","","","","","","","","","","","","","","","","","","","","",""
"null","","html-keyboard-response","123","1362787","0.0-122.0","A3PIHDC8LXVQ4H","<p style=""font-size: 48px;"">+</p>","","","","","null","allTrialResponses","1500","1","11","img_art/6.jpg","37","A crow sitting on a brick, interesting.","Victoria,Stephanie,Gabrielle,Erica,Mackenzie,Lauren","makes me think of nature,30,400,20","Nevermore!  A black raven sitting on a pumpkin. Halloween,-35,300,20","simplistic but reminds me of a crow in a field,-10,160,20","positive because of bright colours and a bird,20,80,20","I enjoy the color contrast.,20,20,20","I like the simplicity of the piece.,10,340,20","Erica","positive because of bright colours and a bird,20,80,20","Stephanie","Nevermore!  A black raven sitting on a pumpkin. Halloween,-35,300,20","Victoria","makes me think of nature,30,400,20","2"
"33242","","survey-text","124","1396037","0.0-123.0-0.0","A3PIHDC8LXVQ4H","","","","{""Q0"":""Depressing, looks like the artist was angry""}","","","","","","","","","","","","","","","","","","","","","","",""
"5798","","image-slider-response","125","1401837","0.0-124.0","A3PIHDC8LXVQ4H","","","","","-44","","","","","","","","","","","","","","","","","","","","","",""
"4454","","image-button-response","126","1406839","0.0-125.0","A3PIHDC8LXVQ4H","img_art/2.jpg","2","","","","","","","","","","","","","","","","","","","","","","","","",""
"3884","","image-button-response","127","1410725","0.0-126.0","A3PIHDC8LXVQ4H","img_art/2.jpg","4","","","","","","","","","","","","","","","","","","","","","","","","",""
"3541","","image-button-response","128","1414268","0.0-127.0-0.0","A3PIHDC8LXVQ4H","img_art/2.jpg","5","","","","","","","","","","","","","","","","","","","","","","","","",""
"6598","","image-button-response","129","1420868","0.0-128.0-0.0","A3PIHDC8LXVQ4H","img_art/2.jpg","2","","","","","","","","","","","","","","","","","","","","","","","","",""
"null","","html-keyboard-response","130","1421370","0.0-129.0","A3PIHDC8LXVQ4H","<p style=""font-size: 48px;"">+</p>","","","","","null","allTrialResponses","500","1","12","img_art/2.jpg","-44","Depressing, looks like the artist was angry","Victoria,Stephanie,Danielle,Erica,Sabrina,Gabriela","I like the colors,22,400,20","The colors are what I like. It looks like a smiling face too.,32,300,20","Not a fan of this style,-30,340,20","positive, seems like someone really happy and colourful is looking at me,22,80,20","I dont like the expression of this,-19,120,20","The people look blurred together,-21,140,20","Sabrina","I dont like the expression of this,-19,120,20","Gabriela","The people look blurred together,-21,140,20","Danielle","Not a fan of this style,-30,340,20","2"
"30218","","survey-text","131","1451597","0.0-130.0-0.0","A3PIHDC8LXVQ4H","","","","{""Q0"":""Too much going on, not sure what this is""}","","","","","","","","","","","","","","","","","","","","","","",""
"3926.5","","image-slider-response","132","1455525","0.0-131.0","A3PIHDC8LXVQ4H","","","","","-24","","","","","","","","","","","","","","","","","","","","","",""
"null","","image-button-response","133","1460529","0.0-132.0","A3PIHDC8LXVQ4H","img_art/19.jpg","null","","","","","","","","","","","","","","","","","","","","","","","","",""
"6834","","image-button-response","134","1467365","0.0-133.0","A3PIHDC8LXVQ4H","img_art/19.jpg","5","","","","","","","","","","","","","","","","","","","","","","","","",""
"4086","","image-button-response","135","1471453","0.0-134.0-0.0","A3PIHDC8LXVQ4H","img_art/19.jpg","1","","","","","","","","","","","","","","","","","","","","","","","","",""
"1397","","image-button-response","136","1472853","0.0-135.0-0.0","A3PIHDC8LXVQ4H","img_art/19.jpg","0","","","","","","","","","","","","","","","","","","","","","","","","",""
"null","","html-keyboard-response","137","1473855","0.0-136.0","A3PIHDC8LXVQ4H","<p style=""font-size: 48px;"">+</p>","","","","","null","allTrialResponses","1000","1","13","img_art/19.jpg","-24","Too much going on, not sure what this is","Paige,Angelica,Danielle,Mary,Sabrina,Gabriela","it's too busy for me. Makes me feel stressed.,1,60,20","This is like an ugly version of a Basquiat.,-24,280,20","It looks like as if it were portraying a village that was polluted? I don't like the theme anyway,-21,340,20","I interpret an outdoor scene. It's good because it makes me want to look longer.,22,180,20","Gives a very open and freeing vibe,42,120,20","it looks messy and non-unique.,-9,140,20","Gabriela","it looks messy and non-unique.,-9,140,20","Angelica","This is like an ugly version of a Basquiat.,-24,280,20","Paige","it's too busy for me. Makes me feel stressed.,1,60,20","2"
"21039","","survey-text","138","1494901","0.0-137.0-0.0","A3PIHDC8LXVQ4H","","","","{""Q0"":""interesting brush strokes""}","","","","","","","","","","","","","","","","","","","","","","",""
"4452.599999904633","","image-slider-response","139","1499356","0.0-138.0","A3PIHDC8LXVQ4H","","","","","15","","","","","","","","","","","","","","","","","","","","","",""
"null","","image-button-response","140","1504358","0.0-139.0","A3PIHDC8LXVQ4H","img_art/30.jpg","null","","","","","","","","","","","","","","","","","","","","","","","","",""
"4149","","image-button-response","141","1508509","0.0-140.0","A3PIHDC8LXVQ4H","img_art/30.jpg","4","","","","","","","","","","","","","","","","","","","","","","","","",""
"2117","","image-button-response","142","1510629","0.0-141.0-0.0","A3PIHDC8LXVQ4H","img_art/30.jpg","5","","","","","","","","","","","","","","","","","","","","","","","","",""
"5918","","image-button-response","143","1516549","0.0-142.0-0.0","A3PIHDC8LXVQ4H","img_art/30.jpg","0","","","","","","","","","","","","","","","","","","","","","","","","",""
"null","","html-keyboard-response","144","1517552","0.0-143.0","A3PIHDC8LXVQ4H","<p style=""font-size: 48px;"">+</p>","","","","","null","allTrialResponses","1000","1","14","img_art/30.jpg","15","interesting brush strokes","Paige,Angelica,Angela,Kaitlyn,Lindsey,Gabriela","Happy. Makes me think of childhood finger painting,49,60,20","This is just simple and ugly.,-2,280,20","Really don't like this piece. It feels very lazy to me.,-31,260,20","Do not like the streaks,-14,80,20","Interesting. Not sure what I'm seeing but it makes me want to figure it out.,5,400,20","I like the strong lines or brush strokes. It looks modern and bold,21,140,20","Lindsey","Interesting. Not sure what I'm seeing but it makes me want to figure it out.,5,400,20","Gabriela","I like the strong lines or brush strokes. It looks modern and bold,21,140,20","Paige","Happy. Makes me think of childhood finger painting,49,60,20","2"
"23324","","survey-text","145","1540884","0.0-144.0-0.0","A3PIHDC8LXVQ4H","","","","{""Q0"":""looks like a sample from a laboratory""}","","","","","","","","","","","","","","","","","","","","","","",""
"5646.200000047684","","image-slider-response","146","1546533","0.0-145.0","A3PIHDC8LXVQ4H","","","","","-46","","","","","","","","","","","","","","","","","","","","","",""
"4511","","image-button-response","147","1551536","0.0-146.0","A3PIHDC8LXVQ4H","img_art/7.jpg","2","","","","","","","","","","","","","","","","","","","","","","","","",""
"1779","","image-button-response","148","1553318","0.0-147.0","A3PIHDC8LXVQ4H","img_art/7.jpg","2","","","","","","","","","","","","","","","","","","","","","","","","",""
"7894","","image-button-response","149","1561214","0.0-148.0-0.0","A3PIHDC8LXVQ4H","img_art/7.jpg","5","","","","","","","","","","","","","","","","","","","","","","","","",""
"2765","","image-button-response","150","1563982","0.0-149.0-0.0","A3PIHDC8LXVQ4H","img_art/7.jpg","4","","","","","","","","","","","","","","","","","","","","","","","","",""
"null","","html-keyboard-response","151","1564984","0.0-150.0","A3PIHDC8LXVQ4H","<p style=""font-size: 48px;"">+</p>","","","","","null","allTrialResponses","1000","1","15","img_art/7.jpg","-46","looks like a sample from a laboratory","Paige,Savannah,Heather,Elizabeth,Lindsey,Gabriela","Happy. Looking at the moon,43,60,20","More saturated color, even more interpretations to have.,44,200,20","i dont like it. it looks like rocks,-40,260,20","The picture is just random,-8,20,20","It's dirty. I don't mind the colors so much as the way they are put together in this dirty-looking pattern.,-41,400,20","it looks like an ant farm,12,140,20","Heather","i dont like it. it looks like rocks,-40,260,20","Gabriela","it looks like an ant farm,12,140,20","Lindsey","It's dirty. I don't mind the colors so much as the way they are put together in this dirty-looking pattern.,-41,400,20","2"
"8061","","survey-text","152","1573061","0.0-151.0-0.0","A3PIHDC8LXVQ4H","","","","{""Q0"":""course""}","","","","","","","","","","","","","","","","","","","","","","",""
"24399","","survey-text","153","1597461","0.0-152.0-0.0","A3PIHDC8LXVQ4H","","","","{""Q0"":""I love the colors of the tree, very pretty""}","","","","","","","","","","","","","","","","","","","","","","",""
"6077.5","","image-slider-response","154","1603541","0.0-153.0","A3PIHDC8LXVQ4H","","","","","47","","","","","","","","","","","","","","","","","","","","","",""
"null","","image-button-response","155","1608558","0.0-154.0","A3PIHDC8LXVQ4H","img_art/17.jpg","null","","","","","","","","","","","","","","","","","","","","","","","","",""
"2070","","image-button-response","156","1610630","0.0-155.0","A3PIHDC8LXVQ4H","img_art/17.jpg","2","","","","","","","","","","","","","","","","","","","","","","","","",""
"4805","","image-button-response","157","1615438","0.0-156.0-0.0","A3PIHDC8LXVQ4H","img_art/17.jpg","4","","","","","","","","","","","","","","","","","","","","","","","","",""
"2901","","image-button-response","158","1618342","0.0-157.0-0.0","A3PIHDC8LXVQ4H","img_art/17.jpg","0","","","","","","","","","","","","","","","","","","","","","","","","",""
"null","","html-keyboard-response","159","1619344","0.0-158.0","A3PIHDC8LXVQ4H","<p style=""font-size: 48px;"">+</p>","","","","","null","allTrialResponses","1000","1","16","img_art/17.jpg","47","I love the colors of the tree, very pretty","Madeline,Vanessa,Heather,Alexandria,Lindsey,Gabriela","So expressive and wonderful wow!,17,40,20","I want to know more about this picture and where it leads if you could get inside it.,27,380,20","Beautiful simply beautiful. i would love this,,50,260,20","it looks very intricate and colorful,50,80,20","Pretty composition and I like the colors.,20,400,20","This makes me feel inspired and happy. I love everything about this portrait,45,140,20","Heather","Beautiful simply beautiful. i would love this,,50,260,20","Lindsey","Pretty composition and I like the colors.,20,400,20","Madeline","So expressive and wonderful wow!,17,40,20","2"
"19806","","survey-text","160","1639157","0.0-159.0-0.0","A3PIHDC8LXVQ4H","","","","{""Q0"":""The teddy bear is so cute""}","","","","","","","","","","","","","","","","","","","","","","",""
"4366.700000047684","","image-slider-response","161","1643526","0.0-160.0","A3PIHDC8LXVQ4H","","","","","21","","","","","","","","","","","","","","","","","","","","","",""
"null","","image-button-response","162","1648529","0.0-161.0","A3PIHDC8LXVQ4H","img_art/16.jpg","null","","","","","","","","","","","","","","","","","","","","","","","","",""
"15826","","image-button-response","163","1664358","0.0-162.0","A3PIHDC8LXVQ4H","img_art/16.jpg","2","","","","","","","","","","","","","","","","","","","","","","","","",""
"11486","","image-button-response","164","1675846","0.0-163.0-0.0","A3PIHDC8LXVQ4H","img_art/16.jpg","1","","","","","","","","","","","","","","","","","","","","","","","","",""
"5470","","image-button-response","165","1681318","0.0-164.0-0.0","A3PIHDC8LXVQ4H","img_art/16.jpg","5","","","","","","","","","","","","","","","","","","","","","","","","",""
"null","","html-keyboard-response","166","1681829","0.0-165.0","A3PIHDC8LXVQ4H","<p style=""font-size: 48px;"">+</p>","","","","","null","allTrialResponses","500","1","17","img_art/16.jpg","21","The teddy bear is so cute","Madeline,Rachel,Heather,Caroline,Lindsey,Tiffany","That bear looks unfitting!,-8,40,20","Not pleasing to the eyes. I do like that the gun is broken though.,-28,80,20","lol i dont know how i feel about this.,1,260,20","Did not like at all. I think something sinister going on in the background and the bear a diversion,-50,100,20","It's depressing. Probably achieved its goal. But I wouldn't want it hanging in my home.,-31,400,20","I feel irked, like somehow the items in this painting just happened to fall on the page together.,-44,360,20","Heather","lol i dont know how i feel about this.,1,260,20","Rachel","Not pleasing to the eyes. I do like that the gun is broken though.,-28,80,20","Tiffany","I feel irked, like somehow the items in this painting just happened to fall on the page together.,-44,360,20","2"
"14696","","survey-text","167","1696534","0.0-166.0-0.0","A3PIHDC8LXVQ4H","","","","{""Q0"":""Looks like a jigsaw puzzle""}","","","","","","","","","","","","","","","","","","","","","","",""
"6189.699999928474","","image-slider-response","168","1702726","0.0-167.0","A3PIHDC8LXVQ4H","","","","","-34","","","","","","","","","","","","","","","","","","","","","",""
"null","","image-button-response","169","1707730","0.0-168.0","A3PIHDC8LXVQ4H","img_art/12.jpg","null","","","","","","","","","","","","","","","","","","","","","","","","",""
"4233","","image-button-response","170","1711966","0.0-169.0","A3PIHDC8LXVQ4H","img_art/12.jpg","4","","","","","","","","","","","","","","","","","","","","","","","","",""
"8189","","image-button-response","171","1720158","0.0-170.0-0.0","A3PIHDC8LXVQ4H","img_art/12.jpg","1","","","","","","","","","","","","","","","","","","","","","","","","",""
"9669","","image-button-response","172","1729830","0.0-171.0-0.0","A3PIHDC8LXVQ4H","img_art/12.jpg","5","","","","","","","","","","","","","","","","","","","","","","","","",""
"null","","html-keyboard-response","173","1730832","0.0-172.0","A3PIHDC8LXVQ4H","<p style=""font-size: 48px;"">+</p>","","","","","null","allTrialResponses","1000","1","18","img_art/12.jpg","-34","Looks like a jigsaw puzzle","Kristen,Rachel,Heather,Monica,Andrea,Tiffany","stressful, upsetting,-10,280,20","I like how it's split into tiny squares, but otherwise, not very intriguing.,-18,80,20","beautiful also reminds me of a quilt,1,260,20","Reminds me of collages we made in elementary school. I like the contrast of the colors from top to bottom,43,360,20","It just feels like a jigsaw puzzle,-4,240,20","The painting makes me uncomfortable. The smears in the boxes feel like a giant mess.,-16,360,20","Andrea","It just feels like a jigsaw puzzle,-4,240,20","Rachel","I like how it's split into tiny squares, but otherwise, not very intriguing.,-18,80,20","Tiffany","The painting makes me uncomfortable. The smears in the boxes feel like a giant mess.,-16,360,20","2"
"19420","","survey-text","174","1750261","0.0-173.0-0.0","A3PIHDC8LXVQ4H","","","","{""Q0"":""Reminds me of Christmas wrapping paper""}","","","","","","","","","","","","","","","","","","","","","","",""
"5206.399999976158","","image-slider-response","175","1755470","0.0-174.0","A3PIHDC8LXVQ4H","","","","","4","","","","","","","","","","","","","","","","","","","","","",""
"2942","","image-button-response","176","1760473","0.0-175.0","A3PIHDC8LXVQ4H","img_art/22.jpg","1","","","","","","","","","","","","","","","","","","","","","","","","",""
"2337","","image-button-response","177","1762813","0.0-176.0","A3PIHDC8LXVQ4H","img_art/22.jpg","2","","","","","","","","","","","","","","","","","","","","","","","","",""
"3863","","image-button-response","178","1766678","0.0-177.0-0.0","A3PIHDC8LXVQ4H","img_art/22.jpg","3","","","","","","","","","","","","","","","","","","","","","","","","",""
"1668","","image-button-response","179","1768349","0.0-178.0-0.0","A3PIHDC8LXVQ4H","img_art/22.jpg","1","","","","","","","","","","","","","","","","","","","","","","","","",""
"null","","html-keyboard-response","180","1769861","0.0-179.0","A3PIHDC8LXVQ4H","<p style=""font-size: 48px;"">+</p>","","","","","null","allTrialResponses","1500","1","19","img_art/22.jpg","4","Reminds me of Christmas wrapping paper","Emily,Rachel,Jessica,Melissa,Andrea,Tiffany","There is some flow and organization.,10,40,20","I like the vivid colors.,11,80,20","I like the mixing of the primary colors.,8,400,20","strong blending skills,7,240,20","I don't feel much of anything.,0,240,20","The painting makes me feel a little sad.,12,360,20","Jessica","I like the mixing of the primary colors.,8,400,20","Melissa","strong blending skills,7,240,20","Rachel","I like the vivid colors.,11,80,20","2"
"32839","","survey-text","181","1802710","0.0-180.0-0.0","A3PIHDC8LXVQ4H","","","","{""Q0"":""A strange color combination""}","","","","","","","","","","","","","","","","","","","","","","",""
"4021.7999999523163","","image-slider-response","182","1806733","0.0-181.0","A3PIHDC8LXVQ4H","","","","","-22","","","","","","","","","","","","","","","","","","","","","",""
"null","","image-button-response","183","1811736","0.0-182.0","A3PIHDC8LXVQ4H","img_art/9.jpg","null","","","","","","","","","","","","","","","","","","","","","","","","",""
"5651","","image-button-response","184","1817390","0.0-183.0","A3PIHDC8LXVQ4H","img_art/9.jpg","4","","","","","","","","","","","","","","","","","","","","","","","","",""
"3510","","image-button-response","185","1820902","0.0-184.0-0.0","A3PIHDC8LXVQ4H","img_art/9.jpg","2","","","","","","","","","","","","","","","","","","","","","","","","",""
"2445","","image-button-response","186","1823350","0.0-185.0-0.0","A3PIHDC8LXVQ4H","img_art/9.jpg","1","","","","","","","","","","","","","","","","","","","","","","","","",""
"null","","html-keyboard-response","187","1824859","0.0-186.0","A3PIHDC8LXVQ4H","<p style=""font-size: 48px;"">+</p>","","","","","null","allTrialResponses","1500","1","20","img_art/9.jpg","-22","A strange color combination","Makayla,Rachel,Jessica,Melissa,Sara,Brittany","Looks like a monster's teeth , unsettling,-18,80,20","It looks like a lady taking a peaceful nap on a blanket in the grass.,41,80,20","So I don't really like this style but it looks somewhat okay,3,400,20","strong focal point, appealing use of selective line,11,240,20","Spiral patterns are not my thing,-30,160,20","It reminds me of an illustration for a fairy tale.,19,40,20","Sara","Spiral patterns are not my thing,-30,160,20","Jessica","So I don't really like this style but it looks somewhat okay,3,400,20","Rachel","It looks like a lady taking a peaceful nap on a blanket in the grass.,41,80,20","2"
"4593","","survey-text","188","1829470","0.0-187.0-0.0","A3PIHDC8LXVQ4H","","","","{""Q0"":""we""}","","","","","","","","","","","","","","","","","","","","","","",""
"18966","","survey-text","189","1848437","0.0-188.0-0.0","A3PIHDC8LXVQ4H","","","","{""Q0"":""Very unusual and nicely done""}","","","","","","","","","","","","","","","","","","","","","","",""
"4406.5","","image-slider-response","190","1852845","0.0-189.0","A3PIHDC8LXVQ4H","","","","","37","","","","","","","","","","","","","","","","","","","","","",""
"null","","image-button-response","191","1857848","0.0-190.0","A3PIHDC8LXVQ4H","img_art/10.jpg","null","","","","","","","","","","","","","","","","","","","","","","","","",""
"380","","image-button-response","192","1858230","0.0-191.0","A3PIHDC8LXVQ4H","img_art/10.jpg","2","","","","","","","","","","","","","","","","","","","","","","","","",""
"4062","","image-button-response","193","1862294","0.0-192.0-0.0","A3PIHDC8LXVQ4H","img_art/10.jpg","5","","","","","","","","","","","","","","","","","","","","","","","","",""
"4397","","image-button-response","194","1866693","0.0-193.0-0.0","A3PIHDC8LXVQ4H","img_art/10.jpg","1","","","","","","","","","","","","","","","","","","","","","","","","",""
"null","","html-keyboard-response","195","1867195","0.0-194.0","A3PIHDC8LXVQ4H","<p style=""font-size: 48px;"">+</p>","","","","","null","allTrialResponses","500","1","21","img_art/10.jpg","37","Very unusual and nicely done","Jasmine,Rachel,Jessica,Isabella,Sara,Allison","It's okay but not giving me the strongest reaction,6,340,20","Reminds me of a terrarium with cacti inside. It reminds me of home.,27,80,20","I feel like this has a cool concept behind it.,11,400,20","Like a decision making process,46,280,20","I don't like the colors,-20,160,20","I like the contrast,10,140,20","Jessica","I feel like this has a cool concept behind it.,11,400,20","Allison","I like the contrast,10,140,20","Rachel","Reminds me of a terrarium with cacti inside. It reminds me of home.,27,80,20","2"
"25905","","survey-text","196","1893110","0.0-195.0-0.0","A3PIHDC8LXVQ4H","","","","{""Q0"":""Looks like rain coming down""}","","","","","","","","","","","","","","","","","","","","","","",""
"4253.399999976158","","image-slider-response","197","1897365","0.0-196.0","A3PIHDC8LXVQ4H","","","","","19","","","","","","","","","","","","","","","","","","","","","",""
"1982","","image-button-response","198","1902369","0.0-197.0","A3PIHDC8LXVQ4H","img_art/13.jpg","0","","","","","","","","","","","","","","","","","","","","","","","","",""
"3074","","image-button-response","199","1905446","0.0-198.0","A3PIHDC8LXVQ4H","img_art/13.jpg","3","","","","","","","","","","","","","","","","","","","","","","","","",""
"1630","","image-button-response","200","1907078","0.0-199.0-0.0","A3PIHDC8LXVQ4H","img_art/13.jpg","4","","","","","","","","","","","","","","","","","","","","","","","","",""
"2685","","image-button-response","201","1909765","0.0-200.0-0.0","A3PIHDC8LXVQ4H","img_art/13.jpg","0","","","","","","","","","","","","","","","","","","","","","","","","",""
"null","","html-keyboard-response","202","1911278","0.0-201.0","A3PIHDC8LXVQ4H","<p style=""font-size: 48px;"">+</p>","","","","","null","allTrialResponses","1500","1","22","img_art/13.jpg","19","Looks like rain coming down","Cynthia,Rachel,Jessica,Erin,Kayla,Allison","It reminds me of rain,11,320,20","Peaceful colors.,20,80,20","The paint splatter idea is kind of overused but I like how it brings the piece together,16,400,20","Color palette is complementary,40,120,20","Pleasing, happy, rainy.,12,180,20","Generic mix of colors. Cool and messy.,10,140,20","Erin","Color palette is complementary,40,120,20","Kayla","Pleasing, happy, rainy.,12,180,20","Cynthia","It reminds me of rain,11,320,20","2"
"26893","","survey-text","203","1938181","0.0-202.0-0.0","A3PIHDC8LXVQ4H","","","","{""Q0"":""Reminds me of a Spanish town""}","","","","","","","","","","","","","","","","","","","","","","",""
"4254.299999952316","","image-slider-response","204","1942437","0.0-203.0","A3PIHDC8LXVQ4H","","","","","19","","","","","","","","","","","","","","","","","","","","","",""
"null","","image-button-response","205","1947447","0.0-204.0","A3PIHDC8LXVQ4H","img_art/26.jpg","null","","","","","","","","","","","","","","","","","","","","","","","","",""
"7419","","image-button-response","206","1954869","0.0-205.0","A3PIHDC8LXVQ4H","img_art/26.jpg","5","","","","","","","","","","","","","","","","","","","","","","","","",""
"3749","","image-button-response","207","1958621","0.0-206.0-0.0","A3PIHDC8LXVQ4H","img_art/26.jpg","1","","","","","","","","","","","","","","","","","","","","","","","","",""
"1390","","image-button-response","208","1960014","0.0-207.0-0.0","A3PIHDC8LXVQ4H","img_art/26.jpg","0","","","","","","","","","","","","","","","","","","","","","","","","",""
"null","","html-keyboard-response","209","1961516","0.0-208.0","A3PIHDC8LXVQ4H","<p style=""font-size: 48px;"">+</p>","","","","","null","allTrialResponses","1500","1","23","img_art/26.jpg","19","Reminds me of a Spanish town","Cynthia,Kathryn,Amy,Erin,Kayla,Meghan","dull and boring,-6,320,20","This piece feels pretty chill like it's just a normal day in the city.,10,140,20","The feeling that I am looking at the world through a dingy filter makes this unpleasant for me.,-20,220,20","City scene in a park,23,120,20","Looks like the suburbs. I live in those.,13,180,20","nothing really special, quite bland,1,220,20","Meghan","nothing really special, quite bland,1,220,20","Kathryn","This piece feels pretty chill like it's just a normal day in the city.,10,140,20","Cynthia","dull and boring,-6,320,20","2"
"19409","","survey-text","210","1980934","0.0-209.0-0.0","A3PIHDC8LXVQ4H","","","","{""Q0"":""Reminds me of a wood sculpture""}","","","","","","","","","","","","","","","","","","","","","","",""
"4262.199999928474","","image-slider-response","211","1985198","0.0-210.0","A3PIHDC8LXVQ4H","","","","","21","","","","","","","","","","","","","","","","","","","","","",""
"null","","image-button-response","212","1990214","0.0-211.0","A3PIHDC8LXVQ4H","img_art/4.jpg","null","","","","","","","","","","","","","","","","","","","","","","","","",""
"4166","","image-button-response","213","1994382","0.0-212.0","A3PIHDC8LXVQ4H","img_art/4.jpg","4","","","","","","","","","","","","","","","","","","","","","","","","",""
"974","","image-button-response","214","1995358","0.0-213.0-0.0","A3PIHDC8LXVQ4H","img_art/4.jpg","5","","","","","","","","","","","","","","","","","","","","","","","","",""
"7589","","image-button-response","215","2002950","0.0-214.0-0.0","A3PIHDC8LXVQ4H","img_art/4.jpg","3","","","","","","","","","","","","","","","","","","","","","","","","",""
"null","","html-keyboard-response","216","2003452","0.0-215.0","A3PIHDC8LXVQ4H","<p style=""font-size: 48px;"">+</p>","","","","","null","allTrialResponses","500","1","24","img_art/4.jpg","21","Reminds me of a wood sculpture","Cynthia,Kathryn,Chloe,Chelsea,Laura,Meghan","creepy as it looks like fingernails,-23,320,20","I feel kind of guilty looking at this, like I'm receiving a reward I don't I deserve.,-10,140,20","Great movement but don't love the yellowy tones.,31,220,20","The colors remind me of McDonalds.,-41,180,20","spontaneous, without hesitation,22,320,20","feels free flowing and relaxed,21,220,20","Laura","spontaneous, without hesitation,22,320,20","Meghan","feels free flowing and relaxed,21,220,20","Chelsea","The colors remind me of McDonalds.,-41,180,20","2"
"48319","","survey-text","217","2051781","0.0-216.0-0.0","A3PIHDC8LXVQ4H","","","","{""Q0"":""Unusual, I like the blue against the black""}","","","","","","","","","","","","","","","","","","","","","","",""
"3861.7000000476837","","image-slider-response","218","2055645","0.0-217.0","A3PIHDC8LXVQ4H","","","","","17","","","","","","","","","","","","","","","","","","","","","",""
"null","","image-button-response","219","2060648","0.0-218.0","A3PIHDC8LXVQ4H","img_art/15.jpg","null","","","","","","","","","","","","","","","","","","","","","","","","",""
"1531","","image-button-response","220","2062182","0.0-219.0","A3PIHDC8LXVQ4H","img_art/15.jpg","2","","","","","","","","","","","","","","","","","","","","","","","","",""
"3718","","image-button-response","221","2065902","0.0-220.0-0.0","A3PIHDC8LXVQ4H","img_art/15.jpg","5","","","","","","","","","","","","","","","","","","","","","","","","",""
"1830","","image-button-response","222","2067734","0.0-221.0-0.0","A3PIHDC8LXVQ4H","img_art/15.jpg","0","","","","","","","","","","","","","","","","","","","","","","","","",""
"null","","html-keyboard-response","223","2068235","0.0-222.0","A3PIHDC8LXVQ4H","<p style=""font-size: 48px;"">+</p>","","","","","null","allTrialResponses","500","1","25","img_art/15.jpg","17","Unusual, I like the blue against the black","Nicole,Destiny,Hannah,Chelsea,Laura,Meghan","Very cool, i want it in my living room,50,20,20","I couldn't tell you why but I'm really into this,39,360,20","Like this for the colors and arrangement.,11,240,20","The colors are too busy.,-39,180,20","abrasive, rough, uneven,-31,320,20","I like the pattern of it,11,220,20","Hannah","Like this for the colors and arrangement.,11,240,20","Meghan","I like the pattern of it,11,220,20","Nicole","Very cool, i want it in my living room,50,20,20","2"
"5311","","survey-text","224","2073565","0.0-223.0-0.0","A3PIHDC8LXVQ4H","","","","{""Q0"":""table""}","","","","","","","","","","","","","","","","","","","","","","",""
"32991","","survey-text","225","2106558","0.0-224.0-0.0","A3PIHDC8LXVQ4H","","","","{""Q0"":""The paint brush has been left on the painting""}","","","","","","","","","","","","","","","","","","","","","","",""
"3981","","image-slider-response","226","2110541","0.0-225.0","A3PIHDC8LXVQ4H","","","","","-24","","","","","","","","","","","","","","","","","","","","","",""
"null","","image-button-response","227","2115544","0.0-226.0","A3PIHDC8LXVQ4H","img_art/29.jpg","null","","","","","","","","","","","","","","","","","","","","","","","","",""
"5035","","image-button-response","228","2120582","0.0-227.0","A3PIHDC8LXVQ4H","img_art/29.jpg","3","","","","","","","","","","","","","","","","","","","","","","","","",""
"2974","","image-button-response","229","2123558","0.0-228.0-0.0","A3PIHDC8LXVQ4H","img_art/29.jpg","4","","","","","","","","","","","","","","","","","","","","","","","","",""
"2813","","image-button-response","230","2126374","0.0-229.0-0.0","A3PIHDC8LXVQ4H","img_art/29.jpg","2","","","","","","","","","","","","","","","","","","","","","","","","",""
"null","","html-keyboard-response","231","2127375","0.0-230.0","A3PIHDC8LXVQ4H","<p style=""font-size: 48px;"">+</p>","","","","","null","allTrialResponses","1000","1","26","img_art/29.jpg","-24","The paint brush has been left on the painting","Nicole,Crystal,Hannah,Christina,Breanna,Meghan","This one feels scary in a good way,30,20,20","Reminiscent of Jackson Pollock with a hint of abstract structure with the bordering.,32,300,20","I don't like the red X through it.,-20,240,20","It's too on trend with the gray and doesn't look like a lasting piece,-4,240,20","Makes me feel untidy,-9,380,20","feels random and not thoughtout,-37,220,20","Christina","It's too on trend with the gray and doesn't look like a lasting piece,-4,240,20","Breanna","Makes me feel untidy,-9,380,20","Hannah","I don't like the red X through it.,-20,240,20","2"
"31228","","survey-text","232","2158614","0.0-231.0-0.0","A3PIHDC8LXVQ4H","","","","{""Q0"":""looks like two creatures engaged in conversation""}","","","","","","","","","","","","","","","","","","","","","","",""
"4365.899999976158","","image-slider-response","233","2162982","0.0-232.0","A3PIHDC8LXVQ4H","","","","","-23","","","","","","","","","","","","","","","","","","","","","",""
"4045","","image-button-response","234","2167985","0.0-233.0","A3PIHDC8LXVQ4H","img_art/28.jpg","2","","","","","","","","","","","","","","","","","","","","","","","","",""
"7098","","image-button-response","235","2175086","0.0-234.0","A3PIHDC8LXVQ4H","img_art/28.jpg","0","","","","","","","","","","","","","","","","","","","","","","","","",""
"8670","","image-button-response","236","2183758","0.0-235.0-0.0","A3PIHDC8LXVQ4H","img_art/28.jpg","2","","","","","","","","","","","","","","","","","","","","","","","","",""
"3174","","image-button-response","237","2186934","0.0-236.0-0.0","A3PIHDC8LXVQ4H","img_art/28.jpg","4","","","","","","","","","","","","","","","","","","","","","","","","",""
"null","","html-keyboard-response","238","2187946","0.0-237.0","A3PIHDC8LXVQ4H","<p style=""font-size: 48px;"">+</p>","","","","","null","allTrialResponses","1000","1","27","img_art/28.jpg","-23","looks like two creatures engaged in conversation","Shannon,Jacqueline,Hannah,Christina,Breanna,Margaret","I don't like the way the colors look; I think very disgusting colors were used.,-20,220,20","I don't like the washed out colors.,-15,300,20","The colors are drab and a little depressing.,-20,240,20","very blah colors and it's not fun,-27,240,20","The colors are depressing,-5,380,20","i like the neutral color pallette but i dont know what i am looking at,26,100,20","Shannon","I don't like the way the colors look; I think very disgusting colors were used.,-20,220,20","Hannah","The colors are drab and a little depressing.,-20,240,20","Breanna","The colors are depressing,-5,380,20","2"
"32258","","survey-text","239","2220215","0.0-238.0-0.0","A3PIHDC8LXVQ4H","","","","{""Q0"":""Looks like a tree toppling over""}","","","","","","","","","","","","","","","","","","","","","","",""
"3557.7999999523163","","image-slider-response","240","2223774","0.0-239.0","A3PIHDC8LXVQ4H","","","","","-23","","","","","","","","","","","","","","","","","","","","","",""
"null","","image-button-response","241","2228777","0.0-240.0","A3PIHDC8LXVQ4H","img_art/14.jpg","null","","","","","","","","","","","","","","","","","","","","","","","","",""
"2603","","image-button-response","242","2231382","0.0-241.0","A3PIHDC8LXVQ4H","img_art/14.jpg","2","","","","","","","","","","","","","","","","","","","","","","","","",""
"5343","","image-button-response","243","2236728","0.0-242.0-0.0","A3PIHDC8LXVQ4H","img_art/14.jpg","3","","","","","","","","","","","","","","","","","","","","","","","","",""
"2716","","image-button-response","244","2239447","0.0-243.0-0.0","A3PIHDC8LXVQ4H","img_art/14.jpg","1","","","","","","","","","","","","","","","","","","","","","","","","",""
"null","","html-keyboard-response","245","2239948","0.0-244.0","A3PIHDC8LXVQ4H","<p style=""font-size: 48px;"">+</p>","","","","","null","allTrialResponses","500","1","28","img_art/14.jpg","-23","Looks like a tree toppling over","Shannon,Julia,Hannah,Claire,Breanna,Taylor","I like this picture because it looks like a tree and the colors used look cool.,20,220,20","I don't care for the style,-38,40,20","This doesn't speak to me on an emotional level,-6,240,20","mythical and nature like,37,260,20","Makes me feel good,30,380,20","Makes me think of my plants growing,11,340,20","Hannah","This doesn't speak to me on an emotional level,-6,240,20","Claire","mythical and nature like,37,260,20","Julia","I don't care for the style,-38,40,20","2"
"17791","","survey-text","246","2257750","0.0-245.0-0.0","A3PIHDC8LXVQ4H","","","","{""Q0"":""Way too many dark colors""}","","","","","","","","","","","","","","","","","","","","","","",""
"4101.699999928474","","image-slider-response","247","2261854","0.0-246.0","A3PIHDC8LXVQ4H","","","","","-41","","","","","","","","","","","","","","","","","","","","","",""
"4055","","image-button-response","248","2266857","0.0-247.0","A3PIHDC8LXVQ4H","img_art/1.jpg","1","","","","","","","","","","","","","","","","","","","","","","","","",""
"5306","","image-button-response","249","2272166","0.0-248.0","A3PIHDC8LXVQ4H","img_art/1.jpg","2","","","","","","","","","","","","","","","","","","","","","","","","",""
"2413","","image-button-response","250","2274582","0.0-249.0-0.0","A3PIHDC8LXVQ4H","img_art/1.jpg","1","","","","","","","","","","","","","","","","","","","","","","","","",""
"6477","","image-button-response","251","2281062","0.0-250.0-0.0","A3PIHDC8LXVQ4H","img_art/1.jpg","0","","","","","","","","","","","","","","","","","","","","","","","","",""
"null","","html-keyboard-response","252","2282073","0.0-251.0","A3PIHDC8LXVQ4H","<p style=""font-size: 48px;"">+</p>","","","","","null","allTrialResponses","1000","1","29","img_art/1.jpg","-41","Way too many dark colors","Rebecca,Julia,Hannah,Claire,Kelly,Anna","bamboo boat in sunset,12,100,20","I don't feel like much is happening in this painting,-25,40,20","Reminds me of fall.,7,240,20","the colors are nice,8,260,20","I love colorful photos and I like this one a lot.,25,220,20","The colors are nice but that's all it is,21,300,20","Hannah","Reminds me of fall.,7,240,20","Julia","I don't feel like much is happening in this painting,-25,40,20","Rebecca","bamboo boat in sunset,12,100,20","2"
"19858","","survey-text","253","2301941","0.0-252.0-0.0","A3PIHDC8LXVQ4H","","","","{""Q0"":""An interesting shade of green""}","","","","","","","","","","","","","","","","","","","","","","",""
"5006.100000023842","","image-slider-response","254","2306949","0.0-253.0","A3PIHDC8LXVQ4H","","","","","10","","","","","","","","","","","","","","","","","","","","","",""
"3614","","image-button-response","255","2311956","0.0-254.0","A3PIHDC8LXVQ4H","img_art/25.jpg","1","","","","","","","","","","","","","","","","","","","","","","","","",""
"1791","","image-button-response","256","2313750","0.0-255.0","A3PIHDC8LXVQ4H","img_art/25.jpg","1","","","","","","","","","","","","","","","","","","","","","","","","",""
"7238","","image-button-response","257","2320990","0.0-256.0-0.0","A3PIHDC8LXVQ4H","img_art/25.jpg","2","","","","","","","","","","","","","","","","","","","","","","","","",""
"3214","","image-button-response","258","2324206","0.0-257.0-0.0","A3PIHDC8LXVQ4H","img_art/25.jpg","5","","","","","","","","","","","","","","","","","","","","","","","","",""
"null","","html-keyboard-response","259","2324707","0.0-258.0","A3PIHDC8LXVQ4H","<p style=""font-size: 48px;"">+</p>","","","","","null","allTrialResponses","500","1","30","img_art/25.jpg","10","An interesting shade of green","Rebecca,Julia,Hannah,Mikayla,Diana,Emma","I'm sorry but I don't uderstand this,-20,100,20","the color is pleasing and draws out the contrast of the lines,10,40,20","Looks like a voodoo figure in a New Orleans cemetery at night.,-5,240,20","I LOVE fhe scary skeleton.,28,300,20","This piece feels cultural. Like it represents something culturally.,22,380,20","Like the colors and the figure,30,60,20","Julia","the color is pleasing and draws out the contrast of the lines,10,40,20","Hannah","Looks like a voodoo figure in a New Orleans cemetery at night.,-5,240,20","Emma","Like the colors and the figure,30,60,20","2"
"3712","","image-button-response_instructions","260","2328431","0.0-259.0","A3PIHDC8LXVQ4H","","0","instructions","","","","","","","","","","","","","","","","","","","","","","","",""
"2010","","image-button-response","261","2330446","0.0-260.0","A3PIHDC8LXVQ4H","","0","","","","","","","","","","","","","","","","","","","","","","","","",""
