"rt","url","trial_type","trial_index","time_elapsed","internal_node_id","participant_id","stimulus","button_pressed","Name","responses","response","key_press","variableName","fixationTime","condition","trial","photo","subjectRating","subjectResponse","agentsNames","agent_1_Response","agent_2_Response","agent_3_Response","agent_4_Response","agent_5_Response","agent_6_Response","kept_1_name","kept_1_response","kept_2_name","kept_2_response","kept_3_name","kept_3_response","errorCounter"
"19658","external_page_harvard.html","external-html","0","19711","0.0-0.0","A3PZFJZ8Q17O33","","","","","","","","","","","","","","","","","","","","","","","","","","",""
"1628","","image-button-response","1","21342","0.0-1.0","A3PZFJZ8Q17O33","","1","","","","","","","","","","","","","","","","","","","","","","","","",""
"2169","","image-button-response","2","23522","0.0-2.0-0.0","A3PZFJZ8Q17O33","","1","phone","","","","","","","","","","","","","","","","","","","","","","","",""
"7126","","survey-text","3","30651","0.0-3.0-0.0","A3PZFJZ8Q17O33","","","","{""Q0"":""A3PZFJZ8Q17O33""}","","","","","","","","","","","","","","","","","","","","","","",""
"19013","","image-button-response_instructions","4","49668","0.0-4.0","A3PZFJZ8Q17O33","","0","instructions","","","","","","","","","","","","","","","","","","","","","","","",""
"12566","","image-button-response_instructions","5","62237","0.0-5.0","A3PZFJZ8Q17O33","img_art/ins/popularity/ins1.png","0","instructions","","","","","","","","","","","","","","","","","","","","","","","",""
"6745","","image-button-response_instructions","6","68983","0.0-6.0","A3PZFJZ8Q17O33","img_art/ins/popularity/ins2.png","0","instructions","","","","","","","","","","","","","","","","","","","","","","","",""
"16170","","image-button-response_instructions","7","85155","0.0-7.0","A3PZFJZ8Q17O33","img_art/ins/popularity/ins2Extreme.png","0","instructions","","","","","","","","","","","","","","","","","","","","","","","",""
"31238","","image-button-response_instructions","8","116395","0.0-8.0","A3PZFJZ8Q17O33","img_art/ins/popularity/ins3KEEPpop.PNG","0","instructions","","","","","","","","","","","","","","","","","","","","","","","",""
"2978","","image-button-response_instructions","9","119375","0.0-9.0","A3PZFJZ8Q17O33","img_art/ins/popularity/ins3ANamepop.PNG","0","instructions","","","","","","","","","","","","","","","","","","","","","","","",""
"23017","","image-button-response_instructions","10","142395","0.0-10.0","A3PZFJZ8Q17O33","img_art/ins/popularity/ins3ARatingpop.png","0","instructions","","","","","","","","","","","","","","","","","","","","","","","",""
"4899","","image-button-response_instructions","11","147297","0.0-11.0","A3PZFJZ8Q17O33","img_art/ins/popularity/ins3ATextpop.png","0","instructions","","","","","","","","","","","","","","","","","","","","","","","",""
"32889","","image-button-response_instructions","12","180188","0.0-12.0","A3PZFJZ8Q17O33","img_art/ins/popularity/ins3ALikespop.png","0","instructions","","","","","","","","","","","","","","","","","","","","","","","",""
"56473","","image-button-response_instructions","13","236663","0.0-13.0","A3PZFJZ8Q17O33","img_art/ins/popularity/ins3KEEPpop.PNG","0","instructions","","","","","","","","","","","","","","","","","","","","","","","",""
"14048","","image-button-response_instructions","14","250713","0.0-14.0","A3PZFJZ8Q17O33","img_art/ins/popularity/ins3_5RED.png","0","instructions","","","","","","","","","","","","","","","","","","","","","","","",""
"66240","","image-button-response_instructions","15","316959","0.0-15.0","A3PZFJZ8Q17O33","img_art/ins/popularity/ins3KEEPpop.PNG","0","instructions","","","","","","","","","","","","","","","","","","","","","","","",""
"12276","","image-button-response_instructions","16","329237","0.0-16.0","A3PZFJZ8Q17O33","img_art/ins/popularity/ins4KEEPpop.PNG","0","instructions","","","","","","","","","","","","","","","","","","","","","","","",""
"10892","","image-button-response_instructions","17","340130","0.0-17.0","A3PZFJZ8Q17O33","img_art/ins/popularity/ins5KEEPpop.PNG","0","instructions","","","","","","","","","","","","","","","","","","","","","","","",""
"1908","","image-button-response_instructions","18","342041","0.0-18.0","A3PZFJZ8Q17O33","","0","instructions","","","","","","","","","","","","","","","","","","","","","","","",""
"8654","","survey-text","19","350729","0.0-19.0-0.0","A3PZFJZ8Q17O33","","","","{""Q0"":""but""}","","","","","","","","","","","","","","","","","","","","","","",""
"18311","","survey-text","20","369043","0.0-20.0-0.0","A3PZFJZ8Q17O33","","","","{""Q0"":""This is very chaotic but calm at the same time. I see a Tornado.""}","","","","","","","","","","","","","","","","","","","","","","",""
"42861.30000000028","","image-slider-response","21","411909","0.0-21.0","A3PZFJZ8Q17O33","","","","","5","","","","","","","","","","","","","","","","","","","","","",""
"null","","image-button-response","22","416915","0.0-22.0","A3PZFJZ8Q17O33","img_art/ins/1.jpg","null","","","","","","","","","","","","","","","","","","","","","","","","",""
"6065","","image-button-response","23","422982","0.0-23.0","A3PZFJZ8Q17O33","img_art/ins/1.jpg","5","","","","","","","","","","","","","","","","","","","","","","","","",""
"5907","","image-button-response","24","428894","0.0-24.0-0.0","A3PZFJZ8Q17O33","img_art/ins/1.jpg","1","","","","","","","","","","","","","","","","","","","","","","","","",""
"1082","","image-button-response","25","429980","0.0-25.0-0.0","A3PZFJZ8Q17O33","img_art/ins/1.jpg","2","","","","","","","","","","","","","","","","","","","","","","","","",""
"null","","html-keyboard-response","26","431483","0.0-26.0","A3PZFJZ8Q17O33","<p style=""font-size: 48px;"">+</p>","","","","","null","allTrialResponses","1500","1","-2","img_art/ins/1.jpg","5","This is very chaotic but calm at the same time. I see a Tornado.","Allison,Ashley,Beth,Dora,Erika,Jen","looks like a lot of things going on in the mist,20,20,20","I just don't get why these type of art would be popular,-32,40,20","This color reminds me of poo,-46,60,20","looks like what my niece in 3rd grade did this afternoon,-50,80,20","I like the sophisticated brushwork,40,100,20","It reminds me of a candy land dream I had,36,120,20","Jen","It reminds me of a candy land dream I had,36,120,20","Ashley","I just don't get why these type of art would be popular,-32,40,20","Beth","This color reminds me of poo,-46,60,20","0"
"12856","","survey-text","27","444346","0.0-27.0-0.0","A3PZFJZ8Q17O33","","","","{""Q0"":""Very dark and ominous""}","","","","","","","","","","","","","","","","","","","","","","",""
"7107.700000000186","","image-slider-response","28","451457","0.0-28.0","A3PZFJZ8Q17O33","","","","","9","","","","","","","","","","","","","","","","","","","","","",""
"4669","","image-button-response","29","456461","0.0-29.0","A3PZFJZ8Q17O33","img_art/ins/2.jpg","1","","","","","","","","","","","","","","","","","","","","","","","","",""
"2193","","image-button-response","30","458656","0.0-30.0","A3PZFJZ8Q17O33","img_art/ins/2.jpg","1","","","","","","","","","","","","","","","","","","","","","","","","",""
"5468","","image-button-response","31","464127","0.0-31.0-0.0","A3PZFJZ8Q17O33","img_art/ins/2.jpg","3","","","","","","","","","","","","","","","","","","","","","","","","",""
"5752","","image-button-response","32","469884","0.0-32.0-0.0","A3PZFJZ8Q17O33","img_art/ins/2.jpg","5","","","","","","","","","","","","","","","","","","","","","","","","",""
"null","","html-keyboard-response","33","470887","0.0-33.0","A3PZFJZ8Q17O33","<p style=""font-size: 48px;"">+</p>","","","","","null","allTrialResponses","1000","1","-1","img_art/ins/2.jpg","9","Very dark and ominous","Katie,Ashley,Beth,Jenna,Kara,Jen","too much color!,-28,180,20","Idk, it is just annoying,-32,40,20","meaningless painting,-45,60,20","One of my pet peevs,-48,140,20","I like the blocks of color arrangements,30,160,20","It reminds me of a fireplace,36,120,20","Ashley","Idk, it is just annoying,-32,40,20","Jenna","One of my pet peevs,-48,140,20","Jen","It reminds me of a fireplace,36,120,20","0"
"44735","","survey-text","34","515628","0.0-34.0-0.0","A3PZFJZ8Q17O33","","","","{""Q0"":""I love the brightness and the blues""}","","","","","","","","","","","","","","","","","","","","","","",""
"8061.799999999814","","image-slider-response","35","523693","0.0-35.0","A3PZFJZ8Q17O33","","","","","41","","","","","","","","","","","","","","","","","","","","","",""
"null","","image-button-response","36","528698","0.0-36.0","A3PZFJZ8Q17O33","img_art/ins/3.jpg","null","","","","","","","","","","","","","","","","","","","","","","","","",""
"1640","","image-button-response","37","530341","0.0-37.0","A3PZFJZ8Q17O33","img_art/ins/3.jpg","0","","","","","","","","","","","","","","","","","","","","","","","","",""
"2800","","image-button-response","38","533144","0.0-38.0-0.0","A3PZFJZ8Q17O33","img_art/ins/3.jpg","0","","","","","","","","","","","","","","","","","","","","","","","","",""
"4807","","image-button-response","39","542272","0.0-38.1-0.1","A3PZFJZ8Q17O33","img_art/ins/3.jpg","1","","","","","","","","","","","","","","","","","","","","","","","","",""
"4008","","image-button-response","40","546286","0.0-39.0-0.0","A3PZFJZ8Q17O33","img_art/ins/3.jpg","3","","","","","","","","","","","","","","","","","","","","","","","","",""
"null","","html-keyboard-response","41","546789","0.0-40.0","A3PZFJZ8Q17O33","<p style=""font-size: 48px;"">+</p>","","","","","null","allTrialResponses","500","1","0","img_art/ins/3.jpg","41","I love the brightness and the blues","Rose,Ashley,Leslie,Jenna,Mary,Jen","My daily routine, it's depressing,-20,240,20","It looks like a playground for bats,-36,40,20","It's an alright work,15,200,20","looks like a murder room,-35,140,20","I like the overlapping of brushes,41,220,20","I can feel a rainy day from this painting,18,120,20","Rose","My daily routine, it's depressing,-20,240,20","Ashley","It looks like a playground for bats,-36,40,20","Jenna","looks like a murder room,-35,140,20","2"
"16650","","image-button-response_instructions","42","563445","0.0-41.0","A3PZFJZ8Q17O33","","0","instructions","","","","","","","","","","","","","","","","","","","","","","","",""
"12054","","survey-likert","43","575503","0.0-42.0-0.0","A3PZFJZ8Q17O33","","","","{""Q0"":"""",""Q1"":0,""Q2"":1}","","","","","","","","","","","","","","","","","","","","","","",""
"4664","","survey-text","44","580182","0.0-43.0-0.0","A3PZFJZ8Q17O33","","","","{""Q0"":""rock""}","","","","","","","","","","","","","","","","","","","","","","",""
"14219","","survey-text","45","594405","0.0-44.0-0.0","A3PZFJZ8Q17O33","","","","{""Q0"":""Not a fan kind of muddy and reminds me of the play RENT""}","","","","","","","","","","","","","","","","","","","","","","",""
"5331.200000000186","","image-slider-response","46","599740","0.0-45.0","A3PZFJZ8Q17O33","","","","","-32","","","","","","","","","","","","","","","","","","","","","",""
"null","","image-button-response","47","604774","0.0-46.0","A3PZFJZ8Q17O33","img_art/1.jpg","null","","","","","","","","","","","","","","","","","","","","","","","","",""
"6238","","image-button-response","48","611016","0.0-47.0","A3PZFJZ8Q17O33","img_art/1.jpg","4","","","","","","","","","","","","","","","","","","","","","","","","",""
"2960","","image-button-response","49","613979","0.0-48.0-0.0","A3PZFJZ8Q17O33","img_art/1.jpg","3","","","","","","","","","","","","","","","","","","","","","","","","",""
"1725","","image-button-response","50","615709","0.0-49.0-0.0","A3PZFJZ8Q17O33","img_art/1.jpg","5","","","","","","","","","","","","","","","","","","","","","","","","",""
"null","","html-keyboard-response","51","617213","0.0-50.0","A3PZFJZ8Q17O33","<p style=""font-size: 48px;"">+</p>","","","","","null","allTrialResponses","1500","1","1","img_art/1.jpg","-32","Not a fan kind of muddy and reminds me of the play RENT","Kaitlin,Kaylee,Shannon,Julia,Jasmine,Kelsey","I see happiness from different aspects of life,31,60,20","a colorful piece of art,25,200,20","I think that this picture has nice colors and its pleasing to the eyes.,20,220,20","I don't feel like much is happening in this painting,-25,40,20","Too similar to some of the other pieces,-18,340,20","this ones alright,10,240,20","Jasmine","Too similar to some of the other pieces,-18,340,20","Julia","I don't feel like much is happening in this painting,-25,40,20","Kelsey","this ones alright,10,240,20","2"
"61471","","survey-text","52","678691","0.0-51.0-0.0","A3PZFJZ8Q17O33","","","","{""Q0"":""This is beautiful looks like a waterfall love the use of color""}","","","","","","","","","","","","","","","","","","","","","","",""
"6338.9000000003725","","image-slider-response","53","685033","0.0-52.0","A3PZFJZ8Q17O33","","","","","39","","","","","","","","","","","","","","","","","","","","","",""
"null","","image-button-response","54","690037","0.0-53.0","A3PZFJZ8Q17O33","img_art/24.jpg","null","","","","","","","","","","","","","","","","","","","","","","","","",""
"3643","","image-button-response","55","693683","0.0-54.0","A3PZFJZ8Q17O33","img_art/24.jpg","2","","","","","","","","","","","","","","","","","","","","","","","","",""
"1104","","image-button-response","56","694791","0.0-55.0-0.0","A3PZFJZ8Q17O33","img_art/24.jpg","0","","","","","","","","","","","","","","","","","","","","","","","","",""
"11924","","image-button-response","57","706720","0.0-56.0-0.0","A3PZFJZ8Q17O33","img_art/24.jpg","4","","","","","","","","","","","","","","","","","","","","","","","","",""
"null","","html-keyboard-response","58","708225","0.0-57.0","A3PZFJZ8Q17O33","<p style=""font-size: 48px;"">+</p>","","","","","null","allTrialResponses","1500","1","2","img_art/24.jpg","39","This is beautiful looks like a waterfall love the use of color","Gabrielle,Molly,Mikayla,Julia,Jasmine,Kelsey","flowing water part is good, some of the rest is ok but dark,14,160,20","Extraordinary and unusual.,30,340,20","Looks like a waterfall!,34,300,20","it's a nice stream, but I don't care for plain nature,-15,40,20","This one is nice because it reminds me of nature,18,340,20","this one is just a bit too harsh,-13,240,20","Mikayla","Looks like a waterfall!,34,300,20","Gabrielle","flowing water part is good, some of the rest is ok but dark,14,160,20","Jasmine","This one is nice because it reminds me of nature,18,340,20","2"
"14841","","survey-text","59","723070","0.0-58.0-0.0","A3PZFJZ8Q17O33","","","","{""Q0"":""This cool looks like a woman lying down or giving birth""}","","","","","","","","","","","","","","","","","","","","","","",""
"4799.700000000186","","image-slider-response","60","727873","0.0-59.0","A3PZFJZ8Q17O33","","","","","25","","","","","","","","","","","","","","","","","","","","","",""
"null","","image-button-response","61","732877","0.0-60.0","A3PZFJZ8Q17O33","img_art/9.jpg","null","","","","","","","","","","","","","","","","","","","","","","","","",""
"17029","","image-button-response","62","749909","0.0-61.0","A3PZFJZ8Q17O33","img_art/9.jpg","5","","","","","","","","","","","","","","","","","","","","","","","","",""
"2778","","image-button-response","63","752690","0.0-62.0-0.0","A3PZFJZ8Q17O33","img_art/9.jpg","0","","","","","","","","","","","","","","","","","","","","","","","","",""
"1661","","image-button-response","64","754355","0.0-63.0-0.0","A3PZFJZ8Q17O33","img_art/9.jpg","2","","","","","","","","","","","","","","","","","","","","","","","","",""
"null","","html-keyboard-response","65","755857","0.0-64.0","A3PZFJZ8Q17O33","<p style=""font-size: 48px;"">+</p>","","","","","null","allTrialResponses","1500","1","3","img_art/9.jpg","25","This cool looks like a woman lying down or giving birth","Gabrielle,Samantha,Mikayla,Kylie,Jasmine,Kaitlyn","looks like an imitation of a real piece of art, reclining lady,-1,160,20","Some nice colors but i do not like it,-18,140,20","Looks like a crayon drawing.,21,300,20","Peaceful dreaming,40,300,20","I like abstract art that looks that there is more than random brush strokes. This one looks the former,10,340,20","Focal point is interesting,2,80,20","Kaitlyn","Focal point is interesting,2,80,20","Gabrielle","looks like an imitation of a real piece of art, reclining lady,-1,160,20","Mikayla","Looks like a crayon drawing.,21,300,20","2"
"10349","","survey-text","66","766211","0.0-65.0-0.0","A3PZFJZ8Q17O33","","","","{""Q0"":""Kind of murky, looks like at sea""}","","","","","","","","","","","","","","","","","","","","","","",""
"6959.800000000745","","image-slider-response","67","773174","0.0-66.0","A3PZFJZ8Q17O33","","","","","1","","","","","","","","","","","","","","","","","","","","","",""
"null","","image-button-response","68","778178","0.0-67.0","A3PZFJZ8Q17O33","img_art/21.jpg","null","","","","","","","","","","","","","","","","","","","","","","","","",""
"4832","","image-button-response","69","783015","0.0-68.0","A3PZFJZ8Q17O33","img_art/21.jpg","2","","","","","","","","","","","","","","","","","","","","","","","","",""
"1751","","image-button-response","70","784770","0.0-69.0-0.0","A3PZFJZ8Q17O33","img_art/21.jpg","3","","","","","","","","","","","","","","","","","","","","","","","","",""
"5740","","image-button-response","71","790514","0.0-70.0-0.0","A3PZFJZ8Q17O33","img_art/21.jpg","4","","","","","","","","","","","","","","","","","","","","","","","","",""
"null","","html-keyboard-response","72","792017","0.0-71.0","A3PZFJZ8Q17O33","<p style=""font-size: 48px;"">+</p>","","","","","null","allTrialResponses","1500","1","4","img_art/21.jpg","1","Kind of murky, looks like at sea","Gabrielle,Cynthia,Mikayla,Rebecca,Destiny,Kaitlyn","setting sun sky? nice colors and blending,14,160,20","mythical between good and evil,16,320,20","Nothing exciting in this one.,-36,300,20","stormy with gold lining,0,100,20","Pink is my favorite, against blue it looks like sunset. Seems like a boat burning down, so don't absolutely love it,23,360,20","The division in the picture is pleasing but the random white dots are distracting,12,80,20","Mikayla","Nothing exciting in this one.,-36,300,20","Rebecca","stormy with gold lining,0,100,20","Destiny","Pink is my favorite, against blue it looks like sunset. Seems like a boat burning down, so don't absolutely love it,23,360,20","2"
"17218","","survey-text","73","809241","0.0-72.0-0.0","A3PZFJZ8Q17O33","","","","{""Q0"":""Reminds me of Freddy Krueger""}","","","","","","","","","","","","","","","","","","","","","","",""
"5092.300000000745","","image-slider-response","74","814337","0.0-73.0","A3PZFJZ8Q17O33","","","","","12","","","","","","","","","","","","","","","","","","","","","",""
"null","","image-button-response","75","819341","0.0-74.0","A3PZFJZ8Q17O33","img_art/4.jpg","null","","","","","","","","","","","","","","","","","","","","","","","","",""
"7862","","image-button-response","76","827205","0.0-75.0","A3PZFJZ8Q17O33","img_art/4.jpg","0","","","","","","","","","","","","","","","","","","","","","","","","",""
"5945","","image-button-response","77","833154","0.0-76.0-0.0","A3PZFJZ8Q17O33","img_art/4.jpg","4","","","","","","","","","","","","","","","","","","","","","","","","",""
"4167","","image-button-response","78","837327","0.0-77.0-0.0","A3PZFJZ8Q17O33","img_art/4.jpg","3","","","","","","","","","","","","","","","","","","","","","","","","",""
"null","","html-keyboard-response","79","837830","0.0-78.0","A3PZFJZ8Q17O33","<p style=""font-size: 48px;"">+</p>","","","","","null","allTrialResponses","500","1","5","img_art/4.jpg","12","Reminds me of Freddy Krueger","Crystal,Kathryn,Mikayla,Rebecca,Destiny,Michaela","Looks like finger nails from the Guinness world record book.,-30,300,20","I feel kind of guilty looking at this, like I'm receiving a reward I don't I deserve.,-10,140,20","Not very interesting to look at.,-34,300,20","no sorry i can't really understand,-18,100,20","it looks like a preschooler just dragged his fingers around,-36,360,20","It reminds me of something a kid would make for their parents,13,260,20","Crystal","Looks like finger nails from the Guinness world record book.,-30,300,20","Destiny","it looks like a preschooler just dragged his fingers around,-36,360,20","Rebecca","no sorry i can't really understand,-18,100,20","2"
"5163","","survey-text","80","843006","0.0-79.0-0.0","A3PZFJZ8Q17O33","","","","{""Q0"":""sky""}","","","","","","","","","","","","","","","","","","","","","","",""
"10795","","survey-text","81","853804","0.0-80.0-0.0","A3PZFJZ8Q17O33","","","","{""Q0"":""Kind of gives me the heebeejeebees""}","","","","","","","","","","","","","","","","","","","","","","",""
"4457.199999999255","","image-slider-response","82","858264","0.0-81.0","A3PZFJZ8Q17O33","","","","","-46","","","","","","","","","","","","","","","","","","","","","",""
"null","","image-button-response","83","863268","0.0-82.0","A3PZFJZ8Q17O33","img_art/7.jpg","null","","","","","","","","","","","","","","","","","","","","","","","","",""
"3483","","image-button-response","84","866754","0.0-83.0","A3PZFJZ8Q17O33","img_art/7.jpg","0","","","","","","","","","","","","","","","","","","","","","","","","",""
"8015","","image-button-response","85","874772","0.0-84.0-0.0","A3PZFJZ8Q17O33","img_art/7.jpg","2","","","","","","","","","","","","","","","","","","","","","","","","",""
"2246","","image-button-response","86","877022","0.0-85.0-0.0","A3PZFJZ8Q17O33","img_art/7.jpg","1","","","","","","","","","","","","","","","","","","","","","","","","",""
"null","","html-keyboard-response","87","878525","0.0-86.0","A3PZFJZ8Q17O33","<p style=""font-size: 48px;"">+</p>","","","","","null","allTrialResponses","1500","1","6","img_art/7.jpg","-46","Kind of gives me the heebeejeebees","Crystal,Ashley,Heather,Rebecca,Destiny,Mackenzie","I thought I was looking at a satellite image of mars.,21,300,20","landscape of amrs, yawn.,-25,320,20","i dont like it. it looks like rocks,-40,260,20","would love to take a closer look at the texture,15,100,20","mars also crunchy leaves maybe a beehive,32,360,20","Is simple in color and texture,11,20,20","Crystal","I thought I was looking at a satellite image of mars.,21,300,20","Heather","i dont like it. it looks like rocks,-40,260,20","Ashley","landscape of amrs, yawn.,-25,320,20","2"
"14139","","survey-text","88","892669","0.0-87.0-0.0","A3PZFJZ8Q17O33","","","","{""Q0"":""Messy, mom and child maybe""}","","","","","","","","","","","","","","","","","","","","","","",""
"4773.799999999814","","image-slider-response","89","897447","0.0-88.0","A3PZFJZ8Q17O33","","","","","-40","","","","","","","","","","","","","","","","","","","","","",""
"null","","image-button-response","90","902451","0.0-89.0","A3PZFJZ8Q17O33","img_art/28.jpg","null","","","","","","","","","","","","","","","","","","","","","","","","",""
"6619","","image-button-response","91","909073","0.0-90.0","A3PZFJZ8Q17O33","img_art/28.jpg","3","","","","","","","","","","","","","","","","","","","","","","","","",""
"5692","","image-button-response","92","914768","0.0-91.0-0.0","A3PZFJZ8Q17O33","img_art/28.jpg","4","","","","","","","","","","","","","","","","","","","","","","","","",""
"4055","","image-button-response","93","918827","0.0-92.0-0.0","A3PZFJZ8Q17O33","img_art/28.jpg","2","","","","","","","","","","","","","","","","","","","","","","","","",""
"null","","html-keyboard-response","94","919330","0.0-93.0","A3PZFJZ8Q17O33","<p style=""font-size: 48px;"">+</p>","","","","","null","allTrialResponses","500","1","7","img_art/28.jpg","-40","Messy, mom and child maybe","Crystal,Ashley,Heather,Madeline,Claire,Rachel","I like the flow and abstract nature of what seems to be humans,40,300,20","Normally don't react well to abstract art, but it looks almost like something's there.,28,320,20","not sure what i feel but it makes me feel uncomfortable,1,260,20","It is a bit drab,-10,40,20","not a fan of the colors or strokes used,-27,260,20","Too muted and bland. I like my art to be vivid.,-11,80,20","Madeline","It is a bit drab,-10,40,20","Claire","not a fan of the colors or strokes used,-27,260,20","Heather","not sure what i feel but it makes me feel uncomfortable,1,260,20","2"
"15942","","survey-text","95","935276","0.0-94.0-0.0","A3PZFJZ8Q17O33","","","","{""Q0"":""Don't know what it's supposed to be maybe the circus""}","","","","","","","","","","","","","","","","","","","","","","",""
"7531.199999999255","","image-slider-response","96","942811","0.0-95.0","A3PZFJZ8Q17O33","","","","","3","","","","","","","","","","","","","","","","","","","","","",""
"null","","image-button-response","97","947816","0.0-96.0","A3PZFJZ8Q17O33","img_art/5.jpg","null","","","","","","","","","","","","","","","","","","","","","","","","",""
"4427","","image-button-response","98","952246","0.0-97.0","A3PZFJZ8Q17O33","img_art/5.jpg","4","","","","","","","","","","","","","","","","","","","","","","","","",""
"3862","","image-button-response","99","956111","0.0-98.0-0.0","A3PZFJZ8Q17O33","img_art/5.jpg","1","","","","","","","","","","","","","","","","","","","","","","","","",""
"7507","","image-button-response","100","963623","0.0-99.0-0.0","A3PZFJZ8Q17O33","img_art/5.jpg","2","","","","","","","","","","","","","","","","","","","","","","","","",""
"null","","html-keyboard-response","101","965126","0.0-100.0","A3PZFJZ8Q17O33","<p style=""font-size: 48px;"">+</p>","","","","","null","allTrialResponses","1500","1","8","img_art/5.jpg","3","Don't know what it's supposed to be maybe the circus","Margaret,Kelly,Heather,Madeline,Claire,Dominique","simple. love the color scheme,27,100,20","It looks like daffy duck's leg with a random trail of pink.,-22,220,20","its something. i just dont know what it is.,1,260,20","A bit too messy in my eyes,-4,40,20","I like the strokes and colors used,20,260,20","It speaks volumes to some. It's also a conversational piece. And very different ideas,34,400,20","Claire","I like the strokes and colors used,20,260,20","Kelly","It looks like daffy duck's leg with a random trail of pink.,-22,220,20","Heather","its something. i just dont know what it is.,1,260,20","2"
"10000","","survey-text","102","975133","0.0-101.0-0.0","A3PZFJZ8Q17O33","","","","{""Q0"":""Triggers my trypophobia""}","","","","","","","","","","","","","","","","","","","","","","",""
"5571.200000000186","","image-slider-response","103","980708","0.0-102.0","A3PZFJZ8Q17O33","","","","","-38","","","","","","","","","","","","","","","","","","","","","",""
"null","","image-button-response","104","985712","0.0-103.0","A3PZFJZ8Q17O33","img_art/15.jpg","null","","","","","","","","","","","","","","","","","","","","","","","","",""
"7506","","image-button-response","105","993220","0.0-104.0","A3PZFJZ8Q17O33","img_art/15.jpg","1","","","","","","","","","","","","","","","","","","","","","","","","",""
"5683","","image-button-response","106","998906","0.0-105.0-0.0","A3PZFJZ8Q17O33","img_art/15.jpg","5","","","","","","","","","","","","","","","","","","","","","","","","",""
"1350","","image-button-response","107","1000262","0.0-106.0-0.0","A3PZFJZ8Q17O33","img_art/15.jpg","2","","","","","","","","","","","","","","","","","","","","","","","","",""
"null","","html-keyboard-response","108","1001765","0.0-107.0","A3PZFJZ8Q17O33","<p style=""font-size: 48px;"">+</p>","","","","","null","allTrialResponses","1500","1","9","img_art/15.jpg","-38","Triggers my trypophobia","Chelsea,Kelly,Heather,Elizabeth,Claire,Courtney","The colors are too busy.,-39,180,20","I can't really make out what this is supposed to be.,-8,220,20","black leaves makes the blue birds stand out.,1,260,20","Perfect Abstract painting,50,20,20","it's alright but a little cluttered,14,260,20","Weird fuzzball bush.,22,280,20","Kelly","I can't really make out what this is supposed to be.,-8,220,20","Courtney","Weird fuzzball bush.,22,280,20","Heather","black leaves makes the blue birds stand out.,1,260,20","2"
"11013","","survey-text","109","1012785","0.0-108.0-0.0","A3PZFJZ8Q17O33","","","","{""Q0"":""Looks like a shetland pony""}","","","","","","","","","","","","","","","","","","","","","","",""
"8097.199999999255","","image-slider-response","110","1020885","0.0-109.0","A3PZFJZ8Q17O33","","","","","-5","","","","","","","","","","","","","","","","","","","","","",""
"null","","image-button-response","111","1025889","0.0-110.0","A3PZFJZ8Q17O33","img_art/10.jpg","null","","","","","","","","","","","","","","","","","","","","","","","","",""
"1682","","image-button-response","112","1027574","0.0-111.0","A3PZFJZ8Q17O33","img_art/10.jpg","0","","","","","","","","","","","","","","","","","","","","","","","","",""
"7300","","image-button-response","113","1034878","0.0-112.0-0.0","A3PZFJZ8Q17O33","img_art/10.jpg","5","","","","","","","","","","","","","","","","","","","","","","","","",""
"3705","","image-button-response","114","1038588","0.0-113.0-0.0","A3PZFJZ8Q17O33","img_art/10.jpg","3","","","","","","","","","","","","","","","","","","","","","","","","",""
"null","","html-keyboard-response","115","1039591","0.0-114.0","A3PZFJZ8Q17O33","<p style=""font-size: 48px;"">+</p>","","","","","null","allTrialResponses","1000","1","10","img_art/10.jpg","-5","Looks like a shetland pony","Monica,Kelly,Heather,Emma,Melissa,Courtney","It doesn't look pleasing to the eye, it kind of looks like an animal but a dirty one,-38,360,20","I cant tell what this is supposed to be, but I enjoy the simplicity of it.,28,220,20","for some reason reminds me of music,2,260,20","Feels musical .....,40,60,20","shapes are appealing/relationship between the beige square and the black lines,24,240,20","Thats a horses head,10,280,20","Monica","It doesn't look pleasing to the eye, it kind of looks like an animal but a dirty one,-38,360,20","Courtney","Thats a horses head,10,280,20","Emma","Feels musical .....,40,60,20","2"
"3900","","survey-text","116","1043501","0.0-115.0-0.0","A3PZFJZ8Q17O33","","","","{""Q0"":""our""}","","","","","","","","","","","","","","","","","","","","","","",""
"10226","","survey-text","117","1053730","0.0-116.0-0.0","A3PZFJZ8Q17O33","","","","{""Q0"":""Kind of cool kind of ugly""}","","","","","","","","","","","","","","","","","","","","","","",""
"6467.5","","image-slider-response","118","1060201","0.0-117.0","A3PZFJZ8Q17O33","","","","","2","","","","","","","","","","","","","","","","","","","","","",""
"null","","image-button-response","119","1065205","0.0-118.0","A3PZFJZ8Q17O33","img_art/18.jpg","null","","","","","","","","","","","","","","","","","","","","","","","","",""
"18589","","image-button-response","120","1083797","0.0-119.0","A3PZFJZ8Q17O33","img_art/18.jpg","3","","","","","","","","","","","","","","","","","","","","","","","","",""
"5769","","image-button-response","121","1089569","0.0-120.0-0.0","A3PZFJZ8Q17O33","img_art/18.jpg","4","","","","","","","","","","","","","","","","","","","","","","","","",""
"4356","","image-button-response","122","1093929","0.0-121.0-0.0","A3PZFJZ8Q17O33","img_art/18.jpg","5","","","","","","","","","","","","","","","","","","","","","","","","",""
"null","","html-keyboard-response","123","1094933","0.0-122.0","A3PZFJZ8Q17O33","<p style=""font-size: 48px;"">+</p>","","","","","null","allTrialResponses","1000","1","11","img_art/18.jpg","2","Kind of cool kind of ugly","Monica,Hailey,Kayla,Emma,Sarah,Courtney","It doesn't look like much, the colors are dark and it doesn't really make me feel anything.,-2,360,20","i like the colors. outerspace,21,200,20","It's like a ship, but a freaky ship.,-11,180,20","Vaguely creepy ........,-20,60,20","this is kind of cool. I like the color scheme and the figure in the upper left is interesting,15,180,20","Pirate ship in stormy seas before it sank.,11,280,20","Emma","Vaguely creepy ........,-20,60,20","Sarah","this is kind of cool. I like the color scheme and the figure in the upper left is interesting,15,180,20","Courtney","Pirate ship in stormy seas before it sank.,11,280,20","2"
"31541","","survey-text","124","1126481","0.0-123.0-0.0","A3PZFJZ8Q17O33","","","","{""Q0"":""Is the paintbrush real or painted""}","","","","","","","","","","","","","","","","","","","","","","",""
"5292.300000000745","","image-slider-response","125","1131776","0.0-124.0","A3PZFJZ8Q17O33","","","","","-4","","","","","","","","","","","","","","","","","","","","","",""
"null","","image-button-response","126","1136780","0.0-125.0","A3PZFJZ8Q17O33","img_art/29.jpg","null","","","","","","","","","","","","","","","","","","","","","","","","",""
"4893","","image-button-response","127","1141675","0.0-126.0","A3PZFJZ8Q17O33","img_art/29.jpg","1","","","","","","","","","","","","","","","","","","","","","","","","",""
"2709","","image-button-response","128","1144388","0.0-127.0-0.0","A3PZFJZ8Q17O33","img_art/29.jpg","3","","","","","","","","","","","","","","","","","","","","","","","","",""
"2367","","image-button-response","129","1146760","0.0-128.0-0.0","A3PZFJZ8Q17O33","img_art/29.jpg","2","","","","","","","","","","","","","","","","","","","","","","","","",""
"null","","html-keyboard-response","130","1148263","0.0-129.0","A3PZFJZ8Q17O33","<p style=""font-size: 48px;"">+</p>","","","","","null","allTrialResponses","1500","1","12","img_art/29.jpg","-4","Is the paintbrush real or painted","Grace,Leah,Alyssa,Emma,Sarah,Courtney","Doesn't do much for me. I like some of the colors but not much else.,-10,180,20","Scrawled graffiti, with a red x as saying it was a mistake,-40,360,20","Its interesting although doesnt illicit any strong emotions from me,10,160,20","Feels messy, stressful,-22,60,20","it's interesting but not my style,9,180,20","Thats a pretty wierd picture.,6,280,20","Leah","Scrawled graffiti, with a red x as saying it was a mistake,-40,360,20","Emma","Feels messy, stressful,-22,60,20","Alyssa","Its interesting although doesnt illicit any strong emotions from me,10,160,20","2"
"13729","","survey-text","131","1161998","0.0-130.0-0.0","A3PZFJZ8Q17O33","","","","{""Q0"":""Makes me itch but I am also slightly riveted""}","","","","","","","","","","","","","","","","","","","","","","",""
"4228.799999999814","","image-slider-response","132","1166230","0.0-131.0","A3PZFJZ8Q17O33","","","","","6","","","","","","","","","","","","","","","","","","","","","",""
"null","","image-button-response","133","1171234","0.0-132.0","A3PZFJZ8Q17O33","img_art/23.jpg","null","","","","","","","","","","","","","","","","","","","","","","","","",""
"5361","","image-button-response","134","1176597","0.0-133.0","A3PZFJZ8Q17O33","img_art/23.jpg","1","","","","","","","","","","","","","","","","","","","","","","","","",""
"3047","","image-button-response","135","1179649","0.0-134.0-0.0","A3PZFJZ8Q17O33","img_art/23.jpg","2","","","","","","","","","","","","","","","","","","","","","","","","",""
"5585","","image-button-response","136","1185238","0.0-135.0-0.0","A3PZFJZ8Q17O33","img_art/23.jpg","5","","","","","","","","","","","","","","","","","","","","","","","","",""
"null","","html-keyboard-response","137","1186242","0.0-136.0","A3PZFJZ8Q17O33","<p style=""font-size: 48px;"">+</p>","","","","","null","allTrialResponses","1000","1","13","img_art/23.jpg","6","Makes me itch but I am also slightly riveted","Mary,Leah,Alyssa,Emma,Cassandra,Brittany","The colors are ugly. I don't like the white. It doesn't compliment the piece at all.,-44,180,20","Interesting, want to look at it more to identify,25,360,20","Very bright and eye catching.The White silhouettes remind me of people celebrating.,31,160,20","Love the use of colors and light,50,60,20","I had a very neutral feeling to this,no feelings at all.,1,120,20","The white paint through the middle really draws the eye.,30,40,20","Leah","Interesting, want to look at it more to identify,25,360,20","Alyssa","Very bright and eye catching.The White silhouettes remind me of people celebrating.,31,160,20","Brittany","The white paint through the middle really draws the eye.,30,40,20","2"
"12030","","survey-text","138","1198279","0.0-137.0-0.0","A3PZFJZ8Q17O33","","","","{""Q0"":""Kind of makes me itch and is quite gloomy""}","","","","","","","","","","","","","","","","","","","","","","",""
"4187","","image-slider-response","139","1202468","0.0-138.0","A3PZFJZ8Q17O33","","","","","-33","","","","","","","","","","","","","","","","","","","","","",""
"null","","image-button-response","140","1207473","0.0-139.0","A3PZFJZ8Q17O33","img_art/11.jpg","null","","","","","","","","","","","","","","","","","","","","","","","","",""
"1506","","image-button-response","141","1208982","0.0-140.0","A3PZFJZ8Q17O33","img_art/11.jpg","0","","","","","","","","","","","","","","","","","","","","","","","","",""
"4255","","image-button-response","142","1213241","0.0-141.0-0.0","A3PZFJZ8Q17O33","img_art/11.jpg","3","","","","","","","","","","","","","","","","","","","","","","","","",""
"7860","","image-button-response","143","1221105","0.0-142.0-0.0","A3PZFJZ8Q17O33","img_art/11.jpg","1","","","","","","","","","","","","","","","","","","","","","","","","",""
"null","","html-keyboard-response","144","1222608","0.0-143.0","A3PZFJZ8Q17O33","<p style=""font-size: 48px;"">+</p>","","","","","null","allTrialResponses","1500","1","14","img_art/11.jpg","-33","Kind of makes me itch and is quite gloomy","Andrea,Leah,Alyssa,Angelica,Tiffany,Brittany","My initial thought was roller coasters but I see ship masts on a cloudy day too.,35,240,20","Even with the colors, it is dreary to me,-32,360,20","Its interesting.,20,160,20","This is very unappealing.,-11,280,20","I feel excited, like I'm in the middle of a bustling city.,26,360,20","It reminds me of telephone wires.,1,40,20","Andrea","My initial thought was roller coasters but I see ship masts on a cloudy day too.,35,240,20","Angelica","This is very unappealing.,-11,280,20","Leah","Even with the colors, it is dreary to me,-32,360,20","2"
"17010","","survey-text","145","1239624","0.0-144.0-0.0","A3PZFJZ8Q17O33","","","","{""Q0"":""Reminds me of motel art but something ominous about it""}","","","","","","","","","","","","","","","","","","","","","","",""
"5708.600000000559","","image-slider-response","146","1245335","0.0-145.0","A3PZFJZ8Q17O33","","","","","2","","","","","","","","","","","","","","","","","","","","","",""
"null","","image-button-response","147","1250339","0.0-146.0","A3PZFJZ8Q17O33","img_art/12.jpg","null","","","","","","","","","","","","","","","","","","","","","","","","",""
"3743","","image-button-response","148","1254084","0.0-147.0","A3PZFJZ8Q17O33","img_art/12.jpg","1","","","","","","","","","","","","","","","","","","","","","","","","",""
"1331","","image-button-response","149","1255418","0.0-148.0-0.0","A3PZFJZ8Q17O33","img_art/12.jpg","0","","","","","","","","","","","","","","","","","","","","","","","","",""
"6609","","image-button-response","150","1262031","0.0-149.0-0.0","A3PZFJZ8Q17O33","img_art/12.jpg","3","","","","","","","","","","","","","","","","","","","","","","","","",""
"null","","html-keyboard-response","151","1263033","0.0-150.0","A3PZFJZ8Q17O33","<p style=""font-size: 48px;"">+</p>","","","","","null","allTrialResponses","1000","1","15","img_art/12.jpg","2","Reminds me of motel art but something ominous about it","Andrea,Leah,Alexis,Angelica,Madison,Nicole","It just feels like a jigsaw puzzle,-4,240,20","Looks like a puzzle I want to put together, but not hang in my den,2,360,20","I like the cubic feel.,11,100,20","It's strange looking and unappealing.,-4,280,20","Different enough to be memorable. The gradient of hues is appealing and appeasing.,32,60,20","I like all the squares and the colors but it feels too cluttered to me,20,20,20","Leah","Looks like a puzzle I want to put together, but not hang in my den,2,360,20","Andrea","It just feels like a jigsaw puzzle,-4,240,20","Angelica","It's strange looking and unappealing.,-4,280,20","2"
"4894","","survey-text","152","1267939","0.0-151.0-0.0","A3PZFJZ8Q17O33","","","","{""Q0"":""course""}","","","","","","","","","","","","","","","","","","","","","","",""
"15783","","survey-text","153","1283725","0.0-152.0-0.0","A3PZFJZ8Q17O33","","","","{""Q0"":""Makes me itch looks kind of like the nervous system""}","","","","","","","","","","","","","","","","","","","","","","",""
"5848.9000000003725","","image-slider-response","154","1289577","0.0-153.0","A3PZFJZ8Q17O33","","","","","-2","","","","","","","","","","","","","","","","","","","","","",""
"null","","image-button-response","155","1294580","0.0-154.0","A3PZFJZ8Q17O33","img_art/13.jpg","null","","","","","","","","","","","","","","","","","","","","","","","","",""
"11934","","image-button-response","156","1306518","0.0-155.0","A3PZFJZ8Q17O33","img_art/13.jpg","3","","","","","","","","","","","","","","","","","","","","","","","","",""
"4242","","image-button-response","157","1310765","0.0-156.0-0.0","A3PZFJZ8Q17O33","img_art/13.jpg","1","","","","","","","","","","","","","","","","","","","","","","","","",""
"3734","","image-button-response","158","1314504","0.0-157.0-0.0","A3PZFJZ8Q17O33","img_art/13.jpg","2","","","","","","","","","","","","","","","","","","","","","","","","",""
"null","","html-keyboard-response","159","1315507","0.0-158.0","A3PZFJZ8Q17O33","<p style=""font-size: 48px;"">+</p>","","","","","null","allTrialResponses","1000","1","16","img_art/13.jpg","-2","Makes me itch looks kind of like the nervous system","Andrea,Leah,Sara,Angelica,Amy,Jamie","Raindrops on a window. Makes me feel like traveling.,31,240,20","Like it a lot, reminds me of rainy day on glass,43,360,20","I love the different blue shades,31,160,20","It's too violent looking and there's too much contrast between the white/black.,-21,280,20","I recognize the beauty of this but FOR ME its large degree of abstraction diminishes my emotional interaction.,-10,220,20","Cool colors and looks like rain on a window,45,320,20","Angelica","It's too violent looking and there's too much contrast between the white/black.,-21,280,20","Leah","Like it a lot, reminds me of rainy day on glass,43,360,20","Sara","I love the different blue shades,31,160,20","2"
"23103","","survey-text","160","1338620","0.0-159.0-0.0","A3PZFJZ8Q17O33","","","","{""Q0"":""Not sure what I'm looking at but I think I see a key and wonder what it unlocks""}","","","","","","","","","","","","","","","","","","","","","","",""
"4576.799999999814","","image-slider-response","161","1343200","0.0-160.0","A3PZFJZ8Q17O33","","","","","-21","","","","","","","","","","","","","","","","","","","","","",""
"null","","image-button-response","162","1348205","0.0-161.0","A3PZFJZ8Q17O33","img_art/22.jpg","null","","","","","","","","","","","","","","","","","","","","","","","","",""
"4475","","image-button-response","163","1352683","0.0-162.0","A3PZFJZ8Q17O33","img_art/22.jpg","3","","","","","","","","","","","","","","","","","","","","","","","","",""
"9858","","image-button-response","164","1362544","0.0-163.0-0.0","A3PZFJZ8Q17O33","img_art/22.jpg","2","","","","","","","","","","","","","","","","","","","","","","","","",""
"1291","","image-button-response","165","1363840","0.0-164.0-0.0","A3PZFJZ8Q17O33","img_art/22.jpg","5","","","","","","","","","","","","","","","","","","","","","","","","",""
"null","","html-keyboard-response","166","1365342","0.0-165.0","A3PZFJZ8Q17O33","<p style=""font-size: 48px;"">+</p>","","","","","null","allTrialResponses","1500","1","17","img_art/22.jpg","-21","Not sure what I'm looking at but I think I see a key and wonder what it unlocks","Marissa,Leah,Sara,Angelica,Jessica,Olivia","I enjoy the vibrant colors,23,160,20","Pretty colors but too blocky for me,-19,360,20","Looks like a warm sunset to me i like it,42,160,20","It's bland and ugly.,-21,280,20","I like the mixing of the primary colors.,8,400,20","ball of light in 90s,8,40,20","Angelica","It's bland and ugly.,-21,280,20","Sara","Looks like a warm sunset to me i like it,42,160,20","Olivia","ball of light in 90s,8,40,20","2"
"13924","","survey-text","167","1379272","0.0-166.0-0.0","A3PZFJZ8Q17O33","","","","{""Q0"":""Reminds me of a collapsing house""}","","","","","","","","","","","","","","","","","","","","","","",""
"5416.700000000186","","image-slider-response","168","1384692","0.0-167.0","A3PZFJZ8Q17O33","","","","","7","","","","","","","","","","","","","","","","","","","","","",""
"null","","image-button-response","169","1389695","0.0-168.0","A3PZFJZ8Q17O33","img_art/14.jpg","null","","","","","","","","","","","","","","","","","","","","","","","","",""
"5263","","image-button-response","170","1394961","0.0-169.0","A3PZFJZ8Q17O33","img_art/14.jpg","4","","","","","","","","","","","","","","","","","","","","","","","","",""
"16245","","image-button-response","171","1411210","0.0-170.0-0.0","A3PZFJZ8Q17O33","img_art/14.jpg","5","","","","","","","","","","","","","","","","","","","","","","","","",""
"2348","","image-button-response","172","1413562","0.0-171.0-0.0","A3PZFJZ8Q17O33","img_art/14.jpg","0","","","","","","","","","","","","","","","","","","","","","","","","",""
"null","","html-keyboard-response","173","1414565","0.0-172.0","A3PZFJZ8Q17O33","<p style=""font-size: 48px;"">+</p>","","","","","null","allTrialResponses","1000","1","18","img_art/14.jpg","7","Reminds me of a collapsing house","Stephanie,Jordan,Sara,Angelica,Shelby,Olivia","Late Winter when things are just starting to bloom.,21,300,20","this one isn't bad, reminds me a tree that gives life, and people are waiting for someone new to be born,27,20,20","It uplifts my mood due to the color scheme,32,160,20","This is poorly done and not aesthetically appealing.,-2,280,20","Something about the cahotic imagery makes me uncomfortable,-15,240,20","tree of life brings hope,7,40,20","Shelby","Something about the cahotic imagery makes me uncomfortable,-15,240,20","Olivia","tree of life brings hope,7,40,20","Stephanie","Late Winter when things are just starting to bloom.,21,300,20","2"
"19114","","survey-text","174","1433685","0.0-173.0-0.0","A3PZFJZ8Q17O33","","","","{""Q0"":""Makes me itch looks like a tree growing inside a building""}","","","","","","","","","","","","","","","","","","","","","","",""
"4732.799999999814","","image-slider-response","175","1438421","0.0-174.0","A3PZFJZ8Q17O33","","","","","4","","","","","","","","","","","","","","","","","","","","","",""
"null","","image-button-response","176","1443425","0.0-175.0","A3PZFJZ8Q17O33","img_art/17.jpg","null","","","","","","","","","","","","","","","","","","","","","","","","",""
"3380","","image-button-response","177","1446807","0.0-176.0","A3PZFJZ8Q17O33","img_art/17.jpg","0","","","","","","","","","","","","","","","","","","","","","","","","",""
"6813","","image-button-response","178","1453624","0.0-177.0-0.0","A3PZFJZ8Q17O33","img_art/17.jpg","4","","","","","","","","","","","","","","","","","","","","","","","","",""
"787","","image-button-response","179","1454415","0.0-178.0-0.0","A3PZFJZ8Q17O33","img_art/17.jpg","5","","","","","","","","","","","","","","","","","","","","","","","","",""
"null","","html-keyboard-response","180","1454918","0.0-179.0","A3PZFJZ8Q17O33","<p style=""font-size: 48px;"">+</p>","","","","","null","allTrialResponses","500","1","19","img_art/17.jpg","4","Makes me itch looks like a tree growing inside a building","Stephanie,Kristen,Chloe,Michelle,Shelby,Olivia","The wispy trees caught my eye.,42,300,20","calm, tranquil, happy,50,280,20","Pretty but a little cheesy,-10,220,20","I can tell there are tress and maybe some doors but I'm not a fan of the style,-2,280,20","This feels like creativity and limitlessness,30,240,20","muted tones brings me down,-13,40,20","Stephanie","The wispy trees caught my eye.,42,300,20","Shelby","This feels like creativity and limitlessness,30,240,20","Olivia","muted tones brings me down,-13,40,20","2"
"15693","","survey-text","181","1470619","0.0-180.0-0.0","A3PZFJZ8Q17O33","","","","{""Q0"":""Kind of gloomy and I wonder what the little man is doing""}","","","","","","","","","","","","","","","","","","","","","","",""
"5689.9000000003725","","image-slider-response","182","1476312","0.0-181.0","A3PZFJZ8Q17O33","","","","","5","","","","","","","","","","","","","","","","","","","","","",""
"null","","image-button-response","183","1481317","0.0-182.0","A3PZFJZ8Q17O33","img_art/19.jpg","null","","","","","","","","","","","","","","","","","","","","","","","","",""
"1894","","image-button-response","184","1483215","0.0-183.0","A3PZFJZ8Q17O33","img_art/19.jpg","4","","","","","","","","","","","","","","","","","","","","","","","","",""
"5982","","image-button-response","185","1489200","0.0-184.0-0.0","A3PZFJZ8Q17O33","img_art/19.jpg","0","","","","","","","","","","","","","","","","","","","","","","","","",""
"6252","","image-button-response","186","1495457","0.0-185.0-0.0","A3PZFJZ8Q17O33","img_art/19.jpg","2","","","","","","","","","","","","","","","","","","","","","","","","",""
"null","","html-keyboard-response","187","1496959","0.0-186.0","A3PZFJZ8Q17O33","<p style=""font-size: 48px;"">+</p>","","","","","null","allTrialResponses","1500","1","20","img_art/19.jpg","5","Kind of gloomy and I wonder what the little man is doing","Stephanie,Erin,Brooke,Leslie,Shelby,Olivia","A dreary town in the fall.,-4,300,20","Childish music hall,-20,120,20","Snowy winter scene,25,60,20","It's a cute city scene, but nothing special.,10,380,20","Something weird is going on in this painting,-20,240,20","city life energy,8,40,20","Shelby","Something weird is going on in this painting,-20,240,20","Stephanie","A dreary town in the fall.,-4,300,20","Brooke","Snowy winter scene,25,60,20","2"
"6158","","survey-text","188","1503133","0.0-187.0-0.0","A3PZFJZ8Q17O33","","","","{""Q0"":""we""}","","","","","","","","","","","","","","","","","","","","","","",""
"12511","","survey-text","189","1515645","0.0-188.0-0.0","A3PZFJZ8Q17O33","","","","{""Q0"":""Looks like something a serial killer would make""}","","","","","","","","","","","","","","","","","","","","","","",""
"4784.5999999996275","","image-slider-response","190","1520433","0.0-189.0","A3PZFJZ8Q17O33","","","","","12","","","","","","","","","","","","","","","","","","","","","",""
"null","","image-button-response","191","1525437","0.0-190.0","A3PZFJZ8Q17O33","img_art/3.jpg","null","","","","","","","","","","","","","","","","","","","","","","","","",""
"4675","","image-button-response","192","1530114","0.0-191.0","A3PZFJZ8Q17O33","img_art/3.jpg","1","","","","","","","","","","","","","","","","","","","","","","","","",""
"3252","","image-button-response","193","1533371","0.0-192.0-0.0","A3PZFJZ8Q17O33","img_art/3.jpg","4","","","","","","","","","","","","","","","","","","","","","","","","",""
"4110","","image-button-response","194","1537485","0.0-193.0-0.0","A3PZFJZ8Q17O33","img_art/3.jpg","0","","","","","","","","","","","","","","","","","","","","","","","","",""
"null","","html-keyboard-response","195","1538488","0.0-194.0","A3PZFJZ8Q17O33","<p style=""font-size: 48px;"">+</p>","","","","","null","allTrialResponses","1000","1","21","img_art/3.jpg","12","Looks like something a serial killer would make","Stephanie,Erica,Brooke,Sophia,Shelby,Sydney","I think of an angry child,-50,300,20","Associates with blood and crime scene,-12,80,20","kid scribbled on the wall again,-35,60,20","Marker gone wild?  Not sure what's going on here.,-21,280,20","This makes me feel a bit disturbed,-35,240,20","This piece makes me think it has a backstory or a reason which I like.,5,320,20","Erica","Associates with blood and crime scene,-12,80,20","Shelby","This makes me feel a bit disturbed,-35,240,20","Stephanie","I think of an angry child,-50,300,20","2"
"15748","","survey-text","196","1554244","0.0-195.0-0.0","A3PZFJZ8Q17O33","","","","{""Q0"":""Gives me a bleak scifi sort of feel""}","","","","","","","","","","","","","","","","","","","","","","",""
"6146.799999999814","","image-slider-response","197","1560394","0.0-196.0","A3PZFJZ8Q17O33","","","","","-2","","","","","","","","","","","","","","","","","","","","","",""
"null","","image-button-response","198","1565397","0.0-197.0","A3PZFJZ8Q17O33","img_art/20.jpg","null","","","","","","","","","","","","","","","","","","","","","","","","",""
"5487","","image-button-response","199","1570887","0.0-198.0","A3PZFJZ8Q17O33","img_art/20.jpg","3","","","","","","","","","","","","","","","","","","","","","","","","",""
"4516","","image-button-response","200","1575407","0.0-199.0-0.0","A3PZFJZ8Q17O33","img_art/20.jpg","4","","","","","","","","","","","","","","","","","","","","","","","","",""
"8193","","image-button-response","201","1583604","0.0-200.0-0.0","A3PZFJZ8Q17O33","img_art/20.jpg","2","","","","","","","","","","","","","","","","","","","","","","","","",""
"null","","html-keyboard-response","202","1584107","0.0-201.0","A3PZFJZ8Q17O33","<p style=""font-size: 48px;"">+</p>","","","","","null","allTrialResponses","500","1","22","img_art/20.jpg","-2","Gives me a bleak scifi sort of feel","Stephanie,Erica,Paige,Jacqueline,Shelby,Cheyenne","Looks like an old gold mining down now deserted.,11,300,20","looks like an auto accident,-30,80,20","scared. makes me feel alone or abandoned,-11,60,20","Looks like a refinery dumping shit into the water.,-40,300,20","Makes me think if a car crash or some sort of disaster,-20,240,20","Liked the background,15,200,20","Jacqueline","Looks like a refinery dumping shit into the water.,-40,300,20","Shelby","Makes me think if a car crash or some sort of disaster,-20,240,20","Paige","scared. makes me feel alone or abandoned,-11,60,20","2"
"11612","","survey-text","203","1595727","0.0-202.0-0.0","A3PZFJZ8Q17O33","","","","{""Q0"":""It's giving mental illness""}","","","","","","","","","","","","","","","","","","","","","","",""
"39974.200000000186","","image-slider-response","204","1635704","0.0-203.0","A3PZFJZ8Q17O33","","","","","31","","","","","","","","","","","","","","","","","","","","","",""
"null","","image-button-response","205","1640708","0.0-204.0","A3PZFJZ8Q17O33","img_art/8.jpg","null","","","","","","","","","","","","","","","","","","","","","","","","",""
"9449","","image-button-response","206","1650160","0.0-205.0","A3PZFJZ8Q17O33","img_art/8.jpg","3","","","","","","","","","","","","","","","","","","","","","","","","",""
"17350","","image-button-response","207","1667513","0.0-206.0-0.0","A3PZFJZ8Q17O33","img_art/8.jpg","2","","","","","","","","","","","","","","","","","","","","","","","","",""
"2679","","image-button-response","208","1670195","0.0-207.0-0.0","A3PZFJZ8Q17O33","img_art/8.jpg","5","","","","","","","","","","","","","","","","","","","","","","","","",""
"null","","html-keyboard-response","209","1671197","0.0-208.0","A3PZFJZ8Q17O33","<p style=""font-size: 48px;"">+</p>","","","","","null","allTrialResponses","1000","1","23","img_art/8.jpg","31","It's giving mental illness","Abigail,Brianna,Paige,Jacqueline,Shelby,Megan","I did not like the face,-10,20,20","It's very odd and I don't really like it,-30,20,20","Nervous like being up high,10,60,20","This is kind of neat. I really like how things are oriented and the shapes used.,18,300,20","Too much going on, too many colors, makes me feel uneasy,-20,240,20","Cortez's influence with fair color choices,10,200,20","Jacqueline","This is kind of neat. I really like how things are oriented and the shapes used.,18,300,20","Paige","Nervous like being up high,10,60,20","Megan","Cortez's influence with fair color choices,10,200,20","2"
"10685","","survey-text","210","1681891","0.0-209.0-0.0","A3PZFJZ8Q17O33","","","","{""Q0"":""A crow looking for prey""}","","","","","","","","","","","","","","","","","","","","","","",""
"5803.200000000186","","image-slider-response","211","1687697","0.0-210.0","A3PZFJZ8Q17O33","","","","","6","","","","","","","","","","","","","","","","","","","","","",""
"null","","image-button-response","212","1692701","0.0-211.0","A3PZFJZ8Q17O33","img_art/6.jpg","null","","","","","","","","","","","","","","","","","","","","","","","","",""
"20260","","image-button-response","213","1712963","0.0-212.0","A3PZFJZ8Q17O33","img_art/6.jpg","3","","","","","","","","","","","","","","","","","","","","","","","","",""
"5501","","image-button-response","214","1718468","0.0-213.0-0.0","A3PZFJZ8Q17O33","img_art/6.jpg","5","","","","","","","","","","","","","","","","","","","","","","","","",""
"11478","","image-button-response","215","1729950","0.0-214.0-0.0","A3PZFJZ8Q17O33","img_art/6.jpg","0","","","","","","","","","","","","","","","","","","","","","","","","",""
"null","","html-keyboard-response","216","1731453","0.0-215.0","A3PZFJZ8Q17O33","<p style=""font-size: 48px;"">+</p>","","","","","null","allTrialResponses","1500","1","24","img_art/6.jpg","6","A crow looking for prey","Bailey,Anna,Paige,Jacqueline,Savannah,Megan","Not my favorite, but I like the empty vibe and the imagination it invokes. A skinny girl with long legs, perhaps, looking over a cliff,9,360,20","It reminds me of a simplistic bird. I like the colors used.,40,300,20","Kind of boring. I don't care for many abstracts,1,60,20","It's a bit bland, but looks like a bird standing.,11,300,20","Despite how simple it is, this piece has clear meaning.,34,200,20","Odd desert, nice sand color with headless bird,11,200,20","Jacqueline","It's a bit bland, but looks like a bird standing.,11,300,20","Megan","Odd desert, nice sand color with headless bird,11,200,20","Bailey","Not my favorite, but I like the empty vibe and the imagination it invokes. A skinny girl with long legs, perhaps, looking over a cliff,9,360,20","2"
"25407","","survey-text","217","1756871","0.0-216.0-0.0","A3PZFJZ8Q17O33","","","","{""Q0"":""Looks like a ransom note""}","","","","","","","","","","","","","","","","","","","","","","",""
"221284.90000000037","","image-slider-response","218","1978159","0.0-217.0","A3PZFJZ8Q17O33","","","","","4","","","","","","","","","","","","","","","","","","","","","",""
"null","","image-button-response","219","1983163","0.0-218.0","A3PZFJZ8Q17O33","img_art/16.jpg","null","","","","","","","","","","","","","","","","","","","","","","","","",""
"2250","","image-button-response","220","1985416","0.0-219.0","A3PZFJZ8Q17O33","img_art/16.jpg","0","","","","","","","","","","","","","","","","","","","","","","","","",""
"2544","","image-button-response","221","1987963","0.0-220.0-0.0","A3PZFJZ8Q17O33","img_art/16.jpg","1","","","","","","","","","","","","","","","","","","","","","","","","",""
"3417","","image-button-response","222","1991383","0.0-221.0-0.0","A3PZFJZ8Q17O33","img_art/16.jpg","2","","","","","","","","","","","","","","","","","","","","","","","","",""
"null","","html-keyboard-response","223","1992885","0.0-222.0","A3PZFJZ8Q17O33","<p style=""font-size: 48px;"">+</p>","","","","","null","allTrialResponses","1500","1","25","img_art/16.jpg","4","Looks like a ransom note","Bailey,Maria,Breanna,Jacqueline,Alicia,Megan","Creeps me out. Like..really creeps me out.,-48,360,20","feel a little creeped out,-20,120,20","The bear is terrifying,-50,380,20","Seems very twisted and dark.,-35,300,20","Don't get it. Hate it. ugly.,-44,120,20","Ugly, broken up and mismatched,-50,200,20","Bailey","Creeps me out. Like..really creeps me out.,-48,360,20","Maria","feel a little creeped out,-20,120,20","Breanna","The bear is terrifying,-50,380,20","2"
"4993","","survey-text","224","1997894","0.0-223.0-0.0","A3PZFJZ8Q17O33","","","","{""Q0"":""table""}","","","","","","","","","","","","","","","","","","","","","","",""
"12691","","survey-text","225","2010588","0.0-224.0-0.0","A3PZFJZ8Q17O33","","","","{""Q0"":""Just looks like random swipes""}","","","","","","","","","","","","","","","","","","","","","","",""
"4644.600000000559","","image-slider-response","226","2015236","0.0-225.0","A3PZFJZ8Q17O33","","","","","-36","","","","","","","","","","","","","","","","","","","","","",""
"null","","image-button-response","227","2020240","0.0-226.0","A3PZFJZ8Q17O33","img_art/30.jpg","null","","","","","","","","","","","","","","","","","","","","","","","","",""
"1415","","image-button-response","228","2021657","0.0-227.0","A3PZFJZ8Q17O33","img_art/30.jpg","2","","","","","","","","","","","","","","","","","","","","","","","","",""
"4496","","image-button-response","229","2026156","0.0-228.0-0.0","A3PZFJZ8Q17O33","img_art/30.jpg","4","","","","","","","","","","","","","","","","","","","","","","","","",""
"1890","","image-button-response","230","2028052","0.0-229.0-0.0","A3PZFJZ8Q17O33","img_art/30.jpg","5","","","","","","","","","","","","","","","","","","","","","","","","",""
"null","","html-keyboard-response","231","2029554","0.0-230.0","A3PZFJZ8Q17O33","<p style=""font-size: 48px;"">+</p>","","","","","null","allTrialResponses","1500","1","26","img_art/30.jpg","-36","Just looks like random swipes","Bailey,Maria,Breanna,Taylor,Vanessa,Lauren","No my favorite, but I do like the long strokes of color,11,360,20","uplifted and yet calmed,15,120,20","Paint scribbled on canvas,-25,380,20","It's a really interesting piece,20,340,20","I like the red against the blue, but otherwise, it's not really my taste,4,380,20","I like how the strokes invokes a sense of fluidity.,20,340,20","Breanna","Paint scribbled on canvas,-25,380,20","Vanessa","I like the red against the blue, but otherwise, it's not really my taste,4,380,20","Lauren","I like how the strokes invokes a sense of fluidity.,20,340,20","2"
"24262","","survey-text","232","2053826","0.0-231.0-0.0","A3PZFJZ8Q17O33","","","","{""Q0"":""Reminds me of a gloomy fall day but not a fan of the style""}","","","","","","","","","","","","","","","","","","","","","","",""
"9377.100000000559","","image-slider-response","233","2063206","0.0-232.0","A3PZFJZ8Q17O33","","","","","3","","","","","","","","","","","","","","","","","","","","","",""
"null","","image-button-response","234","2068210","0.0-233.0","A3PZFJZ8Q17O33","img_art/27.jpg","null","","","","","","","","","","","","","","","","","","","","","","","","",""
"2472","","image-button-response","235","2070685","0.0-234.0","A3PZFJZ8Q17O33","img_art/27.jpg","2","","","","","","","","","","","","","","","","","","","","","","","","",""
"5284","","image-button-response","236","2075974","0.0-235.0-0.0","A3PZFJZ8Q17O33","img_art/27.jpg","3","","","","","","","","","","","","","","","","","","","","","","","","",""
"3038","","image-button-response","237","2079017","0.0-236.0-0.0","A3PZFJZ8Q17O33","img_art/27.jpg","5","","","","","","","","","","","","","","","","","","","","","","","","",""
"null","","html-keyboard-response","238","2079520","0.0-237.0","A3PZFJZ8Q17O33","<p style=""font-size: 48px;"">+</p>","","","","","null","allTrialResponses","500","1","27","img_art/27.jpg","3","Reminds me of a gloomy fall day but not a fan of the style","Autumn,Angela,Breanna,Haley,Vanessa,Lauren","Adult contemporary painting with child.,-33,340,20","It's okay. Not really interesting to me.,-10,260,20","Not too impressed with the work,6,380,20","First thought is again, that this looks like a child's art assignment,-20,220,20","Colors make me think of fall, but I don't like how the picture was done or the weird lines across the background,6,380,20","Not a fan of the green; gives off the impression that someone else drew on it.,-20,340,20","Breanna","Not too impressed with the work,6,380,20","Haley","First thought is again, that this looks like a child's art assignment,-20,220,20","Lauren","Not a fan of the green; gives off the impression that someone else drew on it.,-20,340,20","2"
"16405","","survey-text","239","2095936","0.0-238.0-0.0","A3PZFJZ8Q17O33","","","","{""Q0"":""Very creepy reminds me of the wicker man""}","","","","","","","","","","","","","","","","","","","","","","",""
"4474.5999999996275","","image-slider-response","240","2100415","0.0-239.0","A3PZFJZ8Q17O33","","","","","12","","","","","","","","","","","","","","","","","","","","","",""
"null","","image-button-response","241","2105419","0.0-240.0","A3PZFJZ8Q17O33","img_art/25.jpg","null","","","","","","","","","","","","","","","","","","","","","","","","",""
"15082","","image-button-response","242","2120503","0.0-241.0","A3PZFJZ8Q17O33","img_art/25.jpg","5","","","","","","","","","","","","","","","","","","","","","","","","",""
"1593","","image-button-response","243","2122100","0.0-242.0-0.0","A3PZFJZ8Q17O33","img_art/25.jpg","0","","","","","","","","","","","","","","","","","","","","","","","","",""
"1983","","image-button-response","244","2124088","0.0-243.0-0.0","A3PZFJZ8Q17O33","img_art/25.jpg","3","","","","","","","","","","","","","","","","","","","","","","","","",""
"null","","html-keyboard-response","245","2125590","0.0-244.0","A3PZFJZ8Q17O33","<p style=""font-size: 48px;"">+</p>","","","","","null","allTrialResponses","1500","1","28","img_art/25.jpg","12","Very creepy reminds me of the wicker man","Gabriela,Katie,Breanna,Haley,Diana,Lauren","It looks like a person at a graveyard,18,140,20","Reminds me of ancient civilization art. I like the aqua color; soothing to me.,1,160,20","Makes me feel intrigued,13,380,20","I like the design but the brightness of the color feels almost blinding to me.,-3,220,20","This piece feels cultural. Like it represents something culturally.,22,380,20","Depicts something negative, such as ritual. I'm not a fan.,-10,340,20","Lauren","Depicts something negative, such as ritual. I'm not a fan.,-10,340,20","Gabriela","It looks like a person at a graveyard,18,140,20","Haley","I like the design but the brightness of the color feels almost blinding to me.,-3,220,20","2"
"9264","","survey-text","246","2134862","0.0-245.0-0.0","A3PZFJZ8Q17O33","","","","{""Q0"":""A boring fall day""}","","","","","","","","","","","","","","","","","","","","","","",""
"4878.399999999441","","image-slider-response","247","2139744","0.0-246.0","A3PZFJZ8Q17O33","","","","","3","","","","","","","","","","","","","","","","","","","","","",""
"null","","image-button-response","248","2144747","0.0-247.0","A3PZFJZ8Q17O33","img_art/26.jpg","null","","","","","","","","","","","","","","","","","","","","","","","","",""
"8747","","image-button-response","249","2153498","0.0-248.0","A3PZFJZ8Q17O33","img_art/26.jpg","1","","","","","","","","","","","","","","","","","","","","","","","","",""
"6813","","image-button-response","250","2160315","0.0-249.0-0.0","A3PZFJZ8Q17O33","img_art/26.jpg","4","","","","","","","","","","","","","","","","","","","","","","","","",""
"719","","image-button-response","251","2161038","0.0-250.0-0.0","A3PZFJZ8Q17O33","img_art/26.jpg","5","","","","","","","","","","","","","","","","","","","","","","","","",""
"null","","html-keyboard-response","252","2161540","0.0-251.0","A3PZFJZ8Q17O33","<p style=""font-size: 48px;"">+</p>","","","","","null","allTrialResponses","500","1","29","img_art/26.jpg","3","A boring fall day","Gabriela,Briana,Alexandria,Haley,Natalie,Lauren","it makes me feel normal and calm, I like the busy city street,10,140,20","Another blob on a landscape. A city street?,9,400,20","makes me happy and reminds me of a paris courtyard,29,80,20","It feels almost unfinished, but I like the color palette,9,220,20","picture looks alright,1,400,20","The piece doesn't really invoke anything for me.,0,340,20","Briana","Another blob on a landscape. A city street?,9,400,20","Natalie","picture looks alright,1,400,20","Lauren","The piece doesn't really invoke anything for me.,0,340,20","2"
"16873","","survey-text","253","2178423","0.0-252.0-0.0","A3PZFJZ8Q17O33","","","","{""Q0"":""I kind of like the color but also it's a bit muddy""}","","","","","","","","","","","","","","","","","","","","","","",""
"6640","","image-slider-response","254","2185066","0.0-253.0","A3PZFJZ8Q17O33","","","","","7","","","","","","","","","","","","","","","","","","","","","",""
"null","","image-button-response","255","2190457","0.0-254.0","A3PZFJZ8Q17O33","img_art/2.jpg","null","","","","","","","","","","","","","","","","","","","","","","","","",""
"150327","","image-button-response","256","2340787","0.0-255.0","A3PZFJZ8Q17O33","img_art/2.jpg","0","","","","","","","","","","","","","","","","","","","","","","","","",""
"5479","","image-button-response","257","2346270","0.0-256.0-0.0","A3PZFJZ8Q17O33","img_art/2.jpg","4","","","","","","","","","","","","","","","","","","","","","","","","",""
"3923","","image-button-response","258","2350198","0.0-257.0-0.0","A3PZFJZ8Q17O33","img_art/2.jpg","3","","","","","","","","","","","","","","","","","","","","","","","","",""
"null","","html-keyboard-response","259","2351701","0.0-258.0","A3PZFJZ8Q17O33","<p style=""font-size: 48px;"">+</p>","","","","","null","allTrialResponses","1500","1","30","img_art/2.jpg","7","I kind of like the color but also it's a bit muddy","Jenna,Briana,Miranda,Kimberly,Natalie,Lauren","the colors are a bit odd, and the squiggly line at the top is distracting,0,360,20","Childish smiley face,-19,400,20","I don't really like this but at the same time it's cute. It looks like a little monster kid.,-9,320,20","I like the green,13,260,20","looks like a bunch of gibberish,-39,400,20","I feel that its too abstract for me to understand what I'm looking at.,-15,340,20","Jenna","the colors are a bit odd, and the squiggly line at the top is distracting,0,360,20","Natalie","looks like a bunch of gibberish,-39,400,20","Kimberly","I like the green,13,260,20","2"
"2959","","image-button-response_instructions","260","2354670","0.0-259.0","A3PZFJZ8Q17O33","","0","instructions","","","","","","","","","","","","","","","","","","","","","","","",""
"1499","","image-button-response","261","2356179","0.0-260.0","A3PZFJZ8Q17O33","","0","","","","","","","","","","","","","","","","","","","","","","","","",""
