"rt","url","trial_type","trial_index","time_elapsed","internal_node_id","participant_id","stimulus","button_pressed","Name","responses","response","key_press","variableName","fixationTime","condition","trial","photo","subjectRating","subjectResponse","agentsNames","agent_1_Response","agent_2_Response","agent_3_Response","agent_4_Response","agent_5_Response","agent_6_Response","kept_1_name","kept_1_response","kept_2_name","kept_2_response","kept_3_name","kept_3_response","errorCounter"
"9951","external_page_harvard.html","external-html","0","10339","0.0-0.0","A3Q9H7A8J8GR01","","","","","","","","","","","","","","","","","","","","","","","","","","",""
"2833","","image-button-response","1","13174","0.0-1.0","A3Q9H7A8J8GR01","","1","","","","","","","","","","","","","","","","","","","","","","","","",""
"3552","","image-button-response","2","16733","0.0-2.0-0.0","A3Q9H7A8J8GR01","","1","phone","","","","","","","","","","","","","","","","","","","","","","","",""
"9272","","survey-text","3","26008","0.0-3.0-0.0","A3Q9H7A8J8GR01","","","","{""Q0"":""A3Q9H7A8J8GR01""}","","","","","","","","","","","","","","","","","","","","","","",""
"6358","","image-button-response_instructions","4","32369","0.0-4.0","A3Q9H7A8J8GR01","","0","instructions","","","","","","","","","","","","","","","","","","","","","","","",""
"14942","","image-button-response_instructions","5","47313","0.0-5.0","A3Q9H7A8J8GR01","img_art/ins/popularity/ins1.png","0","instructions","","","","","","","","","","","","","","","","","","","","","","","",""
"8528","","image-button-response_instructions","6","55843","0.0-6.0","A3Q9H7A8J8GR01","img_art/ins/popularity/ins2.png","0","instructions","","","","","","","","","","","","","","","","","","","","","","","",""
"7252","","image-button-response_instructions","7","63097","0.0-7.0","A3Q9H7A8J8GR01","img_art/ins/popularity/ins2Extreme.png","0","instructions","","","","","","","","","","","","","","","","","","","","","","","",""
"7406","","image-button-response_instructions","8","70505","0.0-8.0","A3Q9H7A8J8GR01","img_art/ins/popularity/ins3KEEPpop.PNG","0","instructions","","","","","","","","","","","","","","","","","","","","","","","",""
"7314","","image-button-response_instructions","9","77821","0.0-9.0","A3Q9H7A8J8GR01","img_art/ins/popularity/ins3ANamepop.PNG","0","instructions","","","","","","","","","","","","","","","","","","","","","","","",""
"5938","","image-button-response_instructions","10","83761","0.0-10.0","A3Q9H7A8J8GR01","img_art/ins/popularity/ins3ARatingpop.png","0","instructions","","","","","","","","","","","","","","","","","","","","","","","",""
"3738","","image-button-response_instructions","11","87501","0.0-11.0","A3Q9H7A8J8GR01","img_art/ins/popularity/ins3ATextpop.png","0","instructions","","","","","","","","","","","","","","","","","","","","","","","",""
"5224","","image-button-response_instructions","12","92727","0.0-12.0","A3Q9H7A8J8GR01","img_art/ins/popularity/ins3ALikespop.png","0","instructions","","","","","","","","","","","","","","","","","","","","","","","",""
"11209","","image-button-response_instructions","13","103937","0.0-13.0","A3Q9H7A8J8GR01","img_art/ins/popularity/ins3KEEPpop.PNG","0","instructions","","","","","","","","","","","","","","","","","","","","","","","",""
"11474","","image-button-response_instructions","14","115413","0.0-14.0","A3Q9H7A8J8GR01","img_art/ins/popularity/ins3_5RED.png","0","instructions","","","","","","","","","","","","","","","","","","","","","","","",""
"4562","","image-button-response_instructions","15","119977","0.0-15.0","A3Q9H7A8J8GR01","img_art/ins/popularity/ins3KEEPpop.PNG","0","instructions","","","","","","","","","","","","","","","","","","","","","","","",""
"10718","","image-button-response_instructions","16","130697","0.0-16.0","A3Q9H7A8J8GR01","img_art/ins/popularity/ins4KEEPpop.PNG","0","instructions","","","","","","","","","","","","","","","","","","","","","","","",""
"6437","","image-button-response_instructions","17","137135","0.0-17.0","A3Q9H7A8J8GR01","img_art/ins/popularity/ins5KEEPpop.PNG","0","instructions","","","","","","","","","","","","","","","","","","","","","","","",""
"3910","","image-button-response_instructions","18","141047","0.0-18.0","A3Q9H7A8J8GR01","","0","instructions","","","","","","","","","","","","","","","","","","","","","","","",""
"8776","","survey-text","19","149863","0.0-19.0-0.0","A3Q9H7A8J8GR01","","","","{""Q0"":""but""}","","","","","","","","","","","","","","","","","","","","","","",""
"28633","","survey-text","20","178499","0.0-20.0-0.0","A3Q9H7A8J8GR01","","","","{""Q0"":""not that great""}","","","","","","","","","","","","","","","","","","","","","","",""
"7964.5","","image-slider-response","21","186467","0.0-21.0","A3Q9H7A8J8GR01","","","","","-7","","","","","","","","","","","","","","","","","","","","","",""
"null","","image-button-response","22","191472","0.0-22.0","A3Q9H7A8J8GR01","img_art/ins/1.jpg","null","","","","","","","","","","","","","","","","","","","","","","","","",""
"7711","","image-button-response","23","199187","0.0-23.0","A3Q9H7A8J8GR01","img_art/ins/1.jpg","3","","","","","","","","","","","","","","","","","","","","","","","","",""
"5320","","image-button-response","24","204511","0.0-24.0-0.0","A3Q9H7A8J8GR01","img_art/ins/1.jpg","4","","","","","","","","","","","","","","","","","","","","","","","","",""
"3262","","image-button-response","25","207777","0.0-25.0-0.0","A3Q9H7A8J8GR01","img_art/ins/1.jpg","0","","","","","","","","","","","","","","","","","","","","","","","","",""
"null","","html-keyboard-response","26","209293","0.0-26.0","A3Q9H7A8J8GR01","<p style=""font-size: 48px;"">+</p>","","","","","null","allTrialResponses","1500","1","-2","img_art/ins/1.jpg","-7","not that great","Allison,Ashley,Beth,Dora,Erika,Jen","looks like a lot of things going on in the mist,20,20,20","I just don't get why these type of art would be popular,-32,40,20","This color reminds me of poo,-46,60,20","looks like what my niece in 3rd grade did this afternoon,-50,80,20","I like the sophisticated brushwork,40,100,20","It reminds me of a candy land dream I had,36,120,20","Dora","looks like what my niece in 3rd grade did this afternoon,-50,80,20","Erika","I like the sophisticated brushwork,40,100,20","Allison","looks like a lot of things going on in the mist,20,20,20","0"
"12407","","survey-text","27","221709","0.0-27.0-0.0","A3Q9H7A8J8GR01","","","","{""Q0"":""heavy""}","","","","","","","","","","","","","","","","","","","","","","",""
"15561","","survey-text","28","240367","0.0-27.1-0.1","A3Q9H7A8J8GR01","","","","{""Q0"":""feels strained""}","","","","","","","","","","","","","","","","","","","","","","",""
"5709.399999976158","","image-slider-response","29","246079","0.0-28.0","A3Q9H7A8J8GR01","","","","","1","","","","","","","","","","","","","","","","","","","","","",""
"null","","image-button-response","30","251091","0.0-29.0","A3Q9H7A8J8GR01","img_art/ins/2.jpg","null","","","","","","","","","","","","","","","","","","","","","","","","",""
"1392","","image-button-response","31","252485","0.0-30.0","A3Q9H7A8J8GR01","img_art/ins/2.jpg","0","","","","","","","","","","","","","","","","","","","","","","","","",""
"8808","","image-button-response","32","261296","0.0-31.0-0.0","A3Q9H7A8J8GR01","img_art/ins/2.jpg","2","","","","","","","","","","","","","","","","","","","","","","","","",""
"2897","","image-button-response","33","264196","0.0-32.0-0.0","A3Q9H7A8J8GR01","img_art/ins/2.jpg","3","","","","","","","","","","","","","","","","","","","","","","","","",""
"null","","html-keyboard-response","34","264699","0.0-33.0","A3Q9H7A8J8GR01","<p style=""font-size: 48px;"">+</p>","","","","","null","allTrialResponses","500","1","-1","img_art/ins/2.jpg","1","feels strained","Allison,Jenna,Kara,Dora,Erika,Katie","I don't have strong feelings about this,10,20,20","One of my pet peevs,-48,140,20","I like the blocks of color arrangements,30,160,20","looks too angry,-50,80,20","I would never be able to compose a sophisticated pallete like this,48,100,20","too much color!,-28,180,20","Allison","I don't have strong feelings about this,10,20,20","Kara","I like the blocks of color arrangements,30,160,20","Dora","looks too angry,-50,80,20","0"
"17212","","survey-text","35","281921","0.0-34.0-0.0","A3Q9H7A8J8GR01","","","","{""Q0"":""like the colors""}","","","","","","","","","","","","","","","","","","","","","","",""
"6075.399999976158","","image-slider-response","36","287999","0.0-35.0","A3Q9H7A8J8GR01","","","","","22","","","","","","","","","","","","","","","","","","","","","",""
"2819","","image-button-response","37","293008","0.0-36.0","A3Q9H7A8J8GR01","img_art/ins/3.jpg","0","","","","","","","","","","","","","","","","","","","","","","","","",""
"119","","image-button-response","38","293131","0.0-37.0","A3Q9H7A8J8GR01","img_art/ins/3.jpg","2","","","","","","","","","","","","","","","","","","","","","","","","",""
"6239","","image-button-response","39","299373","0.0-38.0-0.0","A3Q9H7A8J8GR01","img_art/ins/3.jpg","4","","","","","","","","","","","","","","","","","","","","","","","","",""
"11805","","image-button-response","40","311181","0.0-39.0-0.0","A3Q9H7A8J8GR01","img_art/ins/3.jpg","0","","","","","","","","","","","","","","","","","","","","","","","","",""
"null","","html-keyboard-response","41","311695","0.0-40.0","A3Q9H7A8J8GR01","<p style=""font-size: 48px;"">+</p>","","","","","null","allTrialResponses","500","1","0","img_art/ins/3.jpg","22","like the colors","Allison,Leslie,Kara,Dora,Mary,Rose","enjoy the different shades of blue,22,20,20","It's an alright work,15,200,20","calming blue is very nice,36,160,20","My worst nightmare,-42,80,20","I like the overlapping of brushes,41,220,20","My daily routine, it's depressing,-20,240,20","Kara","calming blue is very nice,36,160,20","Mary","I like the overlapping of brushes,41,220,20","Allison","enjoy the different shades of blue,22,20,20","0"
"5292","","image-button-response_instructions","42","316997","0.0-41.0","A3Q9H7A8J8GR01","","0","instructions","","","","","","","","","","","","","","","","","","","","","","","",""
"14910","","survey-likert","43","331910","0.0-42.0-0.0","A3Q9H7A8J8GR01","","","","{""Q0"":"""",""Q1"":0,""Q2"":1}","","","","","","","","","","","","","","","","","","","","","","",""
"10326","","survey-text","44","342241","0.0-43.0-0.0","A3Q9H7A8J8GR01","","","","{""Q0"":""rock""}","","","","","","","","","","","","","","","","","","","","","","",""
"37248","","survey-text","45","379491","0.0-44.0-0.0","A3Q9H7A8J8GR01","","","","{""Q0"":""feels dreamy""}","","","","","","","","","","","","","","","","","","","","","","",""
"4063.5999999046326","","image-slider-response","46","383557","0.0-45.0","A3Q9H7A8J8GR01","","","","","18","","","","","","","","","","","","","","","","","","","","","",""
"null","","image-button-response","47","388612","0.0-46.0","A3Q9H7A8J8GR01","img_art/27.jpg","null","","","","","","","","","","","","","","","","","","","","","","","","",""
"1658","","image-button-response","48","390273","0.0-47.0","A3Q9H7A8J8GR01","img_art/27.jpg","2","","","","","","","","","","","","","","","","","","","","","","","","",""
"5271","","image-button-response","49","395547","0.0-48.0-0.0","A3Q9H7A8J8GR01","img_art/27.jpg","4","","","","","","","","","","","","","","","","","","","","","","","","",""
"5291","","image-button-response","50","400841","0.0-49.0-0.0","A3Q9H7A8J8GR01","img_art/27.jpg","1","","","","","","","","","","","","","","","","","","","","","","","","",""
"null","","html-keyboard-response","51","401348","0.0-50.0","A3Q9H7A8J8GR01","<p style=""font-size: 48px;"">+</p>","","","","","null","allTrialResponses","500","1","1","img_art/27.jpg","18","feels dreamy","Kayla,Leah,Sabrina,Mackenzie,Ashley,Chelsea","Don't know what it is, but I do like it.,10,180,20","An attractive assortment of squiggles and colors,22,360,20","Love the representation of home,22,120,20","The color palette isn't my taste,-24,20,20","Lots of activity, layers, imagination at work here.,29,320,20","The green lines look like a child drew over a painting.,-36,180,20","Sabrina","Love the representation of home,22,120,20","Ashley","Lots of activity, layers, imagination at work here.,29,320,20","Leah","An attractive assortment of squiggles and colors,22,360,20","0"
"23209","","survey-text","52","424567","0.0-51.0-0.0","A3Q9H7A8J8GR01","","","","{""Q0"":""a child's nightmare""}","","","","","","","","","","","","","","","","","","","","","","",""
"5755.400000095367","","image-slider-response","53","430324","0.0-52.0","A3Q9H7A8J8GR01","","","","","10","","","","","","","","","","","","","","","","","","","","","",""
"null","","image-button-response","54","435334","0.0-53.0","A3Q9H7A8J8GR01","img_art/16.jpg","null","","","","","","","","","","","","","","","","","","","","","","","","",""
"2062","","image-button-response","55","437399","0.0-54.0","A3Q9H7A8J8GR01","img_art/16.jpg","1","","","","","","","","","","","","","","","","","","","","","","","","",""
"7668","","image-button-response","56","445069","0.0-55.0-0.0","A3Q9H7A8J8GR01","img_art/16.jpg","4","","","","","","","","","","","","","","","","","","","","","","","","",""
"1987","","image-button-response","57","447059","0.0-56.0-0.0","A3Q9H7A8J8GR01","img_art/16.jpg","5","","","","","","","","","","","","","","","","","","","","","","","","",""
"null","","html-keyboard-response","58","447566","0.0-57.0","A3Q9H7A8J8GR01","<p style=""font-size: 48px;"">+</p>","","","","","null","allTrialResponses","500","1","2","img_art/16.jpg","10","a child's nightmare","Katherine,Leah,Sabrina,Kelly,Ashley,Catherine","Super weird. Id like to know more about it,24,120,20","Know it is a piece relating to children and gun violence. Sad,-30,360,20","Kind of an edgy teenager vibe,32,120,20","Looks like someone got really high and did a bad photoshop job.,-27,220,20","A lot fo these could abstract or childrens work.,23,320,20","A teddybear, gun, crying person does not give a happy reaction. Death, still, no life.,-50,160,20","Leah","Know it is a piece relating to children and gun violence. Sad,-30,360,20","Ashley","A lot fo these could abstract or childrens work.,23,320,20","Catherine","A teddybear, gun, crying person does not give a happy reaction. Death, still, no life.,-50,160,20","0"
"21620","","survey-text","59","469197","0.0-58.0-0.0","A3Q9H7A8J8GR01","","","","{""Q0"":""looks like a piece of granite""}","","","","","","","","","","","","","","","","","","","","","","",""
"10079.899999976158","","image-slider-response","60","479279","0.0-59.0","A3Q9H7A8J8GR01","","","","","-3","","","","","","","","","","","","","","","","","","","","","",""
"null","","image-button-response","61","484296","0.0-60.0","A3Q9H7A8J8GR01","img_art/7.jpg","null","","","","","","","","","","","","","","","","","","","","","","","","",""
"4089","","image-button-response","62","488389","0.0-61.0","A3Q9H7A8J8GR01","img_art/7.jpg","1","","","","","","","","","","","","","","","","","","","","","","","","",""
"5779","","image-button-response","63","494171","0.0-62.0-0.0","A3Q9H7A8J8GR01","img_art/7.jpg","2","","","","","","","","","","","","","","","","","","","","","","","","",""
"992","","image-button-response","64","495167","0.0-63.0-0.0","A3Q9H7A8J8GR01","img_art/7.jpg","5","","","","","","","","","","","","","","","","","","","","","","","","",""
"null","","html-keyboard-response","65","495672","0.0-64.0","A3Q9H7A8J8GR01","<p style=""font-size: 48px;"">+</p>","","","","","null","allTrialResponses","500","1","3","img_art/7.jpg","-3","looks like a piece of granite","Margaret,Leah,Michaela,Alexis,Ashley,Catherine","looks like a close up of irritated skin under a microscope,-49,100,20","I love it, it looks like a landscape photograph in desert or rocky mountain,50,360,20","It looks like maybe some seeds?,14,260,20","Looks like bad wallpaper,-29,100,20","landscape of amrs, yawn.,-25,320,20","Looking through a microscope at the ground at a beach.,20,160,20","Leah","I love it, it looks like a landscape photograph in desert or rocky mountain,50,360,20","Michaela","It looks like maybe some seeds?,14,260,20","Catherine","Looking through a microscope at the ground at a beach.,20,160,20","0"
"21139","","survey-text","66","516821","0.0-65.0-0.0","A3Q9H7A8J8GR01","","","","{""Q0"":""nice mingling of colors""}","","","","","","","","","","","","","","","","","","","","","","",""
"4001.399999976158","","image-slider-response","67","520824","0.0-66.0","A3Q9H7A8J8GR01","","","","","24","","","","","","","","","","","","","","","","","","","","","",""
"2540","","image-button-response","68","525831","0.0-67.0","A3Q9H7A8J8GR01","img_art/21.jpg","1","","","","","","","","","","","","","","","","","","","","","","","","",""
"3214","","image-button-response","69","529049","0.0-68.0","A3Q9H7A8J8GR01","img_art/21.jpg","1","","","","","","","","","","","","","","","","","","","","","","","","",""
"2625","","image-button-response","70","531677","0.0-69.0-0.0","A3Q9H7A8J8GR01","img_art/21.jpg","2","","","","","","","","","","","","","","","","","","","","","","","","",""
"5546","","image-button-response","71","537225","0.0-70.0-0.0","A3Q9H7A8J8GR01","img_art/21.jpg","4","","","","","","","","","","","","","","","","","","","","","","","","",""
"null","","html-keyboard-response","72","538732","0.0-71.0","A3Q9H7A8J8GR01","<p style=""font-size: 48px;"">+</p>","","","","","null","allTrialResponses","1500","1","4","img_art/21.jpg","24","nice mingling of colors","Kaitlyn,Leah,Michaela,Danielle,Cynthia,Catherine","The division in the picture is pleasing but the random white dots are distracting,12,80,20","Love the colors, uplifting and stormy at the same time,32,360,20","I love how vague it is but how you can imagine a story anyway, like clouds,45,260,20","I like it. It's some of war-scene, bloodshed and battle on the left, field of dispair on the right, dark and rich,40,340,20","mythical between good and evil,16,320,20","Nature, water, ever changing. Cold then warm. Reaction is mostly positive and some negative,30,160,20","Leah","Love the colors, uplifting and stormy at the same time,32,360,20","Michaela","I love how vague it is but how you can imagine a story anyway, like clouds,45,260,20","Cynthia","mythical between good and evil,16,320,20","0"
"15487","","survey-text","73","554226","0.0-72.0-0.0","A3Q9H7A8J8GR01","","","","{""Q0"":""too abstract for me""}","","","","","","","","","","","","","","","","","","","","","","",""
"4635.399999976158","","image-slider-response","74","558864","0.0-73.0","A3Q9H7A8J8GR01","","","","","-21","","","","","","","","","","","","","","","","","","","","","",""
"2968","","image-button-response","75","563882","0.0-74.0","A3Q9H7A8J8GR01","img_art/4.jpg","0","","","","","","","","","","","","","","","","","","","","","","","","",""
"7611","","image-button-response","76","571497","0.0-75.0","A3Q9H7A8J8GR01","img_art/4.jpg","3","","","","","","","","","","","","","","","","","","","","","","","","",""
"4058","","image-button-response","77","575557","0.0-76.0-0.0","A3Q9H7A8J8GR01","img_art/4.jpg","5","","","","","","","","","","","","","","","","","","","","","","","","",""
"3571","","image-button-response","78","579131","0.0-77.0-0.0","A3Q9H7A8J8GR01","img_art/4.jpg","0","","","","","","","","","","","","","","","","","","","","","","","","",""
"null","","html-keyboard-response","79","579638","0.0-78.0","A3Q9H7A8J8GR01","<p style=""font-size: 48px;"">+</p>","","","","","null","allTrialResponses","500","1","5","img_art/4.jpg","-21","too abstract for me","Miranda,Leah,Michaela,Brooke,Cynthia,Shannon","I just don't understand this one at all, I do not like it,-43,320,20","To me just looking at paint scrawls,-41,360,20","It reminds me of something a kid would make for their parents,13,260,20","Looks like the roomba got into dog poop,-30,60,20","creepy as it looks like fingernails,-23,320,20","I think that this picture is too boring in terms of color and it looks ugly.,-41,220,20","Brooke","Looks like the roomba got into dog poop,-30,60,20","Shannon","I think that this picture is too boring in terms of color and it looks ugly.,-41,220,20","Miranda","I just don't understand this one at all, I do not like it,-43,320,20","0"
"6295","","survey-text","80","585949","0.0-79.0-0.0","A3Q9H7A8J8GR01","","","","{""Q0"":""sky""}","","","","","","","","","","","","","","","","","","","","","","",""
"50814","","survey-text","81","636765","0.0-80.0-0.0","A3Q9H7A8J8GR01","","","","{""Q0"":""mix of tooth paste and hair color""}","","","","","","","","","","","","","","","","","","","","","","",""
"5329.600000023842","","image-slider-response","82","642097","0.0-81.0","A3Q9H7A8J8GR01","","","","","-25","","","","","","","","","","","","","","","","","","","","","",""
"4615","","image-button-response","83","647108","0.0-82.0","A3Q9H7A8J8GR01","img_art/30.jpg","0","","","","","","","","","","","","","","","","","","","","","","","","",""
"1055","","image-button-response","84","648167","0.0-83.0","A3Q9H7A8J8GR01","img_art/30.jpg","0","","","","","","","","","","","","","","","","","","","","","","","","",""
"5975","","image-button-response","85","654146","0.0-84.0-0.0","A3Q9H7A8J8GR01","img_art/30.jpg","2","","","","","","","","","","","","","","","","","","","","","","","","",""
"1420","","image-button-response","86","655569","0.0-85.0-0.0","A3Q9H7A8J8GR01","img_art/30.jpg","0","","","","","","","","","","","","","","","","","","","","","","","","",""
"4226","","image-button-response","87","664329","0.0-85.1-0.1","A3Q9H7A8J8GR01","img_art/30.jpg","5","","","","","","","","","","","","","","","","","","","","","","","","",""
"null","","html-keyboard-response","88","665841","0.0-86.0","A3Q9H7A8J8GR01","<p style=""font-size: 48px;"">+</p>","","","","","null","allTrialResponses","1500","1","6","img_art/30.jpg","-25","mix of tooth paste and hair color","Miranda,Bailey,Emily,Brooke,Alyssa,Shannon","It looks like it was made by pre-k students.,-30,320,20","No my favorite, but I do like the long strokes of color,11,360,20","It looks like a child did it. There is nothing talented or special about it.,-16,40,20","Like the color and style,31,60,20","ugly nasty colors,-10,160,20","I feel like the colors are too repetitive and not very eyecatching.,-20,220,20","Miranda","It looks like it was made by pre-k students.,-30,320,20","Emily","It looks like a child did it. There is nothing talented or special about it.,-16,40,20","Shannon","I feel like the colors are too repetitive and not very eyecatching.,-20,220,20","2"
"30935","","survey-text","89","696784","0.0-87.0-0.0","A3Q9H7A8J8GR01","","","","{""Q0"":""kid in an angry mood""}","","","","","","","","","","","","","","","","","","","","","","",""
"4631.600000023842","","image-slider-response","90","701419","0.0-88.0","A3Q9H7A8J8GR01","","","","","-22","","","","","","","","","","","","","","","","","","","","","",""
"null","","image-button-response","91","706428","0.0-89.0","A3Q9H7A8J8GR01","img_art/3.jpg","null","","","","","","","","","","","","","","","","","","","","","","","","",""
"2768","","image-button-response","92","709199","0.0-90.0","A3Q9H7A8J8GR01","img_art/3.jpg","1","","","","","","","","","","","","","","","","","","","","","","","","",""
"7397","","image-button-response","93","716599","0.0-91.0-0.0","A3Q9H7A8J8GR01","img_art/3.jpg","5","","","","","","","","","","","","","","","","","","","","","","","","",""
"8073","","image-button-response","94","724675","0.0-92.0-0.0","A3Q9H7A8J8GR01","img_art/3.jpg","0","","","","","","","","","","","","","","","","","","","","","","","","",""
"null","","html-keyboard-response","95","726182","0.0-93.0","A3Q9H7A8J8GR01","<p style=""font-size: 48px;"">+</p>","","","","","null","allTrialResponses","1500","1","7","img_art/3.jpg","-22","kid in an angry mood","Miranda,Claire,Emily,Abigail,Angela,Shannon","It just makes me think of blood splattered everywhere.,-31,320,20","looks like a kid scribbled with crayon,-35,260,20","Looks like someone mentalyl unstable drew and is ready to go a a killing spree.,-50,40,20","Reminded me of blood or something bad,-21,20,20","Like the colors and energy of this work.,10,260,20","I can't tell what this image is supposed to be it looks extremely ugly and color variety is boring.,-50,220,20","Claire","looks like a kid scribbled with crayon,-35,260,20","Shannon","I can't tell what this image is supposed to be it looks extremely ugly and color variety is boring.,-50,220,20","Miranda","It just makes me think of blood splattered everywhere.,-31,320,20","2"
"17646","","survey-text","96","743836","0.0-94.0-0.0","A3Q9H7A8J8GR01","","","","{""Q0"":""dream like strokes""}","","","","","","","","","","","","","","","","","","","","","","",""
"5219.799999952316","","image-slider-response","97","749058","0.0-95.0","A3Q9H7A8J8GR01","","","","","31","","","","","","","","","","","","","","","","","","","","","",""
"4637","","image-button-response","98","754074","0.0-96.0","A3Q9H7A8J8GR01","img_art/17.jpg","0","","","","","","","","","","","","","","","","","","","","","","","","",""
"5461","","image-button-response","99","759539","0.0-97.0","A3Q9H7A8J8GR01","img_art/17.jpg","4","","","","","","","","","","","","","","","","","","","","","","","","",""
"3075","","image-button-response","100","762617","0.0-98.0-0.0","A3Q9H7A8J8GR01","img_art/17.jpg","5","","","","","","","","","","","","","","","","","","","","","","","","",""
"6761","","image-button-response","101","769381","0.0-99.0-0.0","A3Q9H7A8J8GR01","img_art/17.jpg","3","","","","","","","","","","","","","","","","","","","","","","","","",""
"null","","html-keyboard-response","102","769897","0.0-100.0","A3Q9H7A8J8GR01","<p style=""font-size: 48px;"">+</p>","","","","","null","allTrialResponses","500","1","8","img_art/17.jpg","31","dream like strokes","Miranda,Claire,Molly,Laura,Alexa,Shannon","It seems a little dark but it is very beautiful,28,320,20","its whimsical and light,50,260,20","Wow, I haven't seen anything better than this.,40,340,20","home - reminds me of fond memories of the Barnes Museum courtyard (looks just like it),30,320,20","The colors are beautiful and the painting itself is magnificent,50,40,20","I like the way the colors were used behind the tree. Makes the image colorful and interesting.,30,220,20","Alexa","The colors are beautiful and the painting itself is magnificent,50,40,20","Shannon","I like the way the colors were used behind the tree. Makes the image colorful and interesting.,30,220,20","Laura","home - reminds me of fond memories of the Barnes Museum courtyard (looks just like it),30,320,20","2"
"16359","","survey-text","103","786264","0.0-101.0-0.0","A3Q9H7A8J8GR01","","","","{""Q0"":""no master stroke for sure""}","","","","","","","","","","","","","","","","","","","","","","",""
"4131.600000023842","","image-slider-response","104","790399","0.0-102.0","A3Q9H7A8J8GR01","","","","","-19","","","","","","","","","","","","","","","","","","","","","",""
"null","","image-button-response","105","795403","0.0-103.0","A3Q9H7A8J8GR01","img_art/5.jpg","null","","","","","","","","","","","","","","","","","","","","","","","","",""
"450","","image-button-response","106","795857","0.0-104.0","A3Q9H7A8J8GR01","img_art/5.jpg","1","","","","","","","","","","","","","","","","","","","","","","","","",""
"7724","","image-button-response","107","803583","0.0-105.0-0.0","A3Q9H7A8J8GR01","img_art/5.jpg","5","","","","","","","","","","","","","","","","","","","","","","","","",""
"1031","","image-button-response","108","804617","0.0-106.0-0.0","A3Q9H7A8J8GR01","img_art/5.jpg","4","","","","","","","","","","","","","","","","","","","","","","","","",""
"null","","html-keyboard-response","109","805629","0.0-107.0","A3Q9H7A8J8GR01","<p style=""font-size: 48px;"">+</p>","","","","","null","allTrialResponses","1000","1","9","img_art/5.jpg","-19","no master stroke for sure","Melissa,Alexandra,Breanna,Laura,Alexa,Shannon","strong appeal in contrast,27,240,20","This looks like a twelve year old did it,-40,60,20","Makes me feel weird,-16,380,20","fresh and fun - bright and active,16,320,20","It's okay. Don't hate it but don't love it either,0,40,20","I don't know what it's supposed to be and it looks ugly the way the colors are on the yellow cube.,-50,220,20","Alexandra","This looks like a twelve year old did it,-40,60,20","Shannon","I don't know what it's supposed to be and it looks ugly the way the colors are on the yellow cube.,-50,220,20","Alexa","It's okay. Don't hate it but don't love it either,0,40,20","2"
"21508","","survey-text","110","827146","0.0-108.0-0.0","A3Q9H7A8J8GR01","","","","{""Q0"":""art imitating nature""}","","","","","","","","","","","","","","","","","","","","","","",""
"4449.599999904633","","image-slider-response","111","831598","0.0-109.0","A3Q9H7A8J8GR01","","","","","44","","","","","","","","","","","","","","","","","","","","","",""
"null","","image-button-response","112","836608","0.0-110.0","A3Q9H7A8J8GR01","img_art/13.jpg","null","","","","","","","","","","","","","","","","","","","","","","","","",""
"834","","image-button-response","113","837445","0.0-111.0","A3Q9H7A8J8GR01","img_art/13.jpg","2","","","","","","","","","","","","","","","","","","","","","","","","",""
"2852","","image-button-response","114","840299","0.0-112.0-0.0","A3Q9H7A8J8GR01","img_art/13.jpg","3","","","","","","","","","","","","","","","","","","","","","","","","",""
"13281","","image-button-response","115","853583","0.0-113.0-0.0","A3Q9H7A8J8GR01","img_art/13.jpg","1","","","","","","","","","","","","","","","","","","","","","","","","",""
"null","","html-keyboard-response","116","854095","0.0-114.0","A3Q9H7A8J8GR01","<p style=""font-size: 48px;"">+</p>","","","","","null","allTrialResponses","500","1","10","img_art/13.jpg","44","art imitating nature","Christina,Alexandra,Mikayla,Kylie,Alexa,Shannon","i like the colors but it looks like something that would hang in a hotel,18,240,20","I do like the blue colors in this.,12,60,20","My favorite!,47,300,20","Very abstract and soothing,40,300,20","This looks like a staple bedroom or bathroom piece,41,40,20","It looks like someone splattered a bunch of different colors to make a picture; I think its ugly.,-40,220,20","Mikayla","My favorite!,47,300,20","Kylie","Very abstract and soothing,40,300,20","Alexandra","I do like the blue colors in this.,12,60,20","2"
"7347","","survey-text","117","861456","0.0-115.0-0.0","A3Q9H7A8J8GR01","","","","{""Q0"":""our""}","","","","","","","","","","","","","","","","","","","","","","",""
"26100","","survey-text","118","887559","0.0-116.0-0.0","A3Q9H7A8J8GR01","","","","{""Q0"":""too abstract for me but I like it""}","","","","","","","","","","","","","","","","","","","","","","",""
"3673.6999999284744","","image-slider-response","119","891235","0.0-117.0","A3Q9H7A8J8GR01","","","","","30","","","","","","","","","","","","","","","","","","","","","",""
"null","","image-button-response","120","896241","0.0-118.0","A3Q9H7A8J8GR01","img_art/20.jpg","null","","","","","","","","","","","","","","","","","","","","","","","","",""
"8510","","image-button-response","121","904753","0.0-119.0","A3Q9H7A8J8GR01","img_art/20.jpg","3","","","","","","","","","","","","","","","","","","","","","","","","",""
"4888","","image-button-response","122","909643","0.0-120.0-0.0","A3Q9H7A8J8GR01","img_art/20.jpg","4","","","","","","","","","","","","","","","","","","","","","","","","",""
"2825","","image-button-response","123","912471","0.0-121.0-0.0","A3Q9H7A8J8GR01","img_art/20.jpg","0","","","","","","","","","","","","","","","","","","","","","","","","",""
"null","","html-keyboard-response","124","913487","0.0-122.0","A3Q9H7A8J8GR01","<p style=""font-size: 48px;"">+</p>","","","","","null","allTrialResponses","1000","1","11","img_art/20.jpg","30","too abstract for me but I like it","Briana,Alexandra,Mikayla,Kylie,Julia,Brianna","Someone trying to be dali,-15,400,20","The white blob looks like a face and it's creepy,-30,60,20","Kinda freaks me out.,-40,300,20","City life vs shore life,40,300,20","The colors are nice, and the shapes conjure the decay of the city in the face of natural entropy,19,40,20","It looks like a motorcycle and I like cars and motorcycles,30,20,20","Kylie","City life vs shore life,40,300,20","Julia","The colors are nice, and the shapes conjure the decay of the city in the face of natural entropy,19,40,20","Briana","Someone trying to be dali,-15,400,20","2"
"12305","","survey-text","125","925803","0.0-123.0-0.0","A3Q9H7A8J8GR01","","","","{""Q0"":""a crow on a wall""}","","","","","","","","","","","","","","","","","","","","","","",""
"4491.399999976158","","image-slider-response","126","930296","0.0-124.0","A3Q9H7A8J8GR01","","","","","7","","","","","","","","","","","","","","","","","","","","","",""
"null","","image-button-response","127","935313","0.0-125.0","A3Q9H7A8J8GR01","img_art/6.jpg","null","","","","","","","","","","","","","","","","","","","","","","","","",""
"733","","image-button-response","128","936049","0.0-126.0","A3Q9H7A8J8GR01","img_art/6.jpg","1","","","","","","","","","","","","","","","","","","","","","","","","",""
"2440","","image-button-response","129","938491","0.0-127.0-0.0","A3Q9H7A8J8GR01","img_art/6.jpg","2","","","","","","","","","","","","","","","","","","","","","","","","",""
"5314","","image-button-response","130","943807","0.0-128.0-0.0","A3Q9H7A8J8GR01","img_art/6.jpg","3","","","","","","","","","","","","","","","","","","","","","","","","",""
"null","","html-keyboard-response","131","945311","0.0-129.0","A3Q9H7A8J8GR01","<p style=""font-size: 48px;"">+</p>","","","","","null","allTrialResponses","1500","1","12","img_art/6.jpg","7","a crow on a wall","Briana,Sarah,Erica,Kylie,Julia,Haley","Close up peach? Hate it,-16,400,20","it's interesting but I don't love it,10,180,20","positive because of bright colours and a bird,20,80,20","Reminds me of feeling incomplete,1,300,20","this is too simple for me,-34,40,20","I like the color and the gradient,10,220,20","Sarah","it's interesting but I don't love it,10,180,20","Erica","positive because of bright colours and a bird,20,80,20","Kylie","Reminds me of feeling incomplete,1,300,20","2"
"26926","","survey-text","132","972246","0.0-130.0-0.0","A3Q9H7A8J8GR01","","","","{""Q0"":""like the strokes, a city scene?""}","","","","","","","","","","","","","","","","","","","","","","",""
"4303.5","","image-slider-response","133","976552","0.0-131.0","A3Q9H7A8J8GR01","","","","","30","","","","","","","","","","","","","","","","","","","","","",""
"2432","","image-button-response","134","981557","0.0-132.0","A3Q9H7A8J8GR01","img_art/26.jpg","0","","","","","","","","","","","","","","","","","","","","","","","","",""
"2494","","image-button-response","135","984055","0.0-133.0","A3Q9H7A8J8GR01","img_art/26.jpg","2","","","","","","","","","","","","","","","","","","","","","","","","",""
"3388","","image-button-response","136","987445","0.0-134.0-0.0","A3Q9H7A8J8GR01","img_art/26.jpg","3","","","","","","","","","","","","","","","","","","","","","","","","",""
"2079","","image-button-response","137","989526","0.0-135.0-0.0","A3Q9H7A8J8GR01","img_art/26.jpg","0","","","","","","","","","","","","","","","","","","","","","","","","",""
"null","","html-keyboard-response","138","990530","0.0-136.0","A3Q9H7A8J8GR01","<p style=""font-size: 48px;"">+</p>","","","","","null","allTrialResponses","1000","1","13","img_art/26.jpg","30","like the strokes, a city scene?","Sierra,Sarah,Erica,Kylie,Cassandra,Stephanie","soothing and subtle,1,260,20","too hard to figure out if it's meant to be actual objects or impressions,-36,180,20","very relaxing and easy going,22,80,20","Picturesque little town,45,300,20","Neutral...nothing to say.,3,120,20","Day just begun in the city and the stores are opening their doors.,41,300,20","Erica","very relaxing and easy going,22,80,20","Kylie","Picturesque little town,45,300,20","Sierra","soothing and subtle,1,260,20","2"
"24143","","survey-text","139","1014687","0.0-137.0-0.0","A3Q9H7A8J8GR01","","","","{""Q0"":""nice concept, rake your brains""}","","","","","","","","","","","","","","","","","","","","","","",""
"3875.0999999046326","","image-slider-response","140","1018564","0.0-138.0","A3Q9H7A8J8GR01","","","","","18","","","","","","","","","","","","","","","","","","","","","",""
"null","","image-button-response","141","1023582","0.0-139.0","A3Q9H7A8J8GR01","img_art/10.jpg","null","","","","","","","","","","","","","","","","","","","","","","","","",""
"2431","","image-button-response","142","1026017","0.0-140.0","A3Q9H7A8J8GR01","img_art/10.jpg","2","","","","","","","","","","","","","","","","","","","","","","","","",""
"2114","","image-button-response","143","1028133","0.0-141.0-0.0","A3Q9H7A8J8GR01","img_art/10.jpg","3","","","","","","","","","","","","","","","","","","","","","","","","",""
"3323","","image-button-response","144","1031459","0.0-142.0-0.0","A3Q9H7A8J8GR01","img_art/10.jpg","4","","","","","","","","","","","","","","","","","","","","","","","","",""
"null","","html-keyboard-response","145","1032465","0.0-143.0","A3Q9H7A8J8GR01","<p style=""font-size: 48px;"">+</p>","","","","","null","allTrialResponses","1000","1","14","img_art/10.jpg","18","nice concept, rake your brains","Sierra,Jordan,Erica,Kylie,Michelle,Samantha","it just doesnt appeal to me.,-10,260,20","I dont like it, there is too much going on,-19,20,20","Relaxing; a lot of going on but colours make it easy to look at,20,80,20","Musical guitar whimsy,45,300,20","This could be a guitar, or it could be a completely random shape.,-3,280,20","I like it but do not love it. It is sort of depressing,13,140,20","Erica","Relaxing; a lot of going on but colours make it easy to look at,20,80,20","Kylie","Musical guitar whimsy,45,300,20","Michelle","This could be a guitar, or it could be a completely random shape.,-3,280,20","2"
"30117","","survey-text","146","1062594","0.0-144.0-0.0","A3Q9H7A8J8GR01","","","","{""Q0"":""reminds me of the Westminister bridge""}","","","","","","","","","","","","","","","","","","","","","","",""
"3835.6999999284744","","image-slider-response","147","1066432","0.0-145.0","A3Q9H7A8J8GR01","","","","","24","","","","","","","","","","","","","","","","","","","","","",""
"3595","","image-button-response","148","1071443","0.0-146.0","A3Q9H7A8J8GR01","img_art/11.jpg","0","","","","","","","","","","","","","","","","","","","","","","","","",""
"1554","","image-button-response","149","1073000","0.0-147.0","A3Q9H7A8J8GR01","img_art/11.jpg","1","","","","","","","","","","","","","","","","","","","","","","","","",""
"3713","","image-button-response","150","1076716","0.0-148.0-0.0","A3Q9H7A8J8GR01","img_art/11.jpg","4","","","","","","","","","","","","","","","","","","","","","","","","",""
"3051","","image-button-response","151","1079770","0.0-149.0-0.0","A3Q9H7A8J8GR01","img_art/11.jpg","0","","","","","","","","","","","","","","","","","","","","","","","","",""
"null","","html-keyboard-response","152","1080775","0.0-150.0","A3Q9H7A8J8GR01","<p style=""font-size: 48px;"">+</p>","","","","","null","allTrialResponses","1000","1","15","img_art/11.jpg","24","reminds me of the Westminister bridge","Vanessa,Sophia,Erica,Kylie,Michelle,Autumn","It makes me think of a rainy day and I like the colors. Also like the wavy lines.,22,380,20","WOW!  I love how the ships and the seas become one in this piece.,50,280,20","a lot of dark colours,-8,80,20","This looks like a busy highway system along a suburban background,40,300,20","I think this is a city but I'm not sure, very abstract,18,280,20","Good but not eye catching,14,340,20","Sophia","WOW!  I love how the ships and the seas become one in this piece.,50,280,20","Michelle","I think this is a city but I'm not sure, very abstract,18,280,20","Vanessa","It makes me think of a rainy day and I like the colors. Also like the wavy lines.,22,380,20","2"
"6072","","survey-text","153","1086868","0.0-151.0-0.0","A3Q9H7A8J8GR01","","","","{""Q0"":""course""}","","","","","","","","","","","","","","","","","","","","","","",""
"22515","","survey-text","154","1109386","0.0-152.0-0.0","A3Q9H7A8J8GR01","","","","{""Q0"":""nothing amazing, cubism?""}","","","","","","","","","","","","","","","","","","","","","","",""
"5937.100000023842","","image-slider-response","155","1115326","0.0-153.0","A3Q9H7A8J8GR01","","","","","11","","","","","","","","","","","","","","","","","","","","","",""
"null","","image-button-response","156","1120333","0.0-154.0","A3Q9H7A8J8GR01","img_art/2.jpg","null","","","","","","","","","","","","","","","","","","","","","","","","",""
"1839","","image-button-response","157","1122175","0.0-155.0","A3Q9H7A8J8GR01","img_art/2.jpg","2","","","","","","","","","","","","","","","","","","","","","","","","",""
"10150","","image-button-response","158","1132327","0.0-156.0-0.0","A3Q9H7A8J8GR01","img_art/2.jpg","5","","","","","","","","","","","","","","","","","","","","","","","","",""
"1691","","image-button-response","159","1134021","0.0-157.0-0.0","A3Q9H7A8J8GR01","img_art/2.jpg","0","","","","","","","","","","","","","","","","","","","","","","","","",""
"null","","html-keyboard-response","160","1135032","0.0-158.0","A3Q9H7A8J8GR01","<p style=""font-size: 48px;"">+</p>","","","","","null","allTrialResponses","1000","1","16","img_art/2.jpg","11","nothing amazing, cubism?","Vanessa,Sophia,Hannah,Destiny,Michelle,Meghan","I don't like the abstract nature of this painting or the colors used.,-50,380,20","I'm not fond of the colors in this one.,-33,280,20","Looks like child's art.,-19,240,20","omg she's so cute look at that little smile those eyelashes ugh love it,30,360,20","Don't like the puke green color and also too abstact,-14,280,20","looks like a child's artwork,-40,220,20","Hannah","Looks like child's art.,-19,240,20","Meghan","looks like a child's artwork,-40,220,20","Vanessa","I don't like the abstract nature of this painting or the colors used.,-50,380,20","2"
"31576","","survey-text","161","1166619","0.0-159.0-0.0","A3Q9H7A8J8GR01","","","","{""Q0"":""subtle mix of colors""}","","","","","","","","","","","","","","","","","","","","","","",""
"3791.5","","image-slider-response","162","1170412","0.0-160.0","A3Q9H7A8J8GR01","","","","","22","","","","","","","","","","","","","","","","","","","","","",""
"null","","image-button-response","163","1175421","0.0-161.0","A3Q9H7A8J8GR01","img_art/28.jpg","null","","","","","","","","","","","","","","","","","","","","","","","","",""
"11571","","image-button-response","164","1186995","0.0-162.0","A3Q9H7A8J8GR01","img_art/28.jpg","0","","","","","","","","","","","","","","","","","","","","","","","","",""
"1646","","image-button-response","165","1188643","0.0-163.0-0.0","A3Q9H7A8J8GR01","img_art/28.jpg","3","","","","","","","","","","","","","","","","","","","","","","","","",""
"1543","","image-button-response","166","1190189","0.0-164.0-0.0","A3Q9H7A8J8GR01","img_art/28.jpg","4","","","","","","","","","","","","","","","","","","","","","","","","",""
"null","","html-keyboard-response","167","1191198","0.0-165.0","A3Q9H7A8J8GR01","<p style=""font-size: 48px;"">+</p>","","","","","null","allTrialResponses","1000","1","17","img_art/28.jpg","22","subtle mix of colors","Vanessa,Shelby,Hannah,Katelyn,Madeline,Meghan","It's such a blah piece and way too abstract.,-50,380,20","This one gives me an uneasy feeling,-10,240,20","The colors are drab and a little depressing.,-20,240,20","Just all blurs together for me. No substance.,-23,100,20","It is a bit drab,-10,40,20","I don't like the color choice,-30,220,20","Vanessa","It's such a blah piece and way too abstract.,-50,380,20","Katelyn","Just all blurs together for me. No substance.,-23,100,20","Madeline","It is a bit drab,-10,40,20","2"
"20083","","survey-text","168","1211292","0.0-166.0-0.0","A3Q9H7A8J8GR01","","","","{""Q0"":""bright and light""}","","","","","","","","","","","","","","","","","","","","","","",""
"3945.399999976158","","image-slider-response","169","1215240","0.0-167.0","A3Q9H7A8J8GR01","","","","","17","","","","","","","","","","","","","","","","","","","","","",""
"4902","","image-button-response","170","1220244","0.0-168.0","A3Q9H7A8J8GR01","img_art/22.jpg","1","","","","","","","","","","","","","","","","","","","","","","","","",""
"3255","","image-button-response","171","1223503","0.0-169.0","A3Q9H7A8J8GR01","img_art/22.jpg","2","","","","","","","","","","","","","","","","","","","","","","","","",""
"6504","","image-button-response","172","1230009","0.0-170.0-0.0","A3Q9H7A8J8GR01","img_art/22.jpg","5","","","","","","","","","","","","","","","","","","","","","","","","",""
"1363","","image-button-response","173","1231375","0.0-171.0-0.0","A3Q9H7A8J8GR01","img_art/22.jpg","1","","","","","","","","","","","","","","","","","","","","","","","","",""
"null","","html-keyboard-response","174","1232399","0.0-172.0","A3Q9H7A8J8GR01","<p style=""font-size: 48px;"">+</p>","","","","","null","allTrialResponses","1000","1","18","img_art/22.jpg","17","bright and light","Vanessa,Kimberly,Gabrielle,Katelyn,Madeline,Sara","I don't like the colors or the way they've been arranged.,-20,380,20","I like the key near the sphere in the center,19,260,20","another OK work, mostly because of the blend of colors,12,160,20","I usually dont like blurry pieces but the colors are amazing in this,14,100,20","I really like the colors here,3,40,20","Looks like a warm sunset to me i like it,42,160,20","Gabrielle","another OK work, mostly because of the blend of colors,12,160,20","Sara","Looks like a warm sunset to me i like it,42,160,20","Kimberly","I like the key near the sphere in the center,19,260,20","2"
"16690","","survey-text","175","1249098","0.0-173.0-0.0","A3Q9H7A8J8GR01","","","","{""Q0"":""too crowded for my liking""}","","","","","","","","","","","","","","","","","","","","","","",""
"4375.600000023842","","image-slider-response","176","1253476","0.0-174.0","A3Q9H7A8J8GR01","","","","","4","","","","","","","","","","","","","","","","","","","","","",""
"null","","image-button-response","177","1258486","0.0-175.0","A3Q9H7A8J8GR01","img_art/12.jpg","null","","","","","","","","","","","","","","","","","","","","","","","","",""
"373","","image-button-response","178","1258863","0.0-176.0","A3Q9H7A8J8GR01","img_art/12.jpg","0","","","","","","","","","","","","","","","","","","","","","","","","",""
"7858","","image-button-response","179","1266722","0.0-177.0-0.0","A3Q9H7A8J8GR01","img_art/12.jpg","4","","","","","","","","","","","","","","","","","","","","","","","","",""
"1000","","image-button-response","180","1267725","0.0-178.0-0.0","A3Q9H7A8J8GR01","img_art/12.jpg","5","","","","","","","","","","","","","","","","","","","","","","","","",""
"null","","html-keyboard-response","181","1269235","0.0-179.0","A3Q9H7A8J8GR01","<p style=""font-size: 48px;"">+</p>","","","","","null","allTrialResponses","1500","1","19","img_art/12.jpg","4","too crowded for my liking","Morgan,Kimberly,Gabrielle,Jessica,Isabella,Sara","Ugly color combinations, no focus.,-25,380,20","Just not a fan, I can't figure out why,-17,260,20","seems too dark on top and too common on the bottom,-19,160,20","I like this concept.,11,400,20","Something you would see in a government building hallway,3,280,20","I don't like the blocking,-20,160,20","Morgan","Ugly color combinations, no focus.,-25,380,20","Isabella","Something you would see in a government building hallway,3,280,20","Sara","I don't like the blocking,-20,160,20","2"
"19832","","survey-text","182","1289078","0.0-180.0-0.0","A3Q9H7A8J8GR01","","","","{""Q0"":""lot of things going on""}","","","","","","","","","","","","","","","","","","","","","","",""
"4497.699999928474","","image-slider-response","183","1293578","0.0-181.0","A3Q9H7A8J8GR01","","","","","19","","","","","","","","","","","","","","","","","","","","","",""
"null","","image-button-response","184","1298591","0.0-182.0","A3Q9H7A8J8GR01","img_art/19.jpg","null","","","","","","","","","","","","","","","","","","","","","","","","",""
"2330","","image-button-response","185","1300923","0.0-183.0","A3Q9H7A8J8GR01","img_art/19.jpg","2","","","","","","","","","","","","","","","","","","","","","","","","",""
"3325","","image-button-response","186","1304251","0.0-184.0-0.0","A3Q9H7A8J8GR01","img_art/19.jpg","4","","","","","","","","","","","","","","","","","","","","","","","","",""
"1015","","image-button-response","187","1305270","0.0-185.0-0.0","A3Q9H7A8J8GR01","img_art/19.jpg","5","","","","","","","","","","","","","","","","","","","","","","","","",""
"null","","html-keyboard-response","188","1306287","0.0-186.0","A3Q9H7A8J8GR01","<p style=""font-size: 48px;"">+</p>","","","","","null","allTrialResponses","1000","1","20","img_art/19.jpg","19","lot of things going on","Morgan,Jasmine,Lindsey,Jennifer,Isabella,Sara","Messy pantry full of food.,5,380,20","Just stirred a negative reaction. Don't really like it perhaps because of the structure?,-8,340,20","Pleasant colors with just enough detail to be recognizable. I can see a scene in it that tells a story.,7,400,20","Very, very ugly and sloppy,-31,380,20","A day in a small city,45,280,20","I like the vibrant color blocks,13,160,20","Lindsey","Pleasant colors with just enough detail to be recognizable. I can see a scene in it that tells a story.,7,400,20","Isabella","A day in a small city,45,280,20","Sara","I like the vibrant color blocks,13,160,20","2"
"17817","","survey-text","189","1324121","0.0-187.0-0.0","A3Q9H7A8J8GR01","","","","{""Q0"":""we""}","","","","","","","","","","","","","","","","","","","","","","",""
"12418","","survey-text","190","1336541","0.0-188.0-0.0","A3Q9H7A8J8GR01","","","","{""Q0"":""oh waw i love it""}","","","","","","","","","","","","","","","","","","","","","","",""
"4381.600000023842","","image-slider-response","191","1340925","0.0-189.0","A3Q9H7A8J8GR01","","","","","36","","","","","","","","","","","","","","","","","","","","","",""
"4526","","image-button-response","192","1345940","0.0-190.0","A3Q9H7A8J8GR01","img_art/14.jpg","0","","","","","","","","","","","","","","","","","","","","","","","","",""
"1625","","image-button-response","193","1347569","0.0-191.0","A3Q9H7A8J8GR01","img_art/14.jpg","2","","","","","","","","","","","","","","","","","","","","","","","","",""
"6730","","image-button-response","194","1354302","0.0-192.0-0.0","A3Q9H7A8J8GR01","img_art/14.jpg","5","","","","","","","","","","","","","","","","","","","","","","","","",""
"2429","","image-button-response","195","1356733","0.0-193.0-0.0","A3Q9H7A8J8GR01","img_art/14.jpg","0","","","","","","","","","","","","","","","","","","","","","","","","",""
"null","","html-keyboard-response","196","1357247","0.0-194.0","A3Q9H7A8J8GR01","<p style=""font-size: 48px;"">+</p>","","","","","null","allTrialResponses","500","1","21","img_art/14.jpg","36","oh waw i love it","Maria,Crystal,Lindsey,Mariah,Isabella,Sara","I enjoy what comes across as a playful take on nature themes,26,120,20","It looks like a tree but the bleeding water colors lack borders and makes it hard to appreciate the message.,-41,300,20","Warm, positive, growth.,8,400,20","The lighting feels like spring.,20,140,20","Feels like a camp fire among friends,22,280,20","It uplifts my mood due to the color scheme,32,160,20","Lindsey","Warm, positive, growth.,8,400,20","Sara","It uplifts my mood due to the color scheme,32,160,20","Maria","I enjoy what comes across as a playful take on nature themes,26,120,20","2"
"20027","","survey-text","197","1377284","0.0-195.0-0.0","A3Q9H7A8J8GR01","","","","{""Q0"":""surreal and Dali like""}","","","","","","","","","","","","","","","","","","","","","","",""
"3431.8000000715256","","image-slider-response","198","1380718","0.0-196.0","A3Q9H7A8J8GR01","","","","","37","","","","","","","","","","","","","","","","","","","","","",""
"3970","","image-button-response","199","1385721","0.0-197.0","A3Q9H7A8J8GR01","img_art/8.jpg","1","","","","","","","","","","","","","","","","","","","","","","","","",""
"4787","","image-button-response","200","1390513","0.0-198.0","A3Q9H7A8J8GR01","img_art/8.jpg","3","","","","","","","","","","","","","","","","","","","","","","","","",""
"6706","","image-button-response","201","1397221","0.0-199.0-0.0","A3Q9H7A8J8GR01","img_art/8.jpg","4","","","","","","","","","","","","","","","","","","","","","","","","",""
"7855","","image-button-response","202","1405079","0.0-200.0-0.0","A3Q9H7A8J8GR01","img_art/8.jpg","5","","","","","","","","","","","","","","","","","","","","","","","","",""
"null","","html-keyboard-response","203","1406585","0.0-201.0","A3Q9H7A8J8GR01","<p style=""font-size: 48px;"">+</p>","","","","","null","allTrialResponses","1500","1","22","img_art/8.jpg","37","surreal and Dali like","Maria,Caroline,Lindsey,Leslie,Nicole,Sara","not sure what to make of this - just neutral again,-1,120,20","I love the colors in it and also the faces and door ways. Made me feel hopeful,35,100,20","Pleasant colors, lots of interest. Not sure what's going on but I like it.,20,400,20","The stylized faces remind me of German expressionism in a very good way.,40,380,20","It's very grand and ominous but I like it,25,20,20","Very interesting use of blocks,21,160,20","Leslie","The stylized faces remind me of German expressionism in a very good way.,40,380,20","Nicole","It's very grand and ominous but I like it,25,20,20","Sara","Very interesting use of blocks,21,160,20","2"
"40426","","survey-text","204","1447022","0.0-202.0-0.0","A3Q9H7A8J8GR01","","","","{""Q0"":""cannot explain why, but I like it""}","","","","","","","","","","","","","","","","","","","","","","",""
"3673.399999976158","","image-slider-response","205","1450698","0.0-203.0","A3Q9H7A8J8GR01","","","","","28","","","","","","","","","","","","","","","","","","","","","",""
"null","","image-button-response","206","1455708","0.0-204.0","A3Q9H7A8J8GR01","img_art/1.jpg","null","","","","","","","","","","","","","","","","","","","","","","","","",""
"932","","image-button-response","207","1456644","0.0-205.0","A3Q9H7A8J8GR01","img_art/1.jpg","1","","","","","","","","","","","","","","","","","","","","","","","","",""
"1963","","image-button-response","208","1458610","0.0-206.0-0.0","A3Q9H7A8J8GR01","img_art/1.jpg","2","","","","","","","","","","","","","","","","","","","","","","","","",""
"6152","","image-button-response","209","1464766","0.0-207.0-0.0","A3Q9H7A8J8GR01","img_art/1.jpg","3","","","","","","","","","","","","","","","","","","","","","","","","",""
"null","","html-keyboard-response","210","1465274","0.0-208.0","A3Q9H7A8J8GR01","<p style=""font-size: 48px;"">+</p>","","","","","null","allTrialResponses","500","1","23","img_art/1.jpg","28","cannot explain why, but I like it","Allison,Caitlin,Megan,Leslie,Nicole,Sara","Messy mix of primary colors.,-10,140,20","Deja vu. Haven't I seen this one before? Not bad for those living in the backwoods.,10,80,20","Nice colors with some 3D effects,15,200,20","The use of reds, blues, and yellows together reminds me of fire. Very interesting to look at.,40,380,20","I love the colors but it's too intense sometimes,22,20,20","I feel uneasy looking at this,-41,160,20","Caitlin","Deja vu. Haven't I seen this one before? Not bad for those living in the backwoods.,10,80,20","Megan","Nice colors with some 3D effects,15,200,20","Leslie","The use of reds, blues, and yellows together reminds me of fire. Very interesting to look at.,40,380,20","2"
"26094","","survey-text","211","1491378","0.0-209.0-0.0","A3Q9H7A8J8GR01","","","","{""Q0"":""hope amid chaos""}","","","","","","","","","","","","","","","","","","","","","","",""
"4193.299999952316","","image-slider-response","212","1495573","0.0-210.0","A3Q9H7A8J8GR01","","","","","12","","","","","","","","","","","","","","","","","","","","","",""
"null","","image-button-response","213","1500584","0.0-211.0","A3Q9H7A8J8GR01","img_art/23.jpg","null","","","","","","","","","","","","","","","","","","","","","","","","",""
"2192","","image-button-response","214","1502780","0.0-212.0","A3Q9H7A8J8GR01","img_art/23.jpg","1","","","","","","","","","","","","","","","","","","","","","","","","",""
"914","","image-button-response","215","1503695","0.0-213.0-0.0","A3Q9H7A8J8GR01","img_art/23.jpg","0","","","","","","","","","","","","","","","","","","","","","","","","",""
"5868","","image-button-response","216","1509566","0.0-214.0-0.0","A3Q9H7A8J8GR01","img_art/23.jpg","5","","","","","","","","","","","","","","","","","","","","","","","","",""
"null","","html-keyboard-response","217","1510072","0.0-215.0","A3Q9H7A8J8GR01","<p style=""font-size: 48px;"">+</p>","","","","","null","allTrialResponses","500","1","24","img_art/23.jpg","12","hope amid chaos","Kristen,Caitlin,Megan,Leslie,Marissa,Elizabeth","fsiries, happy, spiritual,16,280,20","SOME thought was put into this one.,5,80,20","Too busy with color with warrior lineup,0,200,20","It reminds me of being in a crowded place.,-10,380,20","It feels exciting,23,160,20","Fantastic blend of color and forms,43,20,20","Caitlin","SOME thought was put into this one.,5,80,20","Kristen","fsiries, happy, spiritual,16,280,20","Elizabeth","Fantastic blend of color and forms,43,20,20","2"
"26605","","survey-text","218","1536689","0.0-216.0-0.0","A3Q9H7A8J8GR01","","","","{""Q0"":""rider with a purpose""}","","","","","","","","","","","","","","","","","","","","","","",""
"2933.5","","image-slider-response","219","1539625","0.0-217.0","A3Q9H7A8J8GR01","","","","","23","","","","","","","","","","","","","","","","","","","","","",""
"4157","","image-button-response","220","1544639","0.0-218.0","A3Q9H7A8J8GR01","img_art/18.jpg","0","","","","","","","","","","","","","","","","","","","","","","","","",""
"3214","","image-button-response","221","1547857","0.0-219.0","A3Q9H7A8J8GR01","img_art/18.jpg","2","","","","","","","","","","","","","","","","","","","","","","","","",""
"4444","","image-button-response","222","1552303","0.0-220.0-0.0","A3Q9H7A8J8GR01","img_art/18.jpg","5","","","","","","","","","","","","","","","","","","","","","","","","",""
"1007","","image-button-response","223","1553313","0.0-221.0-0.0","A3Q9H7A8J8GR01","img_art/18.jpg","0","","","","","","","","","","","","","","","","","","","","","","","","",""
"null","","html-keyboard-response","224","1554818","0.0-222.0","A3Q9H7A8J8GR01","<p style=""font-size: 48px;"">+</p>","","","","","null","allTrialResponses","1500","1","25","img_art/18.jpg","23","rider with a purpose","Kristen,Caitlin,Andrea,Chloe,Savannah,Elizabeth","pegssus going into battle,25,280,20","Bad guys are after the good guy.,-10,80,20","I see an artistic representation of the riding of last of the four horseman. Its stunning.,45,240,20","Evocative but cheesy.,-20,220,20","Accents make this piece.,21,200,20","Nice abstract art,50,20,20","Andrea","I see an artistic representation of the riding of last of the four horseman. Its stunning.,45,240,20","Elizabeth","Nice abstract art,50,20,20","Kristen","pegssus going into battle,25,280,20","2"
"7330","","survey-text","225","1562163","0.0-223.0-0.0","A3Q9H7A8J8GR01","","","","{""Q0"":""table""}","","","","","","","","","","","","","","","","","","","","","","",""
"13250","","survey-text","226","1575415","0.0-224.0-0.0","A3Q9H7A8J8GR01","","","","{""Q0"":""can hear the water""}","","","","","","","","","","","","","","","","","","","","","","",""
"4715.100000023842","","image-slider-response","227","1580132","0.0-225.0","A3Q9H7A8J8GR01","","","","","28","","","","","","","","","","","","","","","","","","","","","",""
"3626","","image-button-response","228","1585137","0.0-226.0","A3Q9H7A8J8GR01","img_art/24.jpg","1","","","","","","","","","","","","","","","","","","","","","","","","",""
"1364","","image-button-response","229","1586505","0.0-227.0","A3Q9H7A8J8GR01","img_art/24.jpg","1","","","","","","","","","","","","","","","","","","","","","","","","",""
"3526","","image-button-response","230","1590033","0.0-228.0-0.0","A3Q9H7A8J8GR01","img_art/24.jpg","0","","","","","","","","","","","","","","","","","","","","","","","","",""
"2631","","image-button-response","231","1592667","0.0-229.0-0.0","A3Q9H7A8J8GR01","img_art/24.jpg","5","","","","","","","","","","","","","","","","","","","","","","","","",""
"null","","html-keyboard-response","232","1594170","0.0-230.0","A3Q9H7A8J8GR01","<p style=""font-size: 48px;"">+</p>","","","","","null","allTrialResponses","1500","1","26","img_art/24.jpg","28","can hear the water","Kristen,Makayla,Andrea,Jenna,Brittany,Elizabeth","calm, nature, safe, happy place,,50,280,20","Looks like a serene waterfall and woods,29,80,20","Waterfall, and I love the coloring.,48,240,20","colors are a bit cramped together. really unique take on a waterfall though.,32,360,20","Nice colors, but doesn't do much for me.,1,40,20","Evokes pleasant feelings,50,20,20","Makayla","Looks like a serene waterfall and woods,29,80,20","Kristen","calm, nature, safe, happy place,,50,280,20","Elizabeth","Evokes pleasant feelings,50,20,20","2"
"19349","","survey-text","233","1613531","0.0-231.0-0.0","A3Q9H7A8J8GR01","","","","{""Q0"":""corn field after a fire""}","","","","","","","","","","","","","","","","","","","","","","",""
"4347.300000071526","","image-slider-response","234","1617881","0.0-232.0","A3Q9H7A8J8GR01","","","","","-23","","","","","","","","","","","","","","","","","","","","","",""
"4389","","image-button-response","235","1622889","0.0-233.0","A3Q9H7A8J8GR01","img_art/15.jpg","0","","","","","","","","","","","","","","","","","","","","","","","","",""
"2580","","image-button-response","236","1625473","0.0-234.0","A3Q9H7A8J8GR01","img_art/15.jpg","3","","","","","","","","","","","","","","","","","","","","","","","","",""
"4825","","image-button-response","237","1630301","0.0-235.0-0.0","A3Q9H7A8J8GR01","img_art/15.jpg","1","","","","","","","","","","","","","","","","","","","","","","","","",""
"2725","","image-button-response","238","1633029","0.0-236.0-0.0","A3Q9H7A8J8GR01","img_art/15.jpg","0","","","","","","","","","","","","","","","","","","","","","","","","",""
"null","","html-keyboard-response","239","1633533","0.0-237.0","A3Q9H7A8J8GR01","<p style=""font-size: 48px;"">+</p>","","","","","null","allTrialResponses","500","1","27","img_art/15.jpg","-23","corn field after a fire","Kristen,Makayla,Amanda,Katie,Erika,Elizabeth","darkness, hatred, fear,-29,280,20","It's just dots. Doesn't bring any positive or negative feelings,2,80,20","It triggers my tripophobia,-50,180,20","Too much black. I see weeds or dead/dying flowers.,-40,160,20","I like the dense patterns and the splashes  of blue,38,100,20","Perfect Abstract painting,50,20,20","Katie","Too much black. I see weeds or dead/dying flowers.,-40,160,20","Makayla","It's just dots. Doesn't bring any positive or negative feelings,2,80,20","Kristen","darkness, hatred, fear,-29,280,20","2"
"18416","","survey-text","240","1651963","0.0-238.0-0.0","A3Q9H7A8J8GR01","","","","{""Q0"":""Friend Romans countrymen""}","","","","","","","","","","","","","","","","","","","","","","",""
"5163.600000023842","","image-slider-response","241","1657129","0.0-239.0","A3Q9H7A8J8GR01","","","","","-12","","","","","","","","","","","","","","","","","","","","","",""
"3596","","image-button-response","242","1662139","0.0-240.0","A3Q9H7A8J8GR01","img_art/25.jpg","0","","","","","","","","","","","","","","","","","","","","","","","","",""
"4881","","image-button-response","243","1667024","0.0-241.0","A3Q9H7A8J8GR01","img_art/25.jpg","3","","","","","","","","","","","","","","","","","","","","","","","","",""
"3679","","image-button-response","244","1670706","0.0-242.0-0.0","A3Q9H7A8J8GR01","img_art/25.jpg","4","","","","","","","","","","","","","","","","","","","","","","","","",""
"5507","","image-button-response","245","1676216","0.0-243.0-0.0","A3Q9H7A8J8GR01","img_art/25.jpg","0","","","","","","","","","","","","","","","","","","","","","","","","",""
"null","","html-keyboard-response","246","1677230","0.0-244.0","A3Q9H7A8J8GR01","<p style=""font-size: 48px;"">+</p>","","","","","null","allTrialResponses","1000","1","28","img_art/25.jpg","-12","Friend Romans countrymen","Kristen,Makayla,Victoria,Katie,Taylor,Tiffany","reminds me of the grim reaper,3,280,20","It's very mystical.,5,80,20","makes me think of a scary movie,-20,400,20","Reminds me of ancient civilization art. I like the aqua color; soothing to me.,1,160,20","It makes me feel a little uneasy, but I like the painting,11,340,20","I feel little to no emotion looking at this painting.,0,360,20","Katie","Reminds me of ancient civilization art. I like the aqua color; soothing to me.,1,160,20","Taylor","It makes me feel a little uneasy, but I like the painting,11,340,20","Kristen","reminds me of the grim reaper,3,280,20","2"
"19030","","survey-text","247","1696274","0.0-245.0-0.0","A3Q9H7A8J8GR01","","","","{""Q0"":""The burial of Christ""}","","","","","","","","","","","","","","","","","","","","","","",""
"3811.399999976158","","image-slider-response","248","1700088","0.0-246.0","A3Q9H7A8J8GR01","","","","","17","","","","","","","","","","","","","","","","","","","","","",""
"null","","image-button-response","249","1705104","0.0-247.0","A3Q9H7A8J8GR01","img_art/9.jpg","null","","","","","","","","","","","","","","","","","","","","","","","","",""
"5263","","image-button-response","250","1710370","0.0-248.0","A3Q9H7A8J8GR01","img_art/9.jpg","3","","","","","","","","","","","","","","","","","","","","","","","","",""
"4730","","image-button-response","251","1715102","0.0-249.0-0.0","A3Q9H7A8J8GR01","img_art/9.jpg","0","","","","","","","","","","","","","","","","","","","","","","","","",""
"2523","","image-button-response","252","1717628","0.0-250.0-0.0","A3Q9H7A8J8GR01","img_art/9.jpg","1","","","","","","","","","","","","","","","","","","","","","","","","",""
"null","","html-keyboard-response","253","1718633","0.0-251.0","A3Q9H7A8J8GR01","<p style=""font-size: 48px;"">+</p>","","","","","null","allTrialResponses","1000","1","29","img_art/9.jpg","17","The burial of Christ","Kristen,Amber,Rebecca,Katie,Taylor,Olivia","sleep, calm, safe,12,280,20","looks like sleeping beauty in a garden,10,200,20","love the color palette, but I'm gonna be honest, I don't really understand it,14,100,20","I like the blues and pinks. The woman lying down communicates relaxation. It is a serene, calming scene,30,160,20","The peacock theme gives me negative connotations of my ex-sister-in-law,-10,340,20","what a wild ride,11,40,20","Katie","I like the blues and pinks. The woman lying down communicates relaxation. It is a serene, calming scene,30,160,20","Kristen","sleep, calm, safe,12,280,20","Amber","looks like sleeping beauty in a garden,10,200,20","2"
"27206","","survey-text","254","1745855","0.0-252.0-0.0","A3Q9H7A8J8GR01","","","","{""Q0"":""a goddess slaying the dragon""}","","","","","","","","","","","","","","","","","","","","","","",""
"4521.399999976158","","image-slider-response","255","1750379","0.0-253.0","A3Q9H7A8J8GR01","","","","","10","","","","","","","","","","","","","","","","","","","","","",""
"null","","image-button-response","256","1755394","0.0-254.0","A3Q9H7A8J8GR01","img_art/29.jpg","null","","","","","","","","","","","","","","","","","","","","","","","","",""
"15365","","image-button-response","257","1770762","0.0-255.0","A3Q9H7A8J8GR01","img_art/29.jpg","0","","","","","","","","","","","","","","","","","","","","","","","","",""
"2634","","image-button-response","258","1773398","0.0-256.0-0.0","A3Q9H7A8J8GR01","img_art/29.jpg","2","","","","","","","","","","","","","","","","","","","","","","","","",""
"2049","","image-button-response","259","1775450","0.0-257.0-0.0","A3Q9H7A8J8GR01","img_art/29.jpg","5","","","","","","","","","","","","","","","","","","","","","","","","",""
"null","","html-keyboard-response","260","1776460","0.0-258.0","A3Q9H7A8J8GR01","<p style=""font-size: 48px;"">+</p>","","","","","null","allTrialResponses","1000","1","30","img_art/29.jpg","10","a goddess slaying the dragon","Kristen,Amber,Cheyenne,Katie,Angelica,Jamie","danger, crime scene,,10,280,20","Don't like the red X across the painting.,-15,200,20","Really enjoy everything about this one.,50,200,20","Don't get it! Too dark and random. Perhaps it was the start of something but the artist stopped and cancelled out the work.,-50,160,20","This is very gross and odd looking.,-8,280,20","3D looks is really cool,30,320,20","Kristen","danger, crime scene,,10,280,20","Cheyenne","Really enjoy everything about this one.,50,200,20","Jamie","3D looks is really cool,30,320,20","2"
"5394","","image-button-response_instructions","261","1781869","0.0-259.0","A3Q9H7A8J8GR01","","0","instructions","","","","","","","","","","","","","","","","","","","","","","","",""
"2298","","image-button-response","262","1784176","0.0-260.0","A3Q9H7A8J8GR01","","0","","","","","","","","","","","","","","","","","","","","","","","","",""
