"rt","url","trial_type","trial_index","time_elapsed","internal_node_id","participant_id","stimulus","button_pressed","Name","responses","response","key_press","variableName","fixationTime","condition","trial","photo","subjectRating","subjectResponse","agentsNames","agent_1_Response","agent_2_Response","agent_3_Response","agent_4_Response","agent_5_Response","agent_6_Response","kept_1_name","kept_1_response","kept_2_name","kept_2_response","kept_3_name","kept_3_response","errorCounter"
"6124","external_page_harvard.html","external-html","0","6224","0.0-0.0","A3QZIWRRJWP1PK","","","","","","","","","","","","","","","","","","","","","","","","","","",""
"1772","","image-button-response","1","7998","0.0-1.0","A3QZIWRRJWP1PK","","1","","","","","","","","","","","","","","","","","","","","","","","","",""
"1764","","image-button-response","2","9766","0.0-2.0-0.0","A3QZIWRRJWP1PK","","1","phone","","","","","","","","","","","","","","","","","","","","","","","",""
"5960","","survey-text","3","15727","0.0-3.0-0.0","A3QZIWRRJWP1PK","","","","{""Q0"":""A3QZIWRRJWP1PK""}","","","","","","","","","","","","","","","","","","","","","","",""
"7695","","image-button-response_instructions","4","23424","0.0-4.0","A3QZIWRRJWP1PK","","0","instructions","","","","","","","","","","","","","","","","","","","","","","","",""
"19914","","image-button-response_instructions","5","43339","0.0-5.0","A3QZIWRRJWP1PK","img_art/ins/popularity/ins1.png","0","instructions","","","","","","","","","","","","","","","","","","","","","","","",""
"8519","","image-button-response_instructions","6","51859","0.0-6.0","A3QZIWRRJWP1PK","img_art/ins/popularity/ins2.png","0","instructions","","","","","","","","","","","","","","","","","","","","","","","",""
"6281","","image-button-response_instructions","7","58141","0.0-7.0","A3QZIWRRJWP1PK","img_art/ins/popularity/ins2Extreme.png","0","instructions","","","","","","","","","","","","","","","","","","","","","","","",""
"34614","","image-button-response_instructions","8","92755","0.0-8.0","A3QZIWRRJWP1PK","img_art/ins/popularity/ins3KEEPpop.PNG","0","instructions","","","","","","","","","","","","","","","","","","","","","","","",""
"4407","","image-button-response_instructions","9","97163","0.0-9.0","A3QZIWRRJWP1PK","img_art/ins/popularity/ins3ANamepop.PNG","0","instructions","","","","","","","","","","","","","","","","","","","","","","","",""
"4200","","image-button-response_instructions","10","101364","0.0-10.0","A3QZIWRRJWP1PK","img_art/ins/popularity/ins3ARatingpop.png","0","instructions","","","","","","","","","","","","","","","","","","","","","","","",""
"2976","","image-button-response_instructions","11","104341","0.0-11.0","A3QZIWRRJWP1PK","img_art/ins/popularity/ins3ATextpop.png","0","instructions","","","","","","","","","","","","","","","","","","","","","","","",""
"6455","","image-button-response_instructions","12","110797","0.0-12.0","A3QZIWRRJWP1PK","img_art/ins/popularity/ins3ALikespop.png","0","instructions","","","","","","","","","","","","","","","","","","","","","","","",""
"9546","","image-button-response_instructions","13","120344","0.0-13.0","A3QZIWRRJWP1PK","img_art/ins/popularity/ins3KEEPpop.PNG","0","instructions","","","","","","","","","","","","","","","","","","","","","","","",""
"6072","","image-button-response_instructions","14","126416","0.0-14.0","A3QZIWRRJWP1PK","img_art/ins/popularity/ins3_5RED.png","0","instructions","","","","","","","","","","","","","","","","","","","","","","","",""
"3400","","image-button-response_instructions","15","129817","0.0-15.0","A3QZIWRRJWP1PK","img_art/ins/popularity/ins3KEEPpop.PNG","0","instructions","","","","","","","","","","","","","","","","","","","","","","","",""
"17394","","image-button-response_instructions","16","147211","0.0-16.0","A3QZIWRRJWP1PK","img_art/ins/popularity/ins4KEEPpop.PNG","0","instructions","","","","","","","","","","","","","","","","","","","","","","","",""
"3999","","image-button-response_instructions","17","151211","0.0-17.0","A3QZIWRRJWP1PK","img_art/ins/popularity/ins5KEEPpop.PNG","0","instructions","","","","","","","","","","","","","","","","","","","","","","","",""
"1920","","image-button-response_instructions","18","153131","0.0-18.0","A3QZIWRRJWP1PK","","0","instructions","","","","","","","","","","","","","","","","","","","","","","","",""
"7567","","survey-text","19","160717","0.0-19.0-0.0","A3QZIWRRJWP1PK","","","","{""Q0"":""but""}","","","","","","","","","","","","","","","","","","","","","","",""
"26794","","survey-text","20","187513","0.0-20.0-0.0","A3QZIWRRJWP1PK","","","","{""Q0"":""It feels like something that is just on the verge of taking shape.""}","","","","","","","","","","","","","","","","","","","","","","",""
"5269.799999952316","","image-slider-response","21","192785","0.0-21.0","A3QZIWRRJWP1PK","","","","","8","","","","","","","","","","","","","","","","","","","","","",""
"null","","image-button-response","22","197798","0.0-22.0","A3QZIWRRJWP1PK","img_art/ins/1.jpg","null","","","","","","","","","","","","","","","","","","","","","","","","",""
"11979","","image-button-response","23","209780","0.0-23.0","A3QZIWRRJWP1PK","img_art/ins/1.jpg","0","","","","","","","","","","","","","","","","","","","","","","","","",""
"3478","","image-button-response","24","213260","0.0-24.0-0.0","A3QZIWRRJWP1PK","img_art/ins/1.jpg","4","","","","","","","","","","","","","","","","","","","","","","","","",""
"2295","","image-button-response","25","215557","0.0-25.0-0.0","A3QZIWRRJWP1PK","img_art/ins/1.jpg","0","","","","","","","","","","","","","","","","","","","","","","","","",""
"4368","","image-button-response","26","224078","0.0-25.1-0.1","A3QZIWRRJWP1PK","img_art/ins/1.jpg","5","","","","","","","","","","","","","","","","","","","","","","","","",""
"null","","html-keyboard-response","27","225589","0.0-26.0","A3QZIWRRJWP1PK","<p style=""font-size: 48px;"">+</p>","","","","","null","allTrialResponses","1500","1","-2","img_art/ins/1.jpg","8","It feels like something that is just on the verge of taking shape.","Allison,Ashley,Beth,Dora,Erika,Jen","looks like a lot of things going on in the mist,20,20,20","I just don't get why these type of art would be popular,-32,40,20","This color reminds me of poo,-46,60,20","looks like what my niece in 3rd grade did this afternoon,-50,80,20","I like the sophisticated brushwork,40,100,20","It reminds me of a candy land dream I had,36,120,20","Allison","looks like a lot of things going on in the mist,20,20,20","Erika","I like the sophisticated brushwork,40,100,20","Jen","It reminds me of a candy land dream I had,36,120,20","2"
"37732","","survey-text","28","263332","0.0-27.0-0.0","A3QZIWRRJWP1PK","","","","{""Q0"":""The brushwork combined with the bold aggressive colors are striking.""}","","","","","","","","","","","","","","","","","","","","","","",""
"4071.6999999284744","","image-slider-response","29","267405","0.0-28.0","A3QZIWRRJWP1PK","","","","","18","","","","","","","","","","","","","","","","","","","","","",""
"null","","image-button-response","30","272408","0.0-29.0","A3QZIWRRJWP1PK","img_art/ins/2.jpg","null","","","","","","","","","","","","","","","","","","","","","","","","",""
"7939","","image-button-response","31","280351","0.0-30.0","A3QZIWRRJWP1PK","img_art/ins/2.jpg","4","","","","","","","","","","","","","","","","","","","","","","","","",""
"910","","image-button-response","32","281263","0.0-31.0-0.0","A3QZIWRRJWP1PK","img_art/ins/2.jpg","5","","","","","","","","","","","","","","","","","","","","","","","","",""
"5303","","image-button-response","33","286567","0.0-32.0-0.0","A3QZIWRRJWP1PK","img_art/ins/2.jpg","1","","","","","","","","","","","","","","","","","","","","","","","","",""
"null","","html-keyboard-response","34","287569","0.0-33.0","A3QZIWRRJWP1PK","<p style=""font-size: 48px;"">+</p>","","","","","null","allTrialResponses","1000","1","-1","img_art/ins/2.jpg","18","The brushwork combined with the bold aggressive colors are striking.","Allison,Kara,Katie,Jenna,Erika,Jen","I don't have strong feelings about this,10,20,20","I like the blocks of color arrangements,30,160,20","too much color!,-28,180,20","One of my pet peevs,-48,140,20","I would never be able to compose a sophisticated pallete like this,48,100,20","It reminds me of a fireplace,36,120,20","Erika","I would never be able to compose a sophisticated pallete like this,48,100,20","Jen","It reminds me of a fireplace,36,120,20","Kara","I like the blocks of color arrangements,30,160,20","2"
"35146","","survey-text","35","322724","0.0-34.0-0.0","A3QZIWRRJWP1PK","","","","{""Q0"":""It feels cold and severe, but strangely beautiful.""}","","","","","","","","","","","","","","","","","","","","","","",""
"3262.2999999523163","","image-slider-response","36","325988","0.0-35.0","A3QZIWRRJWP1PK","","","","","30","","","","","","","","","","","","","","","","","","","","","",""
"null","","image-button-response","37","330997","0.0-36.0","A3QZIWRRJWP1PK","img_art/ins/3.jpg","null","","","","","","","","","","","","","","","","","","","","","","","","",""
"2397","","image-button-response","38","333398","0.0-37.0","A3QZIWRRJWP1PK","img_art/ins/3.jpg","5","","","","","","","","","","","","","","","","","","","","","","","","",""
"2823","","image-button-response","39","336222","0.0-38.0-0.0","A3QZIWRRJWP1PK","img_art/ins/3.jpg","4","","","","","","","","","","","","","","","","","","","","","","","","",""
"4270","","image-button-response","40","340494","0.0-39.0-0.0","A3QZIWRRJWP1PK","img_art/ins/3.jpg","0","","","","","","","","","","","","","","","","","","","","","","","","",""
"null","","html-keyboard-response","41","341499","0.0-40.0","A3QZIWRRJWP1PK","<p style=""font-size: 48px;"">+</p>","","","","","null","allTrialResponses","1000","1","0","img_art/ins/3.jpg","30","It feels cold and severe, but strangely beautiful.","Mary,Kara,Rose,Leslie,Erika,Jen","I like the overlapping of brushes,41,220,20","calming blue is very nice,36,160,20","My daily routine, it's depressing,-20,240,20","It's an alright work,15,200,20","I feel connected to the artist,40,100,20","I can feel a rainy day from this painting,18,120,20","Jen","I can feel a rainy day from this painting,18,120,20","Erika","I feel connected to the artist,40,100,20","Mary","I like the overlapping of brushes,41,220,20","2"
"6196","","image-button-response_instructions","42","347703","0.0-41.0","A3QZIWRRJWP1PK","","0","instructions","","","","","","","","","","","","","","","","","","","","","","","",""
"15283","","survey-likert","43","362987","0.0-42.0-0.0","A3QZIWRRJWP1PK","","","","{""Q0"":"""",""Q1"":0,""Q2"":1}","","","","","","","","","","","","","","","","","","","","","","",""
"5061","","survey-text","44","368052","0.0-43.0-0.0","A3QZIWRRJWP1PK","","","","{""Q0"":""rock""}","","","","","","","","","","","","","","","","","","","","","","",""
"89505","","survey-text","45","457558","0.0-44.0-0.0","A3QZIWRRJWP1PK","","","","{""Q0"":""It really conveys the chaos and confusion that occurs after a car crash.""}","","","","","","","","","","","","","","","","","","","","","","",""
"3278.5","","image-slider-response","46","460838","0.0-45.0","A3QZIWRRJWP1PK","","","","","-8","","","","","","","","","","","","","","","","","","","","","",""
"null","","image-button-response","47","465872","0.0-46.0","A3QZIWRRJWP1PK","img_art/20.jpg","null","","","","","","","","","","","","","","","","","","","","","","","","",""
"2515","","image-button-response","48","468390","0.0-47.0","A3QZIWRRJWP1PK","img_art/20.jpg","2","","","","","","","","","","","","","","","","","","","","","","","","",""
"8528","","image-button-response","49","476919","0.0-48.0-0.0","A3QZIWRRJWP1PK","img_art/20.jpg","4","","","","","","","","","","","","","","","","","","","","","","","","",""
"8032","","image-button-response","50","484953","0.0-49.0-0.0","A3QZIWRRJWP1PK","img_art/20.jpg","3","","","","","","","","","","","","","","","","","","","","","","","","",""
"null","","html-keyboard-response","51","485455","0.0-50.0","A3QZIWRRJWP1PK","<p style=""font-size: 48px;"">+</p>","","","","","null","allTrialResponses","500","1","1","img_art/20.jpg","-8","It really conveys the chaos and confusion that occurs after a car crash.","Alexandria,Katie,Meghan,Erica,Paige,Cassidy","it looks like a car crash which is depressing,-19,80,20","I don't like it. Dark sky and black figures. White objects remind me of bones.,-30,160,20","feels distorted and uncomfortable,-41,220,20","looks like an auto accident,-30,80,20","scared. makes me feel alone or abandoned,-11,60,20","sort of pleasant to look at, but can't tell if it's supposed to be something,13,140,20","Meghan","feels distorted and uncomfortable,-41,220,20","Paige","scared. makes me feel alone or abandoned,-11,60,20","Erica","looks like an auto accident,-30,80,20","2"
"42470","","survey-text","52","527934","0.0-51.0-0.0","A3QZIWRRJWP1PK","","","","{""Q0"":""It is surprising that something with so little clarity can be so evocative.""}","","","","","","","","","","","","","","","","","","","","","","",""
"2821.899999976158","","image-slider-response","53","530757","0.0-52.0","A3QZIWRRJWP1PK","","","","","24","","","","","","","","","","","","","","","","","","","","","",""
"null","","image-button-response","54","535761","0.0-53.0","A3QZIWRRJWP1PK","img_art/26.jpg","null","","","","","","","","","","","","","","","","","","","","","","","","",""
"5684","","image-button-response","55","541447","0.0-54.0","A3QZIWRRJWP1PK","img_art/26.jpg","5","","","","","","","","","","","","","","","","","","","","","","","","",""
"4999","","image-button-response","56","546447","0.0-55.0-0.0","A3QZIWRRJWP1PK","img_art/26.jpg","4","","","","","","","","","","","","","","","","","","","","","","","","",""
"5231","","image-button-response","57","551679","0.0-56.0-0.0","A3QZIWRRJWP1PK","img_art/26.jpg","1","","","","","","","","","","","","","","","","","","","","","","","","",""
"null","","html-keyboard-response","58","552681","0.0-57.0","A3QZIWRRJWP1PK","<p style=""font-size: 48px;"">+</p>","","","","","null","allTrialResponses","1000","1","2","img_art/26.jpg","24","It is surprising that something with so little clarity can be so evocative.","Michelle,Monica,Meghan,Erica,Paige,Rebecca","I can make out a street view and I am a fan of watercolors but still too boring,15,280,20","It looks empty and unfinished,-28,360,20","nothing really special, quite bland,1,220,20","very relaxing and easy going,22,80,20","somewhat happy, like being outside on a nice day,30,60,20","love the ""lowkey"" vibrant colors that are colorful but at the same time greyscale,12,100,20","Rebecca","love the ""lowkey"" vibrant colors that are colorful but at the same time greyscale,12,100,20","Paige","somewhat happy, like being outside on a nice day,30,60,20","Monica","It looks empty and unfinished,-28,360,20","2"
"68801","","survey-text","59","621492","0.0-58.0-0.0","A3QZIWRRJWP1PK","","","","{""Q0"":""It feels so weighty in its composition and the color makes me feel uncomfortable.""}","","","","","","","","","","","","","","","","","","","","","","",""
"2782.2999999523163","","image-slider-response","60","624276","0.0-59.0","A3QZIWRRJWP1PK","","","","","-22","","","","","","","","","","","","","","","","","","","","","",""
"null","","image-button-response","61","629291","0.0-60.0","A3QZIWRRJWP1PK","img_art/28.jpg","null","","","","","","","","","","","","","","","","","","","","","","","","",""
"704","","image-button-response","62","629997","0.0-61.0","A3QZIWRRJWP1PK","img_art/28.jpg","1","","","","","","","","","","","","","","","","","","","","","","","","",""
"6759","","image-button-response","63","636757","0.0-62.0-0.0","A3QZIWRRJWP1PK","img_art/28.jpg","5","","","","","","","","","","","","","","","","","","","","","","","","",""
"6743","","image-button-response","64","643502","0.0-63.0-0.0","A3QZIWRRJWP1PK","img_art/28.jpg","3","","","","","","","","","","","","","","","","","","","","","","","","",""
"null","","html-keyboard-response","65","644005","0.0-64.0","A3QZIWRRJWP1PK","<p style=""font-size: 48px;"">+</p>","","","","","null","allTrialResponses","500","1","3","img_art/28.jpg","-22","It feels so weighty in its composition and the color makes me feel uncomfortable.","Katelyn,Monica,Briana,Samantha,Paige,Rebecca","Just all blurs together for me. No substance.,-23,100,20","The dark colors make it look dirty and the shapes make me uncomfortable,-50,360,20","Is this anything?,-20,400,20","Interesting and weird. Perfect conversational piece,33,140,20","I just don't like it. It makes no sense to me,1,60,20","the color scheme is very well matched but i just didn't like it,-6,100,20","Monica","The dark colors make it look dirty and the shapes make me uncomfortable,-50,360,20","Rebecca","the color scheme is very well matched but i just didn't like it,-6,100,20","Samantha","Interesting and weird. Perfect conversational piece,33,140,20","2"
"103507","","survey-text","66","747522","0.0-65.0-0.0","A3QZIWRRJWP1PK","","","","{""Q0"":""The color of the main subject is so assertive that it refuses to be ignored. ""}","","","","","","","","","","","","","","","","","","","","","","",""
"3743.2999999523163","","image-slider-response","67","751267","0.0-66.0","A3QZIWRRJWP1PK","","","","","34","","","","","","","","","","","","","","","","","","","","","",""
"null","","image-button-response","68","756276","0.0-67.0","A3QZIWRRJWP1PK","img_art/14.jpg","null","","","","","","","","","","","","","","","","","","","","","","","","",""
"1340","","image-button-response","69","757620","0.0-68.0","A3QZIWRRJWP1PK","img_art/14.jpg","3","","","","","","","","","","","","","","","","","","","","","","","","",""
"4855","","image-button-response","70","762477","0.0-69.0-0.0","A3QZIWRRJWP1PK","img_art/14.jpg","2","","","","","","","","","","","","","","","","","","","","","","","","",""
"6623","","image-button-response","71","769102","0.0-70.0-0.0","A3QZIWRRJWP1PK","img_art/14.jpg","5","","","","","","","","","","","","","","","","","","","","","","","","",""
"null","","html-keyboard-response","72","770111","0.0-71.0","A3QZIWRRJWP1PK","<p style=""font-size: 48px;"">+</p>","","","","","null","allTrialResponses","1000","1","4","img_art/14.jpg","34","The color of the main subject is so assertive that it refuses to be ignored. ","Tiffany,Monica,Chelsea,Samantha,Catherine,Rebecca","I feel uncomfortable looking at this painting, it is a mess that needs to be cleaned up.,-16,360,20","Just don't like it, maybe it's the bleeding colors on the left of the tree-looking thing in the center or the faded background,-10,360,20","The colors are pleasing.,29,180,20","I love the feeling of the tree and people. Makes me happy,50,140,20","Tornado, nature. trees falling and displaced creatures. Love the colors though.,1,160,20","medium recalls back to an oriental style,16,100,20","Samantha","I love the feeling of the tree and people. Makes me happy,50,140,20","Chelsea","The colors are pleasing.,29,180,20","Rebecca","medium recalls back to an oriental style,16,100,20","2"
"39707","","survey-text","73","809829","0.0-72.0-0.0","A3QZIWRRJWP1PK","","","","{""Q0"":""I like the colors, but it feels like a puzzle that was put together incorrectly.""}","","","","","","","","","","","","","","","","","","","","","","",""
"3047.3000000715256","","image-slider-response","74","812878","0.0-73.0","A3QZIWRRJWP1PK","","","","","5","","","","","","","","","","","","","","","","","","","","","",""
"null","","image-button-response","75","817885","0.0-74.0","A3QZIWRRJWP1PK","img_art/12.jpg","null","","","","","","","","","","","","","","","","","","","","","","","","",""
"8737","","image-button-response","76","826624","0.0-75.0","A3QZIWRRJWP1PK","img_art/12.jpg","5","","","","","","","","","","","","","","","","","","","","","","","","",""
"3367","","image-button-response","77","829992","0.0-76.0-0.0","A3QZIWRRJWP1PK","img_art/12.jpg","0","","","","","","","","","","","","","","","","","","","","","","","","",""
"3423","","image-button-response","78","833416","0.0-77.0-0.0","A3QZIWRRJWP1PK","img_art/12.jpg","2","","","","","","","","","","","","","","","","","","","","","","","","",""
"null","","html-keyboard-response","79","834923","0.0-78.0","A3QZIWRRJWP1PK","<p style=""font-size: 48px;"">+</p>","","","","","null","allTrialResponses","1500","1","5","img_art/12.jpg","5","I like the colors, but it feels like a puzzle that was put together incorrectly.","Heather,Kimberly,Chelsea,Samantha,Angela,Rebecca","beautiful also reminds me of a quilt,1,260,20","Just not a fan, I can't figure out why,-17,260,20","I like the gradient of little color on the top to colorful on the bottom.,24,180,20","It is interesting but seems like some cheap painting from like walmart,24,140,20","I like the colors in the bottom half of the painting,10,260,20","so many different available interpretations for this, would love to closer.,24,100,20","Rebecca","so many different available interpretations for this, would love to closer.,24,100,20","Heather","beautiful also reminds me of a quilt,1,260,20","Chelsea","I like the gradient of little color on the top to colorful on the bottom.,24,180,20","2"
"4774","","survey-text","80","839714","0.0-79.0-0.0","A3QZIWRRJWP1PK","","","","{""Q0"":""sky""}","","","","","","","","","","","","","","","","","","","","","","",""
"59487","","survey-text","81","899202","0.0-80.0-0.0","A3QZIWRRJWP1PK","","","","{""Q0"":""I understand the techniques being used here, but the brushwork makes it feel rushed or incomplete.""}","","","","","","","","","","","","","","","","","","","","","","",""
"8311.399999976158","","image-slider-response","82","907514","0.0-81.0","A3QZIWRRJWP1PK","","","","","-24","","","","","","","","","","","","","","","","","","","","","",""
"null","","image-button-response","83","912517","0.0-82.0","A3QZIWRRJWP1PK","img_art/19.jpg","null","","","","","","","","","","","","","","","","","","","","","","","","",""
"16847","","image-button-response","84","929366","0.0-83.0","A3QZIWRRJWP1PK","img_art/19.jpg","3","","","","","","","","","","","","","","","","","","","","","","","","",""
"2551","","image-button-response","85","931919","0.0-84.0-0.0","A3QZIWRRJWP1PK","img_art/19.jpg","1","","","","","","","","","","","","","","","","","","","","","","","","",""
"4038","","image-button-response","86","935958","0.0-85.0-0.0","A3QZIWRRJWP1PK","img_art/19.jpg","0","","","","","","","","","","","","","","","","","","","","","","","","",""
"null","","html-keyboard-response","87","936974","0.0-86.0","A3QZIWRRJWP1PK","<p style=""font-size: 48px;"">+</p>","","","","","null","allTrialResponses","1000","1","6","img_art/19.jpg","-24","I understand the techniques being used here, but the brushwork makes it feel rushed or incomplete.","Heather,Andrea,Chelsea,Destiny,Jordan,Rebecca","love the images I can pick out of this art,1,260,20","Feels like a cafe in Paris.,35,240,20","It is too busy.,-34,180,20","this flow I just really like how everything blends but also doesn't,45,360,20","I like it, I see someone walking his dog in the early morning time,23,20,20","interesting take on depth (reminds me of those 1000 piece puzzles),2,100,20","Destiny","this flow I just really like how everything blends but also doesn't,45,360,20","Andrea","Feels like a cafe in Paris.,35,240,20","Heather","love the images I can pick out of this art,1,260,20","2"
"96269","","survey-text","88","1033252","0.0-87.0-0.0","A3QZIWRRJWP1PK","","","","{""Q0"":""It is lovely. It is so abstract up close, but still so clear.""}","","","","","","","","","","","","","","","","","","","","","","",""
"2877.899999976158","","image-slider-response","89","1036132","0.0-88.0","A3QZIWRRJWP1PK","","","","","22","","","","","","","","","","","","","","","","","","","","","",""
"4368","","image-button-response","90","1041134","0.0-89.0","A3QZIWRRJWP1PK","img_art/24.jpg","0","","","","","","","","","","","","","","","","","","","","","","","","",""
"17503","","image-button-response","91","1058643","0.0-90.0","A3QZIWRRJWP1PK","img_art/24.jpg","4","","","","","","","","","","","","","","","","","","","","","","","","",""
"12654","","image-button-response","92","1071298","0.0-91.0-0.0","A3QZIWRRJWP1PK","img_art/24.jpg","0","","","","","","","","","","","","","","","","","","","","","","","","",""
"12151","","image-button-response","93","1083452","0.0-92.0-0.0","A3QZIWRRJWP1PK","img_art/24.jpg","1","","","","","","","","","","","","","","","","","","","","","","","","",""
"null","","html-keyboard-response","94","1084460","0.0-93.0","A3QZIWRRJWP1PK","<p style=""font-size: 48px;"">+</p>","","","","","null","allTrialResponses","1000","1","7","img_art/24.jpg","22","It is lovely. It is so abstract up close, but still so clear.","Heather,Andrea,Madeline,Destiny,Kaitlin,Jacqueline","i feel peace and wanting. i love waterfalls,50,260,20","Waterfall, and I love the coloring.,48,240,20","colors are good but the style is iffy,12,40,20","brick wall waterfall girl you think you got it all,50,360,20","Aww. I love the peace brought by this picture.,40,60,20","This one isn't that abstract. It clearly looks like a waterfall.,31,300,20","Kaitlin","Aww. I love the peace brought by this picture.,40,60,20","Heather","i feel peace and wanting. i love waterfalls,50,260,20","Andrea","Waterfall, and I love the coloring.,48,240,20","2"
"108405","","survey-text","95","1192875","0.0-94.0-0.0","A3QZIWRRJWP1PK","","","","{""Q0"":""The brilliance of this is entirely in the way the background highlights different splatters.""}","","","","","","","","","","","","","","","","","","","","","","",""
"3415.2999999523163","","image-slider-response","96","1196292","0.0-95.0","A3QZIWRRJWP1PK","","","","","24","","","","","","","","","","","","","","","","","","","","","",""
"4949","","image-button-response","97","1201297","0.0-96.0","A3QZIWRRJWP1PK","img_art/13.jpg","1","","","","","","","","","","","","","","","","","","","","","","","","",""
"1103","","image-button-response","98","1202404","0.0-97.0","A3QZIWRRJWP1PK","img_art/13.jpg","1","","","","","","","","","","","","","","","","","","","","","","","","",""
"6095","","image-button-response","99","1208501","0.0-98.0-0.0","A3QZIWRRJWP1PK","img_art/13.jpg","5","","","","","","","","","","","","","","","","","","","","","","","","",""
"30","","image-button-response","100","1208533","0.0-99.0-0.0","A3QZIWRRJWP1PK","img_art/13.jpg","5","","","","","","","","","","","","","","","","","","","","","","","","",""
"767","","image-button-response","101","1214174","0.0-99.1-0.1","A3QZIWRRJWP1PK","img_art/13.jpg","4","","","","","","","","","","","","","","","","","","","","","","","","",""
"null","","html-keyboard-response","102","1215176","0.0-100.0","A3QZIWRRJWP1PK","<p style=""font-size: 48px;"">+</p>","","","","","null","allTrialResponses","1000","1","8","img_art/13.jpg","24","The brilliance of this is entirely in the way the background highlights different splatters.","Heather,Andrea,Maria,Gabriela,Kaitlin,Alexis","rain in blue black and white,1,260,20","Raindrops on a window. Makes me feel like traveling.,31,240,20","evokes a dampening feeling,-9,120,20","It looks too common, is a bit boring,-41,140,20","I like this picture. The choice of colors are good,31,60,20","Simple, but pleasing. The blue gradient is a favorite of mine,32,100,20","Andrea","Raindrops on a window. Makes me feel like traveling.,31,240,20","Alexis","Simple, but pleasing. The blue gradient is a favorite of mine,32,100,20","Kaitlin","I like this picture. The choice of colors are good,31,60,20","4"
"88119","","survey-text","103","1303304","0.0-101.0-0.0","A3QZIWRRJWP1PK","","","","{""Q0"":""I don't get much from this, it looks like blue animals in a field of black flowers.""}","","","","","","","","","","","","","","","","","","","","","","",""
"2749.600000023842","","image-slider-response","104","1306056","0.0-102.0","A3QZIWRRJWP1PK","","","","","-21","","","","","","","","","","","","","","","","","","","","","",""
"null","","image-button-response","105","1311058","0.0-103.0","A3QZIWRRJWP1PK","img_art/15.jpg","null","","","","","","","","","","","","","","","","","","","","","","","","",""
"2948","","image-button-response","106","1314009","0.0-104.0","A3QZIWRRJWP1PK","img_art/15.jpg","3","","","","","","","","","","","","","","","","","","","","","","","","",""
"10752","","image-button-response","107","1324763","0.0-105.0-0.0","A3QZIWRRJWP1PK","img_art/15.jpg","0","","","","","","","","","","","","","","","","","","","","","","","","",""
"5023","","image-button-response","108","1329788","0.0-106.0-0.0","A3QZIWRRJWP1PK","img_art/15.jpg","5","","","","","","","","","","","","","","","","","","","","","","","","",""
"null","","html-keyboard-response","109","1330290","0.0-107.0","A3QZIWRRJWP1PK","<p style=""font-size: 48px;"">+</p>","","","","","null","allTrialResponses","500","1","9","img_art/15.jpg","-21","I don't get much from this, it looks like blue animals in a field of black flowers.","Jessica,Andrea,Kaylee,Marissa,Kaitlin,Alexis","I think it's trying to execute a cool idea, but unfortunately it doesn't appeal,5,400,20","Chameleons on reeds. Nice but doesn't really make me feel anything.,11,240,20","some trees in the forest,15,200,20","I am reminded of spring flowers swaying in the dark night's breeze,9,160,20","This one seems a bit frightening,-19,60,20","Not a fan of abstract, but the black is very striking,10,100,20","Marissa","I am reminded of spring flowers swaying in the dark night's breeze,9,160,20","Jessica","I think it's trying to execute a cool idea, but unfortunately it doesn't appeal,5,400,20","Alexis","Not a fan of abstract, but the black is very striking,10,100,20","4"
"72147","","survey-text","110","1402447","0.0-108.0-0.0","A3QZIWRRJWP1PK","","","","{""Q0"":""It looks like a storm rolling in to a rocky cliffside. I feel this strongly.""}","","","","","","","","","","","","","","","","","","","","","","",""
"2470.6999999284744","","image-slider-response","111","1404919","0.0-109.0","A3QZIWRRJWP1PK","","","","","37","","","","","","","","","","","","","","","","","","","","","",""
"null","","image-button-response","112","1409932","0.0-110.0","A3QZIWRRJWP1PK","img_art/21.jpg","null","","","","","","","","","","","","","","","","","","","","","","","","",""
"1451","","image-button-response","113","1411386","0.0-111.0","A3QZIWRRJWP1PK","img_art/21.jpg","2","","","","","","","","","","","","","","","","","","","","","","","","",""
"3086","","image-button-response","114","1414473","0.0-112.0-0.0","A3QZIWRRJWP1PK","img_art/21.jpg","5","","","","","","","","","","","","","","","","","","","","","","","","",""
"2511","","image-button-response","115","1416986","0.0-113.0-0.0","A3QZIWRRJWP1PK","img_art/21.jpg","0","","","","","","","","","","","","","","","","","","","","","","","","",""
"null","","html-keyboard-response","116","1417997","0.0-114.0","A3QZIWRRJWP1PK","<p style=""font-size: 48px;"">+</p>","","","","","null","allTrialResponses","1000","1","10","img_art/21.jpg","37","It looks like a storm rolling in to a rocky cliffside. I feel this strongly.","Jessica,Brittany,Lauren,Marissa,Jasmine,Alexis","I like how the colors blend together like a beautiful sunset.,25,400,20","Alright. I like the colors.,5,40,20","I like how the piece has the possibility of depicting some type of story.,30,340,20","I feel confused,-18,160,20","The blues make me feel sadder as my mood is already not the best right now,-10,340,20","I love this. Reminds me of a coast. The colors flow beautifully,40,100,20","Lauren","I like how the piece has the possibility of depicting some type of story.,30,340,20","Alexis","I love this. Reminds me of a coast. The colors flow beautifully,40,100,20","Jessica","I like how the colors blend together like a beautiful sunset.,25,400,20","4"
"4177","","survey-text","117","1422194","0.0-115.0-0.0","A3QZIWRRJWP1PK","","","","{""Q0"":""our""}","","","","","","","","","","","","","","","","","","","","","","",""
"26973","","survey-text","118","1449167","0.0-116.0-0.0","A3QZIWRRJWP1PK","","","","{""Q0"":""I feel like this is not as simple as it looks, but it does little for me.""}","","","","","","","","","","","","","","","","","","","","","","",""
"9135.399999976158","","image-slider-response","119","1458305","0.0-117.0","A3QZIWRRJWP1PK","","","","","-17","","","","","","","","","","","","","","","","","","","","","",""
"null","","image-button-response","120","1463315","0.0-118.0","A3QZIWRRJWP1PK","img_art/25.jpg","null","","","","","","","","","","","","","","","","","","","","","","","","",""
"5780","","image-button-response","121","1469099","0.0-119.0","A3QZIWRRJWP1PK","img_art/25.jpg","5","","","","","","","","","","","","","","","","","","","","","","","","",""
"5734","","image-button-response","122","1474835","0.0-120.0-0.0","A3QZIWRRJWP1PK","img_art/25.jpg","1","","","","","","","","","","","","","","","","","","","","","","","","",""
"6904","","image-button-response","123","1481741","0.0-121.0-0.0","A3QZIWRRJWP1PK","img_art/25.jpg","0","","","","","","","","","","","","","","","","","","","","","","","","",""
"null","","html-keyboard-response","124","1482246","0.0-122.0","A3QZIWRRJWP1PK","<p style=""font-size: 48px;"">+</p>","","","","","null","allTrialResponses","500","1","11","img_art/25.jpg","-17","I feel like this is not as simple as it looks, but it does little for me.","Jessica,Mary,Lauren,Molly,Kristen,Alexis","I really like how the lines form this piece.,8,400,20","The artist was daring to create this. Don't love the green and black combo though.,9,180,20","Depicts something negative, such as ritual. I'm not a fan.,-10,340,20","Well-designed, interesting.,30,340,20","reminds me of the grim reaper,3,280,20","Reminds me of cave drawings,21,100,20","Alexis","Reminds me of cave drawings,21,100,20","Mary","The artist was daring to create this. Don't love the green and black combo though.,9,180,20","Jessica","I really like how the lines form this piece.,8,400,20","4"
"37924","","survey-text","125","1520181","0.0-123.0-0.0","A3QZIWRRJWP1PK","","","","{""Q0"":""This is chaotic, but it is so visually interesting that it invites you to look closer.""}","","","","","","","","","","","","","","","","","","","","","","",""
"2766.7000000476837","","image-slider-response","126","1522949","0.0-124.0","A3QZIWRRJWP1PK","","","","","20","","","","","","","","","","","","","","","","","","","","","",""
"null","","image-button-response","127","1527959","0.0-125.0","A3QZIWRRJWP1PK","img_art/8.jpg","null","","","","","","","","","","","","","","","","","","","","","","","","",""
"154674","","image-button-response","128","1682636","0.0-126.0","A3QZIWRRJWP1PK","img_art/8.jpg","5","","","","","","","","","","","","","","","","","","","","","","","","",""
"2342","","image-button-response","129","1684980","0.0-127.0-0.0","A3QZIWRRJWP1PK","img_art/8.jpg","4","","","","","","","","","","","","","","","","","","","","","","","","",""
"6639","","image-button-response","130","1691621","0.0-128.0-0.0","A3QZIWRRJWP1PK","img_art/8.jpg","1","","","","","","","","","","","","","","","","","","","","","","","","",""
"null","","html-keyboard-response","131","1692623","0.0-129.0","A3QZIWRRJWP1PK","<p style=""font-size: 48px;"">+</p>","","","","","null","allTrialResponses","1000","1","12","img_art/8.jpg","20","This is chaotic, but it is so visually interesting that it invites you to look closer.","Jessica,Mary,Autumn,Angelica,Lindsey,Alexis","Very cool! I like this piece,9,400,20","Very inspiring piece. I love how it's at angle. It gives it character.,23,180,20","Well painted. Not my style.,27,340,20","It's a poor rendition of an MC Escher inspired piece.,-25,280,20","Pleasant colors, lots of interest. Not sure what's going on but I like it.,20,400,20","Reminds me of old 80s fantasy book covers. Nostalgic,23,100,20","Alexis","Reminds me of old 80s fantasy book covers. Nostalgic,23,100,20","Lindsey","Pleasant colors, lots of interest. Not sure what's going on but I like it.,20,400,20","Mary","Very inspiring piece. I love how it's at angle. It gives it character.,23,180,20","4"
"85708","","survey-text","132","1778341","0.0-130.0-0.0","A3QZIWRRJWP1PK","","","","{""Q0"":""It is bleak and stark in such a jarring way.""}","","","","","","","","","","","","","","","","","","","","","","",""
"2415.5","","image-slider-response","133","1780758","0.0-131.0","A3QZIWRRJWP1PK","","","","","9","","","","","","","","","","","","","","","","","","","","","",""
"4159","","image-button-response","134","1785760","0.0-132.0","A3QZIWRRJWP1PK","img_art/16.jpg","1","","","","","","","","","","","","","","","","","","","","","","","","",""
"10404","","image-button-response","135","1796167","0.0-133.0","A3QZIWRRJWP1PK","img_art/16.jpg","0","","","","","","","","","","","","","","","","","","","","","","","","",""
"2976","","image-button-response","136","1799145","0.0-134.0-0.0","A3QZIWRRJWP1PK","img_art/16.jpg","1","","","","","","","","","","","","","","","","","","","","","","","","",""
"38","","image-button-response","137","1799185","0.0-135.0-0.0","A3QZIWRRJWP1PK","img_art/16.jpg","1","","","","","","","","","","","","","","","","","","","","","","","","",""
"7255","","image-button-response","138","1808914","0.0-135.1-0.1","A3QZIWRRJWP1PK","img_art/16.jpg","4","","","","","","","","","","","","","","","","","","","","","","","","",""
"null","","html-keyboard-response","139","1809415","0.0-136.0","A3QZIWRRJWP1PK","<p style=""font-size: 48px;"">+</p>","","","","","null","allTrialResponses","500","1","13","img_art/16.jpg","9","It is bleak and stark in such a jarring way.","Jennifer,Mary,Mariah,Haley,Lindsey,Alexis","Very creepy, it makes me feel uneasy,-31,380,20","This is a neat piece. Sort of shocking. I think it's too monochromatic though.,19,180,20","Why is that bear there? It looks like it would be gross to touch. The texture bothers me.,-20,140,20","Makes me want to know more,5,220,20","It's depressing. Probably achieved its goal. But I wouldn't want it hanging in my home.,-31,400,20","Don't like this technique. Too serial killer.,-50,100,20","Jennifer","Very creepy, it makes me feel uneasy,-31,380,20","Mary","This is a neat piece. Sort of shocking. I think it's too monochromatic though.,19,180,20","Lindsey","It's depressing. Probably achieved its goal. But I wouldn't want it hanging in my home.,-31,400,20","6"
"48657","","survey-text","140","1858084","0.0-137.0-0.0","A3QZIWRRJWP1PK","","","","{""Q0"":""It looks like human figures dancing across the concept of psychedelia.""}","","","","","","","","","","","","","","","","","","","","","","",""
"2662.6999999284744","","image-slider-response","141","1860748","0.0-138.0","A3QZIWRRJWP1PK","","","","","20","","","","","","","","","","","","","","","","","","","","","",""
"null","","image-button-response","142","1865767","0.0-139.0","A3QZIWRRJWP1PK","img_art/23.jpg","null","","","","","","","","","","","","","","","","","","","","","","","","",""
"4772","","image-button-response","143","1870542","0.0-140.0","A3QZIWRRJWP1PK","img_art/23.jpg","5","","","","","","","","","","","","","","","","","","","","","","","","",""
"2654","","image-button-response","144","1873198","0.0-141.0-0.0","A3QZIWRRJWP1PK","img_art/23.jpg","3","","","","","","","","","","","","","","","","","","","","","","","","",""
"8785","","image-button-response","145","1881984","0.0-142.0-0.0","A3QZIWRRJWP1PK","img_art/23.jpg","0","","","","","","","","","","","","","","","","","","","","","","","","",""
"null","","html-keyboard-response","146","1882485","0.0-143.0","A3QZIWRRJWP1PK","<p style=""font-size: 48px;"">+</p>","","","","","null","allTrialResponses","500","1","14","img_art/23.jpg","20","It looks like human figures dancing across the concept of psychedelia.","Jennifer,Mary,Bailey,Sophia,Lindsey,Leslie","The cluster of white silhouettes against the colorful background makes me feel uneasy for some reason,-36,380,20","The colors are ugly. I don't like the white. It doesn't compliment the piece at all.,-44,180,20","Not a fan of these dot pieces. They hurt my eyes.,-25,360,20","I like the contrast and the bright colors in this one.,6,280,20","Too much contrasting colors together. I hate it.,-50,400,20","It reminds me of being in a crowded place.,-10,380,20","Leslie","It reminds me of being in a crowded place.,-10,380,20","Sophia","I like the contrast and the bright colors in this one.,6,280,20","Jennifer","The cluster of white silhouettes against the colorful background makes me feel uneasy for some reason,-36,380,20","6"
"47895","","survey-text","147","1930391","0.0-144.0-0.0","A3QZIWRRJWP1PK","","","","{""Q0"":""So angular and rigid at the bottom that devolves into formless flowing lines. Fascinating.""}","","","","","","","","","","","","","","","","","","","","","","",""
"2654.600000023842","","image-slider-response","148","1933047","0.0-145.0","A3QZIWRRJWP1PK","","","","","31","","","","","","","","","","","","","","","","","","","","","",""
"null","","image-button-response","149","1938050","0.0-146.0","A3QZIWRRJWP1PK","img_art/17.jpg","null","","","","","","","","","","","","","","","","","","","","","","","","",""
"4126","","image-button-response","150","1942178","0.0-147.0","A3QZIWRRJWP1PK","img_art/17.jpg","4","","","","","","","","","","","","","","","","","","","","","","","","",""
"3062","","image-button-response","151","1945242","0.0-148.0-0.0","A3QZIWRRJWP1PK","img_art/17.jpg","1","","","","","","","","","","","","","","","","","","","","","","","","",""
"2982","","image-button-response","152","1948226","0.0-149.0-0.0","A3QZIWRRJWP1PK","img_art/17.jpg","0","","","","","","","","","","","","","","","","","","","","","","","","",""
"null","","html-keyboard-response","153","1949738","0.0-150.0","A3QZIWRRJWP1PK","<p style=""font-size: 48px;"">+</p>","","","","","null","allTrialResponses","1500","1","15","img_art/17.jpg","31","So angular and rigid at the bottom that devolves into formless flowing lines. Fascinating.","Jennifer,Diana,Cassandra,Sophia,Kaitlyn,Leslie","Very elegant, this design reminds me of trees,31,380,20","I really enjoyed this piece, it's a play on bringing the outside indoors.,32,380,20","Very pretty...the colors and good and flow well.,33,120,20","It kind of pulls you in to float away with it.,9,280,20","Very beautiful,19,80,20","This makes me feel trapped.,5,380,20","Kaitlyn","Very beautiful,19,80,20","Diana","I really enjoyed this piece, it's a play on bringing the outside indoors.,32,380,20","Jennifer","Very elegant, this design reminds me of trees,31,380,20","6"
"5808","","survey-text","154","1955554","0.0-151.0-0.0","A3QZIWRRJWP1PK","","","","{""Q0"":""course""}","","","","","","","","","","","","","","","","","","","","","","",""
"59381","","survey-text","155","2014936","0.0-152.0-0.0","A3QZIWRRJWP1PK","","","","{""Q0"":""It looks like the memory of a cityscape at sunset, beautiful, but kind of hazy.""}","","","","","","","","","","","","","","","","","","","","","","",""
"2639.7000000476837","","image-slider-response","156","2017577","0.0-153.0","A3QZIWRRJWP1PK","","","","","36","","","","","","","","","","","","","","","","","","","","","",""
"4143","","image-button-response","157","2022580","0.0-154.0","A3QZIWRRJWP1PK","img_art/22.jpg","1","","","","","","","","","","","","","","","","","","","","","","","","",""
"11227","","image-button-response","158","2033810","0.0-155.0","A3QZIWRRJWP1PK","img_art/22.jpg","0","","","","","","","","","","","","","","","","","","","","","","","","",""
"1544","","image-button-response","159","2035355","0.0-156.0-0.0","A3QZIWRRJWP1PK","img_art/22.jpg","1","","","","","","","","","","","","","","","","","","","","","","","","",""
"2319","","image-button-response","160","2037677","0.0-157.0-0.0","A3QZIWRRJWP1PK","img_art/22.jpg","3","","","","","","","","","","","","","","","","","","","","","","","","",""
"null","","html-keyboard-response","161","2038179","0.0-158.0","A3QZIWRRJWP1PK","<p style=""font-size: 48px;"">+</p>","","","","","null","allTrialResponses","500","1","16","img_art/22.jpg","36","It looks like the memory of a cityscape at sunset, beautiful, but kind of hazy.","Jennifer,Diana,Kayla,Megan,Kaitlyn,Sarah","Colors are subdued yet vibrant,30,380,20","I think the colors are beautiful they remind me of a sunset.,13,380,20","I don't like that it looks like a person is there upside down.,-16,180,20","Organic sun spot on a flexible grid,18,200,20","Would be better if random black object was not present,11,80,20","boring, too many red and yellow tones for my taste,-15,180,20","Jennifer","Colors are subdued yet vibrant,30,380,20","Diana","I think the colors are beautiful they remind me of a sunset.,13,380,20","Megan","Organic sun spot on a flexible grid,18,200,20","6"
"133074","","survey-text","162","2171275","0.0-159.0-0.0","A3QZIWRRJWP1PK","","","","{""Q0"":""I understand that this operates on the balance of color, but it is without enough definition for me.""}","","","","","","","","","","","","","","","","","","","","","","",""
"1886.4000000953674","","image-slider-response","163","2173163","0.0-160.0","A3QZIWRRJWP1PK","","","","","-13","","","","","","","","","","","","","","","","","","","","","",""
"null","","image-button-response","164","2178166","0.0-161.0","A3QZIWRRJWP1PK","img_art/1.jpg","null","","","","","","","","","","","","","","","","","","","","","","","","",""
"1348","","image-button-response","165","2179516","0.0-162.0","A3QZIWRRJWP1PK","img_art/1.jpg","2","","","","","","","","","","","","","","","","","","","","","","","","",""
"28435","","image-button-response","166","2207953","0.0-163.0-0.0","A3QZIWRRJWP1PK","img_art/1.jpg","5","","","","","","","","","","","","","","","","","","","","","","","","",""
"1055","","image-button-response","167","2209010","0.0-164.0-0.0","A3QZIWRRJWP1PK","img_art/1.jpg","1","","","","","","","","","","","","","","","","","","","","","","","","",""
"null","","html-keyboard-response","168","2210516","0.0-165.0","A3QZIWRRJWP1PK","<p style=""font-size: 48px;"">+</p>","","","","","null","allTrialResponses","1500","1","17","img_art/1.jpg","-13","I understand that this operates on the balance of color, but it is without enough definition for me.","Jennifer,Diana,Nicole,Megan,Courtney,Dominique","Bright and colorful without being overpowering,32,380,20","Might be a person rowing their boat across the lake. Not sure if the background is trees or not.,12,380,20","I love the colors but it's too intense sometimes,22,20,20","Nice colors with some 3D effects,15,200,20","I cant make anything of this one.,-7,280,20","I love the detail and colors like a beautiful autumn day,35,400,20","Nicole","I love the colors but it's too intense sometimes,22,20,20","Dominique","I love the detail and colors like a beautiful autumn day,35,400,20","Diana","Might be a person rowing their boat across the lake. Not sure if the background is trees or not.,12,380,20","6"
"46211","","survey-text","169","2256739","0.0-166.0-0.0","A3QZIWRRJWP1PK","","","","{""Q0"":""The color choices and blocking make it feel hectic and scattered.""}","","","","","","","","","","","","","","","","","","","","","","",""
"2302.399999976158","","image-slider-response","170","2259043","0.0-167.0","A3QZIWRRJWP1PK","","","","","-24","","","","","","","","","","","","","","","","","","","","","",""
"null","","image-button-response","171","2264050","0.0-168.0","A3QZIWRRJWP1PK","img_art/2.jpg","null","","","","","","","","","","","","","","","","","","","","","","","","",""
"2481","","image-button-response","172","2266533","0.0-169.0","A3QZIWRRJWP1PK","img_art/2.jpg","2","","","","","","","","","","","","","","","","","","","","","","","","",""
"17129","","image-button-response","173","2283663","0.0-170.0-0.0","A3QZIWRRJWP1PK","img_art/2.jpg","1","","","","","","","","","","","","","","","","","","","","","","","","",""
"5550","","image-button-response","174","2289215","0.0-171.0-0.0","A3QZIWRRJWP1PK","img_art/2.jpg","5","","","","","","","","","","","","","","","","","","","","","","","","",""
"null","","html-keyboard-response","175","2289716","0.0-172.0","A3QZIWRRJWP1PK","<p style=""font-size: 48px;"">+</p>","","","","","null","allTrialResponses","500","1","18","img_art/2.jpg","-24","The color choices and blocking make it feel hectic and scattered.","Isabella,Diana,Nicole,Kelsey,Emily,Dominique","Feels like a playground or park vibe,27,280,20","I think I see people sitting in lawn chairs in a circle watching an event. Not really sure so I rated it lower.,-35,380,20","It's a cool piece but honestly these color choices are the worst thing in the world,-31,20,20","i dont like it, no thank you,-28,240,20","Random colors and shapes mashed together. Nothing artistic, but better than some of the other ones.,-37,40,20","This reminds me of a peaceful day out alone shopping and spending some me time,41,400,20","Nicole","It's a cool piece but honestly these color choices are the worst thing in the world,-31,20,20","Diana","I think I see people sitting in lawn chairs in a circle watching an event. Not really sure so I rated it lower.,-35,380,20","Dominique","This reminds me of a peaceful day out alone shopping and spending some me time,41,400,20","6"
"130395","","survey-text","176","2420124","0.0-173.0-0.0","A3QZIWRRJWP1PK","","","","{""Q0"":""This looks like a close-up of a concrete sidewalk. I struggle to get more out of it.""}","","","","","","","","","","","","","","","","","","","","","","",""
"31012.399999976158","","image-slider-response","177","2451138","0.0-174.0","A3QZIWRRJWP1PK","","","","","-29","","","","","","","","","","","","","","","","","","","","","",""
"null","","image-button-response","178","2456154","0.0-175.0","A3QZIWRRJWP1PK","img_art/7.jpg","null","","","","","","","","","","","","","","","","","","","","","","","","",""
"7032","","image-button-response","179","2463189","0.0-176.0","A3QZIWRRJWP1PK","img_art/7.jpg","3","","","","","","","","","","","","","","","","","","","","","","","","",""
"4214","","image-button-response","180","2467404","0.0-177.0-0.0","A3QZIWRRJWP1PK","img_art/7.jpg","0","","","","","","","","","","","","","","","","","","","","","","","","",""
"3151","","image-button-response","181","2470557","0.0-178.0-0.0","A3QZIWRRJWP1PK","img_art/7.jpg","2","","","","","","","","","","","","","","","","","","","","","","","","",""
"null","","html-keyboard-response","182","2472062","0.0-179.0","A3QZIWRRJWP1PK","<p style=""font-size: 48px;"">+</p>","","","","","null","allTrialResponses","1500","1","19","img_art/7.jpg","-29","This looks like a close-up of a concrete sidewalk. I struggle to get more out of it.","Shelby,Diana,Nicole,Amy,Miranda,Dominique","This feels very earthy and grounded,20,240,20","This piece reminds me of ants and it makes my skin crawl.,-37,380,20","Looks like the surface of mars,29,20,20","Limited emotional reaction for me. No focus and highly abstract,-20,220,20","This looks like a literal picture of the ground so I'm really not too sure about this one.,-42,320,20","One I would love to own . Calm relaxing spiritual and full of love,41,400,20","Amy","Limited emotional reaction for me. No focus and highly abstract,-20,220,20","Shelby","This feels very earthy and grounded,20,240,20","Nicole","Looks like the surface of mars,29,20,20","6"
"37196","","survey-text","183","2509271","0.0-180.0-0.0","A3QZIWRRJWP1PK","","","","{""Q0"":""The lines and direction make it seem oddly desperate, like it wants to escape.""}","","","","","","","","","","","","","","","","","","","","","","",""
"2527.8000000715256","","image-slider-response","184","2511800","0.0-181.0","A3QZIWRRJWP1PK","","","","","18","","","","","","","","","","","","","","","","","","","","","",""
"null","","image-button-response","185","2516806","0.0-182.0","A3QZIWRRJWP1PK","img_art/4.jpg","null","","","","","","","","","","","","","","","","","","","","","","","","",""
"4474","","image-button-response","186","2521282","0.0-183.0","A3QZIWRRJWP1PK","img_art/4.jpg","3","","","","","","","","","","","","","","","","","","","","","","","","",""
"3407","","image-button-response","187","2524690","0.0-184.0-0.0","A3QZIWRRJWP1PK","img_art/4.jpg","0","","","","","","","","","","","","","","","","","","","","","","","","",""
"1575","","image-button-response","188","2526267","0.0-185.0-0.0","A3QZIWRRJWP1PK","img_art/4.jpg","1","","","","","","","","","","","","","","","","","","","","","","","","",""
"null","","html-keyboard-response","189","2527274","0.0-186.0","A3QZIWRRJWP1PK","<p style=""font-size: 48px;"">+</p>","","","","","null","allTrialResponses","1000","1","20","img_art/4.jpg","18","The lines and direction make it seem oddly desperate, like it wants to escape.","Shelby,Rachel,Nicole,Amy,Victoria,Morgan","The colors feel a bit off to me,-10,240,20","Not a huge fan of the color story, but it reminds me of a child finger-painting.,12,80,20","Mcdonald's french fries :(,-40,20,20","disturbing and uncomfortable.,10,220,20","dont like the colors,-31,400,20","Pretzel noodles.,7,380,20","Amy","disturbing and uncomfortable.,10,220,20","Shelby","The colors feel a bit off to me,-10,240,20","Rachel","Not a huge fan of the color story, but it reminds me of a child finger-painting.,12,80,20","6"
"3623","","survey-text","190","2530922","0.0-187.0-0.0","A3QZIWRRJWP1PK","","","","{""Q0"":""we""}","","","","","","","","","","","","","","","","","","","","","","",""
"56652","","survey-text","191","2587575","0.0-188.0-0.0","A3QZIWRRJWP1PK","","","","{""Q0"":""It is such a simple composition, but I get so little out of it. Sort of looks like a hand bell.""}","","","","","","","","","","","","","","","","","","","","","","",""
"2558.5","","image-slider-response","192","2590135","0.0-189.0","A3QZIWRRJWP1PK","","","","","-10","","","","","","","","","","","","","","","","","","","","","",""
"null","","image-button-response","193","2595137","0.0-190.0","A3QZIWRRJWP1PK","img_art/5.jpg","null","","","","","","","","","","","","","","","","","","","","","","","","",""
"7500","","image-button-response","194","2602640","0.0-191.0","A3QZIWRRJWP1PK","img_art/5.jpg","4","","","","","","","","","","","","","","","","","","","","","","","","",""
"3793","","image-button-response","195","2606434","0.0-192.0-0.0","A3QZIWRRJWP1PK","img_art/5.jpg","0","","","","","","","","","","","","","","","","","","","","","","","","",""
"1375","","image-button-response","196","2607810","0.0-193.0-0.0","A3QZIWRRJWP1PK","img_art/5.jpg","2","","","","","","","","","","","","","","","","","","","","","","","","",""
"null","","html-keyboard-response","197","2609324","0.0-194.0","A3QZIWRRJWP1PK","<p style=""font-size: 48px;"">+</p>","","","","","null","allTrialResponses","1500","1","21","img_art/5.jpg","-10","It is such a simple composition, but I get so little out of it. Sort of looks like a hand bell.","Shelby,Rachel,Kylie,Amy,Danielle,Crystal","This feels joyful,39,240,20","Not sure what to make of this one.,-1,80,20","It reminds me of a piece of lemon candy, which is one of my favorite flavors,20,300,20","Nearly white background gives a lack of context. Questionable skills,-45,220,20","Not a fan of the themes,-30,340,20","Confused as to what the artist is attempting to do.,-50,300,20","Danielle","Not a fan of the themes,-30,340,20","Shelby","This feels joyful,39,240,20","Kylie","It reminds me of a piece of lemon candy, which is one of my favorite flavors,20,300,20","6"
"45440","","survey-text","198","2654777","0.0-195.0-0.0","A3QZIWRRJWP1PK","","","","{""Q0"":""It feels like an idea that was lost halfway through its creation.""}","","","","","","","","","","","","","","","","","","","","","","",""
"3327.2999999523163","","image-slider-response","199","2658106","0.0-196.0","A3QZIWRRJWP1PK","","","","","-33","","","","","","","","","","","","","","","","","","","","","",""
"null","","image-button-response","200","2663118","0.0-197.0","A3QZIWRRJWP1PK","img_art/29.jpg","null","","","","","","","","","","","","","","","","","","","","","","","","",""
"146","","image-button-response","201","2663267","0.0-198.0","A3QZIWRRJWP1PK","img_art/29.jpg","1","","","","","","","","","","","","","","","","","","","","","","","","",""
"8296","","image-button-response","202","2671564","0.0-199.0-0.0","A3QZIWRRJWP1PK","img_art/29.jpg","5","","","","","","","","","","","","","","","","","","","","","","","","",""
"477","","image-button-response","203","2672043","0.0-200.0-0.0","A3QZIWRRJWP1PK","img_art/29.jpg","4","","","","","","","","","","","","","","","","","","","","","","","","",""
"null","","html-keyboard-response","204","2672556","0.0-201.0","A3QZIWRRJWP1PK","<p style=""font-size: 48px;"">+</p>","","","","","null","allTrialResponses","500","1","22","img_art/29.jpg","-33","It feels like an idea that was lost halfway through its creation.","Shelby,Caitlin,Kylie,Ashley,Danielle,Emma","Doesnt say much for me,0,240,20","I would give up and give it a red X too.,-5,80,20","Reminds me of graffitti gone wrong,15,300,20","It that an actual PAINTBUSH! Love it.,50,320,20","Quite ugly in my opinion,-30,340,20","Feels messy, stressful,-22,60,20","Caitlin","I would give up and give it a red X too.,-5,80,20","Emma","Feels messy, stressful,-22,60,20","Danielle","Quite ugly in my opinion,-30,340,20","6"
"63845","","survey-text","205","2736413","0.0-202.0-0.0","A3QZIWRRJWP1PK","","","","{""Q0"":""The black figure is almost avian, and it feels like it is looking down over a scene we can't see.""}","","","","","","","","","","","","","","","","","","","","","","",""
"4182.200000047684","","image-slider-response","206","2740597","0.0-203.0","A3QZIWRRJWP1PK","","","","","41","","","","","","","","","","","","","","","","","","","","","",""
"4370","","image-button-response","207","2745605","0.0-204.0","A3QZIWRRJWP1PK","img_art/6.jpg","2","","","","","","","","","","","","","","","","","","","","","","","","",""
"9241","","image-button-response","208","2754849","0.0-205.0","A3QZIWRRJWP1PK","img_art/6.jpg","0","","","","","","","","","","","","","","","","","","","","","","","","",""
"2880","","image-button-response","209","2757730","0.0-206.0-0.0","A3QZIWRRJWP1PK","img_art/6.jpg","5","","","","","","","","","","","","","","","","","","","","","","","","",""
"959","","image-button-response","210","2758691","0.0-207.0-0.0","A3QZIWRRJWP1PK","img_art/6.jpg","2","","","","","","","","","","","","","","","","","","","","","","","","",""
"null","","html-keyboard-response","211","2760204","0.0-208.0","A3QZIWRRJWP1PK","<p style=""font-size: 48px;"">+</p>","","","","","null","allTrialResponses","1500","1","23","img_art/6.jpg","41","The black figure is almost avian, and it feels like it is looking down over a scene we can't see.","Brooke,Caitlin,Elizabeth,Alexa,Danielle,Emma","Kind of neat, but then that's a weird looking bird. too weird.,0,60,20","A crow on one leg?,-10,80,20","Love the simplicity of it,41,20,20","Too basic for me,-20,40,20","Not a fan of anything in this,-43,340,20","Birds are cool but I don't love it,10,60,20","Brooke","Kind of neat, but then that's a weird looking bird. too weird.,0,60,20","Emma","Birds are cool but I don't love it,10,60,20","Elizabeth","Love the simplicity of it,41,20,20","6"
"85587","","survey-text","212","2845805","0.0-209.0-0.0","A3QZIWRRJWP1PK","","","","{""Q0"":""It feels as if the angular lines are attempting to reign in a chaotic mess.""}","","","","","","","","","","","","","","","","","","","","","","",""
"2663.600000023842","","image-slider-response","213","2848470","0.0-210.0","A3QZIWRRJWP1PK","","","","","-27","","","","","","","","","","","","","","","","","","","","","",""
"2279","","image-button-response","214","2853472","0.0-211.0","A3QZIWRRJWP1PK","img_art/18.jpg","1","","","","","","","","","","","","","","","","","","","","","","","","",""
"1675","","image-button-response","215","2855150","0.0-212.0","A3QZIWRRJWP1PK","img_art/18.jpg","4","","","","","","","","","","","","","","","","","","","","","","","","",""
"766","","image-button-response","216","2855918","0.0-213.0-0.0","A3QZIWRRJWP1PK","img_art/18.jpg","5","","","","","","","","","","","","","","","","","","","","","","","","",""
"1135","","image-button-response","217","2857055","0.0-214.0-0.0","A3QZIWRRJWP1PK","img_art/18.jpg","1","","","","","","","","","","","","","","","","","","","","","","","","",""
"null","","html-keyboard-response","218","2858066","0.0-215.0","A3QZIWRRJWP1PK","<p style=""font-size: 48px;"">+</p>","","","","","null","allTrialResponses","1000","1","24","img_art/18.jpg","-27","It feels as if the angular lines are attempting to reign in a chaotic mess.","Brooke,Cheyenne,Elizabeth,Cynthia,Taylor,Emma","Don't like the color scheme. Or the theme.,-5,60,20","Too abstract to me,-30,200,20","Nice abstract art,50,20,20","Imaginative, makes me feel creative.,42,320,20","Another ominous painting,-10,340,20","Vaguely creepy ........,-20,60,20","Taylor","Another ominous painting,-10,340,20","Emma","Vaguely creepy ........,-20,60,20","Cheyenne","Too abstract to me,-30,200,20","6"
"58027","","survey-text","219","2916108","0.0-216.0-0.0","A3QZIWRRJWP1PK","","","","{""Q0"":""It seems so hurried and frantic, like it is desperate to convey something it can't say.""}","","","","","","","","","","","","","","","","","","","","","","",""
"2662.600000023842","","image-slider-response","220","2918772","0.0-217.0","A3QZIWRRJWP1PK","","","","","10","","","","","","","","","","","","","","","","","","","","","",""
"4191","","image-button-response","221","2923788","0.0-218.0","A3QZIWRRJWP1PK","img_art/9.jpg","1","","","","","","","","","","","","","","","","","","","","","","","","",""
"1005","","image-button-response","222","2924797","0.0-219.0","A3QZIWRRJWP1PK","img_art/9.jpg","1","","","","","","","","","","","","","","","","","","","","","","","","",""
"8911","","image-button-response","223","2933710","0.0-220.0-0.0","A3QZIWRRJWP1PK","img_art/9.jpg","4","","","","","","","","","","","","","","","","","","","","","","","","",""
"2941","","image-button-response","224","2936654","0.0-221.0-0.0","A3QZIWRRJWP1PK","img_art/9.jpg","2","","","","","","","","","","","","","","","","","","","","","","","","",""
"null","","html-keyboard-response","225","2938162","0.0-222.0","A3QZIWRRJWP1PK","<p style=""font-size: 48px;"">+</p>","","","","","null","allTrialResponses","1500","1","25","img_art/9.jpg","10","It seems so hurried and frantic, like it is desperate to convey something it can't say.","Michaela,Cheyenne,Leah,Vanessa,Taylor,Emma","The colors remind me of peacocks,24,260,20","Too much going on, don't know what the focus is,-11,200,20","Depressing to me, like a dark dream,-11,360,20","It's too abstract for my taste. I wish there were more definition.,-9,380,20","The peacock theme gives me negative connotations of my ex-sister-in-law,-10,340,20","Feels angry .....,-40,60,20","Cheyenne","Too much going on, don't know what the focus is,-11,200,20","Taylor","The peacock theme gives me negative connotations of my ex-sister-in-law,-10,340,20","Leah","Depressing to me, like a dark dream,-11,360,20","6"
"5517","","survey-text","226","2943704","0.0-223.0-0.0","A3QZIWRRJWP1PK","","","","{""Q0"":""table""}","","","","","","","","","","","","","","","","","","","","","","",""
"42788","","survey-text","227","2986494","0.0-224.0-0.0","A3QZIWRRJWP1PK","","","","{""Q0"":""The lines seem to be dancing with one another, but I don't get much else from it.""}","","","","","","","","","","","","","","","","","","","","","","",""
"2750.399999976158","","image-slider-response","228","2989246","0.0-225.0","A3QZIWRRJWP1PK","","","","","-11","","","","","","","","","","","","","","","","","","","","","",""
"3895","","image-button-response","229","2994258","0.0-226.0","A3QZIWRRJWP1PK","img_art/30.jpg","0","","","","","","","","","","","","","","","","","","","","","","","","",""
"1418","","image-button-response","230","2995680","0.0-227.0","A3QZIWRRJWP1PK","img_art/30.jpg","0","","","","","","","","","","","","","","","","","","","","","","","","",""
"11391","","image-button-response","231","3007073","0.0-228.0-0.0","A3QZIWRRJWP1PK","img_art/30.jpg","2","","","","","","","","","","","","","","","","","","","","","","","","",""
"2967","","image-button-response","232","3010042","0.0-229.0-0.0","A3QZIWRRJWP1PK","img_art/30.jpg","5","","","","","","","","","","","","","","","","","","","","","","","","",""
"null","","html-keyboard-response","233","3011547","0.0-230.0","A3QZIWRRJWP1PK","<p style=""font-size: 48px;"">+</p>","","","","","null","allTrialResponses","1500","1","26","img_art/30.jpg","-11","The lines seem to be dancing with one another, but I don't get much else from it.","Erika,Cheyenne,Leah,Stephanie,Taylor,Jamie","I can't parse any intention or emotion,-17,100,20","A bit too dark for my liking,-10,200,20","Interesting, almost an underworld of plant life,11,360,20","My kindergarten class could do this,-50,300,20","It's a really interesting piece,20,340,20","Cool design and contrast of colors,30,320,20","Erika","I can't parse any intention or emotion,-17,100,20","Leah","Interesting, almost an underworld of plant life,11,360,20","Jamie","Cool design and contrast of colors,30,320,20","6"
"26513","","survey-text","234","3038076","0.0-231.0-0.0","A3QZIWRRJWP1PK","","","","{""Q0"":""It feels messy, dismissive, and strangely violent.""}","","","","","","","","","","","","","","","","","","","","","","",""
"2558.399999976158","","image-slider-response","235","3040636","0.0-232.0","A3QZIWRRJWP1PK","","","","","-21","","","","","","","","","","","","","","","","","","","","","",""
"null","","image-button-response","236","3045643","0.0-233.0","A3QZIWRRJWP1PK","img_art/3.jpg","null","","","","","","","","","","","","","","","","","","","","","","","","",""
"4439","","image-button-response","237","3050085","0.0-234.0","A3QZIWRRJWP1PK","img_art/3.jpg","3","","","","","","","","","","","","","","","","","","","","","","","","",""
"4024","","image-button-response","238","3054110","0.0-235.0-0.0","A3QZIWRRJWP1PK","img_art/3.jpg","1","","","","","","","","","","","","","","","","","","","","","","","","",""
"2047","","image-button-response","239","3056158","0.0-236.0-0.0","A3QZIWRRJWP1PK","img_art/3.jpg","0","","","","","","","","","","","","","","","","","","","","","","","","",""
"null","","html-keyboard-response","240","3057671","0.0-237.0","A3QZIWRRJWP1PK","<p style=""font-size: 48px;"">+</p>","","","","","null","allTrialResponses","1500","1","27","img_art/3.jpg","-21","It feels messy, dismissive, and strangely violent.","Erika,Madison,Leah,Kelly,Mikayla,Jamie","Unaure what the artist  was doing, needs context,11,100,20","This doesn't grab me. Perhaps the red is meant to be provocative; I find it gimmicky.,-9,60,20","Scratchy scrawly all one color, looks like a mistake,-28,360,20","Reminds me of blood.,-28,220,20","Scary. Looks like blood.,-45,300,20","Looks like somebody squirted ketchup everywhere,-40,320,20","Kelly","Reminds me of blood.,-28,220,20","Madison","This doesn't grab me. Perhaps the red is meant to be provocative; I find it gimmicky.,-9,60,20","Erika","Unaure what the artist  was doing, needs context,11,100,20","6"
"75071","","survey-text","241","3132756","0.0-238.0-0.0","A3QZIWRRJWP1PK","","","","{""Q0"":""Feels like an etching that didn't quite go right. Compellingly industrial.""}","","","","","","","","","","","","","","","","","","","","","","",""
"3175.5","","image-slider-response","242","3135933","0.0-239.0","A3QZIWRRJWP1PK","","","","","17","","","","","","","","","","","","","","","","","","","","","",""
"null","","image-button-response","243","3140942","0.0-240.0","A3QZIWRRJWP1PK","img_art/10.jpg","null","","","","","","","","","","","","","","","","","","","","","","","","",""
"2469","","image-button-response","244","3143413","0.0-241.0","A3QZIWRRJWP1PK","img_art/10.jpg","3","","","","","","","","","","","","","","","","","","","","","","","","",""
"1944","","image-button-response","245","3145358","0.0-242.0-0.0","A3QZIWRRJWP1PK","img_art/10.jpg","0","","","","","","","","","","","","","","","","","","","","","","","","",""
"3791","","image-button-response","246","3149150","0.0-243.0-0.0","A3QZIWRRJWP1PK","img_art/10.jpg","1","","","","","","","","","","","","","","","","","","","","","","","","",""
"null","","html-keyboard-response","247","3149652","0.0-244.0","A3QZIWRRJWP1PK","<p style=""font-size: 48px;"">+</p>","","","","","null","allTrialResponses","500","1","28","img_art/10.jpg","17","Feels like an etching that didn't quite go right. Compellingly industrial.","Erika,Madison,Alyssa,Kelly,Savannah,Makayla","Good texture, expressive,18,100,20","In proper lighting I might enjoy this,11,60,20","Bleak and uninteresting,-10,160,20","I cant tell what this is supposed to be, but I enjoy the simplicity of it.,28,220,20","This is a scribble of a mad man. Appears low effort.,-33,200,20","I don't hate but don't like it because it looks like a oil slick,2,80,20","Kelly","I cant tell what this is supposed to be, but I enjoy the simplicity of it.,28,220,20","Erika","Good texture, expressive,18,100,20","Madison","In proper lighting I might enjoy this,11,60,20","6"
"46323","","survey-text","248","3195990","0.0-245.0-0.0","A3QZIWRRJWP1PK","","","","{""Q0"":""Looks like a field of grain below a city, all of it floating on a cloud bank at sunset.""}","","","","","","","","","","","","","","","","","","","","","","",""
"3360.7999999523163","","image-slider-response","249","3199352","0.0-246.0","A3QZIWRRJWP1PK","","","","","7","","","","","","","","","","","","","","","","","","","","","",""
"null","","image-button-response","250","3204367","0.0-247.0","A3QZIWRRJWP1PK","img_art/27.jpg","null","","","","","","","","","","","","","","","","","","","","","","","","",""
"6046","","image-button-response","251","3210416","0.0-248.0","A3QZIWRRJWP1PK","img_art/27.jpg","0","","","","","","","","","","","","","","","","","","","","","","","","",""
"6805","","image-button-response","252","3217222","0.0-249.0-0.0","A3QZIWRRJWP1PK","img_art/27.jpg","5","","","","","","","","","","","","","","","","","","","","","","","","",""
"2871","","image-button-response","253","3220094","0.0-250.0-0.0","A3QZIWRRJWP1PK","img_art/27.jpg","3","","","","","","","","","","","","","","","","","","","","","","","","",""
"null","","html-keyboard-response","254","3221115","0.0-251.0","A3QZIWRRJWP1PK","<p style=""font-size: 48px;"">+</p>","","","","","null","allTrialResponses","1000","1","29","img_art/27.jpg","7","Looks like a field of grain below a city, all of it floating on a cloud bank at sunset.","Erika,Madison,Sabrina,Kelly,Shannon,Brianna","Nice color, but too vague,-12,100,20","The photographing is horribly distracting. I would feel more favorable toward the original colors/ brightness,1,60,20","Love the representation of home,22,120,20","The green stick drawings or whatever they are ruin it for me.,-23,220,20","This image could do a better job of showing what is going on and it could use more colors.,-42,220,20","This painting is very unique,21,20,20","Erika","Nice color, but too vague,-12,100,20","Brianna","This painting is very unique,21,20,20","Kelly","The green stick drawings or whatever they are ruin it for me.,-23,220,20","6"
"54190","","survey-text","255","3275322","0.0-252.0-0.0","A3QZIWRRJWP1PK","","","","{""Q0"":""It is so industrial and urban. I like the blips of color and the relief they give.""}","","","","","","","","","","","","","","","","","","","","","","",""
"2543.399999976158","","image-slider-response","256","3277867","0.0-253.0","A3QZIWRRJWP1PK","","","","","33","","","","","","","","","","","","","","","","","","","","","",""
"4229","","image-button-response","257","3282883","0.0-254.0","A3QZIWRRJWP1PK","img_art/11.jpg","0","","","","","","","","","","","","","","","","","","","","","","","","",""
"683","","image-button-response","258","3283569","0.0-255.0","A3QZIWRRJWP1PK","img_art/11.jpg","0","","","","","","","","","","","","","","","","","","","","","","","","",""
"5288","","image-button-response","259","3288859","0.0-256.0-0.0","A3QZIWRRJWP1PK","img_art/11.jpg","4","","","","","","","","","","","","","","","","","","","","","","","","",""
"1765","","image-button-response","260","3290626","0.0-257.0-0.0","A3QZIWRRJWP1PK","img_art/11.jpg","2","","","","","","","","","","","","","","","","","","","","","","","","",""
"null","","html-keyboard-response","261","3292131","0.0-258.0","A3QZIWRRJWP1PK","<p style=""font-size: 48px;"">+</p>","","","","","null","allTrialResponses","1500","1","30","img_art/11.jpg","33","It is so industrial and urban. I like the blips of color and the relief they give.","Erika,Allison,Anna,Kelly,Caroline,Brianna","I want to know which skyline the artist is depicting,26,100,20","Kind of reminds me of DNA.,9,140,20","It makes me think of a coastal sea town.,50,300,20","Its a little psychedelic.,10,220,20","Makes me think of far away places and traveling. Makes me feel like wandering,20,100,20","I like dark colors.,31,20,20","Erika","I want to know which skyline the artist is depicting,26,100,20","Caroline","Makes me think of far away places and traveling. Makes me feel like wandering,20,100,20","Anna","It makes me think of a coastal sea town.,50,300,20","6"
"4984","","image-button-response_instructions","262","3297124","0.0-259.0","A3QZIWRRJWP1PK","","0","instructions","","","","","","","","","","","","","","","","","","","","","","","",""
"1458","","image-button-response","263","3298588","0.0-260.0","A3QZIWRRJWP1PK","","0","","","","","","","","","","","","","","","","","","","","","","","","",""
