"rt","url","trial_type","trial_index","time_elapsed","internal_node_id","participant_id","stimulus","button_pressed","Name","responses","response","key_press","variableName","fixationTime","condition","trial","photo","subjectRating","subjectResponse","agentsNames","agent_1_Response","agent_2_Response","agent_3_Response","agent_4_Response","agent_5_Response","agent_6_Response","kept_1_name","kept_1_response","kept_2_name","kept_2_response","kept_3_name","kept_3_response","errorCounter"
"19014","external_page_harvard.html","external-html","0","19152","0.0-0.0","A3R6UEMK36XGA7","","","","","","","","","","","","","","","","","","","","","","","","","","",""
"1587","","image-button-response","1","20741","0.0-1.0","A3R6UEMK36XGA7","","1","","","","","","","","","","","","","","","","","","","","","","","","",""
"1561","","image-button-response","2","22307","0.0-2.0-0.0","A3R6UEMK36XGA7","","1","phone","","","","","","","","","","","","","","","","","","","","","","","",""
"9776","","survey-text","3","32085","0.0-3.0-0.0","A3R6UEMK36XGA7","","","","{""Q0"":""A3R6UEMK36XGA7""}","","","","","","","","","","","","","","","","","","","","","","",""
"14344","","image-button-response_instructions","4","46432","0.0-4.0","A3R6UEMK36XGA7","","0","instructions","","","","","","","","","","","","","","","","","","","","","","","",""
"13512","","image-button-response_instructions","5","59946","0.0-5.0","A3R6UEMK36XGA7","img_art/ins/popularity/ins1.png","0","instructions","","","","","","","","","","","","","","","","","","","","","","","",""
"7568","","image-button-response_instructions","6","67514","0.0-6.0","A3R6UEMK36XGA7","img_art/ins/popularity/ins2.png","0","instructions","","","","","","","","","","","","","","","","","","","","","","","",""
"9415","","image-button-response_instructions","7","76932","0.0-7.0","A3R6UEMK36XGA7","img_art/ins/popularity/ins2Extreme.png","0","instructions","","","","","","","","","","","","","","","","","","","","","","","",""
"12384","","image-button-response_instructions","8","89317","0.0-8.0","A3R6UEMK36XGA7","img_art/ins/popularity/ins3KEEPpop.PNG","0","instructions","","","","","","","","","","","","","","","","","","","","","","","",""
"4144","","image-button-response_instructions","9","93462","0.0-9.0","A3R6UEMK36XGA7","img_art/ins/popularity/ins3ANamepop.PNG","0","instructions","","","","","","","","","","","","","","","","","","","","","","","",""
"3183","","image-button-response_instructions","10","96646","0.0-10.0","A3R6UEMK36XGA7","img_art/ins/popularity/ins3ARatingpop.png","0","instructions","","","","","","","","","","","","","","","","","","","","","","","",""
"2471","","image-button-response_instructions","11","99118","0.0-11.0","A3R6UEMK36XGA7","img_art/ins/popularity/ins3ATextpop.png","0","instructions","","","","","","","","","","","","","","","","","","","","","","","",""
"6913","","image-button-response_instructions","12","106033","0.0-12.0","A3R6UEMK36XGA7","img_art/ins/popularity/ins3ALikespop.png","0","instructions","","","","","","","","","","","","","","","","","","","","","","","",""
"18696","","image-button-response_instructions","13","124730","0.0-13.0","A3R6UEMK36XGA7","img_art/ins/popularity/ins3KEEPpop.PNG","0","instructions","","","","","","","","","","","","","","","","","","","","","","","",""
"10112","","image-button-response_instructions","14","134843","0.0-14.0","A3R6UEMK36XGA7","img_art/ins/popularity/ins3_5RED.png","0","instructions","","","","","","","","","","","","","","","","","","","","","","","",""
"5928","","image-button-response_instructions","15","140772","0.0-15.0","A3R6UEMK36XGA7","img_art/ins/popularity/ins3KEEPpop.PNG","0","instructions","","","","","","","","","","","","","","","","","","","","","","","",""
"17368","","image-button-response_instructions","16","158142","0.0-16.0","A3R6UEMK36XGA7","img_art/ins/popularity/ins4KEEPpop.PNG","0","instructions","","","","","","","","","","","","","","","","","","","","","","","",""
"5472","","image-button-response_instructions","17","163616","0.0-17.0","A3R6UEMK36XGA7","img_art/ins/popularity/ins5KEEPpop.PNG","0","instructions","","","","","","","","","","","","","","","","","","","","","","","",""
"3606","","image-button-response_instructions","18","167223","0.0-18.0","A3R6UEMK36XGA7","","0","instructions","","","","","","","","","","","","","","","","","","","","","","","",""
"8029","","survey-text","19","175273","0.0-19.0-0.0","A3R6UEMK36XGA7","","","","{""Q0"":""but""}","","","","","","","","","","","","","","","","","","","","","","",""
"17567","","survey-text","20","192843","0.0-20.0-0.0","A3R6UEMK36XGA7","","","","{""Q0"":""confused by what this is supposed to be""}","","","","","","","","","","","","","","","","","","","","","","",""
"3782.0999999996275","","image-slider-response","21","196627","0.0-21.0","A3R6UEMK36XGA7","","","","","-14","","","","","","","","","","","","","","","","","","","","","",""
"null","","image-button-response","22","201631","0.0-22.0","A3R6UEMK36XGA7","img_art/ins/1.jpg","null","","","","","","","","","","","","","","","","","","","","","","","","",""
"2452","","image-button-response","23","204084","0.0-23.0","A3R6UEMK36XGA7","img_art/ins/1.jpg","0","","","","","","","","","","","","","","","","","","","","","","","","",""
"6790","","image-button-response","24","210877","0.0-24.0-0.0","A3R6UEMK36XGA7","img_art/ins/1.jpg","3","","","","","","","","","","","","","","","","","","","","","","","","",""
"4359","","image-button-response","25","215239","0.0-25.0-0.0","A3R6UEMK36XGA7","img_art/ins/1.jpg","2","","","","","","","","","","","","","","","","","","","","","","","","",""
"null","","html-keyboard-response","26","216749","0.0-26.0","A3R6UEMK36XGA7","<p style=""font-size: 48px;"">+</p>","","","","","null","allTrialResponses","1500","1","-2","img_art/ins/1.jpg","-14","confused by what this is supposed to be","Allison,Ashley,Beth,Dora,Erika,Jen","looks like a lot of things going on in the mist,20,20,20","I just don't get why these type of art would be popular,-32,40,20","This color reminds me of poo,-46,60,20","looks like what my niece in 3rd grade did this afternoon,-50,80,20","I like the sophisticated brushwork,40,100,20","It reminds me of a candy land dream I had,36,120,20","Allison","looks like a lot of things going on in the mist,20,20,20","Dora","looks like what my niece in 3rd grade did this afternoon,-50,80,20","Beth","This color reminds me of poo,-46,60,20","0"
"9870","","survey-text","27","226626","0.0-27.0-0.0","A3R6UEMK36XGA7","","","","{""Q0"":""I like the use of colors""}","","","","","","","","","","","","","","","","","","","","","","",""
"12000.299999998882","","image-slider-response","28","238628","0.0-28.0","A3R6UEMK36XGA7","","","","","31","","","","","","","","","","","","","","","","","","","","","",""
"null","","image-button-response","29","243631","0.0-29.0","A3R6UEMK36XGA7","img_art/ins/2.jpg","null","","","","","","","","","","","","","","","","","","","","","","","","",""
"708","","image-button-response","30","244341","0.0-30.0","A3R6UEMK36XGA7","img_art/ins/2.jpg","4","","","","","","","","","","","","","","","","","","","","","","","","",""
"4893","","image-button-response","31","249237","0.0-31.0-0.0","A3R6UEMK36XGA7","img_art/ins/2.jpg","0","","","","","","","","","","","","","","","","","","","","","","","","",""
"4728","","image-button-response","32","253967","0.0-32.0-0.0","A3R6UEMK36XGA7","img_art/ins/2.jpg","5","","","","","","","","","","","","","","","","","","","","","","","","",""
"null","","html-keyboard-response","33","254968","0.0-33.0","A3R6UEMK36XGA7","<p style=""font-size: 48px;"">+</p>","","","","","null","allTrialResponses","1000","1","-1","img_art/ins/2.jpg","31","I like the use of colors","Allison,Jenna,Beth,Dora,Kara,Katie","I don't have strong feelings about this,10,20,20","One of my pet peevs,-48,140,20","meaningless painting,-45,60,20","looks too angry,-50,80,20","I like the blocks of color arrangements,30,160,20","too much color!,-28,180,20","Kara","I like the blocks of color arrangements,30,160,20","Allison","I don't have strong feelings about this,10,20,20","Katie","too much color!,-28,180,20","0"
"18321","","survey-text","34","273296","0.0-34.0-0.0","A3R6UEMK36XGA7","","","","{""Q0"":""This looks like someone got mad with paint""}","","","","","","","","","","","","","","","","","","","","","","",""
"4359.4000000003725","","image-slider-response","35","277662","0.0-35.0","A3R6UEMK36XGA7","","","","","-34","","","","","","","","","","","","","","","","","","","","","",""
"3102","","image-button-response","36","282666","0.0-36.0","A3R6UEMK36XGA7","img_art/ins/3.jpg","2","","","","","","","","","","","","","","","","","","","","","","","","",""
"2330","","image-button-response","37","284998","0.0-37.0","A3R6UEMK36XGA7","img_art/ins/3.jpg","3","","","","","","","","","","","","","","","","","","","","","","","","",""
"2302","","image-button-response","38","287303","0.0-38.0-0.0","A3R6UEMK36XGA7","img_art/ins/3.jpg","5","","","","","","","","","","","","","","","","","","","","","","","","",""
"4734","","image-button-response","39","292040","0.0-39.0-0.0","A3R6UEMK36XGA7","img_art/ins/3.jpg","2","","","","","","","","","","","","","","","","","","","","","","","","",""
"null","","html-keyboard-response","40","293556","0.0-40.0","A3R6UEMK36XGA7","<p style=""font-size: 48px;"">+</p>","","","","","null","allTrialResponses","1500","1","0","img_art/ins/3.jpg","-34","This looks like someone got mad with paint","Allison,Mary,Rose,Leslie,Kara,Katie","enjoy the different shades of blue,22,20,20","I like the overlapping of brushes,41,220,20","My daily routine, it's depressing,-20,240,20","It's an alright work,15,200,20","calming blue is very nice,36,160,20","It looks depressing,-26,180,20","Leslie","It's an alright work,15,200,20","Katie","It looks depressing,-26,180,20","Rose","My daily routine, it's depressing,-20,240,20","0"
"8646","","image-button-response_instructions","41","302209","0.0-41.0","A3R6UEMK36XGA7","","0","instructions","","","","","","","","","","","","","","","","","","","","","","","",""
"12351","","survey-likert","42","314563","0.0-42.0-0.0","A3R6UEMK36XGA7","","","","{""Q0"":"""",""Q1"":0,""Q2"":1}","","","","","","","","","","","","","","","","","","","","","","",""
"4434","","survey-text","43","319003","0.0-43.0-0.0","A3R6UEMK36XGA7","","","","{""Q0"":""rock""}","","","","","","","","","","","","","","","","","","","","","","",""
"17201","","survey-text","44","336205","0.0-44.0-0.0","A3R6UEMK36XGA7","","","","{""Q0"":""This is actually pretty beautiful""}","","","","","","","","","","","","","","","","","","","","","","",""
"6286.9000000003725","","image-slider-response","45","342494","0.0-45.0","A3R6UEMK36XGA7","","","","","40","","","","","","","","","","","","","","","","","","","","","",""
"3816","","image-button-response","46","347522","0.0-46.0","A3R6UEMK36XGA7","img_art/24.jpg","0","","","","","","","","","","","","","","","","","","","","","","","","",""
"5226","","image-button-response","47","352751","0.0-47.0","A3R6UEMK36XGA7","img_art/24.jpg","1","","","","","","","","","","","","","","","","","","","","","","","","",""
"1543","","image-button-response","48","354297","0.0-48.0-0.0","A3R6UEMK36XGA7","img_art/24.jpg","2","","","","","","","","","","","","","","","","","","","","","","","","",""
"4989","","image-button-response","49","359288","0.0-49.0-0.0","A3R6UEMK36XGA7","img_art/24.jpg","4","","","","","","","","","","","","","","","","","","","","","","","","",""
"null","","html-keyboard-response","50","360306","0.0-50.0","A3R6UEMK36XGA7","<p style=""font-size: 48px;"">+</p>","","","","","null","allTrialResponses","1000","1","1","img_art/24.jpg","40","This is actually pretty beautiful","Destiny,Kaitlyn,Catherine,Erin,Megan,Amy","brick wall waterfall girl you think you got it all,50,360,20","I like the bright colors,16,80,20","Nature, Peace, connected.,50,160,20","Too literal, not abstract,-29,120,20","Classic palette lacks real world 3d construction,19,200,20","The contorted angles of the flowing water upset the harmony,-20,220,20","Kaitlyn","I like the bright colors,16,80,20","Catherine","Nature, Peace, connected.,50,160,20","Megan","Classic palette lacks real world 3d construction,19,200,20","0"
"15459","","survey-text","51","375770","0.0-51.0-0.0","A3R6UEMK36XGA7","","","","{""Q0"":""I'm confused as to what I am looking at here""}","","","","","","","","","","","","","","","","","","","","","","",""
"3951.199999999255","","image-slider-response","52","379723","0.0-52.0","A3R6UEMK36XGA7","","","","","-47","","","","","","","","","","","","","","","","","","","","","",""
"null","","image-button-response","53","384726","0.0-53.0","A3R6UEMK36XGA7","img_art/5.jpg","null","","","","","","","","","","","","","","","","","","","","","","","","",""
"468","","image-button-response","54","385196","0.0-54.0","A3R6UEMK36XGA7","img_art/5.jpg","4","","","","","","","","","","","","","","","","","","","","","","","","",""
"1390","","image-button-response","55","386588","0.0-55.0-0.0","A3R6UEMK36XGA7","img_art/5.jpg","3","","","","","","","","","","","","","","","","","","","","","","","","",""
"3014","","image-button-response","56","389604","0.0-56.0-0.0","A3R6UEMK36XGA7","img_art/5.jpg","5","","","","","","","","","","","","","","","","","","","","","","","","",""
"null","","html-keyboard-response","57","390105","0.0-57.0","A3R6UEMK36XGA7","<p style=""font-size: 48px;"">+</p>","","","","","null","allTrialResponses","500","1","2","img_art/5.jpg","-47","I'm confused as to what I am looking at here","Andrea,Kaitlyn,Catherine,Molly,Megan,Gabriela","Perfume bottle, reminds of fancy nights out.,11,240,20","Wish the background had been kept clean; distracts from main object,11,80,20","Building remnants in the sand.,1,160,20","Very non-dynamic painting, dislike it.,-10,340,20","Cop out, easy money for artist for a 4 min piece,-29,200,20","I am confused as to what this is supposed to be,6,140,20","Megan","Cop out, easy money for artist for a 4 min piece,-29,200,20","Molly","Very non-dynamic painting, dislike it.,-10,340,20","Gabriela","I am confused as to what this is supposed to be,6,140,20","0"
"9376","","survey-text","58","399486","0.0-58.0-0.0","A3R6UEMK36XGA7","","","","{""Q0"":""Needs more colors""}","","","","","","","","","","","","","","","","","","","","","","",""
"3422.0999999996275","","image-slider-response","59","402910","0.0-59.0","A3R6UEMK36XGA7","","","","","-27","","","","","","","","","","","","","","","","","","","","","",""
"2143","","image-button-response","60","407914","0.0-60.0","A3R6UEMK36XGA7","img_art/6.jpg","3","","","","","","","","","","","","","","","","","","","","","","","","",""
"866","","image-button-response","61","408782","0.0-61.0","A3R6UEMK36XGA7","img_art/6.jpg","5","","","","","","","","","","","","","","","","","","","","","","","","",""
"615","","image-button-response","62","409398","0.0-62.0-0.0","A3R6UEMK36XGA7","img_art/6.jpg","3","","","","","","","","","","","","","","","","","","","","","","","","",""
"382","","image-button-response","63","409783","0.0-63.0-0.0","A3R6UEMK36XGA7","img_art/6.jpg","4","","","","","","","","","","","","","","","","","","","","","","","","",""
"null","","html-keyboard-response","64","410785","0.0-64.0","A3R6UEMK36XGA7","<p style=""font-size: 48px;"">+</p>","","","","","null","allTrialResponses","1000","1","3","img_art/6.jpg","-27","Needs more colors","Elizabeth,Natalie,Victoria,Molly,Megan,Gabriela","Love the simplicity of it,41,20,20","reminds me a giant peach,19,400,20","makes me think of nature,30,400,20","Nothing special.,-20,340,20","Odd desert, nice sand color with headless bird,11,200,20","This looks like a crow, sort of bleak,-26,140,20","Gabriela","This looks like a crow, sort of bleak,-26,140,20","Molly","Nothing special.,-20,340,20","Megan","Odd desert, nice sand color with headless bird,11,200,20","0"
"41407","","survey-text","65","452196","0.0-65.0-0.0","A3R6UEMK36XGA7","","","","{""Q0"":""This is not are to me. It looks like a 1st grader scribbled""}","","","","","","","","","","","","","","","","","","","","","","",""
"2830.5","","image-slider-response","66","455029","0.0-66.0","A3R6UEMK36XGA7","","","","","-50","","","","","","","","","","","","","","","","","","","","","",""
"3503","","image-button-response","67","460032","0.0-67.0","A3R6UEMK36XGA7","img_art/3.jpg","0","","","","","","","","","","","","","","","","","","","","","","","","",""
"2268","","image-button-response","68","462302","0.0-68.0","A3R6UEMK36XGA7","img_art/3.jpg","4","","","","","","","","","","","","","","","","","","","","","","","","",""
"1934","","image-button-response","69","464238","0.0-69.0-0.0","A3R6UEMK36XGA7","img_art/3.jpg","5","","","","","","","","","","","","","","","","","","","","","","","","",""
"1093","","image-button-response","70","465334","0.0-70.0-0.0","A3R6UEMK36XGA7","img_art/3.jpg","0","","","","","","","","","","","","","","","","","","","","","","","","",""
"null","","html-keyboard-response","71","465837","0.0-71.0","A3R6UEMK36XGA7","<p style=""font-size: 48px;"">+</p>","","","","","null","allTrialResponses","500","1","4","img_art/3.jpg","-50","This is not are to me. It looks like a 1st grader scribbled","Jamie,Anna,Kristen,Molly,Megan,Gabriela","Looks like somebody squirted ketchup everywhere,-40,320,20","Definition of mediocre abstract art,-12,300,20","anger, blood, death,-24,280,20","Mysterious, remarkable.,30,340,20","5 min scribble by a 3 year old,-46,200,20","It looks like a child drawing,-29,140,20","Megan","5 min scribble by a 3 year old,-46,200,20","Gabriela","It looks like a child drawing,-29,140,20","Jamie","Looks like somebody squirted ketchup everywhere,-40,320,20","0"
"25287","","survey-text","72","491130","0.0-72.0-0.0","A3R6UEMK36XGA7","","","","{""Q0"":""Interesting elements in this one""}","","","","","","","","","","","","","","","","","","","","","","",""
"3558.5999999996275","","image-slider-response","73","494690","0.0-73.0","A3R6UEMK36XGA7","","","","","41","","","","","","","","","","","","","","","","","","","","","",""
"null","","image-button-response","74","499702","0.0-74.0","A3R6UEMK36XGA7","img_art/10.jpg","null","","","","","","","","","","","","","","","","","","","","","","","","",""
"1379","","image-button-response","75","501083","0.0-75.0","A3R6UEMK36XGA7","img_art/10.jpg","4","","","","","","","","","","","","","","","","","","","","","","","","",""
"5215","","image-button-response","76","506299","0.0-76.0-0.0","A3R6UEMK36XGA7","img_art/10.jpg","0","","","","","","","","","","","","","","","","","","","","","","","","",""
"7023","","image-button-response","77","513325","0.0-77.0-0.0","A3R6UEMK36XGA7","img_art/10.jpg","3","","","","","","","","","","","","","","","","","","","","","","","","",""
"null","","html-keyboard-response","78","514334","0.0-78.0","A3R6UEMK36XGA7","<p style=""font-size: 48px;"">+</p>","","","","","null","allTrialResponses","1000","1","5","img_art/10.jpg","41","Interesting elements in this one","Jamie,Christina,Julia,Lindsey,Megan,Gabriela","Well done designs for being considered abstract,45,320,20","It's very dark and angry looking,-31,240,20","this is a good painting, but feels musical in a way that I don't connect with.,-14,40,20","Looks like a violin. Not a fan of the smudges and smears, but my initial reaction was positive.,11,400,20","Music visualized with subtle color,17,200,20","It looks like a sea monster overtaking a ship,21,140,20","Megan","Music visualized with subtle color,17,200,20","Jamie","Well done designs for being considered abstract,45,320,20","Lindsey","Looks like a violin. Not a fan of the smudges and smears, but my initial reaction was positive.,11,400,20","0"
"3520","","survey-text","79","517869","0.0-79.0-0.0","A3R6UEMK36XGA7","","","","{""Q0"":""sky""}","","","","","","","","","","","","","","","","","","","","","","",""
"38203","","survey-text","80","556073","0.0-80.0-0.0","A3R6UEMK36XGA7","","","","{""Q0"":""I like it, but I am trying to figure out what the artist is trying to portray""}","","","","","","","","","","","","","","","","","","","","","","",""
"2999","","image-slider-response","81","559074","0.0-81.0","A3R6UEMK36XGA7","","","","","42","","","","","","","","","","","","","","","","","","","","","",""
"2446","","image-button-response","82","564086","0.0-82.0","A3R6UEMK36XGA7","img_art/11.jpg","5","","","","","","","","","","","","","","","","","","","","","","","","",""
"730","","image-button-response","83","564819","0.0-83.0","A3R6UEMK36XGA7","img_art/11.jpg","5","","","","","","","","","","","","","","","","","","","","","","","","",""
"2743","","image-button-response","84","567564","0.0-84.0-0.0","A3R6UEMK36XGA7","img_art/11.jpg","2","","","","","","","","","","","","","","","","","","","","","","","","",""
"2894","","image-button-response","85","570460","0.0-85.0-0.0","A3R6UEMK36XGA7","img_art/11.jpg","0","","","","","","","","","","","","","","","","","","","","","","","","",""
"null","","html-keyboard-response","86","571476","0.0-86.0","A3R6UEMK36XGA7","<p style=""font-size: 48px;"">+</p>","","","","","null","allTrialResponses","1000","1","6","img_art/11.jpg","42","I like it, but I am trying to figure out what the artist is trying to portray","Jamie,Dominique,Vanessa,Lindsey,Megan,Cassidy","Looks like a cityscape,25,320,20","Looks like a familiar area,31,400,20","It makes me think of a rainy day and I like the colors. Also like the wavy lines.,22,380,20","Not a fan of the colors but it looks interesting.,-31,400,20","Some interesting color but scratchy train mess.,-14,200,20","Love the colors against the black and gray. The lines are calming.,22,140,20","Cassidy","Love the colors against the black and gray. The lines are calming.,22,140,20","Vanessa","It makes me think of a rainy day and I like the colors. Also like the wavy lines.,22,380,20","Jamie","Looks like a cityscape,25,320,20","0"
"39870","","survey-text","87","611353","0.0-87.0-0.0","A3R6UEMK36XGA7","","","","{""Q0"":""Reminds me of the \""Gods\"" watching over a city. ""}","","","","","","","","","","","","","","","","","","","","","","",""
"4262.5","","image-slider-response","88","615618","0.0-88.0","A3R6UEMK36XGA7","","","","","35","","","","","","","","","","","","","","","","","","","","","",""
"3622","","image-button-response","89","620621","0.0-89.0","A3R6UEMK36XGA7","img_art/8.jpg","3","","","","","","","","","","","","","","","","","","","","","","","","",""
"164","","image-button-response","90","620786","0.0-90.0","A3R6UEMK36XGA7","img_art/8.jpg","3","","","","","","","","","","","","","","","","","","","","","","","","",""
"2136","","image-button-response","91","622923","0.0-91.0-0.0","A3R6UEMK36XGA7","img_art/8.jpg","0","","","","","","","","","","","","","","","","","","","","","","","","",""
"709","","image-button-response","92","623635","0.0-92.0-0.0","A3R6UEMK36XGA7","img_art/8.jpg","1","","","","","","","","","","","","","","","","","","","","","","","","",""
"null","","html-keyboard-response","93","625150","0.0-93.0","A3R6UEMK36XGA7","<p style=""font-size: 48px;"">+</p>","","","","","null","allTrialResponses","1500","1","7","img_art/8.jpg","35","Reminds me of the ""Gods"" watching over a city. ","Jamie,Emma,Vanessa,Jordan,Kimberly,Cassidy","Cool designs and color schemes,44,320,20","Love the colors & block-style,50,60,20","I don't like the negative emotion this picture makes me feel. It's also too abstract.,-30,380,20","very nice, i love what's going on here,21,20,20","Feels very 90's but I like the doorway,15,260,20","I like the colors,10,140,20","Jordan","very nice, i love what's going on here,21,20,20","Jamie","Cool designs and color schemes,44,320,20","Emma","Love the colors & block-style,50,60,20","0"
"22625","","survey-text","94","647780","0.0-94.0-0.0","A3R6UEMK36XGA7","","","","{""Q0"":""I don't know what I'm looking at here, but I like it""}","","","","","","","","","","","","","","","","","","","","","","",""
"3431.0999999996275","","image-slider-response","95","651213","0.0-95.0","A3R6UEMK36XGA7","","","","","43","","","","","","","","","","","","","","","","","","","","","",""
"1927","","image-button-response","96","656216","0.0-96.0","A3R6UEMK36XGA7","img_art/13.jpg","0","","","","","","","","","","","","","","","","","","","","","","","","",""
"565","","image-button-response","97","656782","0.0-97.0","A3R6UEMK36XGA7","img_art/13.jpg","0","","","","","","","","","","","","","","","","","","","","","","","","",""
"3255","","image-button-response","98","660039","0.0-98.0-0.0","A3R6UEMK36XGA7","img_art/13.jpg","1","","","","","","","","","","","","","","","","","","","","","","","","",""
"1078","","image-button-response","99","661119","0.0-99.0-0.0","A3R6UEMK36XGA7","img_art/13.jpg","0","","","","","","","","","","","","","","","","","","","","","","","","",""
"2855","","image-button-response","100","667632","0.0-99.1-0.1","A3R6UEMK36XGA7","img_art/13.jpg","5","","","","","","","","","","","","","","","","","","","","","","","","",""
"null","","html-keyboard-response","101","668636","0.0-100.0","A3R6UEMK36XGA7","<p style=""font-size: 48px;"">+</p>","","","","","null","allTrialResponses","1000","1","8","img_art/13.jpg","43","I don't know what I'm looking at here, but I like it","Jamie,Emma,Danielle,Jordan,Angela,Mikayla","Cool colors and looks like rain on a window,45,320,20","It's pretty ...........,41,60,20","While it is a bit basic and doesn't speak to me much, I like the feeling it gives,40,340,20","It's just paint splatter, no real meaning to me,-50,20,20","It's okay. Feels like a blander take on a Jackson Pollack,11,260,20","My favorite!,47,300,20","Jamie","Cool colors and looks like rain on a window,45,320,20","Emma","It's pretty ...........,41,60,20","Mikayla","My favorite!,47,300,20","2"
"40860","","survey-text","102","709502","0.0-101.0-0.0","A3R6UEMK36XGA7","","","","{""Q0"":""This has a retro feel to it. Very 80's. I grew up then and it looks like something my mom would hang on our wall""}","","","","","","","","","","","","","","","","","","","","","","",""
"4383.199999999255","","image-slider-response","103","713887","0.0-102.0","A3R6UEMK36XGA7","","","","","16","","","","","","","","","","","","","","","","","","","","","",""
"2398","","image-button-response","104","718900","0.0-103.0","A3R6UEMK36XGA7","img_art/12.jpg","0","","","","","","","","","","","","","","","","","","","","","","","","",""
"3425","","image-button-response","105","722328","0.0-104.0","A3R6UEMK36XGA7","img_art/12.jpg","1","","","","","","","","","","","","","","","","","","","","","","","","",""
"565","","image-button-response","106","722896","0.0-105.0-0.0","A3R6UEMK36XGA7","img_art/12.jpg","0","","","","","","","","","","","","","","","","","","","","","","","","",""
"3815","","image-button-response","107","726713","0.0-106.0-0.0","A3R6UEMK36XGA7","img_art/12.jpg","3","","","","","","","","","","","","","","","","","","","","","","","","",""
"null","","html-keyboard-response","108","727729","0.0-107.0","A3R6UEMK36XGA7","<p style=""font-size: 48px;"">+</p>","","","","","null","allTrialResponses","1000","1","9","img_art/12.jpg","16","This has a retro feel to it. Very 80's. I grew up then and it looks like something my mom would hang on our wall","Jamie,Emma,Kylie,Brianna,Sara,Mikayla","Black and white contrast with color looks nice,15,320,20","Pretty but not a huge fan of the colors,20,60,20","Night and day, light and dark,35,300,20","Don't like it or despise it,1,20,20","I don't like the blocking,-20,160,20","A little bit boring.,-24,300,20","Emma","Pretty but not a huge fan of the colors,20,60,20","Jamie","Black and white contrast with color looks nice,15,320,20","Brianna","Don't like it or despise it,1,20,20","2"
"27068","","survey-text","109","754804","0.0-108.0-0.0","A3R6UEMK36XGA7","","","","{""Q0"":""Not a fan of the green scribbles. The picture would have been better without them""}","","","","","","","","","","","","","","","","","","","","","","",""
"2757.699999999255","","image-slider-response","110","757564","0.0-109.0","A3R6UEMK36XGA7","","","","","-23","","","","","","","","","","","","","","","","","","","","","",""
"4528","","image-button-response","111","762574","0.0-110.0","A3R6UEMK36XGA7","img_art/27.jpg","0","","","","","","","","","","","","","","","","","","","","","","","","",""
"5573","","image-button-response","112","768150","0.0-111.0","A3R6UEMK36XGA7","img_art/27.jpg","0","","","","","","","","","","","","","","","","","","","","","","","","",""
"2878","","image-button-response","113","771030","0.0-112.0-0.0","A3R6UEMK36XGA7","img_art/27.jpg","4","","","","","","","","","","","","","","","","","","","","","","","","",""
"1862","","image-button-response","114","772894","0.0-113.0-0.0","A3R6UEMK36XGA7","img_art/27.jpg","2","","","","","","","","","","","","","","","","","","","","","","","","",""
"null","","html-keyboard-response","115","773396","0.0-114.0","A3R6UEMK36XGA7","<p style=""font-size: 48px;"">+</p>","","","","","null","allTrialResponses","500","1","10","img_art/27.jpg","-23","Not a fan of the green scribbles. The picture would have been better without them","Jamie,Emma,Melissa,Brianna,Jennifer,Brooke","Don't like the mix of green with the warmer colors,-15,320,20","Not sure how I feel about this. Messy, even for art. But good colors.,0,60,20","reminds me of kandinsky,10,240,20","This painting is very unique,21,20,20","Somewhat boring piece,-3,380,20","Like it, autumn colors, trees and foliage scene.,25,60,20","Jamie","Don't like the mix of green with the warmer colors,-15,320,20","Jennifer","Somewhat boring piece,-3,380,20","Melissa","reminds me of kandinsky,10,240,20","2"
"4028","","survey-text","116","777430","0.0-115.0-0.0","A3R6UEMK36XGA7","","","","{""Q0"":""our""}","","","","","","","","","","","","","","","","","","","","","","",""
"22171","","survey-text","117","799602","0.0-116.0-0.0","A3R6UEMK36XGA7","","","","{""Q0"":""Love the design and color scheme""}","","","","","","","","","","","","","","","","","","","","","","",""
"2846.300000000745","","image-slider-response","118","802450","0.0-117.0","A3R6UEMK36XGA7","","","","","33","","","","","","","","","","","","","","","","","","","","","",""
"2526","","image-button-response","119","807452","0.0-118.0","A3R6UEMK36XGA7","img_art/17.jpg","0","","","","","","","","","","","","","","","","","","","","","","","","",""
"820","","image-button-response","120","808275","0.0-119.0","A3R6UEMK36XGA7","img_art/17.jpg","1","","","","","","","","","","","","","","","","","","","","","","","","",""
"798","","image-button-response","121","809076","0.0-120.0-0.0","A3R6UEMK36XGA7","img_art/17.jpg","0","","","","","","","","","","","","","","","","","","","","","","","","",""
"4935","","image-button-response","122","814013","0.0-121.0-0.0","A3R6UEMK36XGA7","img_art/17.jpg","4","","","","","","","","","","","","","","","","","","","","","","","","",""
"null","","html-keyboard-response","123","815014","0.0-122.0","A3R6UEMK36XGA7","<p style=""font-size: 48px;"">+</p>","","","","","null","allTrialResponses","1000","1","11","img_art/17.jpg","33","Love the design and color scheme","Jamie,Haley,Melissa,Laura,Jennifer,Crystal","Looks like some fantasy tree. Nice,30,320,20","Colors and composition are beautiful. I would hang this in my home.,50,220,20","impressive attention to subtleties,15,240,20","home - reminds me of fond memories of the Barnes Museum courtyard (looks just like it),30,320,20","Very elegant, this design reminds me of trees,31,380,20","Embodies beauty and complexity and in simplicity as well,50,300,20","Haley","Colors and composition are beautiful. I would hang this in my home.,50,220,20","Jamie","Looks like some fantasy tree. Nice,30,320,20","Jennifer","Very elegant, this design reminds me of trees,31,380,20","2"
"20508","","survey-text","124","835526","0.0-123.0-0.0","A3R6UEMK36XGA7","","","","{""Q0"":""This remind me of a 1st grader's water color project""}","","","","","","","","","","","","","","","","","","","","","","",""
"3206.4000000003725","","image-slider-response","125","838734","0.0-124.0","A3R6UEMK36XGA7","","","","","-38","","","","","","","","","","","","","","","","","","","","","",""
"null","","image-button-response","126","843742","0.0-125.0","A3R6UEMK36XGA7","img_art/26.jpg","null","","","","","","","","","","","","","","","","","","","","","","","","",""
"2265","","image-button-response","127","846009","0.0-126.0","A3R6UEMK36XGA7","img_art/26.jpg","4","","","","","","","","","","","","","","","","","","","","","","","","",""
"2006","","image-button-response","128","848017","0.0-127.0-0.0","A3R6UEMK36XGA7","img_art/26.jpg","1","","","","","","","","","","","","","","","","","","","","","","","","",""
"2862","","image-button-response","129","850881","0.0-128.0-0.0","A3R6UEMK36XGA7","img_art/26.jpg","0","","","","","","","","","","","","","","","","","","","","","","","","",""
"null","","html-keyboard-response","130","852395","0.0-129.0","A3R6UEMK36XGA7","<p style=""font-size: 48px;"">+</p>","","","","","null","allTrialResponses","1500","1","12","img_art/26.jpg","-38","This remind me of a 1st grader's water color project","Jamie,Haley,Sophia,Shannon,Jennifer,Jenna","Street corner on a sunny day,5,320,20","It feels almost unfinished, but I like the color palette,9,220,20","I like this. Looks like a city street and I can use my imagination to make it come alive.,15,280,20","I like that it looks like an actual picture and isn't just random colors.,25,220,20","This picture doesn't really stand out.,0,380,20","soft colors & brush work. very easy to look at. makes me happy.,50,360,20","Jennifer","This picture doesn't really stand out.,0,380,20","Haley","It feels almost unfinished, but I like the color palette,9,220,20","Jamie","Street corner on a sunny day,5,320,20","2"
"16169","","survey-text","131","868571","0.0-130.0-0.0","A3R6UEMK36XGA7","","","","{""Q0"":""Very busy. I'm not sure about this one""}","","","","","","","","","","","","","","","","","","","","","","",""
"2894.300000000745","","image-slider-response","132","871467","0.0-131.0","A3R6UEMK36XGA7","","","","","-7","","","","","","","","","","","","","","","","","","","","","",""
"3510","","image-button-response","133","876470","0.0-132.0","A3R6UEMK36XGA7","img_art/23.jpg","4","","","","","","","","","","","","","","","","","","","","","","","","",""
"637","","image-button-response","134","877109","0.0-133.0","A3R6UEMK36XGA7","img_art/23.jpg","4","","","","","","","","","","","","","","","","","","","","","","","","",""
"1469","","image-button-response","135","878579","0.0-134.0-0.0","A3R6UEMK36XGA7","img_art/23.jpg","5","","","","","","","","","","","","","","","","","","","","","","","","",""
"1998","","image-button-response","136","880580","0.0-135.0-0.0","A3R6UEMK36XGA7","img_art/23.jpg","0","","","","","","","","","","","","","","","","","","","","","","","","",""
"null","","html-keyboard-response","137","881585","0.0-136.0","A3R6UEMK36XGA7","<p style=""font-size: 48px;"">+</p>","","","","","null","allTrialResponses","1000","1","13","img_art/23.jpg","-7","Very busy. I'm not sure about this one","Jamie,Haley,Katherine,Kelly,Jennifer,Meghan","Reminds me of outer space and the stars,30,320,20","Beautiful. Very detailed and colorful. I enjoy looking at it.,50,220,20","This one is awesome, kinda looks like a cake with sprinkles but in a different universe,50,120,20","Love this. I love the white, really pops with the colors surrounding it.,44,220,20","The cluster of white silhouettes against the colorful background makes me feel uneasy for some reason,-36,380,20","reminds me of an album cover,36,220,20","Jennifer","The cluster of white silhouettes against the colorful background makes me feel uneasy for some reason,-36,380,20","Meghan","reminds me of an album cover,36,220,20","Jamie","Reminds me of outer space and the stars,30,320,20","2"
"23264","","survey-text","138","904855","0.0-137.0-0.0","A3R6UEMK36XGA7","","","","{""Q0"":""reminds me of my daughter's artwork hanging on my fridge""}","","","","","","","","","","","","","","","","","","","","","","",""
"2486.5","","image-slider-response","139","907344","0.0-138.0","A3R6UEMK36XGA7","","","","","-26","","","","","","","","","","","","","","","","","","","","","",""
"4423","","image-button-response","140","912351","0.0-139.0","A3R6UEMK36XGA7","img_art/2.jpg","0","","","","","","","","","","","","","","","","","","","","","","","","",""
"1495","","image-button-response","141","913849","0.0-140.0","A3R6UEMK36XGA7","img_art/2.jpg","3","","","","","","","","","","","","","","","","","","","","","","","","",""
"1934","","image-button-response","142","915785","0.0-141.0-0.0","A3R6UEMK36XGA7","img_art/2.jpg","0","","","","","","","","","","","","","","","","","","","","","","","","",""
"1454","","image-button-response","143","917241","0.0-142.0-0.0","A3R6UEMK36XGA7","img_art/2.jpg","5","","","","","","","","","","","","","","","","","","","","","","","","",""
"null","","html-keyboard-response","144","917744","0.0-143.0","A3R6UEMK36XGA7","<p style=""font-size: 48px;"">+</p>","","","","","null","allTrialResponses","500","1","14","img_art/2.jpg","-26","reminds me of my daughter's artwork hanging on my fridge","Jamie,Shelby,Sarah,Hannah,Jennifer,Meghan","Awful color coordination and design,-35,320,20","The contrasting colors are a bit harsh,-10,240,20","nope. just looks like a mess,-28,180,20","Looks like child's art.,-19,240,20","Ugly color scheme,-50,380,20","looks like a child's artwork,-40,220,20","Hannah","Looks like child's art.,-19,240,20","Jamie","Awful color coordination and design,-35,320,20","Meghan","looks like a child's artwork,-40,220,20","2"
"37863","","survey-text","145","955614","0.0-144.0-0.0","A3R6UEMK36XGA7","","","","{""Q0"":""I like all of the colors, but it seems unfinished to me. It needs something else""}","","","","","","","","","","","","","","","","","","","","","","",""
"2511.199999999255","","image-slider-response","146","958127","0.0-145.0","A3R6UEMK36XGA7","","","","","-16","","","","","","","","","","","","","","","","","","","","","",""
"null","","image-button-response","147","963132","0.0-146.0","A3R6UEMK36XGA7","img_art/22.jpg","null","","","","","","","","","","","","","","","","","","","","","","","","",""
"97","","image-button-response","148","963231","0.0-147.0","A3R6UEMK36XGA7","img_art/22.jpg","4","","","","","","","","","","","","","","","","","","","","","","","","",""
"4694","","image-button-response","149","967928","0.0-148.0-0.0","A3R6UEMK36XGA7","img_art/22.jpg","2","","","","","","","","","","","","","","","","","","","","","","","","",""
"8735","","image-button-response","150","976665","0.0-149.0-0.0","A3R6UEMK36XGA7","img_art/22.jpg","0","","","","","","","","","","","","","","","","","","","","","","","","",""
"null","","html-keyboard-response","151","978170","0.0-150.0","A3R6UEMK36XGA7","<p style=""font-size: 48px;"">+</p>","","","","","null","allTrialResponses","1500","1","15","img_art/22.jpg","-16","I like all of the colors, but it seems unfinished to me. It needs something else","Jamie,Katelyn,Makayla,Hannah,Gabrielle,Meghan","Like the mix of warm and cool colors,15,320,20","I usually dont like blurry pieces but the colors are amazing in this,14,100,20","Just neutral no feelings,2,80,20","This one would work in the right frame. It's nice.,20,240,20","another OK work, mostly because of the blend of colors,12,160,20","really beautiful colors and contrast,30,220,20","Gabrielle","another OK work, mostly because of the blend of colors,12,160,20","Makayla","Just neutral no feelings,2,80,20","Jamie","Like the mix of warm and cool colors,15,320,20","2"
"4101","","survey-text","152","982282","0.0-151.0-0.0","A3R6UEMK36XGA7","","","","{""Q0"":""course""}","","","","","","","","","","","","","","","","","","","","","","",""
"23792","","survey-text","153","1006076","0.0-152.0-0.0","A3R6UEMK36XGA7","","","","{""Q0"":""This reminds me of an angry sea for some reason""}","","","","","","","","","","","","","","","","","","","","","","",""
"3030.5999999996275","","image-slider-response","154","1009109","0.0-153.0","A3R6UEMK36XGA7","","","","","26","","","","","","","","","","","","","","","","","","","","","",""
"null","","image-button-response","155","1014123","0.0-154.0","A3R6UEMK36XGA7","img_art/21.jpg","null","","","","","","","","","","","","","","","","","","","","","","","","",""
"3857","","image-button-response","156","1017983","0.0-155.0","A3R6UEMK36XGA7","img_art/21.jpg","2","","","","","","","","","","","","","","","","","","","","","","","","",""
"61","","image-button-response","157","1018045","0.0-156.0-0.0","A3R6UEMK36XGA7","img_art/21.jpg","2","","","","","","","","","","","","","","","","","","","","","","","","",""
"623","","image-button-response","158","1022671","0.0-156.1-0.1","A3R6UEMK36XGA7","img_art/21.jpg","0","","","","","","","","","","","","","","","","","","","","","","","","",""
"2974","","image-button-response","159","1025647","0.0-157.0-0.0","A3R6UEMK36XGA7","img_art/21.jpg","3","","","","","","","","","","","","","","","","","","","","","","","","",""
"null","","html-keyboard-response","160","1027156","0.0-158.0","A3R6UEMK36XGA7","<p style=""font-size: 48px;"">+</p>","","","","","null","allTrialResponses","1500","1","16","img_art/21.jpg","26","This reminds me of an angry sea for some reason","Jamie,Erica,Makayla,Samantha,Gabrielle,Marissa","Contrast of fire and water looks cool,20,320,20","Relaxing and easy to look at,27,80,20","I like the two sides meeting, like a movie scene,15,80,20","Love the colors and the relationship between the light and storm,50,140,20","setting sun sky? nice colors and blending,14,160,20","I feel confused,-18,160,20","Makayla","I like the two sides meeting, like a movie scene,15,80,20","Jamie","Contrast of fire and water looks cool,20,320,20","Samantha","Love the colors and the relationship between the light and storm,50,140,20","4"
"22199","","survey-text","161","1049361","0.0-159.0-0.0","A3R6UEMK36XGA7","","","","{""Q0"":""this reminds me of fall. I like the mix of colors""}","","","","","","","","","","","","","","","","","","","","","","",""
"6031.4000000003725","","image-slider-response","162","1055395","0.0-160.0","A3R6UEMK36XGA7","","","","","20","","","","","","","","","","","","","","","","","","","","","",""
"2727","","image-button-response","163","1060403","0.0-161.0","A3R6UEMK36XGA7","img_art/1.jpg","1","","","","","","","","","","","","","","","","","","","","","","","","",""
"5527","","image-button-response","164","1065933","0.0-162.0","A3R6UEMK36XGA7","img_art/1.jpg","3","","","","","","","","","","","","","","","","","","","","","","","","",""
"741","","image-button-response","165","1066677","0.0-163.0-0.0","A3R6UEMK36XGA7","img_art/1.jpg","4","","","","","","","","","","","","","","","","","","","","","","","","",""
"2166","","image-button-response","166","1068845","0.0-164.0-0.0","A3R6UEMK36XGA7","img_art/1.jpg","1","","","","","","","","","","","","","","","","","","","","","","","","",""
"null","","html-keyboard-response","167","1070358","0.0-165.0","A3R6UEMK36XGA7","<p style=""font-size: 48px;"">+</p>","","","","","null","allTrialResponses","1500","1","17","img_art/1.jpg","20","this reminds me of fall. I like the mix of colors","Jamie,Kaylee,Makayla,Samantha,Briana,Morgan","Looks like just a bunch of colors with no real point,-5,320,20","a colorful piece of art,25,200,20","Nothing whatsoever,2,80,20","Love the colors but it makes me feel like someone is looking at me through it,38,140,20","I like the colors. But it doesnt look like anything,27,400,20","Flat colors with no flavor.,5,380,20","Samantha","Love the colors but it makes me feel like someone is looking at me through it,38,140,20","Briana","I like the colors. But it doesnt look like anything,27,400,20","Kaylee","a colorful piece of art,25,200,20","4"
"27659","","survey-text","168","1098025","0.0-166.0-0.0","A3R6UEMK36XGA7","","","","{""Q0"":""not a fan. too many dull colors""}","","","","","","","","","","","","","","","","","","","","","","",""
"2422","","image-slider-response","169","1100449","0.0-167.0","A3R6UEMK36XGA7","","","","","-17","","","","","","","","","","","","","","","","","","","","","",""
"3487","","image-button-response","170","1105453","0.0-168.0","A3R6UEMK36XGA7","img_art/28.jpg","1","","","","","","","","","","","","","","","","","","","","","","","","",""
"3876","","image-button-response","171","1109330","0.0-169.0","A3R6UEMK36XGA7","img_art/28.jpg","1","","","","","","","","","","","","","","","","","","","","","","","","",""
"918","","image-button-response","172","1110251","0.0-170.0-0.0","A3R6UEMK36XGA7","img_art/28.jpg","2","","","","","","","","","","","","","","","","","","","","","","","","",""
"1166","","image-button-response","173","1111419","0.0-171.0-0.0","A3R6UEMK36XGA7","img_art/28.jpg","4","","","","","","","","","","","","","","","","","","","","","","","","",""
"null","","html-keyboard-response","174","1112943","0.0-172.0","A3R6UEMK36XGA7","<p style=""font-size: 48px;"">+</p>","","","","","null","allTrialResponses","1500","1","18","img_art/28.jpg","-17","not a fan. too many dull colors","Michaela,Kaylee,Kaitlin,Samantha,Briana,Mary","Salvador Dali called and he thinks this looks pretty good,27,260,20","i dont understand it,-34,200,20","i'm not too impressed with this one.,-10,60,20","Interesting and weird. Perfect conversational piece,33,140,20","Is this anything?,-20,400,20","The colors are really ugly. They do not compliment each other well.,-45,180,20","Kaylee","i dont understand it,-34,200,20","Kaitlin","i'm not too impressed with this one.,-10,60,20","Briana","Is this anything?,-20,400,20","4"
"24543","","survey-text","175","1137493","0.0-173.0-0.0","A3R6UEMK36XGA7","","","","{""Q0"":""I like the brush strokes but that's about it""}","","","","","","","","","","","","","","","","","","","","","","",""
"2519","","image-slider-response","176","1140014","0.0-174.0","A3R6UEMK36XGA7","","","","","-7","","","","","","","","","","","","","","","","","","","","","",""
"3078","","image-button-response","177","1145026","0.0-175.0","A3R6UEMK36XGA7","img_art/30.jpg","0","","","","","","","","","","","","","","","","","","","","","","","","",""
"3971","","image-button-response","178","1149000","0.0-176.0","A3R6UEMK36XGA7","img_art/30.jpg","0","","","","","","","","","","","","","","","","","","","","","","","","",""
"1670","","image-button-response","179","1150672","0.0-177.0-0.0","A3R6UEMK36XGA7","img_art/30.jpg","1","","","","","","","","","","","","","","","","","","","","","","","","",""
"1254","","image-button-response","180","1151928","0.0-178.0-0.0","A3R6UEMK36XGA7","img_art/30.jpg","5","","","","","","","","","","","","","","","","","","","","","","","","",""
"null","","html-keyboard-response","181","1152942","0.0-179.0","A3R6UEMK36XGA7","<p style=""font-size: 48px;"">+</p>","","","","","null","allTrialResponses","1000","1","19","img_art/30.jpg","-7","I like the brush strokes but that's about it","Allison,Kaylee,Kaitlin,Amanda,Briana,Alyssa","Dislike the contrast here.,-5,140,20","i cant really get it,-35,200,20","the different roads to take in life,10,60,20","Love how the red stands out,20,180,20","Its ugly. Too simple,-23,400,20","ugly nasty colors,-10,160,20","Allison","Dislike the contrast here.,-5,140,20","Kaylee","i cant really get it,-35,200,20","Alyssa","ugly nasty colors,-10,160,20","4"
"35513","","survey-text","182","1188460","0.0-180.0-0.0","A3R6UEMK36XGA7","","","","{""Q0"":""This one is kind of cool. Dark colors but still a good combination""}","","","","","","","","","","","","","","","","","","","","","","",""
"2575.4000000003725","","image-slider-response","183","1191037","0.0-181.0","A3R6UEMK36XGA7","","","","","27","","","","","","","","","","","","","","","","","","","","","",""
"null","","image-button-response","184","1196050","0.0-182.0","A3R6UEMK36XGA7","img_art/20.jpg","null","","","","","","","","","","","","","","","","","","","","","","","","",""
"1089","","image-button-response","185","1197142","0.0-183.0","A3R6UEMK36XGA7","img_art/20.jpg","2","","","","","","","","","","","","","","","","","","","","","","","","",""
"4766","","image-button-response","186","1201911","0.0-184.0-0.0","A3R6UEMK36XGA7","img_art/20.jpg","4","","","","","","","","","","","","","","","","","","","","","","","","",""
"1950","","image-button-response","187","1203863","0.0-185.0-0.0","A3R6UEMK36XGA7","img_art/20.jpg","3","","","","","","","","","","","","","","","","","","","","","","","","",""
"null","","html-keyboard-response","188","1204870","0.0-186.0","A3R6UEMK36XGA7","<p style=""font-size: 48px;"">+</p>","","","","","null","allTrialResponses","1000","1","20","img_art/20.jpg","27","This one is kind of cool. Dark colors but still a good combination","Allison,Kaylee,Sabrina,Courtney,Alexis,Alyssa","Melty picture. Reminiscent of Dali.,10,140,20","i can see a car crash,13,200,20","I love the way it expresses dark nature and uncontrolled situations.,44,120,20","The beast is running after you.,33,280,20","I like the proportion of the car to the desert city, but too abstract for me,15,100,20","Its interesting.It almost seems like a painting of a landscape,14,160,20","Sabrina","I love the way it expresses dark nature and uncontrolled situations.,44,120,20","Alexis","I like the proportion of the car to the desert city, but too abstract for me,15,100,20","Courtney","The beast is running after you.,33,280,20","4"
"3114","","survey-text","189","1207999","0.0-187.0-0.0","A3R6UEMK36XGA7","","","","{""Q0"":""we""}","","","","","","","","","","","","","","","","","","","","","","",""
"18361","","survey-text","190","1226361","0.0-188.0-0.0","A3R6UEMK36XGA7","","","","{""Q0"":""It reminds me of a ship at sea""}","","","","","","","","","","","","","","","","","","","","","","",""
"2997.7000000011176","","image-slider-response","191","1229361","0.0-189.0","A3R6UEMK36XGA7","","","","","17","","","","","","","","","","","","","","","","","","","","","",""
"null","","image-button-response","192","1234379","0.0-190.0","A3R6UEMK36XGA7","img_art/18.jpg","null","","","","","","","","","","","","","","","","","","","","","","","","",""
"4967","","image-button-response","193","1239348","0.0-191.0","A3R6UEMK36XGA7","img_art/18.jpg","3","","","","","","","","","","","","","","","","","","","","","","","","",""
"3702","","image-button-response","194","1243052","0.0-192.0-0.0","A3R6UEMK36XGA7","img_art/18.jpg","2","","","","","","","","","","","","","","","","","","","","","","","","",""
"1933","","image-button-response","195","1244988","0.0-193.0-0.0","A3R6UEMK36XGA7","img_art/18.jpg","4","","","","","","","","","","","","","","","","","","","","","","","","",""
"null","","html-keyboard-response","196","1245998","0.0-194.0","A3R6UEMK36XGA7","<p style=""font-size: 48px;"">+</p>","","","","","null","allTrialResponses","1000","1","21","img_art/18.jpg","17","It reminds me of a ship at sea","Jasmine,Michelle,Sabrina,Courtney,Alexis,Kelsey","I feel indifferent about this one,0,340,20","The small lines elicit a very nauseating response for some reason, too Dali like for me,-19,280,20","I love the battle vibe in this,50,120,20","Pirate ship in stormy seas before it sank.,11,280,20","Crusade-feel, but a little too abstract for my taste,23,100,20","its messy, it seems angry,-21,240,20","Courtney","Pirate ship in stormy seas before it sank.,11,280,20","Sabrina","I love the battle vibe in this,50,120,20","Alexis","Crusade-feel, but a little too abstract for my taste,23,100,20","4"
"53022","","survey-text","197","1299027","0.0-195.0-0.0","A3R6UEMK36XGA7","","","","{""Q0"":""I like this one. I can appreciate the teddy bear cut out too""}","","","","","","","","","","","","","","","","","","","","","","",""
"2102.4000000003725","","image-slider-response","198","1301131","0.0-196.0","A3R6UEMK36XGA7","","","","","12","","","","","","","","","","","","","","","","","","","","","",""
"3798","","image-button-response","199","1306142","0.0-197.0","A3R6UEMK36XGA7","img_art/16.jpg","0","","","","","","","","","","","","","","","","","","","","","","","","",""
"2635","","image-button-response","200","1308780","0.0-198.0","A3R6UEMK36XGA7","img_art/16.jpg","5","","","","","","","","","","","","","","","","","","","","","","","","",""
"1254","","image-button-response","201","1310037","0.0-199.0-0.0","A3R6UEMK36XGA7","img_art/16.jpg","0","","","","","","","","","","","","","","","","","","","","","","","","",""
"1534","","image-button-response","202","1311573","0.0-200.0-0.0","A3R6UEMK36XGA7","img_art/16.jpg","2","","","","","","","","","","","","","","","","","","","","","","","","",""
"null","","html-keyboard-response","203","1312574","0.0-201.0","A3R6UEMK36XGA7","<p style=""font-size: 48px;"">+</p>","","","","","null","allTrialResponses","1000","1","22","img_art/16.jpg","12","I like this one. I can appreciate the teddy bear cut out too","Ashley,Miranda,Sabrina,Courtney,Alexis,Chloe","A lot fo these could abstract or childrens work.,23,320,20","This looks like it was made by an art student filled with angst,-30,320,20","Kind of an edgy teenager vibe,32,120,20","Hmm i don't know what going on here.,1,280,20","Don't like this technique. Too serial killer.,-50,100,20","Fun but a little cheesy,15,220,20","Chloe","Fun but a little cheesy,15,220,20","Ashley","A lot fo these could abstract or childrens work.,23,320,20","Sabrina","Kind of an edgy teenager vibe,32,120,20","4"
"22628","","survey-text","204","1335207","0.0-202.0-0.0","A3R6UEMK36XGA7","","","","{""Q0"":""this doesn't make any sense to me""}","","","","","","","","","","","","","","","","","","","","","","",""
"4671.300000000745","","image-slider-response","205","1339880","0.0-203.0","A3R6UEMK36XGA7","","","","","-20","","","","","","","","","","","","","","","","","","","","","",""
"4910","","image-button-response","206","1344886","0.0-204.0","A3R6UEMK36XGA7","img_art/4.jpg","2","","","","","","","","","","","","","","","","","","","","","","","","",""
"3369","","image-button-response","207","1348257","0.0-205.0","A3R6UEMK36XGA7","img_art/4.jpg","1","","","","","","","","","","","","","","","","","","","","","","","","",""
"470","","image-button-response","208","1348730","0.0-206.0-0.0","A3R6UEMK36XGA7","img_art/4.jpg","2","","","","","","","","","","","","","","","","","","","","","","","","",""
"1702","","image-button-response","209","1350434","0.0-207.0-0.0","A3R6UEMK36XGA7","img_art/4.jpg","4","","","","","","","","","","","","","","","","","","","","","","","","",""
"null","","html-keyboard-response","210","1351938","0.0-208.0","A3R6UEMK36XGA7","<p style=""font-size: 48px;"">+</p>","","","","","null","allTrialResponses","1500","1","23","img_art/4.jpg","-20","this doesn't make any sense to me","Ashley,Leslie,Sabrina,Paige,Maria,Chloe","It looks like a hand.,25,320,20","This elicits no reaction in me.,0,380,20","Its just not giving the vibe i should be finding,-31,120,20","the colors are calming,31,60,20","no strong feelings about this one,2,120,20","Great movement but don't love the yellowy tones.,31,220,20","Leslie","This elicits no reaction in me.,0,380,20","Sabrina","Its just not giving the vibe i should be finding,-31,120,20","Maria","no strong feelings about this one,2,120,20","4"
"30726","","survey-text","211","1382677","0.0-209.0-0.0","A3R6UEMK36XGA7","","","","{""Q0"":""I like the line details and the bright green and black. Gives me a Halloween vibe""}","","","","","","","","","","","","","","","","","","","","","","",""
"2839.4000000003725","","image-slider-response","212","1385518","0.0-210.0","A3R6UEMK36XGA7","","","","","18","","","","","","","","","","","","","","","","","","","","","",""
"null","","image-button-response","213","1390520","0.0-211.0","A3R6UEMK36XGA7","img_art/25.jpg","null","","","","","","","","","","","","","","","","","","","","","","","","",""
"1125","","image-button-response","214","1391647","0.0-212.0","A3R6UEMK36XGA7","img_art/25.jpg","4","","","","","","","","","","","","","","","","","","","","","","","","",""
"2166","","image-button-response","215","1393815","0.0-213.0-0.0","A3R6UEMK36XGA7","img_art/25.jpg","0","","","","","","","","","","","","","","","","","","","","","","","","",""
"3734","","image-button-response","216","1397551","0.0-214.0-0.0","A3R6UEMK36XGA7","img_art/25.jpg","1","","","","","","","","","","","","","","","","","","","","","","","","",""
"null","","html-keyboard-response","217","1398552","0.0-215.0","A3R6UEMK36XGA7","<p style=""font-size: 48px;"">+</p>","","","","","null","allTrialResponses","1000","1","24","img_art/25.jpg","18","I like the line details and the bright green and black. Gives me a Halloween vibe","Bailey,Leslie,Sabrina,Emily,Maria,Cassandra","I love the background color and it's creepy...but cool.,30,360,20","I feel like I'm looking at something larger than myself.,30,380,20","New life, rising from your personal battles,50,120,20","Low skill not impressed.,-14,40,20","I find it enjoyable - mainly because it is not art I ever expected to see,16,120,20","I hate the colors and the scene,-46,120,20","Maria","I find it enjoyable - mainly because it is not art I ever expected to see,16,120,20","Bailey","I love the background color and it's creepy...but cool.,30,360,20","Leslie","I feel like I'm looking at something larger than myself.,30,380,20","4"
"28092","","survey-text","218","1426651","0.0-216.0-0.0","A3R6UEMK36XGA7","","","","{""Q0"":""I like the color scheme. reminds me of some type of plant""}","","","","","","","","","","","","","","","","","","","","","","",""
"3021.9000000003725","","image-slider-response","219","1429675","0.0-217.0","A3R6UEMK36XGA7","","","","","12","","","","","","","","","","","","","","","","","","","","","",""
"3159","","image-button-response","220","1434680","0.0-218.0","A3R6UEMK36XGA7","img_art/14.jpg","0","","","","","","","","","","","","","","","","","","","","","","","","",""
"5674","","image-button-response","221","1440357","0.0-219.0","A3R6UEMK36XGA7","img_art/14.jpg","0","","","","","","","","","","","","","","","","","","","","","","","","",""
"878","","image-button-response","222","1441237","0.0-220.0-0.0","A3R6UEMK36XGA7","img_art/14.jpg","3","","","","","","","","","","","","","","","","","","","","","","","","",""
"1350","","image-button-response","223","1442590","0.0-221.0-0.0","A3R6UEMK36XGA7","img_art/14.jpg","4","","","","","","","","","","","","","","","","","","","","","","","","",""
"null","","html-keyboard-response","224","1443591","0.0-222.0","A3R6UEMK36XGA7","<p style=""font-size: 48px;"">+</p>","","","","","null","allTrialResponses","1000","1","25","img_art/14.jpg","12","I like the color scheme. reminds me of some type of plant","Bailey,Leslie,Isabella,Caroline,Maria,Lauren","Not quite the style I'd like, but it does have a certain air of emptiness.,12,360,20","This elicits no reaction in me.,0,380,20","Feels like a camp fire among friends,22,280,20","Makes me think of trees and spring. A good feeling,26,100,20","I enjoy what comes across as a playful take on nature themes,26,120,20","I like how balanced the piece is with its symmetrical design.,20,340,20","Bailey","Not quite the style I'd like, but it does have a certain air of emptiness.,12,360,20","Caroline","Makes me think of trees and spring. A good feeling,26,100,20","Maria","I enjoy what comes across as a playful take on nature themes,26,120,20","4"
"6997","","survey-text","225","1450597","0.0-223.0-0.0","A3R6UEMK36XGA7","","","","{""Q0"":""table""}","","","","","","","","","","","","","","","","","","","","","","",""
"22457","","survey-text","226","1473056","0.0-224.0-0.0","A3R6UEMK36XGA7","","","","{""Q0"":""it feels like I'm looking at a rock close up""}","","","","","","","","","","","","","","","","","","","","","","",""
"2462.300000000745","","image-slider-response","227","1475521","0.0-225.0","A3R6UEMK36XGA7","","","","","5","","","","","","","","","","","","","","","","","","","","","",""
"null","","image-button-response","228","1480538","0.0-226.0","A3R6UEMK36XGA7","img_art/7.jpg","null","","","","","","","","","","","","","","","","","","","","","","","","",""
"3277","","image-button-response","229","1483818","0.0-227.0","A3R6UEMK36XGA7","img_art/7.jpg","3","","","","","","","","","","","","","","","","","","","","","","","","",""
"2166","","image-button-response","230","1485987","0.0-228.0-0.0","A3R6UEMK36XGA7","img_art/7.jpg","0","","","","","","","","","","","","","","","","","","","","","","","","",""
"1927","","image-button-response","231","1487916","0.0-229.0-0.0","A3R6UEMK36XGA7","img_art/7.jpg","2","","","","","","","","","","","","","","","","","","","","","","","","",""
"null","","html-keyboard-response","232","1488918","0.0-230.0","A3R6UEMK36XGA7","<p style=""font-size: 48px;"">+</p>","","","","","null","allTrialResponses","1000","1","26","img_art/7.jpg","5","it feels like I'm looking at a rock close up","Bailey,Jessica,Mackenzie,Caroline,Maria,Cynthia","It gives off an alien-like vastness of space vibe which I like,9,360,20","Looks like a natural texture, reminds me of rocks.,0,400,20","Is simple in color and texture,11,20,20","Looks like dirt on the ground. Makes me feel unclean,-37,100,20","elicits no real response,0,120,20","time and change,1,320,20","Caroline","Looks like dirt on the ground. Makes me feel unclean,-37,100,20","Bailey","It gives off an alien-like vastness of space vibe which I like,9,360,20","Mackenzie","Is simple in color and texture,11,20,20","4"
"16599","","survey-text","233","1505525","0.0-231.0-0.0","A3R6UEMK36XGA7","","","","{""Q0"":""not a fan""}","","","","","","","","","","","","","","","","","","","","","","",""
"2270","","image-slider-response","234","1507797","0.0-232.0","A3R6UEMK36XGA7","","","","","-5","","","","","","","","","","","","","","","","","","","","","",""
"4727","","image-button-response","235","1512800","0.0-233.0","A3R6UEMK36XGA7","img_art/29.jpg","5","","","","","","","","","","","","","","","","","","","","","","","","",""
"4092","","image-button-response","236","1516894","0.0-234.0","A3R6UEMK36XGA7","img_art/29.jpg","5","","","","","","","","","","","","","","","","","","","","","","","","",""
"870","","image-button-response","237","1517767","0.0-235.0-0.0","A3R6UEMK36XGA7","img_art/29.jpg","3","","","","","","","","","","","","","","","","","","","","","","","","",""
"1022","","image-button-response","238","1518791","0.0-236.0-0.0","A3R6UEMK36XGA7","img_art/29.jpg","0","","","","","","","","","","","","","","","","","","","","","","","","",""
"null","","html-keyboard-response","239","1519798","0.0-237.0","A3R6UEMK36XGA7","<p style=""font-size: 48px;"">+</p>","","","","","null","allTrialResponses","1000","1","27","img_art/29.jpg","-5","not a fan","Bailey,Stephanie,Mackenzie,Caroline,Alexa,Olivia","Giant messy blob. Looks like it tries to be edgy, but fails.,-40,360,20","Looks like a murder,-50,300,20","The light source is confusing, but still interesting to look at,11,20,20","Depressing and with that big red x on it just makes me not like it.,-33,100,20","Very wild and I like it,20,40,20","too challenging to comprehend,-28,40,20","Olivia","too challenging to comprehend,-28,40,20","Caroline","Depressing and with that big red x on it just makes me not like it.,-33,100,20","Bailey","Giant messy blob. Looks like it tries to be edgy, but fails.,-40,360,20","4"
"17110","","survey-text","240","1536913","0.0-238.0-0.0","A3R6UEMK36XGA7","","","","{""Q0"":""I see a lady sleeping in a hammock""}","","","","","","","","","","","","","","","","","","","","","","",""
"3998","","image-slider-response","241","1540914","0.0-239.0","A3R6UEMK36XGA7","","","","","10","","","","","","","","","","","","","","","","","","","","","",""
"null","","image-button-response","242","1545925","0.0-240.0","A3R6UEMK36XGA7","img_art/9.jpg","null","","","","","","","","","","","","","","","","","","","","","","","","",""
"885","","image-button-response","243","1546812","0.0-241.0","A3R6UEMK36XGA7","img_art/9.jpg","3","","","","","","","","","","","","","","","","","","","","","","","","",""
"821","","image-button-response","244","1547635","0.0-242.0-0.0","A3R6UEMK36XGA7","img_art/9.jpg","5","","","","","","","","","","","","","","","","","","","","","","","","",""
"6174","","image-button-response","245","1553812","0.0-243.0-0.0","A3R6UEMK36XGA7","img_art/9.jpg","4","","","","","","","","","","","","","","","","","","","","","","","","",""
"null","","html-keyboard-response","246","1554320","0.0-244.0","A3R6UEMK36XGA7","<p style=""font-size: 48px;"">+</p>","","","","","null","allTrialResponses","500","1","28","img_art/9.jpg","10","I see a lady sleeping in a hammock","Bailey,Chelsea,Grace,Caroline,Abigail,Olivia","Not very enticing. No real substance other than a lady laying down,-35,360,20","I don't like the obvious lines of colored pencil on the border.,-24,180,20","Huh?  Doesn't invoke much.,-37,180,20","Stirs up emotions of watching someone sleep which is relaxing,11,100,20","Reminds me of a cave in a scary movie,-21,20,20","what a wild ride,11,40,20","Caroline","Stirs up emotions of watching someone sleep which is relaxing,11,100,20","Olivia","what a wild ride,11,40,20","Abigail","Reminds me of a cave in a scary movie,-21,20,20","4"
"18919","","survey-text","247","1573246","0.0-245.0-0.0","A3R6UEMK36XGA7","","","","{""Q0"":""There is way too much going on here ""}","","","","","","","","","","","","","","","","","","","","","","",""
"2438.699999999255","","image-slider-response","248","1575686","0.0-246.0","A3R6UEMK36XGA7","","","","","-21","","","","","","","","","","","","","","","","","","","","","",""
"null","","image-button-response","249","1580695","0.0-247.0","A3R6UEMK36XGA7","img_art/19.jpg","null","","","","","","","","","","","","","","","","","","","","","","","","",""
"207","","image-button-response","250","1580904","0.0-248.0","A3R6UEMK36XGA7","img_art/19.jpg","4","","","","","","","","","","","","","","","","","","","","","","","","",""
"3166","","image-button-response","251","1584073","0.0-249.0-0.0","A3R6UEMK36XGA7","img_art/19.jpg","3","","","","","","","","","","","","","","","","","","","","","","","","",""
"7117","","image-button-response","252","1591193","0.0-250.0-0.0","A3R6UEMK36XGA7","img_art/19.jpg","0","","","","","","","","","","","","","","","","","","","","","","","","",""
"null","","html-keyboard-response","253","1592702","0.0-251.0","A3R6UEMK36XGA7","<p style=""font-size: 48px;"">+</p>","","","","","null","allTrialResponses","1500","1","29","img_art/19.jpg","-21","There is way too much going on here ","Heather,Hailey,Breanna,Caroline,Abigail,Olivia","love the images I can pick out of this art,1,260,20","an old cityfrom many years ago. its ok,6,200,20","The details are amazing,36,380,20","Chaotic. Too much going on in the picture,14,100,20","I dont like the gray shadows, ruins it,-7,20,20","city life energy,8,40,20","Abigail","I dont like the gray shadows, ruins it,-7,20,20","Caroline","Chaotic. Too much going on in the picture,14,100,20","Heather","love the images I can pick out of this art,1,260,20","4"
"17218","","survey-text","254","1609931","0.0-252.0-0.0","A3R6UEMK36XGA7","","","","{""Q0"":""I like the pops of blue, but not a fan of the piece""}","","","","","","","","","","","","","","","","","","","","","","",""
"2639.0999999996275","","image-slider-response","255","1612572","0.0-253.0","A3R6UEMK36XGA7","","","","","3","","","","","","","","","","","","","","","","","","","","","",""
"null","","image-button-response","256","1617578","0.0-254.0","A3R6UEMK36XGA7","img_art/15.jpg","null","","","","","","","","","","","","","","","","","","","","","","","","",""
"552","","image-button-response","257","1618132","0.0-255.0","A3R6UEMK36XGA7","img_art/15.jpg","0","","","","","","","","","","","","","","","","","","","","","","","","",""
"1679","","image-button-response","258","1619813","0.0-256.0-0.0","A3R6UEMK36XGA7","img_art/15.jpg","5","","","","","","","","","","","","","","","","","","","","","","","","",""
"4118","","image-button-response","259","1623933","0.0-257.0-0.0","A3R6UEMK36XGA7","img_art/15.jpg","1","","","","","","","","","","","","","","","","","","","","","","","","",""
"null","","html-keyboard-response","260","1624436","0.0-258.0","A3R6UEMK36XGA7","<p style=""font-size: 48px;"">+</p>","","","","","null","allTrialResponses","500","1","30","img_art/15.jpg","3","I like the pops of blue, but not a fan of the piece","Heather,Autumn,Alexandra,Caroline,Abigail,Angelica","black leaves makes the blue birds stand out.,1,260,20","Simple but not good,-34,340,20","This is sort of ugly, but I do like the design.,10,60,20","Makes me think of a bush and flowers and spring and happy warm times,25,100,20","This also has nice contrast,34,20,20","This looks odd and was not well executed.,-3,280,20","Heather","black leaves makes the blue birds stand out.,1,260,20","Angelica","This looks odd and was not well executed.,-3,280,20","Autumn","Simple but not good,-34,340,20","4"
"3884","","image-button-response_instructions","261","1628325","0.0-259.0","A3R6UEMK36XGA7","","0","instructions","","","","","","","","","","","","","","","","","","","","","","","",""
"1106","","image-button-response","262","1629437","0.0-260.0","A3R6UEMK36XGA7","","0","","","","","","","","","","","","","","","","","","","","","","","","",""
