"rt","url","trial_type","trial_index","time_elapsed","internal_node_id","participant_id","stimulus","button_pressed","Name","responses","response","key_press","variableName","fixationTime","condition","trial","photo","subjectRating","subjectResponse","agentsNames","agent_1_Response","agent_2_Response","agent_3_Response","agent_4_Response","agent_5_Response","agent_6_Response","kept_1_name","kept_1_response","kept_2_name","kept_2_response","kept_3_name","kept_3_response","errorCounter"
"136367","external_page_harvard.html","external-html","0","136668","0.0-0.0","A3R97T5D3RR9JX","","","","","","","","","","","","","","","","","","","","","","","","","","",""
"17782","","image-button-response","1","154453","0.0-1.0","A3R97T5D3RR9JX","","0","","","","","","","","","","","","","","","","","","","","","","","","",""
"34011","","image-button-response","2","188471","0.0-2.0-0.0","A3R97T5D3RR9JX","","1","phone","","","","","","","","","","","","","","","","","","","","","","","",""
"8558","","survey-text","3","197032","0.0-3.0-0.0","A3R97T5D3RR9JX","","","","{""Q0"":""A3R97T5D3RR9JX""}","","","","","","","","","","","","","","","","","","","","","","",""
"18693","","image-button-response_instructions","4","215728","0.0-4.0","A3R97T5D3RR9JX","","0","instructions","","","","","","","","","","","","","","","","","","","","","","","",""
"52424","","image-button-response_instructions","5","268154","0.0-5.0","A3R97T5D3RR9JX","img_art/ins/popularity/ins1.png","0","instructions","","","","","","","","","","","","","","","","","","","","","","","",""
"9338","","image-button-response_instructions","6","277494","0.0-6.0","A3R97T5D3RR9JX","img_art/ins/popularity/ins2.png","0","instructions","","","","","","","","","","","","","","","","","","","","","","","",""
"9884","","image-button-response_instructions","7","287380","0.0-7.0","A3R97T5D3RR9JX","img_art/ins/popularity/ins2Extreme.png","0","instructions","","","","","","","","","","","","","","","","","","","","","","","",""
"15077","","image-button-response_instructions","8","302458","0.0-8.0","A3R97T5D3RR9JX","img_art/ins/popularity/ins3KEEPpop.PNG","0","instructions","","","","","","","","","","","","","","","","","","","","","","","",""
"5554","","image-button-response_instructions","9","308014","0.0-9.0","A3R97T5D3RR9JX","img_art/ins/popularity/ins3ANamepop.PNG","0","instructions","","","","","","","","","","","","","","","","","","","","","","","",""
"5323","","image-button-response_instructions","10","313338","0.0-10.0","A3R97T5D3RR9JX","img_art/ins/popularity/ins3ARatingpop.png","0","instructions","","","","","","","","","","","","","","","","","","","","","","","",""
"28616","","image-button-response_instructions","11","341956","0.0-11.0","A3R97T5D3RR9JX","img_art/ins/popularity/ins3ATextpop.png","0","instructions","","","","","","","","","","","","","","","","","","","","","","","",""
"8412","","image-button-response_instructions","12","350369","0.0-12.0","A3R97T5D3RR9JX","img_art/ins/popularity/ins3ALikespop.png","0","instructions","","","","","","","","","","","","","","","","","","","","","","","",""
"16750","","image-button-response_instructions","13","367121","0.0-13.0","A3R97T5D3RR9JX","img_art/ins/popularity/ins3KEEPpop.PNG","0","instructions","","","","","","","","","","","","","","","","","","","","","","","",""
"13121","","image-button-response_instructions","14","380244","0.0-14.0","A3R97T5D3RR9JX","img_art/ins/popularity/ins3_5RED.png","0","instructions","","","","","","","","","","","","","","","","","","","","","","","",""
"4760","","image-button-response_instructions","15","385006","0.0-15.0","A3R97T5D3RR9JX","img_art/ins/popularity/ins3KEEPpop.PNG","0","instructions","","","","","","","","","","","","","","","","","","","","","","","",""
"15357","","image-button-response_instructions","16","400364","0.0-16.0","A3R97T5D3RR9JX","img_art/ins/popularity/ins4KEEPpop.PNG","0","instructions","","","","","","","","","","","","","","","","","","","","","","","",""
"5790","","image-button-response_instructions","17","406156","0.0-17.0","A3R97T5D3RR9JX","img_art/ins/popularity/ins5KEEPpop.PNG","0","instructions","","","","","","","","","","","","","","","","","","","","","","","",""
"2495","","image-button-response_instructions","18","408651","0.0-18.0","A3R97T5D3RR9JX","","0","instructions","","","","","","","","","","","","","","","","","","","","","","","",""
"9154","","survey-text","19","417832","0.0-19.0-0.0","A3R97T5D3RR9JX","","","","{""Q0"":""but""}","","","","","","","","","","","","","","","","","","","","","","",""
"107992","","survey-text","20","525826","0.0-20.0-0.0","A3R97T5D3RR9JX","","","","{""Q0"":""the strokes seem a bit random and not in a good way""}","","","","","","","","","","","","","","","","","","","","","","",""
"9003.300000071526","","image-slider-response","21","534833","0.0-21.0","A3R97T5D3RR9JX","","","","","-29","","","","","","","","","","","","","","","","","","","","","",""
"null","","image-button-response","22","539840","0.0-22.0","A3R97T5D3RR9JX","img_art/ins/1.jpg","null","","","","","","","","","","","","","","","","","","","","","","","","",""
"7403","","image-button-response","23","547247","0.0-23.0","A3R97T5D3RR9JX","img_art/ins/1.jpg","0","","","","","","","","","","","","","","","","","","","","","","","","",""
"6902","","image-button-response","24","554152","0.0-24.0-0.0","A3R97T5D3RR9JX","img_art/ins/1.jpg","2","","","","","","","","","","","","","","","","","","","","","","","","",""
"2272","","image-button-response","25","556427","0.0-25.0-0.0","A3R97T5D3RR9JX","img_art/ins/1.jpg","4","","","","","","","","","","","","","","","","","","","","","","","","",""
"null","","html-keyboard-response","26","557938","0.0-26.0","A3R97T5D3RR9JX","<p style=""font-size: 48px;"">+</p>","","","","","null","allTrialResponses","1500","1","-2","img_art/ins/1.jpg","-29","the strokes seem a bit random and not in a good way","Adam,Alex,Ben,Carl,Daniel,Jack","Seems like doodles,-20,20,20","very creative work.,36,40,20","This color reminds me of poo,-46,60,20","very calming artwork,42,80,20","It looks like a murder scene.,-48,100,20","I like the sophisticated brushwork,40,120,20","Adam","Seems like doodles,-20,20,20","Ben","This color reminds me of poo,-46,60,20","Daniel","It looks like a murder scene.,-48,100,20","0"
"45968","","survey-text","27","603918","0.0-27.0-0.0","A3R97T5D3RR9JX","","","","{""Q0"":""the different colors don't blend thus not very good art""}","","","","","","","","","","","","","","","","","","","","","","",""
"6481.600000023842","","image-slider-response","28","610402","0.0-28.0","A3R97T5D3RR9JX","","","","","-15","","","","","","","","","","","","","","","","","","","","","",""
"3615","","image-button-response","29","615408","0.0-29.0","A3R97T5D3RR9JX","img_art/ins/2.jpg","0","","","","","","","","","","","","","","","","","","","","","","","","",""
"2120","","image-button-response","30","617531","0.0-30.0","A3R97T5D3RR9JX","img_art/ins/2.jpg","2","","","","","","","","","","","","","","","","","","","","","","","","",""
"2658","","image-button-response","31","620192","0.0-31.0-0.0","A3R97T5D3RR9JX","img_art/ins/2.jpg","3","","","","","","","","","","","","","","","","","","","","","","","","",""
"2164","","image-button-response","32","622359","0.0-32.0-0.0","A3R97T5D3RR9JX","img_art/ins/2.jpg","4","","","","","","","","","","","","","","","","","","","","","","","","",""
"null","","html-keyboard-response","33","623870","0.0-33.0","A3R97T5D3RR9JX","<p style=""font-size: 48px;"">+</p>","","","","","null","allTrialResponses","1500","1","-1","img_art/ins/2.jpg","-15","the different colors don't blend thus not very good art","Adam,John,Ben,James,Daniel,Kyle","too much color,-18,20,20","love the texture of paint,48,160,20","meaningless painting,-45,60,20","looks too angry,-50,140,20","One of my pet peevs,-48,100,20","Idk, it is just annoying,-32,180,20","Ben","meaningless painting,-45,60,20","James","looks too angry,-50,140,20","Daniel","One of my pet peevs,-48,100,20","0"
"35123","","survey-text","34","659003","0.0-34.0-0.0","A3R97T5D3RR9JX","","","","{""Q0"":""the different shades of blue are amazing and the art is really appealing""}","","","","","","","","","","","","","","","","","","","","","","",""
"6556.5","","image-slider-response","35","665561","0.0-35.0","A3R97T5D3RR9JX","","","","","50","","","","","","","","","","","","","","","","","","","","","",""
"null","","image-button-response","36","670565","0.0-36.0","A3R97T5D3RR9JX","img_art/ins/3.jpg","null","","","","","","","","","","","","","","","","","","","","","","","","",""
"275","","image-button-response","37","670842","0.0-37.0","A3R97T5D3RR9JX","img_art/ins/3.jpg","0","","","","","","","","","","","","","","","","","","","","","","","","",""
"1988","","image-button-response","38","672833","0.0-38.0-0.0","A3R97T5D3RR9JX","img_art/ins/3.jpg","0","","","","","","","","","","","","","","","","","","","","","","","","",""
"1200","","image-button-response","39","684369","0.0-38.1-0.1","A3R97T5D3RR9JX","img_art/ins/3.jpg","5","","","","","","","","","","","","","","","","","","","","","","","","",""
"1697","","image-button-response","40","686069","0.0-39.0-0.0","A3R97T5D3RR9JX","img_art/ins/3.jpg","0","","","","","","","","","","","","","","","","","","","","","","","","",""
"4951","","image-button-response","41","695371","0.0-39.1-0.1","A3R97T5D3RR9JX","img_art/ins/3.jpg","2","","","","","","","","","","","","","","","","","","","","","","","","",""
"null","","html-keyboard-response","42","696373","0.0-40.0","A3R97T5D3RR9JX","<p style=""font-size: 48px;"">+</p>","","","","","null","allTrialResponses","1000","1","0","img_art/ins/3.jpg","50","the different shades of blue are amazing and the art is really appealing","Mike,Ron,Ben,James,Daniel,Sam","enjoy the different shades of blue,22,200,20","It looks depressing,-26,220,20","This thing gives me anxiety,-41,60,20","My worst nightmare,-42,140,20","looks like a murder room,-35,100,20","I can feel a rainy day from this painting,18,240,20","Mike","enjoy the different shades of blue,22,200,20","Sam","I can feel a rainy day from this painting,18,240,20","Ben","This thing gives me anxiety,-41,60,20","4"
"7783","","image-button-response_instructions","43","704168","0.0-41.0","A3R97T5D3RR9JX","","0","instructions","","","","","","","","","","","","","","","","","","","","","","","",""
"24251","","survey-likert","44","728421","0.0-42.0-0.0","A3R97T5D3RR9JX","","","","{""Q0"":"""",""Q1"":0,""Q2"":1}","","","","","","","","","","","","","","","","","","","","","","",""
"6041","","survey-text","45","734469","0.0-43.0-0.0","A3R97T5D3RR9JX","","","","{""Q0"":""rock""}","","","","","","","","","","","","","","","","","","","","","","",""
"32357","","survey-text","46","766827","0.0-44.0-0.0","A3R97T5D3RR9JX","","","","{""Q0"":""the painting looks great. seems like something intresting""}","","","","","","","","","","","","","","","","","","","","","","",""
"5662.400000095367","","image-slider-response","47","772492","0.0-45.0","A3R97T5D3RR9JX","","","","","20","","","","","","","","","","","","","","","","","","","","","",""
"3008","","image-button-response","48","777519","0.0-46.0","A3R97T5D3RR9JX","img_art/5.jpg","5","","","","","","","","","","","","","","","","","","","","","","","","",""
"6297","","image-button-response","49","783821","0.0-47.0","A3R97T5D3RR9JX","img_art/5.jpg","5","","","","","","","","","","","","","","","","","","","","","","","","",""
"7930","","image-button-response","50","791753","0.0-48.0-0.0","A3R97T5D3RR9JX","img_art/5.jpg","4","","","","","","","","","","","","","","","","","","","","","","","","",""
"3123","","image-button-response","51","794880","0.0-49.0-0.0","A3R97T5D3RR9JX","img_art/5.jpg","3","","","","","","","","","","","","","","","","","","","","","","","","",""
"null","","html-keyboard-response","52","796388","0.0-50.0","A3R97T5D3RR9JX","<p style=""font-size: 48px;"">+</p>","","","","","null","allTrialResponses","1500","1","1","img_art/5.jpg","20","the painting looks great. seems like something intresting","Alejandro,Garrett,Travis,Joshua,Nathan,Peter","Confused as to what the artist is attempting to do.,-50,80,20","I don't know what it's supposed to be and it looks ugly the way the colors are on the yellow cube.,-50,180,20","This was awful and it looked like someone took minimul effort with it... no time at all.,-49,260,20","Very basic, but at least has some color to it.,-9,240,20","Not a fan of the themes,-30,200,20","Bright and sunny,19,320,20","Peter","Bright and sunny,19,320,20","Nathan","Not a fan of the themes,-30,200,20","Joshua","Very basic, but at least has some color to it.,-9,240,20","4"
"20029","","survey-text","53","816428","0.0-51.0-0.0","A3R97T5D3RR9JX","","","","{""Q0"":""looks like a tree painted in a very good way""}","","","","","","","","","","","","","","","","","","","","","","",""
"5351.100000023842","","image-slider-response","54","821781","0.0-52.0","A3R97T5D3RR9JX","","","","","10","","","","","","","","","","","","","","","","","","","","","",""
"2085","","image-button-response","55","826784","0.0-53.0","A3R97T5D3RR9JX","img_art/17.jpg","0","","","","","","","","","","","","","","","","","","","","","","","","",""
"1128","","image-button-response","56","827915","0.0-54.0","A3R97T5D3RR9JX","img_art/17.jpg","0","","","","","","","","","","","","","","","","","","","","","","","","",""
"2894","","image-button-response","57","830811","0.0-55.0-0.0","A3R97T5D3RR9JX","img_art/17.jpg","2","","","","","","","","","","","","","","","","","","","","","","","","",""
"1863","","image-button-response","58","832677","0.0-56.0-0.0","A3R97T5D3RR9JX","img_art/17.jpg","5","","","","","","","","","","","","","","","","","","","","","","","","",""
"null","","html-keyboard-response","59","834180","0.0-57.0","A3R97T5D3RR9JX","<p style=""font-size: 48px;"">+</p>","","","","","null","allTrialResponses","1500","1","2","img_art/17.jpg","10","looks like a tree painted in a very good way","John,Shane,Victor,Joshua,Nathan,Peter","It gorgeous and i love how the tree is almost 3 dimensional.So many elements to it.,50,120,20","Pleasant fall to winter day,22,80,20","cool. Sharp and blocky below, light and flowing on top. Overall pleasing to look at,32,340,20","Looks like an abandoned building that is being overtaken by nature.,-10,240,20","It's alright, nothing I particularly like but it's just fine,-10,200,20","I feel okay , it's like a tree,28,320,20","John","It gorgeous and i love how the tree is almost 3 dimensional.So many elements to it.,50,120,20","Victor","cool. Sharp and blocky below, light and flowing on top. Overall pleasing to look at,32,340,20","Peter","I feel okay , it's like a tree,28,320,20","4"
"30455","","survey-text","60","864639","0.0-58.0-0.0","A3R97T5D3RR9JX","","","","{""Q0"":""interesting to look at. cant make out what it is""}","","","","","","","","","","","","","","","","","","","","","","",""
"11351.100000023842","","image-slider-response","61","875993","0.0-59.0","A3R97T5D3RR9JX","","","","","5","","","","","","","","","","","","","","","","","","","","","",""
"2381","","image-button-response","62","881010","0.0-60.0","A3R97T5D3RR9JX","img_art/18.jpg","3","","","","","","","","","","","","","","","","","","","","","","","","",""
"2625","","image-button-response","63","883637","0.0-61.0","A3R97T5D3RR9JX","img_art/18.jpg","3","","","","","","","","","","","","","","","","","","","","","","","","",""
"1683","","image-button-response","64","885321","0.0-62.0-0.0","A3R97T5D3RR9JX","img_art/18.jpg","0","","","","","","","","","","","","","","","","","","","","","","","","",""
"1693","","image-button-response","65","887017","0.0-63.0-0.0","A3R97T5D3RR9JX","img_art/18.jpg","2","","","","","","","","","","","","","","","","","","","","","","","","",""
"null","","html-keyboard-response","66","888519","0.0-64.0","A3R97T5D3RR9JX","<p style=""font-size: 48px;"">+</p>","","","","","null","allTrialResponses","1500","1","3","img_art/18.jpg","5","interesting to look at. cant make out what it is","John,Timothy,Victor,Isaac,Kevin,Peter","There are alot of elements to this painting and a good mix of colors,32,120,20","This gives a very ominous feeling,-30,240,20","nice balance of color. The different sizes and types of strokes give a lot to look at,18,340,20","I like the detail but I wouldn't hang this up on my wall.,14,280,20","Pirate ship in stormy seas before it sank.,11,320,20","I'm not partial to the design, unsettling,2,320,20","Isaac","I like the detail but I wouldn't hang this up on my wall.,14,280,20","John","There are alot of elements to this painting and a good mix of colors,32,120,20","Victor","nice balance of color. The different sizes and types of strokes give a lot to look at,18,340,20","4"
"25275","","survey-text","67","913805","0.0-65.0-0.0","A3R97T5D3RR9JX","","","","{""Q0"":""seems a bit random and unappealing""}","","","","","","","","","","","","","","","","","","","","","","",""
"6815","","image-slider-response","68","920623","0.0-66.0","A3R97T5D3RR9JX","","","","","-28","","","","","","","","","","","","","","","","","","","","","",""
"4314","","image-button-response","69","925627","0.0-67.0","A3R97T5D3RR9JX","img_art/20.jpg","1","","","","","","","","","","","","","","","","","","","","","","","","",""
"2080","","image-button-response","70","927710","0.0-68.0","A3R97T5D3RR9JX","img_art/20.jpg","3","","","","","","","","","","","","","","","","","","","","","","","","",""
"2689","","image-button-response","71","930401","0.0-69.0-0.0","A3R97T5D3RR9JX","img_art/20.jpg","3","","","","","","","","","","","","","","","","","","","","","","","","",""
"1215","","image-button-response","72","935781","0.0-69.1-0.1","A3R97T5D3RR9JX","img_art/20.jpg","1","","","","","","","","","","","","","","","","","","","","","","","","",""
"2707","","image-button-response","73","938491","0.0-70.0-0.0","A3R97T5D3RR9JX","img_art/20.jpg","4","","","","","","","","","","","","","","","","","","","","","","","","",""
"null","","html-keyboard-response","74","939006","0.0-71.0","A3R97T5D3RR9JX","<p style=""font-size: 48px;"">+</p>","","","","","null","allTrialResponses","500","1","4","img_art/20.jpg","-28","seems a bit random and unappealing","John,Elijah,Victor,Isaac,Zachary,Tanner","Its interesting.It almost seems like a painting of a landscape,14,120,20","Makes me feel impressed,9,80,20","sort of pleasant to look at, but can't tell if it's supposed to be something,13,340,20","It is abstract but it looks neat.,15,280,20","While interesting in technique.. It looks like a blurry car wreck. Does not evoke great emotions.,-20,400,20","danger, car crash, stressful,-12,180,20","Isaac","It is abstract but it looks neat.,15,280,20","Elijah","Makes me feel impressed,9,80,20","Zachary","While interesting in technique.. It looks like a blurry car wreck. Does not evoke great emotions.,-20,400,20","6"
"23660","","survey-text","75","962677","0.0-72.0-0.0","A3R97T5D3RR9JX","","","","{""Q0"":""seems to have a deeper meaning to it. interesting to watch""}","","","","","","","","","","","","","","","","","","","","","","",""
"4768.600000023842","","image-slider-response","76","967448","0.0-73.0","A3R97T5D3RR9JX","","","","","5","","","","","","","","","","","","","","","","","","","","","",""
"2130","","image-button-response","77","972450","0.0-74.0","A3R97T5D3RR9JX","img_art/10.jpg","0","","","","","","","","","","","","","","","","","","","","","","","","",""
"2715","","image-button-response","78","975169","0.0-75.0","A3R97T5D3RR9JX","img_art/10.jpg","5","","","","","","","","","","","","","","","","","","","","","","","","",""
"5297","","image-button-response","79","980467","0.0-76.0-0.0","A3R97T5D3RR9JX","img_art/10.jpg","0","","","","","","","","","","","","","","","","","","","","","","","","",""
"756","","image-button-response","80","981226","0.0-77.0-0.0","A3R97T5D3RR9JX","img_art/10.jpg","3","","","","","","","","","","","","","","","","","","","","","","","","",""
"null","","html-keyboard-response","81","982735","0.0-78.0","A3R97T5D3RR9JX","<p style=""font-size: 48px;"">+</p>","","","","","null","allTrialResponses","1500","1","5","img_art/10.jpg","5","seems to have a deeper meaning to it. interesting to watch","Jake,Elijah,Blake,Isaac,Zachary,Shawn","This is odd and ugly.,-9,360,20","Makes me feel amazed,23,80,20","a fast racetrack. go, go, go,5,280,20","It looks intricate.,15,280,20","Reminds me of a terrarium with cacti inside. It reminds me of home.,27,400,20","Don't like the colorblock but the lines are nice,-20,100,20","Shawn","Don't like the colorblock but the lines are nice,-20,100,20","Jake","This is odd and ugly.,-9,360,20","Isaac","It looks intricate.,15,280,20","6"
"5999","","survey-text","82","988759","0.0-79.0-0.0","A3R97T5D3RR9JX","","","","{""Q0"":""sky""}","","","","","","","","","","","","","","","","","","","","","","",""
"31550","","survey-text","83","1020311","0.0-80.0-0.0","A3R97T5D3RR9JX","","","","{""Q0"":""looks like a combination of pictures , no real rhythm""}","","","","","","","","","","","","","","","","","","","","","","",""
"7223.600000023842","","image-slider-response","84","1027537","0.0-81.0","A3R97T5D3RR9JX","","","","","-42","","","","","","","","","","","","","","","","","","","","","",""
"null","","image-button-response","85","1032540","0.0-82.0","A3R97T5D3RR9JX","img_art/12.jpg","null","","","","","","","","","","","","","","","","","","","","","","","","",""
"1151","","image-button-response","86","1033695","0.0-83.0","A3R97T5D3RR9JX","img_art/12.jpg","1","","","","","","","","","","","","","","","","","","","","","","","","",""
"1927","","image-button-response","87","1035625","0.0-84.0-0.0","A3R97T5D3RR9JX","img_art/12.jpg","4","","","","","","","","","","","","","","","","","","","","","","","","",""
"2303","","image-button-response","88","1037931","0.0-85.0-0.0","A3R97T5D3RR9JX","img_art/12.jpg","3","","","","","","","","","","","","","","","","","","","","","","","","",""
"null","","html-keyboard-response","89","1039434","0.0-86.0","A3R97T5D3RR9JX","<p style=""font-size: 48px;"">+</p>","","","","","null","allTrialResponses","1500","1","6","img_art/12.jpg","-42","looks like a combination of pictures , no real rhythm","Jake,James,Michael,Isaac,Aaron,Shawn","It's strange looking and unappealing.,-4,360,20","Don't like it or despise it,1,380,20","Not quite my style but there more of a pattern and it is interesting to look at.,15,140,20","I like the gradient of little color on the top to colorful on the bottom.,24,280,20","Therapist wall art.,10,20,20","Nice hallway art for a hotel.,21,100,20","James","Don't like it or despise it,1,380,20","Aaron","Therapist wall art.,10,20,20","Isaac","I like the gradient of little color on the top to colorful on the bottom.,24,280,20","6"
"24224","","survey-text","90","1063668","0.0-87.0-0.0","A3R97T5D3RR9JX","","","","{""Q0"":""seems like a job done by a drunk or toddler""}","","","","","","","","","","","","","","","","","","","","","","",""
"8213.200000047684","","image-slider-response","91","1071884","0.0-88.0","A3R97T5D3RR9JX","","","","","-50","","","","","","","","","","","","","","","","","","","","","",""
"null","","image-button-response","92","1076888","0.0-89.0","A3R97T5D3RR9JX","img_art/28.jpg","null","","","","","","","","","","","","","","","","","","","","","","","","",""
"634","","image-button-response","93","1077526","0.0-90.0","A3R97T5D3RR9JX","img_art/28.jpg","2","","","","","","","","","","","","","","","","","","","","","","","","",""
"1305","","image-button-response","94","1078832","0.0-91.0-0.0","A3R97T5D3RR9JX","img_art/28.jpg","3","","","","","","","","","","","","","","","","","","","","","","","","",""
"776","","image-button-response","95","1079611","0.0-92.0-0.0","A3R97T5D3RR9JX","img_art/28.jpg","4","","","","","","","","","","","","","","","","","","","","","","","","",""
"null","","html-keyboard-response","96","1080613","0.0-93.0","A3R97T5D3RR9JX","<p style=""font-size: 48px;"">+</p>","","","","","null","allTrialResponses","1000","1","7","img_art/28.jpg","-50","seems like a job done by a drunk or toddler","Jesus,James,Vincent,Isaac,Aaron,Ryan","The muted tones aren't my favorite.,-10,100,20","My grandparents would like this, maybe my great grandparents. It's not my style.,-30,380,20","This is one of my favorites. It says to me to take time for people,37,360,20","It is too messy.,-38,280,20","It's drab and looks like stereotypical abstract art.,-30,20,20","Colors look too muddy for my liking,-33,380,20","Vincent","This is one of my favorites. It says to me to take time for people,37,360,20","Isaac","It is too messy.,-38,280,20","Aaron","It's drab and looks like stereotypical abstract art.,-30,20,20","6"
"35572","","survey-text","97","1116197","0.0-94.0-0.0","A3R97T5D3RR9JX","","","","{""Q0"":""seems like an interesting way of drawing a view with trees""}","","","","","","","","","","","","","","","","","","","","","","",""
"5728.600000023842","","image-slider-response","98","1121927","0.0-95.0","A3R97T5D3RR9JX","","","","","3","","","","","","","","","","","","","","","","","","","","","",""
"null","","image-button-response","99","1126931","0.0-96.0","A3R97T5D3RR9JX","img_art/26.jpg","null","","","","","","","","","","","","","","","","","","","","","","","","",""
"1017","","image-button-response","100","1127954","0.0-97.0","A3R97T5D3RR9JX","img_art/26.jpg","2","","","","","","","","","","","","","","","","","","","","","","","","",""
"1258","","image-button-response","101","1129214","0.0-98.0-0.0","A3R97T5D3RR9JX","img_art/26.jpg","0","","","","","","","","","","","","","","","","","","","","","","","","",""
"1070","","image-button-response","102","1130287","0.0-99.0-0.0","A3R97T5D3RR9JX","img_art/26.jpg","3","","","","","","","","","","","","","","","","","","","","","","","","",""
"null","","html-keyboard-response","103","1130790","0.0-100.0","A3R97T5D3RR9JX","<p style=""font-size: 48px;"">+</p>","","","","","null","allTrialResponses","500","1","8","img_art/26.jpg","3","seems like an interesting way of drawing a view with trees","Steven,Gregory,Vincent,Isaac,Aaron,Mitchell","This one is nicer, looks like a walk in a small, dreamy city,20,160,20","Street corner on a sunny day,5,220,20","Small town and home feel on A nice day.,28,360,20","I wish it were more pastel but I think it is relaxing to look at.,30,280,20","It looks like a watercolor I did when I was 6.,-30,20,20","Incomplete, The artist painted his impression of somthing he was thinking of,0,180,20","Vincent","Small town and home feel on A nice day.,28,360,20","Steven","This one is nicer, looks like a walk in a small, dreamy city,20,160,20","Isaac","I wish it were more pastel but I think it is relaxing to look at.,30,280,20","6"
"21994","","survey-text","104","1152794","0.0-101.0-0.0","A3R97T5D3RR9JX","","","","{""Q0"":""seems sophisticated and the brush strokes are amazing""}","","","","","","","","","","","","","","","","","","","","","","",""
"4919","","image-slider-response","105","1157716","0.0-102.0","A3R97T5D3RR9JX","","","","","50","","","","","","","","","","","","","","","","","","","","","",""
"null","","image-button-response","106","1162728","0.0-103.0","A3R97T5D3RR9JX","img_art/13.jpg","null","","","","","","","","","","","","","","","","","","","","","","","","",""
"670","","image-button-response","107","1163401","0.0-104.0","A3R97T5D3RR9JX","img_art/13.jpg","1","","","","","","","","","","","","","","","","","","","","","","","","",""
"732","","image-button-response","108","1164134","0.0-105.0-0.0","A3R97T5D3RR9JX","img_art/13.jpg","2","","","","","","","","","","","","","","","","","","","","","","","","",""
"1104","","image-button-response","109","1165241","0.0-106.0-0.0","A3R97T5D3RR9JX","img_art/13.jpg","5","","","","","","","","","","","","","","","","","","","","","","","","",""
"null","","html-keyboard-response","110","1166742","0.0-107.0","A3R97T5D3RR9JX","<p style=""font-size: 48px;"">+</p>","","","","","null","allTrialResponses","1500","1","9","img_art/13.jpg","50","seems sophisticated and the brush strokes are amazing","Steven,Cole,Vincent,Isaac,Alexis,Jack","It's just paint splatter, no real meaning to me,-50,160,20","The blue colors are very calming. Reminds me of water,33,200,20","I love the colors reminds me of a rainy day..it's calm and relaxing,32,360,20","The colors are okay but I don't like the shapes here.,-18,280,20","It looks too common, is a bit boring,-41,140,20","exciting & chaotic. love the colors.,50,320,20","Cole","The blue colors are very calming. Reminds me of water,33,200,20","Vincent","I love the colors reminds me of a rainy day..it's calm and relaxing,32,360,20","Jack","exciting & chaotic. love the colors.,50,320,20","6"
"23623","","survey-text","111","1190377","0.0-108.0-0.0","A3R97T5D3RR9JX","","","","{""Q0"":""looks like a vintage photo. love the design""}","","","","","","","","","","","","","","","","","","","","","","",""
"7916.299999952316","","image-slider-response","112","1198295","0.0-109.0","A3R97T5D3RR9JX","","","","","4","","","","","","","","","","","","","","","","","","","","","",""
"null","","image-button-response","113","1203299","0.0-110.0","A3R97T5D3RR9JX","img_art/14.jpg","null","","","","","","","","","","","","","","","","","","","","","","","","",""
"686","","image-button-response","114","1203988","0.0-111.0","A3R97T5D3RR9JX","img_art/14.jpg","0","","","","","","","","","","","","","","","","","","","","","","","","",""
"1131","","image-button-response","115","1205122","0.0-112.0-0.0","A3R97T5D3RR9JX","img_art/14.jpg","4","","","","","","","","","","","","","","","","","","","","","","","","",""
"790","","image-button-response","116","1205915","0.0-113.0-0.0","A3R97T5D3RR9JX","img_art/14.jpg","5","","","","","","","","","","","","","","","","","","","","","","","","",""
"null","","html-keyboard-response","117","1206931","0.0-114.0","A3R97T5D3RR9JX","<p style=""font-size: 48px;"">+</p>","","","","","null","allTrialResponses","1000","1","10","img_art/14.jpg","4","looks like a vintage photo. love the design","Andrew,Cole,Vincent,Christopher,Scott,Jack","Makes me think of my plants growing,11,160,20","Simplistic. Looks like a child did it,14,200,20","Reminds me of the old days with my family and my grandma,41,360,20","this looks pretty childish,-15,160,20","its okay nothing special,11,20,20","love the colors. despite their brightness it seems sad somehow.,41,320,20","Andrew","Makes me think of my plants growing,11,160,20","Scott","its okay nothing special,11,20,20","Jack","love the colors. despite their brightness it seems sad somehow.,41,320,20","6"
"6675","","survey-text","118","1213631","0.0-115.0-0.0","A3R97T5D3RR9JX","","","","{""Q0"":""our""}","","","","","","","","","","","","","","","","","","","","","","",""
"30102","","survey-text","119","1243735","0.0-116.0-0.0","A3R97T5D3RR9JX","","","","{""Q0"":""the green doesn't look good but the rest is not that bad""}","","","","","","","","","","","","","","","","","","","","","","",""
"7553.599999904633","","image-slider-response","120","1251290","0.0-117.0","A3R97T5D3RR9JX","","","","","-23","","","","","","","","","","","","","","","","","","","","","",""
"null","","image-button-response","121","1256293","0.0-118.0","A3R97T5D3RR9JX","img_art/9.jpg","null","","","","","","","","","","","","","","","","","","","","","","","","",""
"833","","image-button-response","122","1257130","0.0-119.0","A3R97T5D3RR9JX","img_art/9.jpg","3","","","","","","","","","","","","","","","","","","","","","","","","",""
"1230","","image-button-response","123","1258362","0.0-120.0-0.0","A3R97T5D3RR9JX","img_art/9.jpg","0","","","","","","","","","","","","","","","","","","","","","","","","",""
"1684","","image-button-response","124","1260048","0.0-121.0-0.0","A3R97T5D3RR9JX","img_art/9.jpg","2","","","","","","","","","","","","","","","","","","","","","","","","",""
"null","","html-keyboard-response","125","1261058","0.0-122.0","A3R97T5D3RR9JX","<p style=""font-size: 48px;"">+</p>","","","","","null","allTrialResponses","1000","1","11","img_art/9.jpg","-23","the green doesn't look good but the rest is not that bad","Andrew,Jose,Samuel,Cody,Scott,Jack","The peacock theme gives me negative connotations of my ex-sister-in-law,-10,160,20","Idk what is in the middle but the blurry image makes it seem like the subject is of the painters interest,22,200,20","what a wild ride,11,400,20","Feels angry .....,-40,180,20","looks like someone resting,12,20,20","gorgeous colors, love the little details,42,320,20","Cody","Feels angry .....,-40,180,20","Andrew","The peacock theme gives me negative connotations of my ex-sister-in-law,-10,160,20","Samuel","what a wild ride,11,400,20","6"
"33999","","survey-text","126","1295070","0.0-123.0-0.0","A3R97T5D3RR9JX","","","","{""Q0"":""the brushstrokes are masterclass. excellent painting""}","","","","","","","","","","","","","","","","","","","","","","",""
"10396.600000023842","","image-slider-response","127","1305468","0.0-124.0","A3R97T5D3RR9JX","","","","","50","","","","","","","","","","","","","","","","","","","","","",""
"4696","","image-button-response","128","1310473","0.0-125.0","A3R97T5D3RR9JX","img_art/29.jpg","1","","","","","","","","","","","","","","","","","","","","","","","","",""
"827","","image-button-response","129","1311304","0.0-126.0","A3R97T5D3RR9JX","img_art/29.jpg","4","","","","","","","","","","","","","","","","","","","","","","","","",""
"1709","","image-button-response","130","1313014","0.0-127.0-0.0","A3R97T5D3RR9JX","img_art/29.jpg","5","","","","","","","","","","","","","","","","","","","","","","","","",""
"1591","","image-button-response","131","1314608","0.0-128.0-0.0","A3R97T5D3RR9JX","img_art/29.jpg","1","","","","","","","","","","","","","","","","","","","","","","","","",""
"null","","html-keyboard-response","132","1315111","0.0-129.0","A3R97T5D3RR9JX","<p style=""font-size: 48px;"">+</p>","","","","","null","allTrialResponses","500","1","12","img_art/29.jpg","50","the brushstrokes are masterclass. excellent painting","Andrew,Kyle,Samuel,Cody,Jacob,Luke","It seems like there's anger in the painting.,-20,160,20","I like the usage of blacks and greys in this,8,340,20","too challenging to comprehend,-28,400,20","Feels messy, stressful,-22,180,20","It looks cool but I don't really get what's going on, it looks too busy,0,340,20","it is difficult to look at but you can't look away,-25,20,20","Jacob","It looks cool but I don't really get what's going on, it looks too busy,0,340,20","Luke","it is difficult to look at but you can't look away,-25,20,20","Kyle","I like the usage of blacks and greys in this,8,340,20","6"
"14901","","survey-text","133","1330025","0.0-130.0-0.0","A3R97T5D3RR9JX","","","","{""Q0"":""looks like sellable art ""}","","","","","","","","","","","","","","","","","","","","","","",""
"11555.199999928474","","image-slider-response","134","1341582","0.0-131.0","A3R97T5D3RR9JX","","","","","-1","","","","","","","","","","","","","","","","","","","","","",""
"null","","image-button-response","135","1346586","0.0-132.0","A3R97T5D3RR9JX","img_art/4.jpg","null","","","","","","","","","","","","","","","","","","","","","","","","",""
"825","","image-button-response","136","1347414","0.0-133.0","A3R97T5D3RR9JX","img_art/4.jpg","0","","","","","","","","","","","","","","","","","","","","","","","","",""
"1212","","image-button-response","137","1348628","0.0-134.0-0.0","A3R97T5D3RR9JX","img_art/4.jpg","4","","","","","","","","","","","","","","","","","","","","","","","","",""
"699","","image-button-response","138","1349329","0.0-135.0-0.0","A3R97T5D3RR9JX","img_art/4.jpg","5","","","","","","","","","","","","","","","","","","","","","","","","",""
"null","","html-keyboard-response","139","1350331","0.0-136.0","A3R97T5D3RR9JX","<p style=""font-size: 48px;"">+</p>","","","","","null","allTrialResponses","1000","1","13","img_art/4.jpg","-1","looks like sellable art ","Isaiah,Kyle,Lucas,Matthew,Jacob,Luke","The sickly looking colors make me feel very uncomfortable.,-35,300,20","It's quite meh to me,0,340,20","Not bad at all.,20,380,20","It looks like a hand.,25,120,20","Looks like they just smothered on some paint and called it a day.,-17,340,20","it looks like a simple finger painting, yet i liked the color choices,-12,20,20","Isaiah","The sickly looking colors make me feel very uncomfortable.,-35,300,20","Jacob","Looks like they just smothered on some paint and called it a day.,-17,340,20","Luke","it looks like a simple finger painting, yet i liked the color choices,-12,20,20","6"
"26961","","survey-text","140","1377307","0.0-137.0-0.0","A3R97T5D3RR9JX","","","","{""Q0"":""the artwork is amazing. would buy this""}","","","","","","","","","","","","","","","","","","","","","","",""
"6479","","image-slider-response","141","1383788","0.0-138.0","A3R97T5D3RR9JX","","","","","40","","","","","","","","","","","","","","","","","","","","","",""
"null","","image-button-response","142","1388795","0.0-139.0","A3R97T5D3RR9JX","img_art/25.jpg","null","","","","","","","","","","","","","","","","","","","","","","","","",""
"792","","image-button-response","143","1389591","0.0-140.0","A3R97T5D3RR9JX","img_art/25.jpg","2","","","","","","","","","","","","","","","","","","","","","","","","",""
"727","","image-button-response","144","1390320","0.0-141.0-0.0","A3R97T5D3RR9JX","img_art/25.jpg","1","","","","","","","","","","","","","","","","","","","","","","","","",""
"1195","","image-button-response","145","1391518","0.0-142.0-0.0","A3R97T5D3RR9JX","img_art/25.jpg","5","","","","","","","","","","","","","","","","","","","","","","","","",""
"null","","html-keyboard-response","146","1392023","0.0-143.0","A3R97T5D3RR9JX","<p style=""font-size: 48px;"">+</p>","","","","","null","allTrialResponses","500","1","14","img_art/25.jpg","40","the artwork is amazing. would buy this","Isaiah,Ian,Daniel,Jesse,Jacob,Luke","I feel little to no emotion looking at this painting.,0,300,20","This looks cool but I don't really care for it. Some sort or religious figure?,16,260,20","Beautiful color with an interesting otherworldly figure,29,320,20","Creates a bit of fear in me for some reason,-26,80,20","I really like how the lines form this piece.,8,340,20","the contrasting colors are very interesting,24,20,20","Daniel","Beautiful color with an interesting otherworldly figure,29,320,20","Ian","This looks cool but I don't really care for it. Some sort or religious figure?,16,260,20","Luke","the contrasting colors are very interesting,24,20,20","6"
"20683","","survey-text","147","1412727","0.0-144.0-0.0","A3R97T5D3RR9JX","","","","{""Q0"":""the dullness of the colors is not appealing""}","","","","","","","","","","","","","","","","","","","","","","",""
"5683.5","","image-slider-response","148","1418413","0.0-145.0","A3R97T5D3RR9JX","","","","","-50","","","","","","","","","","","","","","","","","","","","","",""
"null","","image-button-response","149","1423420","0.0-146.0","A3R97T5D3RR9JX","img_art/21.jpg","null","","","","","","","","","","","","","","","","","","","","","","","","",""
"309","","image-button-response","150","1423732","0.0-147.0","A3R97T5D3RR9JX","img_art/21.jpg","0","","","","","","","","","","","","","","","","","","","","","","","","",""
"2036","","image-button-response","151","1425770","0.0-148.0-0.0","A3R97T5D3RR9JX","img_art/21.jpg","5","","","","","","","","","","","","","","","","","","","","","","","","",""
"2195","","image-button-response","152","1427968","0.0-149.0-0.0","A3R97T5D3RR9JX","img_art/21.jpg","1","","","","","","","","","","","","","","","","","","","","","","","","",""
"null","","html-keyboard-response","153","1428977","0.0-150.0","A3R97T5D3RR9JX","<p style=""font-size: 48px;"">+</p>","","","","","null","allTrialResponses","1000","1","15","img_art/21.jpg","-50","the dullness of the colors is not appealing","Chase,Ian,Daniel,Brandon,Jordan,Luke","Kind of looks like a sky with a storm or tornado.,10,120,20","This looks very interesting because something is happening but I can't tell what.,28,260,20","Nice asymmetry with maritime colors city meets the sea,34,320,20","I love this. Reminds me of a coast. The colors flow beautifully,40,320,20","Beautiful colors, remind me of my yoga studio,50,160,20","the vast colors make me happy,15,20,20","Chase","Kind of looks like a sky with a storm or tornado.,10,120,20","Luke","the vast colors make me happy,15,20,20","Ian","This looks very interesting because something is happening but I can't tell what.,28,260,20","6"
"6591","","survey-text","154","1435591","0.0-151.0-0.0","A3R97T5D3RR9JX","","","","{""Q0"":""course""}","","","","","","","","","","","","","","","","","","","","","","",""
"22274","","survey-text","155","1457867","0.0-152.0-0.0","A3R97T5D3RR9JX","","","","{""Q0"":""not that bad but looks good to look at""}","","","","","","","","","","","","","","","","","","","","","","",""
"5068.600000023842","","image-slider-response","156","1462938","0.0-153.0","A3R97T5D3RR9JX","","","","","-17","","","","","","","","","","","","","","","","","","","","","",""
"null","","image-button-response","157","1467942","0.0-154.0","A3R97T5D3RR9JX","img_art/11.jpg","null","","","","","","","","","","","","","","","","","","","","","","","","",""
"1770","","image-button-response","158","1469716","0.0-155.0","A3R97T5D3RR9JX","img_art/11.jpg","0","","","","","","","","","","","","","","","","","","","","","","","","",""
"1151","","image-button-response","159","1470869","0.0-156.0-0.0","A3R97T5D3RR9JX","img_art/11.jpg","2","","","","","","","","","","","","","","","","","","","","","","","","",""
"1818","","image-button-response","160","1472690","0.0-157.0-0.0","A3R97T5D3RR9JX","img_art/11.jpg","4","","","","","","","","","","","","","","","","","","","","","","","","",""
"null","","html-keyboard-response","161","1473192","0.0-158.0","A3R97T5D3RR9JX","<p style=""font-size: 48px;"">+</p>","","","","","null","allTrialResponses","500","1","16","img_art/11.jpg","-17","not that bad but looks good to look at","Chase,Ian,Jeremy,Christian,Brendan,Luke","It's too dark and dingy.,-30,120,20","This one is a little erie, gives me post-apocalyptic feeling,27,260,20","gave me a sense of gloom,-21,60,20","to me, perfect reflection of the modern commute,32,140,20","i dont understand this painting,-1,340,20","it reminds me of music,43,20,20","Chase","It's too dark and dingy.,-30,120,20","Jeremy","gave me a sense of gloom,-21,60,20","Brendan","i dont understand this painting,-1,340,20","6"
"16799","","survey-text","162","1490006","0.0-159.0-0.0","A3R97T5D3RR9JX","","","","{""Q0"":""i do not really understand the painting""}","","","","","","","","","","","","","","","","","","","","","","",""
"5483.300000071526","","image-slider-response","163","1495491","0.0-160.0","A3R97T5D3RR9JX","","","","","-45","","","","","","","","","","","","","","","","","","","","","",""
"null","","image-button-response","164","1500495","0.0-161.0","A3R97T5D3RR9JX","img_art/7.jpg","null","","","","","","","","","","","","","","","","","","","","","","","","",""
"679","","image-button-response","165","1501177","0.0-162.0","A3R97T5D3RR9JX","img_art/7.jpg","3","","","","","","","","","","","","","","","","","","","","","","","","",""
"1069","","image-button-response","166","1502248","0.0-163.0-0.0","A3R97T5D3RR9JX","img_art/7.jpg","5","","","","","","","","","","","","","","","","","","","","","","","","",""
"1567","","image-button-response","167","1503818","0.0-164.0-0.0","A3R97T5D3RR9JX","img_art/7.jpg","0","","","","","","","","","","","","","","","","","","","","","","","","",""
"null","","html-keyboard-response","168","1504830","0.0-165.0","A3R97T5D3RR9JX","<p style=""font-size: 48px;"">+</p>","","","","","null","allTrialResponses","1000","1","17","img_art/7.jpg","-45","i do not really understand the painting","Chase,David,Jeremy,Mason,Brendan,Dylan","Just looks like rocks or some kind of mineral.,0,120,20","I like how the image has a sense of history, since the style looks like it came from stone.,20,340,20","Happy. Looking at the moon,43,60,20","I don't get it. looks like a picture of the ground.,-42,100,20","some rocks on a mars?,7,340,20","I do not like the boring colors in this.,-20,40,20","Mason","I don't get it. looks like a picture of the ground.,-42,100,20","Dylan","I do not like the boring colors in this.,-20,40,20","Chase","Just looks like rocks or some kind of mineral.,0,120,20","6"
"15801","","survey-text","169","1520645","0.0-166.0-0.0","A3R97T5D3RR9JX","","","","{""Q0"":""seems like fine art work""}","","","","","","","","","","","","","","","","","","","","","","",""
"4331.600000023842","","image-slider-response","170","1524979","0.0-167.0","A3R97T5D3RR9JX","","","","","25","","","","","","","","","","","","","","","","","","","","","",""
"null","","image-button-response","171","1529991","0.0-168.0","A3R97T5D3RR9JX","img_art/15.jpg","null","","","","","","","","","","","","","","","","","","","","","","","","",""
"3005","","image-button-response","172","1532999","0.0-169.0","A3R97T5D3RR9JX","img_art/15.jpg","4","","","","","","","","","","","","","","","","","","","","","","","","",""
"1071","","image-button-response","173","1534073","0.0-170.0-0.0","A3R97T5D3RR9JX","img_art/15.jpg","1","","","","","","","","","","","","","","","","","","","","","","","","",""
"3124","","image-button-response","174","1537200","0.0-171.0-0.0","A3R97T5D3RR9JX","img_art/15.jpg","5","","","","","","","","","","","","","","","","","","","","","","","","",""
"null","","html-keyboard-response","175","1538203","0.0-172.0","A3R97T5D3RR9JX","<p style=""font-size: 48px;"">+</p>","","","","","null","allTrialResponses","1000","1","18","img_art/15.jpg","25","seems like fine art work","Chase,Angel,Nicholas,Mason,William,Dylan","I don't like how the black dots are aligned.,-20,120,20","This is looking at a forest from above. I can see water and some pathways throughout. Nature.,20,180,20","Not interesting enough. Boring,-37,240,20","It's ok, it makes me think. That's something I guess.,8,100,20","makes me feel calm,40,380,20","This is sort of ugly, but I do like the design.,10,40,20","William","makes me feel calm,40,380,20","Angel","This is looking at a forest from above. I can see water and some pathways throughout. Nature.,20,180,20","Dylan","This is sort of ugly, but I do like the design.,10,40,20","6"
"17463","","survey-text","176","1555678","0.0-173.0-0.0","A3R97T5D3RR9JX","","","","{""Q0"":""this makes me feel calm and relaxed""}","","","","","","","","","","","","","","","","","","","","","","",""
"5153.399999976158","","image-slider-response","177","1560834","0.0-174.0","A3R97T5D3RR9JX","","","","","36","","","","","","","","","","","","","","","","","","","","","",""
"null","","image-button-response","178","1565853","0.0-175.0","A3R97T5D3RR9JX","img_art/24.jpg","null","","","","","","","","","","","","","","","","","","","","","","","","",""
"1995","","image-button-response","179","1567851","0.0-176.0","A3R97T5D3RR9JX","img_art/24.jpg","5","","","","","","","","","","","","","","","","","","","","","","","","",""
"967","","image-button-response","180","1568821","0.0-177.0-0.0","A3R97T5D3RR9JX","img_art/24.jpg","4","","","","","","","","","","","","","","","","","","","","","","","","",""
"1166","","image-button-response","181","1569990","0.0-178.0-0.0","A3R97T5D3RR9JX","img_art/24.jpg","1","","","","","","","","","","","","","","","","","","","","","","","","",""
"null","","html-keyboard-response","182","1571501","0.0-179.0","A3R97T5D3RR9JX","<p style=""font-size: 48px;"">+</p>","","","","","null","allTrialResponses","1500","1","19","img_art/24.jpg","36","this makes me feel calm and relaxed","Tristan,Angel,Derek,Dakota,William,Dylan","The contorted angles of the flowing water upset the harmony,-20,300,20","This is clear and healthy. It makes me think of unspoiled nature.,20,180,20","I absolutely adore this painting. The colors, designs, everything. It's phenomenal,50,360,20","chunky fresh color,27,280,20","very peaceful and serene,47,380,20","This reminds me of a creek or a river. It puts me a peace,42,40,20","Dylan","This reminds me of a creek or a river. It puts me a peace,42,40,20","William","very peaceful and serene,47,380,20","Angel","This is clear and healthy. It makes me think of unspoiled nature.,20,180,20","6"
"12638","","survey-text","183","1584153","0.0-180.0-0.0","A3R97T5D3RR9JX","","","","{""Q0"":""reminds me of my daughter""}","","","","","","","","","","","","","","","","","","","","","","",""
"4875.799999952316","","image-slider-response","184","1589031","0.0-181.0","A3R97T5D3RR9JX","","","","","38","","","","","","","","","","","","","","","","","","","","","",""
"null","","image-button-response","185","1594034","0.0-182.0","A3R97T5D3RR9JX","img_art/16.jpg","null","","","","","","","","","","","","","","","","","","","","","","","","",""
"1911","","image-button-response","186","1595949","0.0-183.0","A3R97T5D3RR9JX","img_art/16.jpg","3","","","","","","","","","","","","","","","","","","","","","","","","",""
"841","","image-button-response","187","1596793","0.0-184.0-0.0","A3R97T5D3RR9JX","img_art/16.jpg","4","","","","","","","","","","","","","","","","","","","","","","","","",""
"1037","","image-button-response","188","1597833","0.0-185.0-0.0","A3R97T5D3RR9JX","img_art/16.jpg","0","","","","","","","","","","","","","","","","","","","","","","","","",""
"null","","html-keyboard-response","189","1598835","0.0-186.0","A3R97T5D3RR9JX","<p style=""font-size: 48px;"">+</p>","","","","","null","allTrialResponses","1000","1","20","img_art/16.jpg","38","reminds me of my daughter","Brian,Angel,Edward,Thomas,William,Dylan","I love the teddy bear,50,380,20","I see something that is supposed to be comforting but it's been discarded and lost.,-20,180,20","It feels lazily done,-9,60,20","Makes me want to know more,5,220,20","liked the bear, nothing else made sense,10,380,20","This is weird and creepy.,-40,40,20","Thomas","Makes me want to know more,5,220,20","William","liked the bear, nothing else made sense,10,380,20","Brian","I love the teddy bear,50,380,20","6"
"4995","","survey-text","190","1603864","0.0-187.0-0.0","A3R97T5D3RR9JX","","","","{""Q0"":""we""}","","","","","","","","","","","","","","","","","","","","","","",""
"17803","","survey-text","191","1621668","0.0-188.0-0.0","A3R97T5D3RR9JX","","","","{""Q0"":""does not look appealing at all""}","","","","","","","","","","","","","","","","","","","","","","",""
"6644.100000023842","","image-slider-response","192","1628315","0.0-189.0","A3R97T5D3RR9JX","","","","","-50","","","","","","","","","","","","","","","","","","","","","",""
"null","","image-button-response","193","1633319","0.0-190.0","A3R97T5D3RR9JX","img_art/30.jpg","null","","","","","","","","","","","","","","","","","","","","","","","","",""
"1847","","image-button-response","194","1635169","0.0-191.0","A3R97T5D3RR9JX","img_art/30.jpg","3","","","","","","","","","","","","","","","","","","","","","","","","",""
"1477","","image-button-response","195","1636649","0.0-192.0-0.0","A3R97T5D3RR9JX","img_art/30.jpg","0","","","","","","","","","","","","","","","","","","","","","","","","",""
"851","","image-button-response","196","1637503","0.0-193.0-0.0","A3R97T5D3RR9JX","img_art/30.jpg","1","","","","","","","","","","","","","","","","","","","","","","","","",""
"null","","html-keyboard-response","197","1638005","0.0-194.0","A3R97T5D3RR9JX","<p style=""font-size: 48px;"">+</p>","","","","","null","allTrialResponses","500","1","21","img_art/30.jpg","-50","does not look appealing at all","Brian,Jeffrey,Benjamin,Thomas,William,Hunter","this is probably part of a neat series, but the abstraction doesn't speak to me,-17,380,20","calming and relaxing,14,40,20","fresh and bold. outgoing.,15,260,20","I like the colors,18,220,20","to dark and dreary,-28,380,20","muddy, feels unintentional,-50,240,20","Thomas","I like the colors,18,220,20","Brian","this is probably part of a neat series, but the abstraction doesn't speak to me,-17,380,20","Jeffrey","calming and relaxing,14,40,20","6"
"17150","","survey-text","198","1655170","0.0-195.0-0.0","A3R97T5D3RR9JX","","","","{""Q0"":""feels very unintentional work""}","","","","","","","","","","","","","","","","","","","","","","",""
"5833","","image-slider-response","199","1661005","0.0-196.0","A3R97T5D3RR9JX","","","","","-50","","","","","","","","","","","","","","","","","","","","","",""
"null","","image-button-response","200","1666018","0.0-197.0","A3R97T5D3RR9JX","img_art/3.jpg","null","","","","","","","","","","","","","","","","","","","","","","","","",""
"1045","","image-button-response","201","1667066","0.0-198.0","A3R97T5D3RR9JX","img_art/3.jpg","1","","","","","","","","","","","","","","","","","","","","","","","","",""
"1090","","image-button-response","202","1668158","0.0-199.0-0.0","A3R97T5D3RR9JX","img_art/3.jpg","5","","","","","","","","","","","","","","","","","","","","","","","","",""
"997","","image-button-response","203","1669158","0.0-200.0-0.0","A3R97T5D3RR9JX","img_art/3.jpg","4","","","","","","","","","","","","","","","","","","","","","","","","",""
"null","","html-keyboard-response","204","1670175","0.0-201.0","A3R97T5D3RR9JX","<p style=""font-size: 48px;"">+</p>","","","","","null","allTrialResponses","1000","1","22","img_art/3.jpg","-50","feels very unintentional work","Brian,Jeffrey,Trevor,Thomas,Patrick,Bryce","this is a very nice emotion,27,380,20","Associates with blood and crime scene,-12,40,20","looks more classic but i'm not a fan of the colors,7,280,20","Too messy and structure-less,-10,220,20","Random use of red and looks scary,-50,280,20","Scary. Looks like blood.,-45,20,20","Jeffrey","Associates with blood and crime scene,-12,40,20","Bryce","Scary. Looks like blood.,-45,20,20","Patrick","Random use of red and looks scary,-50,280,20","6"
"12590","","survey-text","205","1682780","0.0-202.0-0.0","A3R97T5D3RR9JX","","","","{""Q0"":""looks frightening""}","","","","","","","","","","","","","","","","","","","","","","",""
"5126.5","","image-slider-response","206","1687908","0.0-203.0","A3R97T5D3RR9JX","","","","","-45","","","","","","","","","","","","","","","","","","","","","",""
"null","","image-button-response","207","1692926","0.0-204.0","A3R97T5D3RR9JX","img_art/1.jpg","null","","","","","","","","","","","","","","","","","","","","","","","","",""
"692","","image-button-response","208","1693620","0.0-205.0","A3R97T5D3RR9JX","img_art/1.jpg","4","","","","","","","","","","","","","","","","","","","","","","","","",""
"859","","image-button-response","209","1694482","0.0-206.0-0.0","A3R97T5D3RR9JX","img_art/1.jpg","5","","","","","","","","","","","","","","","","","","","","","","","","",""
"3197","","image-button-response","210","1697681","0.0-207.0-0.0","A3R97T5D3RR9JX","img_art/1.jpg","3","","","","","","","","","","","","","","","","","","","","","","","","",""
"null","","html-keyboard-response","211","1698694","0.0-208.0","A3R97T5D3RR9JX","<p style=""font-size: 48px;"">+</p>","","","","","null","allTrialResponses","1000","1","23","img_art/1.jpg","-45","looks frightening","Tyler,Jeffrey,Charles,Ethan,Patrick,Bryce","This looks like the same artist as the first picture, but cropped? Looks incomplete.,28,320,20","Makes me warm and relaxed,38,40,20","It's like being out on a psychedelic lake,32,100,20","This piece feels soft and romantic to me. I do not care for so much orange though.,3,120,20","I feel uneasy looking at this,-41,280,20","Again kind a boring.,-38,20,20","Patrick","I feel uneasy looking at this,-41,280,20","Bryce","Again kind a boring.,-38,20,20","Ethan","This piece feels soft and romantic to me. I do not care for so much orange though.,3,120,20","6"
"11846","","survey-text","212","1710555","0.0-209.0-0.0","A3R97T5D3RR9JX","","","","{""Q0"":""very boring to look at""}","","","","","","","","","","","","","","","","","","","","","","",""
"4949.099999904633","","image-slider-response","213","1715506","0.0-210.0","A3R97T5D3RR9JX","","","","","-50","","","","","","","","","","","","","","","","","","","","","",""
"null","","image-button-response","214","1720511","0.0-211.0","A3R97T5D3RR9JX","img_art/27.jpg","null","","","","","","","","","","","","","","","","","","","","","","","","",""
"2190","","image-button-response","215","1722704","0.0-212.0","A3R97T5D3RR9JX","img_art/27.jpg","4","","","","","","","","","","","","","","","","","","","","","","","","",""
"1384","","image-button-response","216","1724091","0.0-213.0-0.0","A3R97T5D3RR9JX","img_art/27.jpg","2","","","","","","","","","","","","","","","","","","","","","","","","",""
"777","","image-button-response","217","1724871","0.0-214.0-0.0","A3R97T5D3RR9JX","img_art/27.jpg","1","","","","","","","","","","","","","","","","","","","","","","","","",""
"null","","html-keyboard-response","218","1725885","0.0-215.0","A3R97T5D3RR9JX","<p style=""font-size: 48px;"">+</p>","","","","","null","allTrialResponses","1000","1","24","img_art/27.jpg","-50","very boring to look at","Bryan,Nathaniel,Paul,Ethan,Patrick,Bryce","Not fond of the bad pencil drawing mixed with the drab colors.,-21,400,20","Looks like a splash of different colors and designs without purpose,-44,220,20","It tries to remind me of the autumn season but it's grey and looks dirty,-5,300,20","I like the layer upon layer of different mediums used here.,21,120,20","Not cohesive design,-31,280,20","It kinda reminds me of sushi.,16,20,20","Patrick","Not cohesive design,-31,280,20","Paul","It tries to remind me of the autumn season but it's grey and looks dirty,-5,300,20","Nathaniel","Looks like a splash of different colors and designs without purpose,-44,220,20","6"
"11944","","survey-text","219","1737845","0.0-216.0-0.0","A3R97T5D3RR9JX","","","","{""Q0"":""interesting to look at""}","","","","","","","","","","","","","","","","","","","","","","",""
"4229","","image-slider-response","220","1742076","0.0-217.0","A3R97T5D3RR9JX","","","","","27","","","","","","","","","","","","","","","","","","","","","",""
"null","","image-button-response","221","1747086","0.0-218.0","A3R97T5D3RR9JX","img_art/23.jpg","null","","","","","","","","","","","","","","","","","","","","","","","","",""
"1432","","image-button-response","222","1748521","0.0-219.0","A3R97T5D3RR9JX","img_art/23.jpg","3","","","","","","","","","","","","","","","","","","","","","","","","",""
"820","","image-button-response","223","1749343","0.0-220.0-0.0","A3R97T5D3RR9JX","img_art/23.jpg","4","","","","","","","","","","","","","","","","","","","","","","","","",""
"1399","","image-button-response","224","1750745","0.0-221.0-0.0","A3R97T5D3RR9JX","img_art/23.jpg","2","","","","","","","","","","","","","","","","","","","","","","","","",""
"null","","html-keyboard-response","225","1751256","0.0-222.0","A3R97T5D3RR9JX","<p style=""font-size: 48px;"">+</p>","","","","","null","allTrialResponses","500","1","25","img_art/23.jpg","27","interesting to look at","Juan,Nathaniel,Paul,Carlos,Patrick,Colton","This is ugly and weird.,-50,260,20","Not a fan of these dot pieces. They hurt my eyes.,-25,220,20","I like the sharp contrast of the white on the colorful background,27,300,20","It feels active and vibrant.,20,80,20","Beautiful color scheme,21,280,20","the pattern is pleasing to the eye,28,220,20","Carlos","It feels active and vibrant.,20,80,20","Patrick","Beautiful color scheme,21,280,20","Paul","I like the sharp contrast of the white on the colorful background,27,300,20","6"
"5601","","survey-text","226","1756887","0.0-223.0-0.0","A3R97T5D3RR9JX","","","","{""Q0"":""table""}","","","","","","","","","","","","","","","","","","","","","","",""
"15891","","survey-text","227","1772779","0.0-224.0-0.0","A3R97T5D3RR9JX","","","","{""Q0"":""very unattractive""}","","","","","","","","","","","","","","","","","","","","","","",""
"5074.899999976158","","image-slider-response","228","1777857","0.0-225.0","A3R97T5D3RR9JX","","","","","-48","","","","","","","","","","","","","","","","","","","","","",""
"null","","image-button-response","229","1782860","0.0-226.0","A3R97T5D3RR9JX","img_art/6.jpg","null","","","","","","","","","","","","","","","","","","","","","","","","",""
"1052","","image-button-response","230","1783916","0.0-227.0","A3R97T5D3RR9JX","img_art/6.jpg","5","","","","","","","","","","","","","","","","","","","","","","","","",""
"1099","","image-button-response","231","1785017","0.0-228.0-0.0","A3R97T5D3RR9JX","img_art/6.jpg","1","","","","","","","","","","","","","","","","","","","","","","","","",""
"731","","image-button-response","232","1785751","0.0-229.0-0.0","A3R97T5D3RR9JX","img_art/6.jpg","2","","","","","","","","","","","","","","","","","","","","","","","","",""
"null","","html-keyboard-response","233","1786253","0.0-230.0","A3R97T5D3RR9JX","<p style=""font-size: 48px;"">+</p>","","","","","null","allTrialResponses","500","1","26","img_art/6.jpg","-48","very unattractive","Miguel,Stephen,Paul,Carlos,Patrick,Kenneth","Bird? It's a bird.,23,160,20","Good painting but too simple to care about it for very long.,-15,140,20","Maybe it's supposed to be a bird but it looks like a scary cloaked figure. it's just too simple and jarring,-23,300,20","Clean and simple, a pleasant resting place for the eyes.,21,80,20","It looks sad and scary at the same time,11,280,20","Simple and pretty.,18,300,20","Kenneth","Simple and pretty.,18,300,20","Stephen","Good painting but too simple to care about it for very long.,-15,140,20","Paul","Maybe it's supposed to be a bird but it looks like a scary cloaked figure. it's just too simple and jarring,-23,300,20","6"
"10690","","survey-text","234","1796965","0.0-231.0-0.0","A3R97T5D3RR9JX","","","","{""Q0"":""seems kinda dull""}","","","","","","","","","","","","","","","","","","","","","","",""
"4935.600000023842","","image-slider-response","235","1801902","0.0-232.0","A3R97T5D3RR9JX","","","","","-43","","","","","","","","","","","","","","","","","","","","","",""
"null","","image-button-response","236","1806922","0.0-233.0","A3R97T5D3RR9JX","img_art/22.jpg","null","","","","","","","","","","","","","","","","","","","","","","","","",""
"1133","","image-button-response","237","1808058","0.0-234.0","A3R97T5D3RR9JX","img_art/22.jpg","1","","","","","","","","","","","","","","","","","","","","","","","","",""
"747","","image-button-response","238","1808807","0.0-235.0-0.0","A3R97T5D3RR9JX","img_art/22.jpg","2","","","","","","","","","","","","","","","","","","","","","","","","",""
"1679","","image-button-response","239","1810489","0.0-236.0-0.0","A3R97T5D3RR9JX","img_art/22.jpg","0","","","","","","","","","","","","","","","","","","","","","","","","",""
"null","","html-keyboard-response","240","1811501","0.0-237.0","A3R97T5D3RR9JX","<p style=""font-size: 48px;"">+</p>","","","","","null","allTrialResponses","1000","1","27","img_art/22.jpg","-43","seems kinda dull","Adrian,Stephen,Paul,Joseph,Cameron,Kenneth","Too much contrasting colors makes me feel anxious. I don't like it.,-20,60,20","Didn't illicit any reaction,1,140,20","I really like the bright colors and sunset feel,31,300,20","I don't like that it looks like a person is there upside down.,-16,220,20","Like this one, like a sunset,30,60,20","I really enjoy the blended colors.,20,300,20","Stephen","Didn't illicit any reaction,1,140,20","Paul","I really like the bright colors and sunset feel,31,300,20","Adrian","Too much contrasting colors makes me feel anxious. I don't like it.,-20,60,20","6"
"19001","","survey-text","241","1830520","0.0-238.0-0.0","A3R97T5D3RR9JX","","","","{""Q0"":""looks random and unfinished""}","","","","","","","","","","","","","","","","","","","","","","",""
"5363.399999976158","","image-slider-response","242","1835886","0.0-239.0","A3R97T5D3RR9JX","","","","","-46","","","","","","","","","","","","","","","","","","","","","",""
"4311","","image-button-response","243","1840900","0.0-240.0","A3R97T5D3RR9JX","img_art/19.jpg","2","","","","","","","","","","","","","","","","","","","","","","","","",""
"1121","","image-button-response","244","1842024","0.0-241.0","A3R97T5D3RR9JX","img_art/19.jpg","1","","","","","","","","","","","","","","","","","","","","","","","","",""
"636","","image-button-response","245","1842663","0.0-242.0-0.0","A3R97T5D3RR9JX","img_art/19.jpg","2","","","","","","","","","","","","","","","","","","","","","","","","",""
"1413","","image-button-response","246","1844079","0.0-243.0-0.0","A3R97T5D3RR9JX","img_art/19.jpg","4","","","","","","","","","","","","","","","","","","","","","","","","",""
"null","","html-keyboard-response","247","1844589","0.0-244.0","A3R97T5D3RR9JX","<p style=""font-size: 48px;"">+</p>","","","","","null","allTrialResponses","500","1","28","img_art/19.jpg","-46","looks random and unfinished","Adrian,Stephen,Paul,Grant,Alex,Logan","Pleasant colors with just enough detail to be recognizable. I can see a scene in it that tells a story.,7,60,20","Solid use of colors but wished it looked more realistic.,12,140,20","The shapes make me recall a city scene but it looks dirty,-22,300,20","It's a cute city scene, but nothing special.,10,200,20","I like the water but again, the small lines with no detail are irritating,3,100,20","this flow I just really like how everything blends but also doesn't,45,360,20","Stephen","Solid use of colors but wished it looked more realistic.,12,140,20","Paul","The shapes make me recall a city scene but it looks dirty,-22,300,20","Alex","I like the water but again, the small lines with no detail are irritating,3,100,20","6"
"20467","","survey-text","248","1865074","0.0-245.0-0.0","A3R97T5D3RR9JX","","","","{""Q0"":""love the different shapes and faces""}","","","","","","","","","","","","","","","","","","","","","","",""
"7025.100000023842","","image-slider-response","249","1872101","0.0-246.0","A3R97T5D3RR9JX","","","","","35","","","","","","","","","","","","","","","","","","","","","",""
"null","","image-button-response","250","1877113","0.0-247.0","A3R97T5D3RR9JX","img_art/8.jpg","null","","","","","","","","","","","","","","","","","","","","","","","","",""
"777","","image-button-response","251","1877894","0.0-248.0","A3R97T5D3RR9JX","img_art/8.jpg","0","","","","","","","","","","","","","","","","","","","","","","","","",""
"1777","","image-button-response","252","1879672","0.0-249.0-0.0","A3R97T5D3RR9JX","img_art/8.jpg","3","","","","","","","","","","","","","","","","","","","","","","","","",""
"3939","","image-button-response","253","1883614","0.0-250.0-0.0","A3R97T5D3RR9JX","img_art/8.jpg","1","","","","","","","","","","","","","","","","","","","","","","","","",""
"null","","html-keyboard-response","254","1884625","0.0-251.0","A3R97T5D3RR9JX","<p style=""font-size: 48px;"">+</p>","","","","","null","allTrialResponses","1000","1","29","img_art/8.jpg","35","love the different shapes and faces","Brett,Stephen,Paul,Jason,Alex,Noah","Very abstract and seems symbolic,45,360,20","Has nice depth to it.,12,140,20","The faces in the upper left show agony and contrast with the geometric shapes too much,-31,300,20","There are a lot of different interesting elements in the picture.,12,20,20","I appreciate the complexity of this piece but it's too cubist for me,3,100,20","not sure what to make of this - just neutral again,-1,260,20","Brett","Very abstract and seems symbolic,45,360,20","Jason","There are a lot of different interesting elements in the picture.,12,20,20","Stephen","Has nice depth to it.,12,140,20","6"
"33675","","survey-text","255","1918318","0.0-252.0-0.0","A3R97T5D3RR9JX","","","","{""Q0"":""interesting choice of colors""}","","","","","","","","","","","","","","","","","","","","","","",""
"11204.299999952316","","image-slider-response","256","1929525","0.0-253.0","A3R97T5D3RR9JX","","","","","-6","","","","","","","","","","","","","","","","","","","","","",""
"null","","image-button-response","257","1934531","0.0-254.0","A3R97T5D3RR9JX","img_art/2.jpg","null","","","","","","","","","","","","","","","","","","","","","","","","",""
"13125","","image-button-response","258","1947658","0.0-255.0","A3R97T5D3RR9JX","img_art/2.jpg","0","","","","","","","","","","","","","","","","","","","","","","","","",""
"1230","","image-button-response","259","1948891","0.0-256.0-0.0","A3R97T5D3RR9JX","img_art/2.jpg","2","","","","","","","","","","","","","","","","","","","","","","","","",""
"3376","","image-button-response","260","1952270","0.0-257.0-0.0","A3R97T5D3RR9JX","img_art/2.jpg","5","","","","","","","","","","","","","","","","","","","","","","","","",""
"null","","html-keyboard-response","261","1953282","0.0-258.0","A3R97T5D3RR9JX","<p style=""font-size: 48px;"">+</p>","","","","","null","allTrialResponses","1000","1","30","img_art/2.jpg","-6","interesting choice of colors","Brett,Stephen,Spencer,Jason,Eric,Jonathan","Not very appealing,-5,360,20","Colors mix nicely.,5,140,20","Kind of looks upside down, I need a focal point,-29,120,20","Too jumbled and disorienting,-13,20,20","I like the color, but I feel like I see a creepy face which I dislike.,-5,100,20","It's a cool piece but honestly these color choices are the worst thing in the world,-31,140,20","Brett","Not very appealing,-5,360,20","Spencer","Kind of looks upside down, I need a focal point,-29,120,20","Jonathan","It's a cool piece but honestly these color choices are the worst thing in the world,-31,140,20","6"
"5281","","image-button-response_instructions","262","1958580","0.0-259.0","A3R97T5D3RR9JX","","0","instructions","","","","","","","","","","","","","","","","","","","","","","","",""
"1740","","image-button-response","263","1960327","0.0-260.0","A3R97T5D3RR9JX","","0","","","","","","","","","","","","","","","","","","","","","","","","",""
