"rt","url","trial_type","trial_index","time_elapsed","internal_node_id","participant_id","stimulus","button_pressed","Name","responses","response","key_press","variableName","fixationTime","condition","trial","photo","subjectRating","subjectResponse","agentsNames","agent_1_Response","agent_2_Response","agent_3_Response","agent_4_Response","agent_5_Response","agent_6_Response","kept_1_name","kept_1_response","kept_2_name","kept_2_response","kept_3_name","kept_3_response","errorCounter"
"5626","external_page_harvard.html","external-html","0","5693","0.0-0.0","A3RW5C1G9LVVV4","","","","","","","","","","","","","","","","","","","","","","","","","","",""
"1495","","image-button-response","1","7189","0.0-1.0","A3RW5C1G9LVVV4","","1","","","","","","","","","","","","","","","","","","","","","","","","",""
"1398","","image-button-response","2","8591","0.0-2.0-0.0","A3RW5C1G9LVVV4","","1","phone","","","","","","","","","","","","","","","","","","","","","","","",""
"6947","","survey-text","3","15541","0.0-3.0-0.0","A3RW5C1G9LVVV4","","","","{""Q0"":""A3RW5C1G9LVVV4""}","","","","","","","","","","","","","","","","","","","","","","",""
"4038","","image-button-response_instructions","4","19581","0.0-4.0","A3RW5C1G9LVVV4","","0","instructions","","","","","","","","","","","","","","","","","","","","","","","",""
"5369","","image-button-response_instructions","5","24952","0.0-5.0","A3RW5C1G9LVVV4","img_art/ins/popularity/ins1.png","0","instructions","","","","","","","","","","","","","","","","","","","","","","","",""
"2405","","image-button-response_instructions","6","27358","0.0-6.0","A3RW5C1G9LVVV4","img_art/ins/popularity/ins2.png","0","instructions","","","","","","","","","","","","","","","","","","","","","","","",""
"5385","","image-button-response_instructions","7","32745","0.0-7.0","A3RW5C1G9LVVV4","img_art/ins/popularity/ins2Extreme.png","0","instructions","","","","","","","","","","","","","","","","","","","","","","","",""
"1376","","image-button-response_instructions","8","34122","0.0-8.0","A3RW5C1G9LVVV4","img_art/ins/popularity/ins3KEEPpop.PNG","0","instructions","","","","","","","","","","","","","","","","","","","","","","","",""
"1563","","image-button-response_instructions","9","35687","0.0-9.0","A3RW5C1G9LVVV4","img_art/ins/popularity/ins3ANamepop.PNG","0","instructions","","","","","","","","","","","","","","","","","","","","","","","",""
"1612","","image-button-response_instructions","10","37300","0.0-10.0","A3RW5C1G9LVVV4","img_art/ins/popularity/ins3ARatingpop.png","0","instructions","","","","","","","","","","","","","","","","","","","","","","","",""
"3271","","image-button-response_instructions","11","40573","0.0-11.0","A3RW5C1G9LVVV4","img_art/ins/popularity/ins3ATextpop.png","0","instructions","","","","","","","","","","","","","","","","","","","","","","","",""
"1180","","image-button-response_instructions","12","41754","0.0-12.0","A3RW5C1G9LVVV4","img_art/ins/popularity/ins3ALikespop.png","0","instructions","","","","","","","","","","","","","","","","","","","","","","","",""
"1411","","image-button-response_instructions","13","43167","0.0-13.0","A3RW5C1G9LVVV4","img_art/ins/popularity/ins3KEEPpop.PNG","0","instructions","","","","","","","","","","","","","","","","","","","","","","","",""
"4002","","image-button-response_instructions","14","47170","0.0-14.0","A3RW5C1G9LVVV4","img_art/ins/popularity/ins3_5RED.png","0","instructions","","","","","","","","","","","","","","","","","","","","","","","",""
"1689","","image-button-response_instructions","15","48860","0.0-15.0","A3RW5C1G9LVVV4","img_art/ins/popularity/ins3KEEPpop.PNG","0","instructions","","","","","","","","","","","","","","","","","","","","","","","",""
"4089","","image-button-response_instructions","16","52951","0.0-16.0","A3RW5C1G9LVVV4","img_art/ins/popularity/ins4KEEPpop.PNG","0","instructions","","","","","","","","","","","","","","","","","","","","","","","",""
"4215","","image-button-response_instructions","17","57166","0.0-17.0","A3RW5C1G9LVVV4","img_art/ins/popularity/ins5KEEPpop.PNG","0","instructions","","","","","","","","","","","","","","","","","","","","","","","",""
"1044","","image-button-response_instructions","18","58210","0.0-18.0","A3RW5C1G9LVVV4","","0","instructions","","","","","","","","","","","","","","","","","","","","","","","",""
"5179","","survey-text","19","63406","0.0-19.0-0.0","A3RW5C1G9LVVV4","","","","{""Q0"":""but""}","","","","","","","","","","","","","","","","","","","","","","",""
"7244","","survey-text","20","70650","0.0-20.0-0.0","A3RW5C1G9LVVV4","","","","{""Q0"":""ugly, abstract""}","","","","","","","","","","","","","","","","","","","","","","",""
"2782","","image-slider-response","21","73435","0.0-21.0","A3RW5C1G9LVVV4","","","","","-44","","","","","","","","","","","","","","","","","","","","","",""
"null","","image-button-response","22","78438","0.0-22.0","A3RW5C1G9LVVV4","img_art/ins/1.jpg","null","","","","","","","","","","","","","","","","","","","","","","","","",""
"4182","","image-button-response","23","82623","0.0-23.0","A3RW5C1G9LVVV4","img_art/ins/1.jpg","1","","","","","","","","","","","","","","","","","","","","","","","","",""
"422","","image-button-response","24","83047","0.0-24.0-0.0","A3RW5C1G9LVVV4","img_art/ins/1.jpg","2","","","","","","","","","","","","","","","","","","","","","","","","",""
"643","","image-button-response","25","83692","0.0-25.0-0.0","A3RW5C1G9LVVV4","img_art/ins/1.jpg","3","","","","","","","","","","","","","","","","","","","","","","","","",""
"null","","html-keyboard-response","26","85198","0.0-26.0","A3RW5C1G9LVVV4","<p style=""font-size: 48px;"">+</p>","","","","","null","allTrialResponses","1500","1","-2","img_art/ins/1.jpg","-44","ugly, abstract","Allison,Ashley,Beth,Dora,Erika,Jen","looks like a lot of things going on in the mist,20,20,20","I just don't get why these type of art would be popular,-32,40,20","This color reminds me of poo,-46,60,20","looks like what my niece in 3rd grade did this afternoon,-50,80,20","I like the sophisticated brushwork,40,100,20","It reminds me of a candy land dream I had,36,120,20","Ashley","I just don't get why these type of art would be popular,-32,40,20","Beth","This color reminds me of poo,-46,60,20","Dora","looks like what my niece in 3rd grade did this afternoon,-50,80,20","0"
"9651","","survey-text","27","94854","0.0-27.0-0.0","A3RW5C1G9LVVV4","","","","{""Q0"":""I don't get abstract art""}","","","","","","","","","","","","","","","","","","","","","","",""
"1804","","image-slider-response","28","96659","0.0-28.0","A3RW5C1G9LVVV4","","","","","-31","","","","","","","","","","","","","","","","","","","","","",""
"2395","","image-button-response","29","101679","0.0-29.0","A3RW5C1G9LVVV4","img_art/ins/2.jpg","2","","","","","","","","","","","","","","","","","","","","","","","","",""
"2627","","image-button-response","30","104306","0.0-30.0","A3RW5C1G9LVVV4","img_art/ins/2.jpg","4","","","","","","","","","","","","","","","","","","","","","","","","",""
"2697","","image-button-response","31","107005","0.0-31.0-0.0","A3RW5C1G9LVVV4","img_art/ins/2.jpg","1","","","","","","","","","","","","","","","","","","","","","","","","",""
"741","","image-button-response","32","107746","0.0-32.0-0.0","A3RW5C1G9LVVV4","img_art/ins/2.jpg","2","","","","","","","","","","","","","","","","","","","","","","","","",""
"null","","html-keyboard-response","33","109265","0.0-33.0","A3RW5C1G9LVVV4","<p style=""font-size: 48px;"">+</p>","","","","","null","allTrialResponses","1500","1","-1","img_art/ins/2.jpg","-31","I don't get abstract art","Jenna,Ashley,Beth,Dora,Kara,Katie","One of my pet peevs,-48,140,20","Idk, it is just annoying,-32,40,20","meaningless painting,-45,60,20","looks too angry,-50,80,20","I like the blocks of color arrangements,30,160,20","too much color!,-28,180,20","Kara","I like the blocks of color arrangements,30,160,20","Ashley","Idk, it is just annoying,-32,40,20","Beth","meaningless painting,-45,60,20","0"
"4921","","survey-text","34","114192","0.0-34.0-0.0","A3RW5C1G9LVVV4","","","","{""Q0"":""like the blue""}","","","","","","","","","","","","","","","","","","","","","","",""
"2482","","image-slider-response","35","116674","0.0-35.0","A3RW5C1G9LVVV4","","","","","-7","","","","","","","","","","","","","","","","","","","","","",""
"4134","","image-button-response","36","121683","0.0-36.0","A3RW5C1G9LVVV4","img_art/ins/3.jpg","1","","","","","","","","","","","","","","","","","","","","","","","","",""
"1552","","image-button-response","37","123236","0.0-37.0","A3RW5C1G9LVVV4","img_art/ins/3.jpg","1","","","","","","","","","","","","","","","","","","","","","","","","",""
"519","","image-button-response","38","123756","0.0-38.0-0.0","A3RW5C1G9LVVV4","img_art/ins/3.jpg","2","","","","","","","","","","","","","","","","","","","","","","","","",""
"6121","","image-button-response","39","129878","0.0-39.0-0.0","A3RW5C1G9LVVV4","img_art/ins/3.jpg","3","","","","","","","","","","","","","","","","","","","","","","","","",""
"null","","html-keyboard-response","40","130389","0.0-40.0","A3RW5C1G9LVVV4","<p style=""font-size: 48px;"">+</p>","","","","","null","allTrialResponses","500","1","0","img_art/ins/3.jpg","-7","like the blue","Mary,Ashley,Beth,Leslie,Kara,Rose","I like the overlapping of brushes,41,220,20","It looks like a playground for bats,-36,40,20","This thing gives me anxiety,-41,60,20","It's an alright work,15,200,20","calming blue is very nice,36,160,20","My daily routine, it's depressing,-20,240,20","Ashley","It looks like a playground for bats,-36,40,20","Beth","This thing gives me anxiety,-41,60,20","Leslie","It's an alright work,15,200,20","0"
"8510","","image-button-response_instructions","41","138902","0.0-41.0","A3RW5C1G9LVVV4","","0","instructions","","","","","","","","","","","","","","","","","","","","","","","",""
"7963","","survey-likert","42","146868","0.0-42.0-0.0","A3RW5C1G9LVVV4","","","","{""Q0"":"""",""Q1"":0,""Q2"":1}","","","","","","","","","","","","","","","","","","","","","","",""
"3637","","survey-text","43","150511","0.0-43.0-0.0","A3RW5C1G9LVVV4","","","","{""Q0"":""rock""}","","","","","","","","","","","","","","","","","","","","","","",""
"6945","","survey-text","44","157458","0.0-44.0-0.0","A3RW5C1G9LVVV4","","","","{""Q0"":""looks like a cave""}","","","","","","","","","","","","","","","","","","","","","","",""
"2545","","image-slider-response","45","160003","0.0-45.0","A3RW5C1G9LVVV4","","","","","-12","","","","","","","","","","","","","","","","","","","","","",""
"4406","","image-button-response","46","165018","0.0-46.0","A3RW5C1G9LVVV4","img_art/15.jpg","2","","","","","","","","","","","","","","","","","","","","","","","","",""
"797","","image-button-response","47","165816","0.0-47.0","A3RW5C1G9LVVV4","img_art/15.jpg","2","","","","","","","","","","","","","","","","","","","","","","","","",""
"5385","","image-button-response","48","171201","0.0-48.0-0.0","A3RW5C1G9LVVV4","img_art/15.jpg","3","","","","","","","","","","","","","","","","","","","","","","","","",""
"7665","","image-button-response","49","178867","0.0-49.0-0.0","A3RW5C1G9LVVV4","img_art/15.jpg","5","","","","","","","","","","","","","","","","","","","","","","","","",""
"null","","html-keyboard-response","50","179372","0.0-50.0","A3RW5C1G9LVVV4","<p style=""font-size: 48px;"">+</p>","","","","","null","allTrialResponses","500","1","1","img_art/15.jpg","-12","looks like a cave","Amanda,Danielle,Alexis,Haley,Sara,Kaitlin","It triggers my tripophobia,-50,180,20","This is pretty nice, reminds me of dark peacock feathers, or perhaps a bush with berries in it?,15,340,20","Not a fan of abstract, but the black is very striking,10,100,20","Interesting, and I don't dislike it.,9,220,20","I don't like the black dots,-19,160,20","This one seems a bit frightening,-19,60,20","Alexis","Not a fan of abstract, but the black is very striking,10,100,20","Haley","Interesting, and I don't dislike it.,9,220,20","Kaitlin","This one seems a bit frightening,-19,60,20","0"
"8544","","survey-text","51","187921","0.0-51.0-0.0","A3RW5C1G9LVVV4","","","","{""Q0"":""looks like a landscape that got messed up""}","","","","","","","","","","","","","","","","","","","","","","",""
"1788","","image-slider-response","52","189711","0.0-52.0","A3RW5C1G9LVVV4","","","","","-19","","","","","","","","","","","","","","","","","","","","","",""
"null","","image-button-response","53","194716","0.0-53.0","A3RW5C1G9LVVV4","img_art/26.jpg","null","","","","","","","","","","","","","","","","","","","","","","","","",""
"2632","","image-button-response","54","197349","0.0-54.0","A3RW5C1G9LVVV4","img_art/26.jpg","4","","","","","","","","","","","","","","","","","","","","","","","","",""
"1266","","image-button-response","55","198617","0.0-55.0-0.0","A3RW5C1G9LVVV4","img_art/26.jpg","3","","","","","","","","","","","","","","","","","","","","","","","","",""
"813","","image-button-response","56","199432","0.0-56.0-0.0","A3RW5C1G9LVVV4","img_art/26.jpg","2","","","","","","","","","","","","","","","","","","","","","","","","",""
"null","","html-keyboard-response","57","200948","0.0-57.0","A3RW5C1G9LVVV4","<p style=""font-size: 48px;"">+</p>","","","","","null","allTrialResponses","1500","1","2","img_art/26.jpg","-19","looks like a landscape that got messed up","Stephanie,Dominique,Alexis,Haley,Alexa,Kaitlin","Day just begun in the city and the stores are opening their doors.,41,300,20","Small town and home feel on A nice day.,28,400,20","Much too simple and without color for my taste,-33,100,20","It feels almost unfinished, but I like the color palette,9,220,20","Looks messy and like it was painted by a small child,-48,40,20","i can feel the warmth,12,60,20","Alexa","Looks messy and like it was painted by a small child,-48,40,20","Haley","It feels almost unfinished, but I like the color palette,9,220,20","Alexis","Much too simple and without color for my taste,-33,100,20","0"
"10603","","survey-text","58","211563","0.0-58.0-0.0","A3RW5C1G9LVVV4","","","","{""Q0"":""looks like a weird roller coaster""}","","","","","","","","","","","","","","","","","","","","","","",""
"2147","","image-slider-response","59","213712","0.0-59.0","A3RW5C1G9LVVV4","","","","","-11","","","","","","","","","","","","","","","","","","","","","",""
"3963","","image-button-response","60","218714","0.0-60.0","A3RW5C1G9LVVV4","img_art/10.jpg","2","","","","","","","","","","","","","","","","","","","","","","","","",""
"590","","image-button-response","61","219304","0.0-61.0","A3RW5C1G9LVVV4","img_art/10.jpg","2","","","","","","","","","","","","","","","","","","","","","","","","",""
"6274","","image-button-response","62","225579","0.0-62.0-0.0","A3RW5C1G9LVVV4","img_art/10.jpg","3","","","","","","","","","","","","","","","","","","","","","","","","",""
"679","","image-button-response","63","226260","0.0-63.0-0.0","A3RW5C1G9LVVV4","img_art/10.jpg","0","","","","","","","","","","","","","","","","","","","","","","","","",""
"null","","html-keyboard-response","64","226770","0.0-64.0","A3RW5C1G9LVVV4","<p style=""font-size: 48px;"">+</p>","","","","","null","allTrialResponses","500","1","3","img_art/10.jpg","-11","looks like a weird roller coaster","Mackenzie,Kaylee,Alexis,Haley,Alexa,Catherine","The design is very fluid and fun to interpret,35,20,20","a blue whale on the sea,12,200,20","Too abstract and it doesn't really remind me of anything,-40,100,20","Makes me want to know more about it, and potentially the artist.,20,220,20","Cute and has a vintage feel to it,45,40,20","Circle of life, with highs and lows, good and bad. You always weather the storm and come out on top.,40,160,20","Alexis","Too abstract and it doesn't really remind me of anything,-40,100,20","Haley","Makes me want to know more about it, and potentially the artist.,20,220,20","Mackenzie","The design is very fluid and fun to interpret,35,20,20","0"
"9598","","survey-text","65","236389","0.0-65.0-0.0","A3RW5C1G9LVVV4","","","","{""Q0"":""looks like a calm brook""}","","","","","","","","","","","","","","","","","","","","","","",""
"1979","","image-slider-response","66","238370","0.0-66.0","A3RW5C1G9LVVV4","","","","","12","","","","","","","","","","","","","","","","","","","","","",""
"3488","","image-button-response","67","243377","0.0-67.0","A3RW5C1G9LVVV4","img_art/24.jpg","3","","","","","","","","","","","","","","","","","","","","","","","","",""
"604","","image-button-response","68","243984","0.0-68.0","A3RW5C1G9LVVV4","img_art/24.jpg","3","","","","","","","","","","","","","","","","","","","","","","","","",""
"2939","","image-button-response","69","246924","0.0-69.0-0.0","A3RW5C1G9LVVV4","img_art/24.jpg","2","","","","","","","","","","","","","","","","","","","","","","","","",""
"568","","image-button-response","70","247494","0.0-70.0-0.0","A3RW5C1G9LVVV4","img_art/24.jpg","0","","","","","","","","","","","","","","","","","","","","","","","","",""
"null","","html-keyboard-response","71","248497","0.0-71.0","A3RW5C1G9LVVV4","<p style=""font-size: 48px;"">+</p>","","","","","null","allTrialResponses","1000","1","4","img_art/24.jpg","12","looks like a calm brook","Mackenzie,Madeline,Alexis,Haley,Kimberly,Erika","I like the vivid colors and different textures,32,20,20","colors are good but the style is iffy,12,40,20","Simple. Not too abstract. Love the different flower colors.,20,100,20","Beautiful colors and texture,20,220,20","It just feels a little bland for me,-23,260,20","Very nice textures and subject,38,100,20","Haley","Beautiful colors and texture,20,220,20","Alexis","Simple. Not too abstract. Love the different flower colors.,20,100,20","Mackenzie","I like the vivid colors and different textures,32,20,20","0"
"9038","","survey-text","72","257541","0.0-72.0-0.0","A3RW5C1G9LVVV4","","","","{""Q0"":""looks like the surface of mars""}","","","","","","","","","","","","","","","","","","","","","","",""
"2530","","image-slider-response","73","260073","0.0-73.0","A3RW5C1G9LVVV4","","","","","-5","","","","","","","","","","","","","","","","","","","","","",""
"null","","image-button-response","74","265088","0.0-74.0","A3RW5C1G9LVVV4","img_art/7.jpg","null","","","","","","","","","","","","","","","","","","","","","","","","",""
"4343","","image-button-response","75","269435","0.0-75.0","A3RW5C1G9LVVV4","img_art/7.jpg","4","","","","","","","","","","","","","","","","","","","","","","","","",""
"2458","","image-button-response","76","271896","0.0-76.0-0.0","A3RW5C1G9LVVV4","img_art/7.jpg","1","","","","","","","","","","","","","","","","","","","","","","","","",""
"670","","image-button-response","77","272567","0.0-77.0-0.0","A3RW5C1G9LVVV4","img_art/7.jpg","0","","","","","","","","","","","","","","","","","","","","","","","","",""
"null","","html-keyboard-response","78","273570","0.0-78.0","A3RW5C1G9LVVV4","<p style=""font-size: 48px;"">+</p>","","","","","null","allTrialResponses","1000","1","5","img_art/7.jpg","-5","looks like the surface of mars","Mackenzie,Katie,Alexis,Haley,Kelly,Savannah","Is simple in color and texture,11,20,20","I see dryness, which is sad. Dirt, sand, the dessert. Barren dry lifeless,-30,160,20","Looks like bad wallpaper,-29,100,20","Confusion, mild aversion,-36,220,20","My firs thought was ""gross""...not sure what this is and I dont think i want to know.,-19,220,20","More saturated color, even more interpretations to have.,44,200,20","Kelly","My firs thought was ""gross""...not sure what this is and I dont think i want to know.,-19,220,20","Katie","I see dryness, which is sad. Dirt, sand, the dessert. Barren dry lifeless,-30,160,20","Mackenzie","Is simple in color and texture,11,20,20","0"
"3318","","survey-text","79","276915","0.0-79.0-0.0","A3RW5C1G9LVVV4","","","","{""Q0"":""sky""}","","","","","","","","","","","","","","","","","","","","","","",""
"8178","","survey-text","80","285096","0.0-80.0-0.0","A3RW5C1G9LVVV4","","","","{""Q0"":""looks like dead bugs on glass""}","","","","","","","","","","","","","","","","","","","","","","",""
"1804","","image-slider-response","81","286902","0.0-81.0","A3RW5C1G9LVVV4","","","","","-29","","","","","","","","","","","","","","","","","","","","","",""
"null","","image-button-response","82","291903","0.0-82.0","A3RW5C1G9LVVV4","img_art/13.jpg","null","","","","","","","","","","","","","","","","","","","","","","","","",""
"708","","image-button-response","83","292611","0.0-83.0","A3RW5C1G9LVVV4","img_art/13.jpg","2","","","","","","","","","","","","","","","","","","","","","","","","",""
"2786","","image-button-response","84","295399","0.0-84.0-0.0","A3RW5C1G9LVVV4","img_art/13.jpg","1","","","","","","","","","","","","","","","","","","","","","","","","",""
"1054","","image-button-response","85","296453","0.0-85.0-0.0","A3RW5C1G9LVVV4","img_art/13.jpg","0","","","","","","","","","","","","","","","","","","","","","","","","",""
"null","","html-keyboard-response","86","297956","0.0-86.0","A3RW5C1G9LVVV4","<p style=""font-size: 48px;"">+</p>","","","","","null","allTrialResponses","1500","1","6","img_art/13.jpg","-29","looks like dead bugs on glass","Mackenzie,Katie,Shelby,Taylor,Kelly,Abigail","I enjoy the cool colors mixed together,31,20,20","Cool and calming colors. I like splatter art.,10,160,20","Doesnt really provoke an emotional responce,0,240,20","It makes me think of sitting inside on a rainy day while drinking a warm coffee,32,340,20","I would hang this photo in my room.,21,220,20","This is easy to look at,46,20,20","Shelby","Doesnt really provoke an emotional responce,0,240,20","Katie","Cool and calming colors. I like splatter art.,10,160,20","Mackenzie","I enjoy the cool colors mixed together,31,20,20","0"
"11001","","survey-text","87","308963","0.0-87.0-0.0","A3RW5C1G9LVVV4","","","","{""Q0"":""feels too warm and abstract""}","","","","","","","","","","","","","","","","","","","","","","",""
"2503","","image-slider-response","88","311468","0.0-88.0","A3RW5C1G9LVVV4","","","","","-8","","","","","","","","","","","","","","","","","","","","","",""
"3632","","image-button-response","89","316482","0.0-89.0","A3RW5C1G9LVVV4","img_art/1.jpg","1","","","","","","","","","","","","","","","","","","","","","","","","",""
"534","","image-button-response","90","317017","0.0-90.0","A3RW5C1G9LVVV4","img_art/1.jpg","1","","","","","","","","","","","","","","","","","","","","","","","","",""
"2053","","image-button-response","91","319071","0.0-91.0-0.0","A3RW5C1G9LVVV4","img_art/1.jpg","3","","","","","","","","","","","","","","","","","","","","","","","","",""
"2620","","image-button-response","92","321692","0.0-92.0-0.0","A3RW5C1G9LVVV4","img_art/1.jpg","5","","","","","","","","","","","","","","","","","","","","","","","","",""
"null","","html-keyboard-response","93","322698","0.0-93.0","A3RW5C1G9LVVV4","<p style=""font-size: 48px;"">+</p>","","","","","null","allTrialResponses","1000","1","7","img_art/1.jpg","-8","feels too warm and abstract","Mackenzie,Katie,Shelby,Brooke,Victoria,Brittany","I like the simple aspect to the design,21,20,20","Too messy. Just looks like a mess of dark colors.,-20,160,20","This one has a pleasent energy,15,240,20","It's okay, colors remind me of autumn.,10,60,20","love how the colors blend,42,400,20","It reminds me of a sunset I once saw.,16,40,20","Katie","Too messy. Just looks like a mess of dark colors.,-20,160,20","Brooke","It's okay, colors remind me of autumn.,10,60,20","Brittany","It reminds me of a sunset I once saw.,16,40,20","0"
"8501","","survey-text","94","331211","0.0-94.0-0.0","A3RW5C1G9LVVV4","","","","{""Q0"":""looks like a childs fingerpainting""}","","","","","","","","","","","","","","","","","","","","","","",""
"2151","","image-slider-response","95","333367","0.0-95.0","A3RW5C1G9LVVV4","","","","","-17","","","","","","","","","","","","","","","","","","","","","",""
"2644","","image-button-response","96","338381","0.0-96.0","A3RW5C1G9LVVV4","img_art/2.jpg","2","","","","","","","","","","","","","","","","","","","","","","","","",""
"152","","image-button-response","97","338536","0.0-97.0","A3RW5C1G9LVVV4","img_art/2.jpg","0","","","","","","","","","","","","","","","","","","","","","","","","",""
"6286","","image-button-response","98","344823","0.0-98.0-0.0","A3RW5C1G9LVVV4","img_art/2.jpg","4","","","","","","","","","","","","","","","","","","","","","","","","",""
"487","","image-button-response","99","345313","0.0-99.0-0.0","A3RW5C1G9LVVV4","img_art/2.jpg","5","","","","","","","","","","","","","","","","","","","","","","","","",""
"null","","html-keyboard-response","100","346327","0.0-100.0","A3RW5C1G9LVVV4","<p style=""font-size: 48px;"">+</p>","","","","","null","allTrialResponses","1000","1","8","img_art/2.jpg","-17","looks like a childs fingerpainting","Hannah,Katie,Emily,Brooke,Amy,Brittany","Looks like child's art.,-19,240,20","Doesn't look like anything. Just a blob of colors.,1,160,20","Random colors and shapes mashed together. Nothing artistic, but better than some of the other ones.,-37,40,20","Ugly version of that park painting.,-31,60,20","The color palette of this painting is for me displeasing and immature.,-30,220,20","This one feels rather flat and not engaging.,-15,40,20","Hannah","Looks like child's art.,-19,240,20","Amy","The color palette of this painting is for me displeasing and immature.,-30,220,20","Brittany","This one feels rather flat and not engaging.,-15,40,20","0"
"12304","","survey-text","101","358639","0.0-101.0-0.0","A3RW5C1G9LVVV4","","","","{""Q0"":""unsure what to make of this, don't like""}","","","","","","","","","","","","","","","","","","","","","","",""
"2406","","image-slider-response","102","361046","0.0-102.0","A3RW5C1G9LVVV4","","","","","-46","","","","","","","","","","","","","","","","","","","","","",""
"null","","image-button-response","103","366058","0.0-103.0","A3RW5C1G9LVVV4","img_art/18.jpg","null","","","","","","","","","","","","","","","","","","","","","","","","",""
"921","","image-button-response","104","366981","0.0-104.0","A3RW5C1G9LVVV4","img_art/18.jpg","2","","","","","","","","","","","","","","","","","","","","","","","","",""
"2480","","image-button-response","105","369462","0.0-105.0-0.0","A3RW5C1G9LVVV4","img_art/18.jpg","1","","","","","","","","","","","","","","","","","","","","","","","","",""
"372","","image-button-response","106","369835","0.0-106.0-0.0","A3RW5C1G9LVVV4","img_art/18.jpg","0","","","","","","","","","","","","","","","","","","","","","","","","",""
"null","","html-keyboard-response","107","370346","0.0-107.0","A3RW5C1G9LVVV4","<p style=""font-size: 48px;"">+</p>","","","","","null","allTrialResponses","500","1","9","img_art/18.jpg","-46","unsure what to make of this, don't like","Hannah,Brianna,Amber,Angela,Amy,Brittany","Looks like ghost figures on a boat. It's okay.,7,240,20","Very eerie and it's spooky,11,20,20","ugly and lots of movement,-6,200,20","like the grays and contrast of the yellow. This piece feels a bit angry,10,260,20","So much going on. Frightening and tumultous, brave and inspiring. I'd like to spend the rest of my life interpreting it.,30,220,20","This is really interesting to look at. I like the colors and the spectral look.,27,40,20","Amber","ugly and lots of movement,-6,200,20","Brianna","Very eerie and it's spooky,11,20,20","Hannah","Looks like ghost figures on a boat. It's okay.,7,240,20","0"
"10480","","survey-text","108","380831","0.0-108.0-0.0","A3RW5C1G9LVVV4","","","","{""Q0"":""looks like a kids rendering of a pyramid""}","","","","","","","","","","","","","","","","","","","","","","",""
"2017","","image-slider-response","109","382848","0.0-109.0","A3RW5C1G9LVVV4","","","","","-32","","","","","","","","","","","","","","","","","","","","","",""
"4468","","image-button-response","110","387856","0.0-110.0","A3RW5C1G9LVVV4","img_art/5.jpg","0","","","","","","","","","","","","","","","","","","","","","","","","",""
"590","","image-button-response","111","388447","0.0-111.0","A3RW5C1G9LVVV4","img_art/5.jpg","0","","","","","","","","","","","","","","","","","","","","","","","","",""
"747","","image-button-response","112","389195","0.0-112.0-0.0","A3RW5C1G9LVVV4","img_art/5.jpg","2","","","","","","","","","","","","","","","","","","","","","","","","",""
"609","","image-button-response","113","389805","0.0-113.0-0.0","A3RW5C1G9LVVV4","img_art/5.jpg","5","","","","","","","","","","","","","","","","","","","","","","","","",""
"null","","html-keyboard-response","114","390816","0.0-114.0","A3RW5C1G9LVVV4","<p style=""font-size: 48px;"">+</p>","","","","","null","allTrialResponses","1000","1","10","img_art/5.jpg","-32","looks like a kids rendering of a pyramid","Hannah,Brianna,Amber,Andrea,Melissa,Kristen","Very basic, but at least has some color to it.,-9,240,20","Very bright and has colors you wouldn't think would go together,11,20,20","Missing something,-5,200,20","Perfume bottle, reminds of fancy nights out.,11,240,20","strong appeal in contrast,27,240,20","sharp, painful yet playful,-5,280,20","Hannah","Very basic, but at least has some color to it.,-9,240,20","Amber","Missing something,-5,200,20","Kristen","sharp, painful yet playful,-5,280,20","0"
"4158","","survey-text","115","394986","0.0-115.0-0.0","A3RW5C1G9LVVV4","","","","{""Q0"":""our""}","","","","","","","","","","","","","","","","","","","","","","",""
"6620","","survey-text","116","401608","0.0-116.0-0.0","A3RW5C1G9LVVV4","","","","{""Q0"":""looks like poo on a wall""}","","","","","","","","","","","","","","","","","","","","","","",""
"1983","","image-slider-response","117","403595","0.0-117.0","A3RW5C1G9LVVV4","","","","","-50","","","","","","","","","","","","","","","","","","","","","",""
"null","","image-button-response","118","408595","0.0-118.0","A3RW5C1G9LVVV4","img_art/4.jpg","null","","","","","","","","","","","","","","","","","","","","","","","","",""
"1009","","image-button-response","119","409606","0.0-119.0","A3RW5C1G9LVVV4","img_art/4.jpg","1","","","","","","","","","","","","","","","","","","","","","","","","",""
"640","","image-button-response","120","410250","0.0-120.0-0.0","A3RW5C1G9LVVV4","img_art/4.jpg","0","","","","","","","","","","","","","","","","","","","","","","","","",""
"943","","image-button-response","121","411195","0.0-121.0-0.0","A3RW5C1G9LVVV4","img_art/4.jpg","5","","","","","","","","","","","","","","","","","","","","","","","","",""
"null","","html-keyboard-response","122","412716","0.0-122.0","A3RW5C1G9LVVV4","<p style=""font-size: 48px;"">+</p>","","","","","null","allTrialResponses","1500","1","11","img_art/4.jpg","-50","looks like poo on a wall","Hannah,Tiffany,Amber,Gabriela,Ashley,Kristen","looks very rudimentary and too simple.,-14,240,20","The sickly looking colors make me feel very uncomfortable.,-35,360,20","I like the bold style.,10,200,20","The bold colors are exciting. It looks like a statue on someone's mantle.,18,140,20","It looks like a hand.,25,320,20","stresses me out, uncomfortable,-18,280,20","Tiffany","The sickly looking colors make me feel very uncomfortable.,-35,360,20","Hannah","looks very rudimentary and too simple.,-14,240,20","Kristen","stresses me out, uncomfortable,-18,280,20","0"
"9892","","survey-text","123","422619","0.0-123.0-0.0","A3RW5C1G9LVVV4","","","","{""Q0"":""looks like an abstract view from a plane""}","","","","","","","","","","","","","","","","","","","","","","",""
"1957","","image-slider-response","124","424577","0.0-124.0","A3RW5C1G9LVVV4","","","","","-34","","","","","","","","","","","","","","","","","","","","","",""
"4987","","image-button-response","125","429585","0.0-125.0","A3RW5C1G9LVVV4","img_art/8.jpg","1","","","","","","","","","","","","","","","","","","","","","","","","",""
"1224","","image-button-response","126","430810","0.0-126.0","A3RW5C1G9LVVV4","img_art/8.jpg","3","","","","","","","","","","","","","","","","","","","","","","","","",""
"1839","","image-button-response","127","432650","0.0-127.0-0.0","A3RW5C1G9LVVV4","img_art/8.jpg","1","","","","","","","","","","","","","","","","","","","","","","","","",""
"190","","image-button-response","128","432842","0.0-128.0-0.0","A3RW5C1G9LVVV4","img_art/8.jpg","1","","","","","","","","","","","","","","","","","","","","","","","","",""
"743","","image-button-response","129","436247","0.0-128.1-0.1","A3RW5C1G9LVVV4","img_art/8.jpg","0","","","","","","","","","","","","","","","","","","","","","","","","",""
"null","","html-keyboard-response","130","436756","0.0-129.0","A3RW5C1G9LVVV4","<p style=""font-size: 48px;"">+</p>","","","","","null","allTrialResponses","500","1","12","img_art/8.jpg","-34","looks like an abstract view from a plane","Hannah,Tiffany,Diana,Samantha,Sierra,Kristen","I don't understand it. Makes no sense to me.,5,240,20","It makes me feel nervous. I can't tell ifI'm looking at an apartment, or a hellscape.,-18,360,20","I don't care for the piece, but I appreciate the talent that it took to create it.,22,380,20","The face bothers me,-25,140,20","i love the colors, the church and the face,42,260,20","mothe nature/godess, watching over you,21,280,20","Samantha","The face bothers me,-25,140,20","Tiffany","It makes me feel nervous. I can't tell ifI'm looking at an apartment, or a hellscape.,-18,360,20","Hannah","I don't understand it. Makes no sense to me.,5,240,20","2"
"6544","","survey-text","131","443315","0.0-130.0-0.0","A3RW5C1G9LVVV4","","","","{""Q0"":""stresses me out""}","","","","","","","","","","","","","","","","","","","","","","",""
"2742","","image-slider-response","132","446057","0.0-131.0","A3RW5C1G9LVVV4","","","","","-39","","","","","","","","","","","","","","","","","","","","","",""
"null","","image-button-response","133","451076","0.0-132.0","A3RW5C1G9LVVV4","img_art/19.jpg","null","","","","","","","","","","","","","","","","","","","","","","","","",""
"923","","image-button-response","134","452000","0.0-133.0","A3RW5C1G9LVVV4","img_art/19.jpg","0","","","","","","","","","","","","","","","","","","","","","","","","",""
"6343","","image-button-response","135","458345","0.0-134.0-0.0","A3RW5C1G9LVVV4","img_art/19.jpg","5","","","","","","","","","","","","","","","","","","","","","","","","",""
"1433","","image-button-response","136","459782","0.0-135.0-0.0","A3RW5C1G9LVVV4","img_art/19.jpg","3","","","","","","","","","","","","","","","","","","","","","","","","",""
"null","","html-keyboard-response","137","460795","0.0-136.0","A3RW5C1G9LVVV4","<p style=""font-size: 48px;"">+</p>","","","","","null","allTrialResponses","1000","1","13","img_art/19.jpg","-39","stresses me out","Hannah,Tiffany,Heather,Samantha,Michelle,Miranda","Just don't like this one.,-9,240,20","I feel a little anxious and happy. I'm about to walk into a market and any number of treasures could be found,14,360,20","love the images I can pick out of this art,1,260,20","Intersting but not for me,21,140,20","I like the water but again, the small lines with no detail are irritating,3,280,20","It looks cool but at the time looks like it was done by a talented 5 year old.,13,320,20","Hannah","Just don't like this one.,-9,240,20","Miranda","It looks cool but at the time looks like it was done by a talented 5 year old.,13,320,20","Samantha","Intersting but not for me,21,140,20","2"
"11498","","survey-text","138","472304","0.0-137.0-0.0","A3RW5C1G9LVVV4","","","","{""Q0"":""calm, relaxing, likea misty morning""}","","","","","","","","","","","","","","","","","","","","","","",""
"2141","","image-slider-response","139","474448","0.0-138.0","A3RW5C1G9LVVV4","","","","","7","","","","","","","","","","","","","","","","","","","","","",""
"3920","","image-button-response","140","479466","0.0-139.0","A3RW5C1G9LVVV4","img_art/21.jpg","1","","","","","","","","","","","","","","","","","","","","","","","","",""
"1149","","image-button-response","141","480618","0.0-140.0","A3RW5C1G9LVVV4","img_art/21.jpg","1","","","","","","","","","","","","","","","","","","","","","","","","",""
"1886","","image-button-response","142","482506","0.0-141.0-0.0","A3RW5C1G9LVVV4","img_art/21.jpg","3","","","","","","","","","","","","","","","","","","","","","","","","",""
"573","","image-button-response","143","483080","0.0-142.0-0.0","A3RW5C1G9LVVV4","img_art/21.jpg","5","","","","","","","","","","","","","","","","","","","","","","","","",""
"null","","html-keyboard-response","144","484591","0.0-143.0","A3RW5C1G9LVVV4","<p style=""font-size: 48px;"">+</p>","","","","","null","allTrialResponses","1500","1","14","img_art/21.jpg","7","calm, relaxing, likea misty morning","Hannah,Cynthia,Christina,Samantha,Paige,Miranda","Boring colors and look. Too much 1980s.,-20,240,20","mythical between good and evil,16,320,20","it has a lot of happy colors and it's very classic looking,35,240,20","Love the colors and the relationship between the light and storm,50,140,20","the picture is boring,1,60,20","This looks very interesting because something is happening but I can't tell what.,28,320,20","Cynthia","mythical between good and evil,16,320,20","Samantha","Love the colors and the relationship between the light and storm,50,140,20","Miranda","This looks very interesting because something is happening but I can't tell what.,28,320,20","2"
"5073","","survey-text","145","489679","0.0-144.0-0.0","A3RW5C1G9LVVV4","","","","{""Q0"":""blood on a wall""}","","","","","","","","","","","","","","","","","","","","","","",""
"2295","","image-slider-response","146","491974","0.0-145.0","A3RW5C1G9LVVV4","","","","","-27","","","","","","","","","","","","","","","","","","","","","",""
"3256","","image-button-response","147","496996","0.0-146.0","A3RW5C1G9LVVV4","img_art/3.jpg","1","","","","","","","","","","","","","","","","","","","","","","","","",""
"1599","","image-button-response","148","498596","0.0-147.0","A3RW5C1G9LVVV4","img_art/3.jpg","3","","","","","","","","","","","","","","","","","","","","","","","","",""
"569","","image-button-response","149","499166","0.0-148.0-0.0","A3RW5C1G9LVVV4","img_art/3.jpg","1","","","","","","","","","","","","","","","","","","","","","","","","",""
"659","","image-button-response","150","499826","0.0-149.0-0.0","A3RW5C1G9LVVV4","img_art/3.jpg","5","","","","","","","","","","","","","","","","","","","","","","","","",""
"null","","html-keyboard-response","151","500840","0.0-150.0","A3RW5C1G9LVVV4","<p style=""font-size: 48px;"">+</p>","","","","","null","allTrialResponses","1000","1","15","img_art/3.jpg","-27","blood on a wall","Julia,Cynthia,Jenna,Samantha,Molly,Miranda","this is a very nice emotion,27,40,20","This makes me feel vulnerable,-32,320,20","unique & stylized. interesting. another one I could keep staring at.,50,360,20","Too angry and scribbly,-43,140,20","Mysterious, remarkable.,30,340,20","It just makes me think of blood splattered everywhere.,-31,320,20","Samantha","Too angry and scribbly,-43,140,20","Cynthia","This makes me feel vulnerable,-32,320,20","Miranda","It just makes me think of blood splattered everywhere.,-31,320,20","2"
"3441","","survey-text","152","504292","0.0-151.0-0.0","A3RW5C1G9LVVV4","","","","{""Q0"":""course""}","","","","","","","","","","","","","","","","","","","","","","",""
"10077","","survey-text","153","514370","0.0-152.0-0.0","A3RW5C1G9LVVV4","","","","{""Q0"":""blackbird on dessert, forlorn""}","","","","","","","","","","","","","","","","","","","","","","",""
"3323","","image-slider-response","154","517694","0.0-153.0","A3RW5C1G9LVVV4","","","","","-8","","","","","","","","","","","","","","","","","","","","","",""
"4996","","image-button-response","155","522715","0.0-154.0","A3RW5C1G9LVVV4","img_art/6.jpg","2","","","","","","","","","","","","","","","","","","","","","","","","",""
"1079","","image-button-response","156","523796","0.0-155.0","A3RW5C1G9LVVV4","img_art/6.jpg","2","","","","","","","","","","","","","","","","","","","","","","","","",""
"747","","image-button-response","157","524544","0.0-156.0-0.0","A3RW5C1G9LVVV4","img_art/6.jpg","4","","","","","","","","","","","","","","","","","","","","","","","","",""
"2754","","image-button-response","158","527303","0.0-157.0-0.0","A3RW5C1G9LVVV4","img_art/6.jpg","3","","","","","","","","","","","","","","","","","","","","","","","","",""
"null","","html-keyboard-response","159","527816","0.0-158.0","A3RW5C1G9LVVV4","<p style=""font-size: 48px;"">+</p>","","","","","null","allTrialResponses","500","1","16","img_art/6.jpg","-8","blackbird on dessert, forlorn","Alyssa,Cynthia,Sabrina,Samantha,Kayla,Miranda","It makes me stop and think about what the artist is trying to say.It creates a feeling of solitude and tranqulity,30,160,20","seeds of change,11,320,20","I love the representation of death and life.,50,120,20","It isnt bad but sort of too bland,0,140,20","Little birdie in a desert. Seeking better frontiers.,13,180,20","It's slightly unnerving to look at, it looks a little creepy/eerie,-16,320,20","Sabrina","I love the representation of death and life.,50,120,20","Kayla","Little birdie in a desert. Seeking better frontiers.,13,180,20","Samantha","It isnt bad but sort of too bland,0,140,20","2"
"13908","","survey-text","160","541732","0.0-159.0-0.0","A3RW5C1G9LVVV4","","","","{""Q0"":""interesting, it's a woman relaxing""}","","","","","","","","","","","","","","","","","","","","","","",""
"2202","","image-slider-response","161","543936","0.0-160.0","A3RW5C1G9LVVV4","","","","","-1","","","","","","","","","","","","","","","","","","","","","",""
"null","","image-button-response","162","548955","0.0-161.0","A3RW5C1G9LVVV4","img_art/9.jpg","null","","","","","","","","","","","","","","","","","","","","","","","","",""
"1048","","image-button-response","163","550004","0.0-162.0","A3RW5C1G9LVVV4","img_art/9.jpg","3","","","","","","","","","","","","","","","","","","","","","","","","",""
"2202","","image-button-response","164","552208","0.0-163.0-0.0","A3RW5C1G9LVVV4","img_art/9.jpg","4","","","","","","","","","","","","","","","","","","","","","","","","",""
"525","","image-button-response","165","552734","0.0-164.0-0.0","A3RW5C1G9LVVV4","img_art/9.jpg","2","","","","","","","","","","","","","","","","","","","","","","","","",""
"null","","html-keyboard-response","166","553752","0.0-165.0","A3RW5C1G9LVVV4","<p style=""font-size: 48px;"">+</p>","","","","","null","allTrialResponses","1000","1","17","img_art/9.jpg","-1","interesting, it's a woman relaxing","Jennifer,Erin,Sabrina,Samantha,Kayla,Courtney","This piece is very boring to look at.,-27,380,20","Framing is overwhelming,-35,120,20","Calming and relaxing,42,120,20","Some nice colors but i do not like it,-18,140,20","It's nice. Peaceful. Calming.,11,180,20","This is a picture of a scary mans head sideways.,-24,280,20","Samantha","Some nice colors but i do not like it,-18,140,20","Kayla","It's nice. Peaceful. Calming.,11,180,20","Sabrina","Calming and relaxing,42,120,20","2"
"11512","","survey-text","167","565271","0.0-166.0-0.0","A3RW5C1G9LVVV4","","","","{""Q0"":""seems like a rock concert made into a painting""}","","","","","","","","","","","","","","","","","","","","","","",""
"1992","","image-slider-response","168","567264","0.0-167.0","A3RW5C1G9LVVV4","","","","","-7","","","","","","","","","","","","","","","","","","","","","",""
"null","","image-button-response","169","572284","0.0-168.0","A3RW5C1G9LVVV4","img_art/23.jpg","null","","","","","","","","","","","","","","","","","","","","","","","","",""
"996","","image-button-response","170","573281","0.0-169.0","A3RW5C1G9LVVV4","img_art/23.jpg","5","","","","","","","","","","","","","","","","","","","","","","","","",""
"3056","","image-button-response","171","576337","0.0-170.0-0.0","A3RW5C1G9LVVV4","img_art/23.jpg","3","","","","","","","","","","","","","","","","","","","","","","","","",""
"579","","image-button-response","172","576917","0.0-171.0-0.0","A3RW5C1G9LVVV4","img_art/23.jpg","5","","","","","","","","","","","","","","","","","","","","","","","","",""
"732","","image-button-response","173","579596","0.0-171.1-0.1","A3RW5C1G9LVVV4","img_art/23.jpg","2","","","","","","","","","","","","","","","","","","","","","","","","",""
"null","","html-keyboard-response","174","580114","0.0-172.0","A3RW5C1G9LVVV4","<p style=""font-size: 48px;"">+</p>","","","","","null","allTrialResponses","500","1","18","img_art/23.jpg","-7","seems like a rock concert made into a painting","Breanna,Emma,Sabrina,Samantha,Kayla,Alicia","Makes me worried,10,380,20","Love the use of colors and light,50,60,20","I dont like the chaos of this,-20,120,20","The more i look at it the more i like it  the dots of color and very interesting,50,140,20","Like a wound that has been sutured. Pain, but also healing.,5,180,20","No reactions, childish.,-19,120,20","Alicia","No reactions, childish.,-19,120,20","Samantha","The more i look at it the more i like it  the dots of color and very interesting,50,140,20","Sabrina","I dont like the chaos of this,-20,120,20","4"
"20588","","survey-text","175","600709","0.0-173.0-0.0","A3RW5C1G9LVVV4","","","","{""Q0"":""terrible, i don't know why this is considered art""}","","","","","","","","","","","","","","","","","","","","","","",""
"2085","","image-slider-response","176","602797","0.0-174.0","A3RW5C1G9LVVV4","","","","","-50","","","","","","","","","","","","","","","","","","","","","",""
"4899","","image-button-response","177","607805","0.0-175.0","A3RW5C1G9LVVV4","img_art/27.jpg","1","","","","","","","","","","","","","","","","","","","","","","","","",""
"927","","image-button-response","178","608733","0.0-176.0","A3RW5C1G9LVVV4","img_art/27.jpg","1","","","","","","","","","","","","","","","","","","","","","","","","",""
"594","","image-button-response","179","609329","0.0-177.0-0.0","A3RW5C1G9LVVV4","img_art/27.jpg","4","","","","","","","","","","","","","","","","","","","","","","","","",""
"1168","","image-button-response","180","610499","0.0-178.0-0.0","A3RW5C1G9LVVV4","img_art/27.jpg","5","","","","","","","","","","","","","","","","","","","","","","","","",""
"null","","html-keyboard-response","181","612004","0.0-179.0","A3RW5C1G9LVVV4","<p style=""font-size: 48px;"">+</p>","","","","","null","allTrialResponses","1500","1","19","img_art/27.jpg","-50","terrible, i don't know why this is considered art","Gabrielle,Bailey,Sabrina,Samantha,Leslie,Alicia","like the patterns and colors all but the orange blob on the right,32,160,20","Looks like a splash of different colors and designs without purpose,-44,360,20","Love the representation of home,22,120,20","I like all it has going but i wouldnt put it in my house unless my child did it,25,140,20","This feels like I'm looking at a child's scribbles.,-27,380,20","dont like it, don't hate it, meh.,2,120,20","Bailey","Looks like a splash of different colors and designs without purpose,-44,360,20","Leslie","This feels like I'm looking at a child's scribbles.,-27,380,20","Alicia","dont like it, don't hate it, meh.,2,120,20","4"
"10699","","survey-text","182","622716","0.0-180.0-0.0","A3RW5C1G9LVVV4","","","","{""Q0"":""confused, unsure what this is""}","","","","","","","","","","","","","","","","","","","","","","",""
"1895","","image-slider-response","183","624611","0.0-181.0","A3RW5C1G9LVVV4","","","","","-10","","","","","","","","","","","","","","","","","","","","","",""
"null","","image-button-response","184","629624","0.0-182.0","A3RW5C1G9LVVV4","img_art/14.jpg","null","","","","","","","","","","","","","","","","","","","","","","","","",""
"341","","image-button-response","185","629966","0.0-183.0","A3RW5C1G9LVVV4","img_art/14.jpg","0","","","","","","","","","","","","","","","","","","","","","","","","",""
"1000","","image-button-response","186","630967","0.0-184.0-0.0","A3RW5C1G9LVVV4","img_art/14.jpg","4","","","","","","","","","","","","","","","","","","","","","","","","",""
"1208","","image-button-response","187","632177","0.0-185.0-0.0","A3RW5C1G9LVVV4","img_art/14.jpg","2","","","","","","","","","","","","","","","","","","","","","","","","",""
"null","","html-keyboard-response","188","633689","0.0-186.0","A3RW5C1G9LVVV4","<p style=""font-size: 48px;"">+</p>","","","","","null","allTrialResponses","1500","1","20","img_art/14.jpg","-10","confused, unsure what this is","Monica,Bailey,Jamie,Mikayla,Leslie,Alicia","Just don't like it, maybe it's the bleeding colors on the left of the tree-looking thing in the center or the faded background,-10,360,20","Not quite the style I'd like, but it does have a certain air of emptiness.,12,360,20","Not as cool as other tree looking paintings,-5,320,20","The red looks like blood and im not a huge fan,15,300,20","This elicits no reaction in me.,0,380,20","ok, gloomy though.,12,120,20","Monica","Just don't like it, maybe it's the bleeding colors on the left of the tree-looking thing in the center or the faded background,-10,360,20","Leslie","This elicits no reaction in me.,0,380,20","Jamie","Not as cool as other tree looking paintings,-5,320,20","4"
"2360","","survey-text","189","636071","0.0-187.0-0.0","A3RW5C1G9LVVV4","","","","{""Q0"":""we""}","","","","","","","","","","","","","","","","","","","","","","",""
"9819","","survey-text","190","645891","0.0-188.0-0.0","A3RW5C1G9LVVV4","","","","{""Q0"":""reminds me of photo collage, intersting""}","","","","","","","","","","","","","","","","","","","","","","",""
"1870","","image-slider-response","191","647763","0.0-189.0","A3RW5C1G9LVVV4","","","","","4","","","","","","","","","","","","","","","","","","","","","",""
"null","","image-button-response","192","652764","0.0-190.0","A3RW5C1G9LVVV4","img_art/12.jpg","null","","","","","","","","","","","","","","","","","","","","","","","","",""
"1022","","image-button-response","193","653789","0.0-191.0","A3RW5C1G9LVVV4","img_art/12.jpg","0","","","","","","","","","","","","","","","","","","","","","","","","",""
"4857","","image-button-response","194","658647","0.0-192.0-0.0","A3RW5C1G9LVVV4","img_art/12.jpg","1","","","","","","","","","","","","","","","","","","","","","","","","",""
"2936","","image-button-response","195","661586","0.0-193.0-0.0","A3RW5C1G9LVVV4","img_art/12.jpg","5","","","","","","","","","","","","","","","","","","","","","","","","",""
"null","","html-keyboard-response","196","662104","0.0-194.0","A3RW5C1G9LVVV4","<p style=""font-size: 48px;"">+</p>","","","","","null","allTrialResponses","500","1","21","img_art/12.jpg","4","reminds me of photo collage, intersting","Monica,Shannon,Jamie,Jessica,Leslie,Anna","Reminds me of collages we made in elementary school. I like the contrast of the colors from top to bottom,43,360,20","This image doesn't have anything going on. The top half is really ugly, I kind of like the bottom a little.,-20,220,20","Black and white contrast with color looks nice,15,320,20","I like this concept.,11,400,20","This elicits no reaction in me.,0,380,20","Therapist wall art.,10,300,20","Monica","Reminds me of collages we made in elementary school. I like the contrast of the colors from top to bottom,43,360,20","Shannon","This image doesn't have anything going on. The top half is really ugly, I kind of like the bottom a little.,-20,220,20","Anna","Therapist wall art.,10,300,20","4"
"13561","","survey-text","197","675675","0.0-195.0-0.0","A3RW5C1G9LVVV4","","","","{""Q0"":""very confused, it's a rat and a fetus?""}","","","","","","","","","","","","","","","","","","","","","","",""
"2047","","image-slider-response","198","677723","0.0-196.0","A3RW5C1G9LVVV4","","","","","-26","","","","","","","","","","","","","","","","","","","","","",""
"3902","","image-button-response","199","682724","0.0-197.0","A3RW5C1G9LVVV4","img_art/28.jpg","1","","","","","","","","","","","","","","","","","","","","","","","","",""
"216","","image-button-response","200","682943","0.0-198.0","A3RW5C1G9LVVV4","img_art/28.jpg","1","","","","","","","","","","","","","","","","","","","","","","","","",""
"1354","","image-button-response","201","684298","0.0-199.0-0.0","A3RW5C1G9LVVV4","img_art/28.jpg","2","","","","","","","","","","","","","","","","","","","","","","","","",""
"797","","image-button-response","202","685097","0.0-200.0-0.0","A3RW5C1G9LVVV4","img_art/28.jpg","3","","","","","","","","","","","","","","","","","","","","","","","","",""
"null","","html-keyboard-response","203","686104","0.0-201.0","A3RW5C1G9LVVV4","<p style=""font-size: 48px;"">+</p>","","","","","null","allTrialResponses","1000","1","22","img_art/28.jpg","-26","very confused, it's a rat and a fetus?","Monica,Shannon,Kathryn,Megan,Hailey,Anna","The dark colors make it look dirty and the shapes make me uncomfortable,-50,360,20","I don't like the way the colors look; I think very disgusting colors were used.,-20,220,20","My immediate reaction was to think of smog. It recalls choking on dirty air.,-20,140,20","Compact grey mess lack negative space,-10,200,20","an old woman in a wheelchair. sad,-35,200,20","It's drab and looks like stereotypical abstract art.,-30,300,20","Shannon","I don't like the way the colors look; I think very disgusting colors were used.,-20,220,20","Kathryn","My immediate reaction was to think of smog. It recalls choking on dirty air.,-20,140,20","Megan","Compact grey mess lack negative space,-10,200,20","4"
"8142","","survey-text","204","694256","0.0-202.0-0.0","A3RW5C1G9LVVV4","","","","{""Q0"":""like, reminds me of nightscape""}","","","","","","","","","","","","","","","","","","","","","","",""
"1703","","image-slider-response","205","695960","0.0-203.0","A3RW5C1G9LVVV4","","","","","15","","","","","","","","","","","","","","","","","","","","","",""
"null","","image-button-response","206","700974","0.0-204.0","A3RW5C1G9LVVV4","img_art/11.jpg","null","","","","","","","","","","","","","","","","","","","","","","","","",""
"117","","image-button-response","207","701091","0.0-205.0","A3RW5C1G9LVVV4","img_art/11.jpg","1","","","","","","","","","","","","","","","","","","","","","","","","",""
"3315","","image-button-response","208","704406","0.0-206.0-0.0","A3RW5C1G9LVVV4","img_art/11.jpg","5","","","","","","","","","","","","","","","","","","","","","","","","",""
"839","","image-button-response","209","705246","0.0-207.0-0.0","A3RW5C1G9LVVV4","img_art/11.jpg","4","","","","","","","","","","","","","","","","","","","","","","","","",""
"null","","html-keyboard-response","210","706262","0.0-208.0","A3RW5C1G9LVVV4","<p style=""font-size: 48px;"">+</p>","","","","","null","allTrialResponses","1000","1","23","img_art/11.jpg","15","like, reminds me of nightscape","Nicole,Shannon,Kathryn,Megan,Chloe,Sydney","Those vertical strokes are to die for and I love these colors !!!,50,20,20","This looks like a bridge that has plenty of color.,10,220,20","This is disorienting, like motion sickness.,-20,140,20","Some interesting color but scratchy train mess.,-14,200,20","Like the movement but not the background colors.,21,220,20","I don't like the gloomy color, but it reminds me of a city which I like.,35,320,20","Shannon","This looks like a bridge that has plenty of color.,10,220,20","Sydney","I don't like the gloomy color, but it reminds me of a city which I like.,35,320,20","Chloe","Like the movement but not the background colors.,21,220,20","4"
"9000","","survey-text","211","715279","0.0-209.0-0.0","A3RW5C1G9LVVV4","","","","{""Q0"":""unimpressed, totally fingerpainting.""}","","","","","","","","","","","","","","","","","","","","","","",""
"1981","","image-slider-response","212","717262","0.0-210.0","A3RW5C1G9LVVV4","","","","","-39","","","","","","","","","","","","","","","","","","","","","",""
"4570","","image-button-response","213","722265","0.0-211.0","A3RW5C1G9LVVV4","img_art/30.jpg","0","","","","","","","","","","","","","","","","","","","","","","","","",""
"506","","image-button-response","214","722773","0.0-212.0","A3RW5C1G9LVVV4","img_art/30.jpg","0","","","","","","","","","","","","","","","","","","","","","","","","",""
"716","","image-button-response","215","723490","0.0-213.0-0.0","A3RW5C1G9LVVV4","img_art/30.jpg","3","","","","","","","","","","","","","","","","","","","","","","","","",""
"1353","","image-button-response","216","724847","0.0-214.0-0.0","A3RW5C1G9LVVV4","img_art/30.jpg","2","","","","","","","","","","","","","","","","","","","","","","","","",""
"null","","html-keyboard-response","217","725848","0.0-215.0","A3RW5C1G9LVVV4","<p style=""font-size: 48px;"">+</p>","","","","","null","allTrialResponses","1000","1","24","img_art/30.jpg","-39","unimpressed, totally fingerpainting.","Jordan,Shannon,Mariah,Chelsea,Chloe,Sydney","cant see the meaning behind it,-20,20,20","I feel like the colors are too repetitive and not very eyecatching.,-20,220,20","It just feels hasty and not well composed. Has an angsty teen feel,-31,140,20","It looks like it was painted in 5 minutes.,-32,180,20","Muddy, sloppy, unprofessional,-44,220,20","I love the colors, the style, and the uniqueness in this piece. I love everything.,50,320,20","Jordan","cant see the meaning behind it,-20,20,20","Chelsea","It looks like it was painted in 5 minutes.,-32,180,20","Mariah","It just feels hasty and not well composed. Has an angsty teen feel,-31,140,20","4"
"9638","","survey-text","218","735508","0.0-216.0-0.0","A3RW5C1G9LVVV4","","","","{""Q0"":""love the hidden eagle, looks complex""}","","","","","","","","","","","","","","","","","","","","","","",""
"1936","","image-slider-response","219","737446","0.0-217.0","A3RW5C1G9LVVV4","","","","","5","","","","","","","","","","","","","","","","","","","","","",""
"4653","","image-button-response","220","742465","0.0-218.0","A3RW5C1G9LVVV4","img_art/17.jpg","3","","","","","","","","","","","","","","","","","","","","","","","","",""
"740","","image-button-response","221","743206","0.0-219.0","A3RW5C1G9LVVV4","img_art/17.jpg","5","","","","","","","","","","","","","","","","","","","","","","","","",""
"1956","","image-button-response","222","745163","0.0-220.0-0.0","A3RW5C1G9LVVV4","img_art/17.jpg","3","","","","","","","","","","","","","","","","","","","","","","","","",""
"1341","","image-button-response","223","746505","0.0-221.0-0.0","A3RW5C1G9LVVV4","img_art/17.jpg","2","","","","","","","","","","","","","","","","","","","","","","","","",""
"null","","html-keyboard-response","224","747508","0.0-222.0","A3RW5C1G9LVVV4","<p style=""font-size: 48px;"">+</p>","","","","","null","allTrialResponses","1000","1","25","img_art/17.jpg","5","love the hidden eagle, looks complex","Jordan,Rachel,Mariah,Chelsea,Erica,Sarah","absolutely gorgeous, I feel solitude again, but the beauty is there also,50,20,20","Reminds me of a beautiful tree growing in a courtyard. I like the light and airy technique used.,34,80,20","It feels like nature overtaking civilization.,21,140,20","The colors are soft.,32,180,20","Makes me warm and cozy just by looking at it,29,80,20","i like the delicate wispy part, but overall i don't love it,10,180,20","Sarah","i like the delicate wispy part, but overall i don't love it,10,180,20","Chelsea","The colors are soft.,32,180,20","Mariah","It feels like nature overtaking civilization.,21,140,20","4"
"4711","","survey-text","225","752229","0.0-223.0-0.0","A3RW5C1G9LVVV4","","","","{""Q0"":""table""}","","","","","","","","","","","","","","","","","","","","","","",""
"16375","","survey-text","226","768606","0.0-224.0-0.0","A3RW5C1G9LVVV4","","","","{""Q0"":""like the 3D elements, but otherwise too dark""}","","","","","","","","","","","","","","","","","","","","","","",""
"2081","","image-slider-response","227","770688","0.0-225.0","A3RW5C1G9LVVV4","","","","","-18","","","","","","","","","","","","","","","","","","","","","",""
"4558","","image-button-response","228","775702","0.0-226.0","A3RW5C1G9LVVV4","img_art/29.jpg","1","","","","","","","","","","","","","","","","","","","","","","","","",""
"502","","image-button-response","229","776206","0.0-227.0","A3RW5C1G9LVVV4","img_art/29.jpg","1","","","","","","","","","","","","","","","","","","","","","","","","",""
"1806","","image-button-response","230","778013","0.0-228.0-0.0","A3RW5C1G9LVVV4","img_art/29.jpg","0","","","","","","","","","","","","","","","","","","","","","","","","",""
"5702","","image-button-response","231","783718","0.0-229.0-0.0","A3RW5C1G9LVVV4","img_art/29.jpg","4","","","","","","","","","","","","","","","","","","","","","","","","",""
"null","","html-keyboard-response","232","785235","0.0-230.0","A3RW5C1G9LVVV4","<p style=""font-size: 48px;"">+</p>","","","","","null","allTrialResponses","1500","1","26","img_art/29.jpg","-18","like the 3D elements, but otherwise too dark","Margaret,Caitlin,Mariah,Chelsea,Marissa,Sarah","this does nothing for me. hate the colors. hate the design,-50,100,20","I would give up and give it a red X too.,-5,80,20","It feels like looking through layers of frustration.,19,140,20","It is intriguing but I don't like the red X.,6,180,20","It makes me feel as though the artist put in a lot of time and effort and then gave up,10,160,20","it's interesting but not my style,9,180,20","Caitlin","I would give up and give it a red X too.,-5,80,20","Margaret","this does nothing for me. hate the colors. hate the design,-50,100,20","Marissa","It makes me feel as though the artist put in a lot of time and effort and then gave up,10,160,20","4"
"10273","","survey-text","233","795534","0.0-231.0-0.0","A3RW5C1G9LVVV4","","","","{""Q0"":""spooked out, looks like a skeleton""}","","","","","","","","","","","","","","","","","","","","","","",""
"2459","","image-slider-response","234","797996","0.0-232.0","A3RW5C1G9LVVV4","","","","","8","","","","","","","","","","","","","","","","","","","","","",""
"4537","","image-button-response","235","803003","0.0-233.0","A3RW5C1G9LVVV4","img_art/25.jpg","2","","","","","","","","","","","","","","","","","","","","","","","","",""
"604","","image-button-response","236","803609","0.0-234.0","A3RW5C1G9LVVV4","img_art/25.jpg","2","","","","","","","","","","","","","","","","","","","","","","","","",""
"4362","","image-button-response","237","807972","0.0-235.0-0.0","A3RW5C1G9LVVV4","img_art/25.jpg","4","","","","","","","","","","","","","","","","","","","","","","","","",""
"2692","","image-button-response","238","810665","0.0-236.0-0.0","A3RW5C1G9LVVV4","img_art/25.jpg","0","","","","","","","","","","","","","","","","","","","","","","","","",""
"null","","html-keyboard-response","239","812173","0.0-237.0","A3RW5C1G9LVVV4","<p style=""font-size: 48px;"">+</p>","","","","","null","allTrialResponses","1500","1","27","img_art/25.jpg","8","spooked out, looks like a skeleton","Margaret,Caitlin,Destiny,Laura,Marissa,Crystal","love the color and the contrast of the black on teal,50,100,20","Wish I was that thin.,-5,80,20","creeeeeppyyyyyyy but mad cool,-26,360,20","I think of death,-28,320,20","I really like the green and the fact that it is tattered on the edges,23,160,20","Seems ritualistic and nativist,50,300,20","Destiny","creeeeeppyyyyyyy but mad cool,-26,360,20","Marissa","I really like the green and the fact that it is tattered on the edges,23,160,20","Margaret","love the color and the contrast of the black on teal,50,100,20","4"
"9330","","survey-text","240","821510","0.0-238.0-0.0","A3RW5C1G9LVVV4","","","","{""Q0"":""wild west evokes no reaction""}","","","","","","","","","","","","","","","","","","","","","","",""
"2938","","image-slider-response","241","824450","0.0-239.0","A3RW5C1G9LVVV4","","","","","-24","","","","","","","","","","","","","","","","","","","","","",""
"null","","image-button-response","242","829453","0.0-240.0","A3RW5C1G9LVVV4","img_art/20.jpg","null","","","","","","","","","","","","","","","","","","","","","","","","",""
"241","","image-button-response","243","829695","0.0-241.0","A3RW5C1G9LVVV4","img_art/20.jpg","2","","","","","","","","","","","","","","","","","","","","","","","","",""
"831","","image-button-response","244","830527","0.0-242.0-0.0","A3RW5C1G9LVVV4","img_art/20.jpg","0","","","","","","","","","","","","","","","","","","","","","","","","",""
"4354","","image-button-response","245","834882","0.0-243.0-0.0","A3RW5C1G9LVVV4","img_art/20.jpg","5","","","","","","","","","","","","","","","","","","","","","","","","",""
"null","","html-keyboard-response","246","835890","0.0-244.0","A3RW5C1G9LVVV4","<p style=""font-size: 48px;"">+</p>","","","","","null","allTrialResponses","1000","1","28","img_art/20.jpg","-24","wild west evokes no reaction","Margaret,Michaela,Destiny,Katelyn,Marissa,Madison","It seems to be a neutral cool toned art piece. Gives me alamo/desert vibes,2,100,20","I can't tell what's going on but I like the colors,12,260,20","truck? train? dead cow? plane?,10,360,20","I do at least like the dark colors blending,6,100,20","I feel intrigued and impressed,34,160,20","This is not abstract art, it is representative.,0,60,20","Destiny","truck? train? dead cow? plane?,10,360,20","Margaret","It seems to be a neutral cool toned art piece. Gives me alamo/desert vibes,2,100,20","Madison","This is not abstract art, it is representative.,0,60,20","4"
"19519","","survey-text","247","855424","0.0-245.0-0.0","A3RW5C1G9LVVV4","","","","{""Q0"":""bored, feel like artist is trying too hard""}","","","","","","","","","","","","","","","","","","","","","","",""
"1687","","image-slider-response","248","857113","0.0-246.0","A3RW5C1G9LVVV4","","","","","-15","","","","","","","","","","","","","","","","","","","","","",""
"3130","","image-button-response","249","862133","0.0-247.0","A3RW5C1G9LVVV4","img_art/22.jpg","2","","","","","","","","","","","","","","","","","","","","","","","","",""
"671","","image-button-response","250","862808","0.0-248.0","A3RW5C1G9LVVV4","img_art/22.jpg","2","","","","","","","","","","","","","","","","","","","","","","","","",""
"478","","image-button-response","251","863287","0.0-249.0-0.0","A3RW5C1G9LVVV4","img_art/22.jpg","1","","","","","","","","","","","","","","","","","","","","","","","","",""
"479","","image-button-response","252","863767","0.0-250.0-0.0","A3RW5C1G9LVVV4","img_art/22.jpg","0","","","","","","","","","","","","","","","","","","","","","","","","",""
"null","","html-keyboard-response","253","864783","0.0-251.0","A3RW5C1G9LVVV4","<p style=""font-size: 48px;"">+</p>","","","","","null","allTrialResponses","1000","1","29","img_art/22.jpg","-15","bored, feel like artist is trying too hard","Margaret,Jacqueline,Destiny,Rebecca,Kylie,Madison","i feel like this is a a basic art piece that a school would have on the wall,-24,100,20","I feel like I've seen this one already.,-9,300,20","so boring. Wow you made some circles some squares very nice,-40,360,20","colorful water (in front of castle?),17,100,20","Climate change in a big city,35,300,20","Like the colors, and the even blur. The more I look, the more a story forms. A very narrative image.,18,60,20","Destiny","so boring. Wow you made some circles some squares very nice,-40,360,20","Jacqueline","I feel like I've seen this one already.,-9,300,20","Margaret","i feel like this is a a basic art piece that a school would have on the wall,-24,100,20","4"
"14925","","survey-text","254","879720","0.0-252.0-0.0","A3RW5C1G9LVVV4","","","","{""Q0"":""uncomfortable, feel like i twas made by a kid""}","","","","","","","","","","","","","","","","","","","","","","",""
"1970","","image-slider-response","255","881692","0.0-253.0","A3RW5C1G9LVVV4","","","","","-28","","","","","","","","","","","","","","","","","","","","","",""
"null","","image-button-response","256","886712","0.0-254.0","A3RW5C1G9LVVV4","img_art/16.jpg","null","","","","","","","","","","","","","","","","","","","","","","","","",""
"386","","image-button-response","257","887099","0.0-255.0","A3RW5C1G9LVVV4","img_art/16.jpg","4","","","","","","","","","","","","","","","","","","","","","","","","",""
"801","","image-button-response","258","887902","0.0-256.0-0.0","A3RW5C1G9LVVV4","img_art/16.jpg","5","","","","","","","","","","","","","","","","","","","","","","","","",""
"820","","image-button-response","259","888724","0.0-257.0-0.0","A3RW5C1G9LVVV4","img_art/16.jpg","3","","","","","","","","","","","","","","","","","","","","","","","","",""
"null","","html-keyboard-response","260","889233","0.0-258.0","A3RW5C1G9LVVV4","<p style=""font-size: 48px;"">+</p>","","","","","null","allTrialResponses","500","1","30","img_art/16.jpg","-28","uncomfortable, feel like i twas made by a kid","Margaret,Jacqueline,Destiny,Meghan,Maria,Angelica","i like how it incorporates mixed visual art with the photo of the bear and the drawings,30,100,20","Seems very twisted and dark.,-35,300,20","what is this doing for anyone. If you connect with this you're literally lying to yourself. pretentious,-50,360,20","feels chaotic and morbid,-39,220,20","feel a little creeped out,-20,120,20","This is creepy and puerile.,-45,280,20","Maria","feel a little creeped out,-20,120,20","Angelica","This is creepy and puerile.,-45,280,20","Meghan","feels chaotic and morbid,-39,220,20","4"
"2377","","image-button-response_instructions","261","891619","0.0-259.0","A3RW5C1G9LVVV4","","0","instructions","","","","","","","","","","","","","","","","","","","","","","","",""
