"rt","url","trial_type","trial_index","time_elapsed","internal_node_id","participant_id","stimulus","button_pressed","Name","responses","response","key_press","variableName","fixationTime","condition","trial","photo","subjectRating","subjectResponse","agentsNames","agent_1_Response","agent_2_Response","agent_3_Response","agent_4_Response","agent_5_Response","agent_6_Response","kept_1_name","kept_1_response","kept_2_name","kept_2_response","kept_3_name","kept_3_response","errorCounter"
"52926","external_page_harvard.html","external-html","0","53009","0.0-0.0","A3SQV2L85UE5BK","","","","","","","","","","","","","","","","","","","","","","","","","","",""
"4890","","image-button-response","1","57903","0.0-1.0","A3SQV2L85UE5BK","","0","","","","","","","","","","","","","","","","","","","","","","","","",""
"1761","","image-button-response","2","59670","0.0-2.0-0.0","A3SQV2L85UE5BK","","1","phone","","","","","","","","","","","","","","","","","","","","","","","",""
"6725","","survey-text","3","66397","0.0-3.0-0.0","A3SQV2L85UE5BK","","","","{""Q0"":""A3SQV2L85UE5BK""}","","","","","","","","","","","","","","","","","","","","","","",""
"6289","","image-button-response_instructions","4","72690","0.0-4.0","A3SQV2L85UE5BK","","0","instructions","","","","","","","","","","","","","","","","","","","","","","","",""
"10490","","image-button-response_instructions","5","83182","0.0-5.0","A3SQV2L85UE5BK","img_art/ins/popularity/ins1.png","0","instructions","","","","","","","","","","","","","","","","","","","","","","","",""
"2066","","image-button-response_instructions","6","85250","0.0-6.0","A3SQV2L85UE5BK","img_art/ins/popularity/ins2.png","0","instructions","","","","","","","","","","","","","","","","","","","","","","","",""
"1842","","image-button-response_instructions","7","87094","0.0-7.0","A3SQV2L85UE5BK","img_art/ins/popularity/ins2Extreme.png","0","instructions","","","","","","","","","","","","","","","","","","","","","","","",""
"4186","","image-button-response_instructions","8","91282","0.0-8.0","A3SQV2L85UE5BK","img_art/ins/popularity/ins3KEEPpop.PNG","0","instructions","","","","","","","","","","","","","","","","","","","","","","","",""
"3034","","image-button-response_instructions","9","94318","0.0-9.0","A3SQV2L85UE5BK","img_art/ins/popularity/ins3ANamepop.PNG","0","instructions","","","","","","","","","","","","","","","","","","","","","","","",""
"994","","image-button-response_instructions","10","95314","0.0-10.0","A3SQV2L85UE5BK","img_art/ins/popularity/ins3ARatingpop.png","0","instructions","","","","","","","","","","","","","","","","","","","","","","","",""
"846","","image-button-response_instructions","11","96162","0.0-11.0","A3SQV2L85UE5BK","img_art/ins/popularity/ins3ATextpop.png","0","instructions","","","","","","","","","","","","","","","","","","","","","","","",""
"4741","","image-button-response_instructions","12","100903","0.0-12.0","A3SQV2L85UE5BK","img_art/ins/popularity/ins3ALikespop.png","0","instructions","","","","","","","","","","","","","","","","","","","","","","","",""
"4789","","image-button-response_instructions","13","105694","0.0-13.0","A3SQV2L85UE5BK","img_art/ins/popularity/ins3KEEPpop.PNG","0","instructions","","","","","","","","","","","","","","","","","","","","","","","",""
"2182","","image-button-response_instructions","14","107878","0.0-14.0","A3SQV2L85UE5BK","img_art/ins/popularity/ins3_5RED.png","0","instructions","","","","","","","","","","","","","","","","","","","","","","","",""
"886","","image-button-response_instructions","15","108766","0.0-15.0","A3SQV2L85UE5BK","img_art/ins/popularity/ins3KEEPpop.PNG","0","instructions","","","","","","","","","","","","","","","","","","","","","","","",""
"840","","image-button-response_instructions","16","109607","0.0-16.0","A3SQV2L85UE5BK","img_art/ins/popularity/ins4KEEPpop.PNG","0","instructions","","","","","","","","","","","","","","","","","","","","","","","",""
"1378","","image-button-response_instructions","17","110986","0.0-17.0","A3SQV2L85UE5BK","img_art/ins/popularity/ins5KEEPpop.PNG","0","instructions","","","","","","","","","","","","","","","","","","","","","","","",""
"1190","","image-button-response_instructions","18","112178","0.0-18.0","A3SQV2L85UE5BK","","0","instructions","","","","","","","","","","","","","","","","","","","","","","","",""
"6779","","survey-text","19","118991","0.0-19.0-0.0","A3SQV2L85UE5BK","","","","{""Q0"":""but""}","","","","","","","","","","","","","","","","","","","","","","",""
"41157","","survey-text","20","160149","0.0-20.0-0.0","A3SQV2L85UE5BK","","","","{""Q0"":""It looks like random colors mixed together. I don't see art.""}","","","","","","","","","","","","","","","","","","","","","","",""
"4271.5","","image-slider-response","21","164426","0.0-21.0","A3SQV2L85UE5BK","","","","","-25","","","","","","","","","","","","","","","","","","","","","",""
"null","","image-button-response","22","169438","0.0-22.0","A3SQV2L85UE5BK","img_art/ins/1.jpg","null","","","","","","","","","","","","","","","","","","","","","","","","",""
"10753","","image-button-response","23","180194","0.0-23.0","A3SQV2L85UE5BK","img_art/ins/1.jpg","0","","","","","","","","","","","","","","","","","","","","","","","","",""
"1406","","image-button-response","24","181603","0.0-24.0-0.0","A3SQV2L85UE5BK","img_art/ins/1.jpg","2","","","","","","","","","","","","","","","","","","","","","","","","",""
"1953","","image-button-response","25","183558","0.0-25.0-0.0","A3SQV2L85UE5BK","img_art/ins/1.jpg","4","","","","","","","","","","","","","","","","","","","","","","","","",""
"null","","html-keyboard-response","26","184063","0.0-26.0","A3SQV2L85UE5BK","<p style=""font-size: 48px;"">+</p>","","","","","null","allTrialResponses","500","1","-2","img_art/ins/1.jpg","-25","It looks like random colors mixed together. I don't see art.","Adam,Alex,Ben,Carl,Daniel,Jack","Seems like doodles,-20,20,20","very creative work.,36,40,20","This color reminds me of poo,-46,60,20","very calming artwork,42,80,20","It looks like a murder scene.,-48,100,20","I like the sophisticated brushwork,40,120,20","Adam","Seems like doodles,-20,20,20","Ben","This color reminds me of poo,-46,60,20","Daniel","It looks like a murder scene.,-48,100,20","0"
"33220","","survey-text","27","217289","0.0-27.0-0.0","A3SQV2L85UE5BK","","","","{""Q0"":""It looks like a random mix of colors. I don't see art.""}","","","","","","","","","","","","","","","","","","","","","","",""
"6118.400000035763","","image-slider-response","28","223410","0.0-28.0","A3SQV2L85UE5BK","","","","","-27","","","","","","","","","","","","","","","","","","","","","",""
"4107","","image-button-response","29","228413","0.0-29.0","A3SQV2L85UE5BK","img_art/ins/2.jpg","2","","","","","","","","","","","","","","","","","","","","","","","","",""
"3614","","image-button-response","30","232030","0.0-30.0","A3SQV2L85UE5BK","img_art/ins/2.jpg","5","","","","","","","","","","","","","","","","","","","","","","","","",""
"4677","","image-button-response","31","236710","0.0-31.0-0.0","A3SQV2L85UE5BK","img_art/ins/2.jpg","3","","","","","","","","","","","","","","","","","","","","","","","","",""
"3073","","image-button-response","32","239786","0.0-32.0-0.0","A3SQV2L85UE5BK","img_art/ins/2.jpg","2","","","","","","","","","","","","","","","","","","","","","","","","",""
"null","","html-keyboard-response","33","240299","0.0-33.0","A3SQV2L85UE5BK","<p style=""font-size: 48px;"">+</p>","","","","","null","allTrialResponses","500","1","-1","img_art/ins/2.jpg","-27","It looks like a random mix of colors. I don't see art.","Adam,John,Ben,James,Daniel,Kyle","too much color,-18,20,20","love the texture of paint,48,160,20","meaningless painting,-45,60,20","looks too angry,-50,140,20","One of my pet peevs,-48,100,20","Idk, it is just annoying,-32,180,20","Kyle","Idk, it is just annoying,-32,180,20","James","looks too angry,-50,140,20","Ben","meaningless painting,-45,60,20","0"
"38669","","survey-text","34","278974","0.0-34.0-0.0","A3SQV2L85UE5BK","","","","{""Q0"":""I like the different shades of blue. The dark blues look like birds to me.""}","","","","","","","","","","","","","","","","","","","","","","",""
"12437.900000035763","","image-slider-response","35","291414","0.0-35.0","A3SQV2L85UE5BK","","","","","28","","","","","","","","","","","","","","","","","","","","","",""
"2881","","image-button-response","36","296417","0.0-36.0","A3SQV2L85UE5BK","img_art/ins/3.jpg","1","","","","","","","","","","","","","","","","","","","","","","","","",""
"386","","image-button-response","37","296806","0.0-37.0","A3SQV2L85UE5BK","img_art/ins/3.jpg","1","","","","","","","","","","","","","","","","","","","","","","","","",""
"5078","","image-button-response","38","301886","0.0-38.0-0.0","A3SQV2L85UE5BK","img_art/ins/3.jpg","0","","","","","","","","","","","","","","","","","","","","","","","","",""
"2297","","image-button-response","39","304186","0.0-39.0-0.0","A3SQV2L85UE5BK","img_art/ins/3.jpg","0","","","","","","","","","","","","","","","","","","","","","","","","",""
"4523","","image-button-response","40","312034","0.0-39.1-0.1","A3SQV2L85UE5BK","img_art/ins/3.jpg","4","","","","","","","","","","","","","","","","","","","","","","","","",""
"null","","html-keyboard-response","41","313042","0.0-40.0","A3SQV2L85UE5BK","<p style=""font-size: 48px;"">+</p>","","","","","null","allTrialResponses","1000","1","0","img_art/ins/3.jpg","28","I like the different shades of blue. The dark blues look like birds to me.","Sam,Mike,Ben,James,Ron,Kyle","I can feel a rainy day from this painting,18,240,20","enjoy the different shades of blue,22,200,20","This thing gives me anxiety,-41,60,20","My worst nightmare,-42,140,20","It looks depressing,-26,220,20","It looks like a playground for bats,-36,180,20","Mike","enjoy the different shades of blue,22,200,20","Sam","I can feel a rainy day from this painting,18,240,20","Ron","It looks depressing,-26,220,20","2"
"6000","","image-button-response_instructions","42","319047","0.0-41.0","A3SQV2L85UE5BK","","0","instructions","","","","","","","","","","","","","","","","","","","","","","","",""
"13757","","survey-likert","43","332806","0.0-42.0-0.0","A3SQV2L85UE5BK","","","","{""Q0"":"""",""Q1"":0,""Q2"":1}","","","","","","","","","","","","","","","","","","","","","","",""
"4831","","survey-text","44","337641","0.0-43.0-0.0","A3SQV2L85UE5BK","","","","{""Q0"":""rock""}","","","","","","","","","","","","","","","","","","","","","","",""
"71878","","survey-text","45","409521","0.0-44.0-0.0","A3SQV2L85UE5BK","","","","{""Q0"":""I would call it unique and weird, but it doesn't appeal to me.""}","","","","","","","","","","","","","","","","","","","","","","",""
"3362.300000011921","","image-slider-response","46","412886","0.0-45.0","A3SQV2L85UE5BK","","","","","-33","","","","","","","","","","","","","","","","","","","","","",""
"4206","","image-button-response","47","417907","0.0-46.0","A3SQV2L85UE5BK","img_art/16.jpg","2","","","","","","","","","","","","","","","","","","","","","","","","",""
"1824","","image-button-response","48","419734","0.0-47.0","A3SQV2L85UE5BK","img_art/16.jpg","2","","","","","","","","","","","","","","","","","","","","","","","","",""
"8043","","image-button-response","49","427779","0.0-48.0-0.0","A3SQV2L85UE5BK","img_art/16.jpg","3","","","","","","","","","","","","","","","","","","","","","","","","",""
"1886","","image-button-response","50","429667","0.0-49.0-0.0","A3SQV2L85UE5BK","img_art/16.jpg","0","","","","","","","","","","","","","","","","","","","","","","","","",""
"null","","html-keyboard-response","51","431173","0.0-50.0","A3SQV2L85UE5BK","<p style=""font-size: 48px;"">+</p>","","","","","null","allTrialResponses","1500","1","1","img_art/16.jpg","-33","I would call it unique and weird, but it doesn't appeal to me.","Cody,Paul,Jason,Jack,Hunter,Gregory","Kind of creepyyyyyy,-41,180,20","Don't know if there's a meaning but I like how seemingly random objects were stuck together and called art,20,300,20","The bear is a weird choice,-22,20,20","very bizarre and confusing, but that feels purposeful, so i don't completely hate it.,-25,320,20","so close to feeling intentional,-4,240,20","Weird and funny,40,220,20","Jason","The bear is a weird choice,-22,20,20","Jack","very bizarre and confusing, but that feels purposeful, so i don't completely hate it.,-25,320,20","Cody","Kind of creepyyyyyy,-41,180,20","2"
"73079","","survey-text","52","504258","0.0-51.0-0.0","A3SQV2L85UE5BK","","","","{""Q0"":""I like the colors and shading and dessert vibe.""}","","","","","","","","","","","","","","","","","","","","","","",""
"3353.5","","image-slider-response","53","507614","0.0-52.0","A3SQV2L85UE5BK","","","","","30","","","","","","","","","","","","","","","","","","","","","",""
"2953","","image-button-response","54","512621","0.0-53.0","A3SQV2L85UE5BK","img_art/20.jpg","0","","","","","","","","","","","","","","","","","","","","","","","","",""
"4294","","image-button-response","55","516918","0.0-54.0","A3SQV2L85UE5BK","img_art/20.jpg","3","","","","","","","","","","","","","","","","","","","","","","","","",""
"861","","image-button-response","56","517782","0.0-55.0-0.0","A3SQV2L85UE5BK","img_art/20.jpg","4","","","","","","","","","","","","","","","","","","","","","","","","",""
"829","","image-button-response","57","518613","0.0-56.0-0.0","A3SQV2L85UE5BK","img_art/20.jpg","0","","","","","","","","","","","","","","","","","","","","","","","","",""
"null","","html-keyboard-response","58","520130","0.0-57.0","A3SQV2L85UE5BK","<p style=""font-size: 48px;"">+</p>","","","","","null","allTrialResponses","1500","1","2","img_art/20.jpg","30","I like the colors and shading and dessert vibe.","Cody,Blake,Jason,Jack,Ian,Alejandro","I like the distortion of the objects, good colors,20,180,20","reminds me of a dead animal in the west. ugly,-25,280,20","The picture looks smudged and dirty,-4,20,20","could look for hours. love the brush work. color choices look like a desert.,50,320,20","A painting within a painting, the inner painting looks like a car crash with a semi truck.,21,260,20","The pulling and sagging nature is very beautiful.,30,80,20","Jack","could look for hours. love the brush work. color choices look like a desert.,50,320,20","Ian","A painting within a painting, the inner painting looks like a car crash with a semi truck.,21,260,20","Cody","I like the distortion of the objects, good colors,20,180,20","2"
"68647","","survey-text","59","588782","0.0-58.0-0.0","A3SQV2L85UE5BK","","","","{""Q0"":""I like the realism of the painting. It has a natural vibe that appeals to me.""}","","","","","","","","","","","","","","","","","","","","","","",""
"3056.899999976158","","image-slider-response","60","591841","0.0-59.0","A3SQV2L85UE5BK","","","","","30","","","","","","","","","","","","","","","","","","","","","",""
"2044","","image-button-response","61","596844","0.0-60.0","A3SQV2L85UE5BK","img_art/7.jpg","3","","","","","","","","","","","","","","","","","","","","","","","","",""
"1371","","image-button-response","62","598218","0.0-61.0","A3SQV2L85UE5BK","img_art/7.jpg","1","","","","","","","","","","","","","","","","","","","","","","","","",""
"705","","image-button-response","63","598926","0.0-62.0-0.0","A3SQV2L85UE5BK","img_art/7.jpg","0","","","","","","","","","","","","","","","","","","","","","","","","",""
"3081","","image-button-response","64","602010","0.0-63.0-0.0","A3SQV2L85UE5BK","img_art/7.jpg","3","","","","","","","","","","","","","","","","","","","","","","","","",""
"null","","html-keyboard-response","65","602514","0.0-64.0","A3SQV2L85UE5BK","<p style=""font-size: 48px;"">+</p>","","","","","null","allTrialResponses","500","1","3","img_art/7.jpg","30","I like the realism of the painting. It has a natural vibe that appeals to me.","Cody,David,Christian,Jack,Ian,Lucas","Cool, makes me think of archeology,15,180,20","I like how the image has a sense of history, since the style looks like it came from stone.,20,340,20","would love to take a closer look at the texture,15,140,20","reminds me of a desert from far above,23,320,20","This looks like a literal picture of the ground so I'm really not too sure about this one.,-42,260,20","Don't understand the meaning of this picture.,-30,380,20","David","I like how the image has a sense of history, since the style looks like it came from stone.,20,340,20","Cody","Cool, makes me think of archeology,15,180,20","Jack","reminds me of a desert from far above,23,320,20","2"
"80479","","survey-text","66","682998","0.0-65.0-0.0","A3SQV2L85UE5BK","","","","{""Q0"":""The painting is gorgeous and intricate.""}","","","","","","","","","","","","","","","","","","","","","","",""
"2176.699999988079","","image-slider-response","67","685177","0.0-66.0","A3SQV2L85UE5BK","","","","","50","","","","","","","","","","","","","","","","","","","","","",""
"null","","image-button-response","68","690180","0.0-67.0","A3SQV2L85UE5BK","img_art/18.jpg","null","","","","","","","","","","","","","","","","","","","","","","","","",""
"383","","image-button-response","69","690566","0.0-68.0","A3SQV2L85UE5BK","img_art/18.jpg","1","","","","","","","","","","","","","","","","","","","","","","","","",""
"1490","","image-button-response","70","692058","0.0-69.0-0.0","A3SQV2L85UE5BK","img_art/18.jpg","3","","","","","","","","","","","","","","","","","","","","","","","","",""
"975","","image-button-response","71","693035","0.0-70.0-0.0","A3SQV2L85UE5BK","img_art/18.jpg","4","","","","","","","","","","","","","","","","","","","","","","","","",""
"null","","html-keyboard-response","72","694552","0.0-71.0","A3SQV2L85UE5BK","<p style=""font-size: 48px;"">+</p>","","","","","null","allTrialResponses","1500","1","4","img_art/18.jpg","50","The painting is gorgeous and intricate.","Cody,David,Connor,Jack,Garrett,Stephen","Vaguely creepy ........,-20,180,20","I like how the image gives off an impression of bravery.,25,340,20","See a weird horse,-22,240,20","hauntingly beautiful. more things revealed the longer you look. love the spirit-like figure in the top left.,47,320,20","I think its supposed to be a boat and the boat looks kind of interesting to me.,10,180,20","Too abstract to me,-30,140,20","David","I like how the image gives off an impression of bravery.,25,340,20","Jack","hauntingly beautiful. more things revealed the longer you look. love the spirit-like figure in the top left.,47,320,20","Garrett","I think its supposed to be a boat and the boat looks kind of interesting to me.,10,180,20","2"
"42692","","survey-text","73","737249","0.0-72.0-0.0","A3SQV2L85UE5BK","","","","{""Q0"":""The painting is too plain and generic.""}","","","","","","","","","","","","","","","","","","","","","","",""
"5965.899999976158","","image-slider-response","74","743218","0.0-73.0","A3SQV2L85UE5BK","","","","","-27","","","","","","","","","","","","","","","","","","","","","",""
"4149","","image-button-response","75","748222","0.0-74.0","A3SQV2L85UE5BK","img_art/6.jpg","2","","","","","","","","","","","","","","","","","","","","","","","","",""
"873","","image-button-response","76","749098","0.0-75.0","A3SQV2L85UE5BK","img_art/6.jpg","4","","","","","","","","","","","","","","","","","","","","","","","","",""
"1097","","image-button-response","77","750198","0.0-76.0-0.0","A3SQV2L85UE5BK","img_art/6.jpg","3","","","","","","","","","","","","","","","","","","","","","","","","",""
"1733","","image-button-response","78","751934","0.0-77.0-0.0","A3SQV2L85UE5BK","img_art/6.jpg","2","","","","","","","","","","","","","","","","","","","","","","","","",""
"null","","html-keyboard-response","79","752436","0.0-78.0","A3SQV2L85UE5BK","<p style=""font-size: 48px;"">+</p>","","","","","null","allTrialResponses","500","1","5","img_art/6.jpg","-27","The painting is too plain and generic.","Noah,David,Michael,Jack,Garrett,Adrian","intrigues me - not sure what I'm seeing, but I like combination of colour and texture,21,260,20","I like the simplicity of the piece.,10,340,20","Looks like a kid created it.,-50,140,20","I like the bottom half, but not the top,-7,320,20","I can't tell what this image is, but it's boring because of lack of color variety and nothing in it,-41,180,20","Simple, warm, hopeful.,12,60,20","Garrett","I can't tell what this image is, but it's boring because of lack of color variety and nothing in it,-41,180,20","Jack","I like the bottom half, but not the top,-7,320,20","Michael","Looks like a kid created it.,-50,140,20","2"
"3690","","survey-text","80","756134","0.0-79.0-0.0","A3SQV2L85UE5BK","","","","{""Q0"":""sky""}","","","","","","","","","","","","","","","","","","","","","","",""
"26112","","survey-text","81","782249","0.0-80.0-0.0","A3SQV2L85UE5BK","","","","{""Q0"":""I love the colors and resemblance to a tree.""}","","","","","","","","","","","","","","","","","","","","","","",""
"3225.800000011921","","image-slider-response","82","785477","0.0-81.0","A3SQV2L85UE5BK","","","","","50","","","","","","","","","","","","","","","","","","","","","",""
"4557","","image-button-response","83","790487","0.0-82.0","A3SQV2L85UE5BK","img_art/14.jpg","3","","","","","","","","","","","","","","","","","","","","","","","","",""
"299","","image-button-response","84","790789","0.0-83.0","A3SQV2L85UE5BK","img_art/14.jpg","3","","","","","","","","","","","","","","","","","","","","","","","","",""
"1501","","image-button-response","85","792293","0.0-84.0-0.0","A3SQV2L85UE5BK","img_art/14.jpg","5","","","","","","","","","","","","","","","","","","","","","","","","",""
"3542","","image-button-response","86","795838","0.0-85.0-0.0","A3SQV2L85UE5BK","img_art/14.jpg","4","","","","","","","","","","","","","","","","","","","","","","","","",""
"null","","html-keyboard-response","87","796339","0.0-86.0","A3SQV2L85UE5BK","<p style=""font-size: 48px;"">+</p>","","","","","null","allTrialResponses","500","1","6","img_art/14.jpg","50","I love the colors and resemblance to a tree.","Nathan,Jesse,Michael,Jack,Garrett,John","Too much yellow in this image, i'm not a fan of art that is overly-saturated with yellow,-30,200,20","Its cute. Not striking but i would keep it in my home.,10,80,20","Looks like there is some skill but also at the same time parts look unskilled.,-16,140,20","love the colors. despite their brightness it seems sad somehow.,41,320,20","I like this picture because it looks like a tree and the colors used look cool.,20,180,20","Beautiful tree,the use of water colors makes it soothing to look at,37,120,20","Jack","love the colors. despite their brightness it seems sad somehow.,41,320,20","John","Beautiful tree,the use of water colors makes it soothing to look at,37,120,20","Garrett","I like this picture because it looks like a tree and the colors used look cool.,20,180,20","2"
"48965","","survey-text","88","845309","0.0-87.0-0.0","A3SQV2L85UE5BK","","","","{""Q0"":""The painting looks like something a child would make in art class.""}","","","","","","","","","","","","","","","","","","","","","","",""
"4314","","image-slider-response","89","849625","0.0-88.0","A3SQV2L85UE5BK","","","","","-30","","","","","","","","","","","","","","","","","","","","","",""
"2361","","image-button-response","90","854639","0.0-89.0","A3SQV2L85UE5BK","img_art/2.jpg","0","","","","","","","","","","","","","","","","","","","","","","","","",""
"736","","image-button-response","91","855378","0.0-90.0","A3SQV2L85UE5BK","img_art/2.jpg","3","","","","","","","","","","","","","","","","","","","","","","","","",""
"3566","","image-button-response","92","858946","0.0-91.0-0.0","A3SQV2L85UE5BK","img_art/2.jpg","4","","","","","","","","","","","","","","","","","","","","","","","","",""
"1212","","image-button-response","93","860161","0.0-92.0-0.0","A3SQV2L85UE5BK","img_art/2.jpg","0","","","","","","","","","","","","","","","","","","","","","","","","",""
"null","","html-keyboard-response","94","860666","0.0-93.0","A3SQV2L85UE5BK","<p style=""font-size: 48px;"">+</p>","","","","","null","allTrialResponses","500","1","7","img_art/2.jpg","-30","The painting looks like something a child would make in art class.","Nathaniel,Kevin,Benjamin,Jack,Garrett,John","Too gloopy and unfocused,-38,220,20","That looks look a cartoon character of some kind.,11,320,20","bright and happy,20,260,20","the colors are a bit odd, and the squiggly line at the top is distracting,0,320,20","I like this picture a little because the colors make it look a little vibrant.,10,180,20","Its meh. Doesnt illicit any strong feelings in me,1,120,20","Jack","the colors are a bit odd, and the squiggly line at the top is distracting,0,320,20","Garrett","I like this picture a little because the colors make it look a little vibrant.,10,180,20","Nathaniel","Too gloopy and unfocused,-38,220,20","2"
"22849","","survey-text","95","883520","0.0-94.0-0.0","A3SQV2L85UE5BK","","","","{""Q0"":""I like the colors and rustic vibe.""}","","","","","","","","","","","","","","","","","","","","","","",""
"3315.600000023842","","image-slider-response","96","886838","0.0-95.0","A3SQV2L85UE5BK","","","","","15","","","","","","","","","","","","","","","","","","","","","",""
"3633","","image-button-response","97","891846","0.0-96.0","A3SQV2L85UE5BK","img_art/12.jpg","1","","","","","","","","","","","","","","","","","","","","","","","","",""
"734","","image-button-response","98","892582","0.0-97.0","A3SQV2L85UE5BK","img_art/12.jpg","2","","","","","","","","","","","","","","","","","","","","","","","","",""
"990","","image-button-response","99","893574","0.0-98.0-0.0","A3SQV2L85UE5BK","img_art/12.jpg","1","","","","","","","","","","","","","","","","","","","","","","","","",""
"1897","","image-button-response","100","895474","0.0-99.0-0.0","A3SQV2L85UE5BK","img_art/12.jpg","3","","","","","","","","","","","","","","","","","","","","","","","","",""
"null","","html-keyboard-response","101","895984","0.0-100.0","A3SQV2L85UE5BK","<p style=""font-size: 48px;"">+</p>","","","","","null","allTrialResponses","500","1","8","img_art/12.jpg","15","I like the colors and rustic vibe.","Nathaniel,Matthew,Taylor,Jack,Garrett,Sean","Too many blocks. I can't see a purpose or a focal point,-44,220,20","It's boxy, cubist immpressionism? Very ncie.,32,120,20","Just wish it was more colorful.,20,200,20","interesting, but feels like someone cut up a picture and pasted it together wrong. want to see the original,15,320,20","This image doesn't have anything going on. The top half is really ugly, I kind of like the bottom a little.,-20,180,20","my reaction is that the picture is wierd,-11,40,20","Taylor","Just wish it was more colorful.,20,200,20","Matthew","It's boxy, cubist immpressionism? Very ncie.,32,120,20","Jack","interesting, but feels like someone cut up a picture and pasted it together wrong. want to see the original,15,320,20","2"
"29944","","survey-text","102","925933","0.0-101.0-0.0","A3SQV2L85UE5BK","","","","{""Q0"":""I like the colors and shapes of the lines.""}","","","","","","","","","","","","","","","","","","","","","","",""
"2705.7999999523163","","image-slider-response","103","928641","0.0-102.0","A3SQV2L85UE5BK","","","","","25","","","","","","","","","","","","","","","","","","","","","",""
"3370","","image-button-response","104","933645","0.0-103.0","A3SQV2L85UE5BK","img_art/11.jpg","4","","","","","","","","","","","","","","","","","","","","","","","","",""
"2043","","image-button-response","105","935690","0.0-104.0","A3SQV2L85UE5BK","img_art/11.jpg","4","","","","","","","","","","","","","","","","","","","","","","","","",""
"2250","","image-button-response","106","937942","0.0-105.0-0.0","A3SQV2L85UE5BK","img_art/11.jpg","3","","","","","","","","","","","","","","","","","","","","","","","","",""
"3181","","image-button-response","107","941126","0.0-106.0-0.0","A3SQV2L85UE5BK","img_art/11.jpg","1","","","","","","","","","","","","","","","","","","","","","","","","",""
"null","","html-keyboard-response","108","942141","0.0-107.0","A3SQV2L85UE5BK","<p style=""font-size: 48px;"">+</p>","","","","","null","allTrialResponses","1000","1","9","img_art/11.jpg","25","I like the colors and shapes of the lines.","Miguel,Matthew,Taylor,Jack,Shane,Jeffrey","Good but not eye catching,14,160,20","Dark but bright, city but ocean, musical scales.,50,120,20","Busy, busy oceanside city.,-10,200,20","makes me think of city highways & bridges on a rainy, foggy day. I like the melancholy it evokes.,43,320,20","City on a hill, tranquility,42,80,20","a lot of dark colours,-8,40,20","Shane","City on a hill, tranquility,42,80,20","Jack","makes me think of city highways & bridges on a rainy, foggy day. I like the melancholy it evokes.,43,320,20","Matthew","Dark but bright, city but ocean, musical scales.,50,120,20","2"
"46883","","survey-text","109","989029","0.0-108.0-0.0","A3SQV2L85UE5BK","","","","{""Q0"":""I like the topographical look of the painting and the nature vibe.""}","","","","","","","","","","","","","","","","","","","","","","",""
"3625.899999976158","","image-slider-response","110","992658","0.0-109.0","A3SQV2L85UE5BK","","","","","21","","","","","","","","","","","","","","","","","","","","","",""
"null","","image-button-response","111","997661","0.0-110.0","A3SQV2L85UE5BK","img_art/24.jpg","null","","","","","","","","","","","","","","","","","","","","","","","","",""
"3959","","image-button-response","112","1001622","0.0-111.0","A3SQV2L85UE5BK","img_art/24.jpg","4","","","","","","","","","","","","","","","","","","","","","","","","",""
"1418","","image-button-response","113","1003043","0.0-112.0-0.0","A3SQV2L85UE5BK","img_art/24.jpg","5","","","","","","","","","","","","","","","","","","","","","","","","",""
"876","","image-button-response","114","1003922","0.0-113.0-0.0","A3SQV2L85UE5BK","img_art/24.jpg","2","","","","","","","","","","","","","","","","","","","","","","","","",""
"null","","html-keyboard-response","115","1005429","0.0-114.0","A3SQV2L85UE5BK","<p style=""font-size: 48px;"">+</p>","","","","","null","allTrialResponses","1500","1","10","img_art/24.jpg","21","I like the topographical look of the painting and the nature vibe.","Andrew,Matthew,Zachary,Jack,Shane,Antonio","Makes me think of a couple of hikes that I've taken,50,160,20","NOt quite Bob Ross, but still good.,30,120,20","Looks like a beautiful stream rolling through terrain of rocks and flowers.,43,400,20","colors are a bit cramped together. really unique take on a waterfall though.,32,320,20","A peaceful day by the river,42,80,20","Waterfalls and spring and gives me a sense of renewal,34,220,20","Shane","A peaceful day by the river,42,80,20","Antonio","Waterfalls and spring and gives me a sense of renewal,34,220,20","Zachary","Looks like a beautiful stream rolling through terrain of rocks and flowers.,43,400,20","2"
"3355","","survey-text","116","1008793","0.0-115.0-0.0","A3SQV2L85UE5BK","","","","{""Q0"":""our""}","","","","","","","","","","","","","","","","","","","","","","",""
"39083","","survey-text","117","1047877","0.0-116.0-0.0","A3SQV2L85UE5BK","","","","{""Q0"":""The painting has a musical vibe to it. I see various instruments and notes.""}","","","","","","","","","","","","","","","","","","","","","","",""
"2738.199999988079","","image-slider-response","118","1050617","0.0-117.0","A3SQV2L85UE5BK","","","","","27","","","","","","","","","","","","","","","","","","","","","",""
"3522","","image-button-response","119","1055621","0.0-118.0","A3SQV2L85UE5BK","img_art/10.jpg","1","","","","","","","","","","","","","","","","","","","","","","","","",""
"1754","","image-button-response","120","1057378","0.0-119.0","A3SQV2L85UE5BK","img_art/10.jpg","4","","","","","","","","","","","","","","","","","","","","","","","","",""
"1586","","image-button-response","121","1058966","0.0-120.0-0.0","A3SQV2L85UE5BK","img_art/10.jpg","5","","","","","","","","","","","","","","","","","","","","","","","","",""
"2533","","image-button-response","122","1061502","0.0-121.0-0.0","A3SQV2L85UE5BK","img_art/10.jpg","1","","","","","","","","","","","","","","","","","","","","","","","","",""
"null","","html-keyboard-response","123","1062513","0.0-122.0","A3SQV2L85UE5BK","<p style=""font-size: 48px;"">+</p>","","","","","null","allTrialResponses","1000","1","11","img_art/10.jpg","27","The painting has a musical vibe to it. I see various instruments and notes.","Spencer,Christopher,Zachary,Brian,Shane,Antonio","Dark with no object, looks like experimentation, slightly like a storm on the ocean,-21,120,20","i like this, the mix of brush textures is cool,24,160,20","Reminds me of a terrarium with cacti inside. It reminds me of home.,27,400,20","this is a good painting, but feels musical in a way that I don't connect with.,-14,380,20","Like a decision making process,46,80,20","This painting made me think of a guitar which made me think of music which envoked happy feelings.,28,220,20","Shane","Like a decision making process,46,80,20","Antonio","This painting made me think of a guitar which made me think of music which envoked happy feelings.,28,220,20","Christopher","i like this, the mix of brush textures is cool,24,160,20","2"
"60750","","survey-text","124","1123269","0.0-123.0-0.0","A3SQV2L85UE5BK","","","","{""Q0"":""I like the colors and the trees. It reminds me of a park on a peaceful day.""}","","","","","","","","","","","","","","","","","","","","","","",""
"3417.399999976158","","image-slider-response","125","1126688","0.0-124.0","A3SQV2L85UE5BK","","","","","43","","","","","","","","","","","","","","","","","","","","","",""
"null","","image-button-response","126","1131691","0.0-125.0","A3SQV2L85UE5BK","img_art/26.jpg","null","","","","","","","","","","","","","","","","","","","","","","","","",""
"979","","image-button-response","127","1132673","0.0-126.0","A3SQV2L85UE5BK","img_art/26.jpg","5","","","","","","","","","","","","","","","","","","","","","","","","",""
"1386","","image-button-response","128","1134061","0.0-127.0-0.0","A3SQV2L85UE5BK","img_art/26.jpg","2","","","","","","","","","","","","","","","","","","","","","","","","",""
"2574","","image-button-response","129","1136637","0.0-128.0-0.0","A3SQV2L85UE5BK","img_art/26.jpg","0","","","","","","","","","","","","","","","","","","","","","","","","",""
"null","","html-keyboard-response","130","1137653","0.0-129.0","A3SQV2L85UE5BK","<p style=""font-size: 48px;"">+</p>","","","","","null","allTrialResponses","1000","1","12","img_art/26.jpg","43","I like the colors and the trees. It reminds me of a park on a peaceful day.","Scott,Christopher,Isaac,Luis,Shane,Antonio","nothing really special, quite bland,1,20,20","too hard to figure out if it's meant to be actual objects or impressions,-36,160,20","I wish it were more pastel but I think it is relaxing to look at.,30,280,20","I dont see any expression,-29,400,20","Colors are full and reminds me of a messy room,-9,80,20","Calming and relaxing,28,220,20","Antonio","Calming and relaxing,28,220,20","Isaac","I wish it were more pastel but I think it is relaxing to look at.,30,280,20","Scott","nothing really special, quite bland,1,20,20","2"
"16590","","survey-text","131","1154249","0.0-130.0-0.0","A3SQV2L85UE5BK","","","","{""Q0"":""The painting is too plain and generic.""}","","","","","","","","","","","","","","","","","","","","","","",""
"2641.5","","image-slider-response","132","1156893","0.0-131.0","A3SQV2L85UE5BK","","","","","-42","","","","","","","","","","","","","","","","","","","","","",""
"null","","image-button-response","133","1161900","0.0-132.0","A3SQV2L85UE5BK","img_art/5.jpg","null","","","","","","","","","","","","","","","","","","","","","","","","",""
"811","","image-button-response","134","1162713","0.0-133.0","A3SQV2L85UE5BK","img_art/5.jpg","1","","","","","","","","","","","","","","","","","","","","","","","","",""
"1477","","image-button-response","135","1164194","0.0-134.0-0.0","A3SQV2L85UE5BK","img_art/5.jpg","4","","","","","","","","","","","","","","","","","","","","","","","","",""
"890","","image-button-response","136","1165087","0.0-135.0-0.0","A3SQV2L85UE5BK","img_art/5.jpg","5","","","","","","","","","","","","","","","","","","","","","","","","",""
"null","","html-keyboard-response","137","1166593","0.0-136.0","A3SQV2L85UE5BK","<p style=""font-size: 48px;"">+</p>","","","","","null","allTrialResponses","1500","1","13","img_art/5.jpg","-42","The painting is too plain and generic.","Scott,Caleb,Isaac,Brendan,Mason,Antonio","I like it but I don't know why,15,20,20","Boring and appears low effort,-41,40,20","I'm not sure what is going on here.,-46,280,20","a volcano erruption,21,340,20","pointless, ugly, not creative.,-50,100,20","Too much angular things happening, makes me think of stabbing something which makes me uncomfortable,-50,220,20","Caleb","Boring and appears low effort,-41,40,20","Mason","pointless, ugly, not creative.,-50,100,20","Antonio","Too much angular things happening, makes me think of stabbing something which makes me uncomfortable,-50,220,20","2"
"19738","","survey-text","138","1186337","0.0-137.0-0.0","A3SQV2L85UE5BK","","","","{""Q0"":""I don't see the art in this painting.""}","","","","","","","","","","","","","","","","","","","","","","",""
"3457.7000000476837","","image-slider-response","139","1189797","0.0-138.0","A3SQV2L85UE5BK","","","","","-38","","","","","","","","","","","","","","","","","","","","","",""
"null","","image-button-response","140","1194799","0.0-139.0","A3SQV2L85UE5BK","img_art/4.jpg","null","","","","","","","","","","","","","","","","","","","","","","","","",""
"1167","","image-button-response","141","1195969","0.0-140.0","A3SQV2L85UE5BK","img_art/4.jpg","4","","","","","","","","","","","","","","","","","","","","","","","","",""
"1069","","image-button-response","142","1197041","0.0-141.0-0.0","A3SQV2L85UE5BK","img_art/4.jpg","5","","","","","","","","","","","","","","","","","","","","","","","","",""
"1077","","image-button-response","143","1198121","0.0-142.0-0.0","A3SQV2L85UE5BK","img_art/4.jpg","3","","","","","","","","","","","","","","","","","","","","","","","","",""
"null","","html-keyboard-response","144","1199124","0.0-143.0","A3SQV2L85UE5BK","<p style=""font-size: 48px;"">+</p>","","","","","null","allTrialResponses","1000","1","14","img_art/4.jpg","-38","I don't see the art in this painting.","Brett,Caleb,Peter,Gabriel,Mason,Antonio","I just have no clue,26,360,20","Colors are horrendous, look like bodily fluids have been smeared.,-50,40,20","Looks like poop on walks,-27,320,20","this is terrible,-49,160,20","ordinary, bland. unmoving.,-6,100,20","Blah feeling, nothing,-8,220,20","Mason","ordinary, bland. unmoving.,-6,100,20","Antonio","Blah feeling, nothing,-8,220,20","Gabriel","this is terrible,-49,160,20","2"
"40087","","survey-text","145","1239217","0.0-144.0-0.0","A3SQV2L85UE5BK","","","","{""Q0"":""The painting is very colorful, but nothing special.""}","","","","","","","","","","","","","","","","","","","","","","",""
"2065.5","","image-slider-response","146","1241285","0.0-145.0","A3SQV2L85UE5BK","","","","","-5","","","","","","","","","","","","","","","","","","","","","",""
"null","","image-button-response","147","1246289","0.0-146.0","A3SQV2L85UE5BK","img_art/23.jpg","null","","","","","","","","","","","","","","","","","","","","","","","","",""
"1756","","image-button-response","148","1248047","0.0-147.0","A3SQV2L85UE5BK","img_art/23.jpg","4","","","","","","","","","","","","","","","","","","","","","","","","",""
"836","","image-button-response","149","1248885","0.0-148.0-0.0","A3SQV2L85UE5BK","img_art/23.jpg","0","","","","","","","","","","","","","","","","","","","","","","","","",""
"545","","image-button-response","150","1249433","0.0-149.0-0.0","A3SQV2L85UE5BK","img_art/23.jpg","1","","","","","","","","","","","","","","","","","","","","","","","","",""
"null","","html-keyboard-response","151","1249937","0.0-150.0","A3SQV2L85UE5BK","<p style=""font-size: 48px;"">+</p>","","","","","null","allTrialResponses","500","1","15","img_art/23.jpg","-5","The painting is very colorful, but nothing special.","Juan,Trevor,Cole,Gabriel,Mason,Antonio","This is ugly and weird.,-50,260,20","nice bright colors but looks like it's from the 90's,6,280,20","White in the middle look like people dancing naked,19,200,20","i think this ones okay,10,160,20","No reactions, childish.,-19,100,20","Like the colors and made me feel happy,23,220,20","Mason","No reactions, childish.,-19,100,20","Juan","This is ugly and weird.,-50,260,20","Trevor","nice bright colors but looks like it's from the 90's,6,280,20","2"
"4751","","survey-text","152","1254697","0.0-151.0-0.0","A3SQV2L85UE5BK","","","","{""Q0"":""course""}","","","","","","","","","","","","","","","","","","","","","","",""
"24394","","survey-text","153","1279092","0.0-152.0-0.0","A3SQV2L85UE5BK","","","","{""Q0"":""I love the 3D look and colors.""}","","","","","","","","","","","","","","","","","","","","","","",""
"3874.899999976158","","image-slider-response","154","1282969","0.0-153.0","A3SQV2L85UE5BK","","","","","32","","","","","","","","","","","","","","","","","","","","","",""
"null","","image-button-response","155","1287986","0.0-154.0","A3SQV2L85UE5BK","img_art/13.jpg","null","","","","","","","","","","","","","","","","","","","","","","","","",""
"269","","image-button-response","156","1288257","0.0-155.0","A3SQV2L85UE5BK","img_art/13.jpg","2","","","","","","","","","","","","","","","","","","","","","","","","",""
"1361","","image-button-response","157","1289621","0.0-156.0-0.0","A3SQV2L85UE5BK","img_art/13.jpg","5","","","","","","","","","","","","","","","","","","","","","","","","",""
"1061","","image-button-response","158","1290684","0.0-157.0-0.0","A3SQV2L85UE5BK","img_art/13.jpg","0","","","","","","","","","","","","","","","","","","","","","","","","",""
"null","","html-keyboard-response","159","1291185","0.0-158.0","A3SQV2L85UE5BK","<p style=""font-size: 48px;"">+</p>","","","","","null","allTrialResponses","500","1","16","img_art/13.jpg","32","I love the 3D look and colors.","Juan,Trevor,Jordan,Dalton,Mason,Carlos","I love the colors and the contrast between the different blues.,21,260,20","i like the colors but it looks like something that would hang in a hotel,18,280,20","This is easy to look at,46,160,20","rain in blue black and white,1,300,20","meh, 80's. retro,-9,100,20","Rain on a cold window.,22,80,20","Jordan","This is easy to look at,46,160,20","Carlos","Rain on a cold window.,22,80,20","Juan","I love the colors and the contrast between the different blues.,21,260,20","2"
"27882","","survey-text","160","1319073","0.0-159.0-0.0","A3SQV2L85UE5BK","","","","{""Q0"":""The painting doesn't resonate with me.""}","","","","","","","","","","","","","","","","","","","","","","",""
"3153.699999988079","","image-slider-response","161","1322229","0.0-160.0","A3SQV2L85UE5BK","","","","","-4","","","","","","","","","","","","","","","","","","","","","",""
"null","","image-button-response","162","1327236","0.0-161.0","A3SQV2L85UE5BK","img_art/22.jpg","null","","","","","","","","","","","","","","","","","","","","","","","","",""
"798","","image-button-response","163","1328037","0.0-162.0","A3SQV2L85UE5BK","img_art/22.jpg","0","","","","","","","","","","","","","","","","","","","","","","","","",""
"1388","","image-button-response","164","1329427","0.0-163.0-0.0","A3SQV2L85UE5BK","img_art/22.jpg","2","","","","","","","","","","","","","","","","","","","","","","","","",""
"1405","","image-button-response","165","1330833","0.0-164.0-0.0","A3SQV2L85UE5BK","img_art/22.jpg","1","","","","","","","","","","","","","","","","","","","","","","","","",""
"null","","html-keyboard-response","166","1331835","0.0-165.0","A3SQV2L85UE5BK","<p style=""font-size: 48px;"">+</p>","","","","","null","allTrialResponses","1000","1","17","img_art/22.jpg","-4","The painting doesn't resonate with me.","Juan,Luke,Jordan,Derek,Edward,Carlos","I don't like the colors or the way they've been arranged.,-20,260,20","the colors and shapes makes me want to keep looking at it,22,20,20","The colors are too dark, too much red,2,160,20","Really pretty. Love the colors.,30,360,20","I like the use of primary colors in an interesting way,29,60,20","The colors are pleasant, the shapes are inviting.,21,80,20","Juan","I don't like the colors or the way they've been arranged.,-20,260,20","Jordan","The colors are too dark, too much red,2,160,20","Luke","the colors and shapes makes me want to keep looking at it,22,20,20","2"
"31960","","survey-text","167","1363801","0.0-166.0-0.0","A3SQV2L85UE5BK","","","","{""Q0"":""I like the colors. The painting reminds me of The Wickerman.""}","","","","","","","","","","","","","","","","","","","","","","",""
"5073.199999988079","","image-slider-response","168","1368877","0.0-167.0","A3SQV2L85UE5BK","","","","","25","","","","","","","","","","","","","","","","","","","","","",""
"null","","image-button-response","169","1373880","0.0-168.0","A3SQV2L85UE5BK","img_art/25.jpg","null","","","","","","","","","","","","","","","","","","","","","","","","",""
"3555","","image-button-response","170","1377437","0.0-169.0","A3SQV2L85UE5BK","img_art/25.jpg","1","","","","","","","","","","","","","","","","","","","","","","","","",""
"2577","","image-button-response","171","1380017","0.0-170.0-0.0","A3SQV2L85UE5BK","img_art/25.jpg","4","","","","","","","","","","","","","","","","","","","","","","","","",""
"957","","image-button-response","172","1380977","0.0-171.0-0.0","A3SQV2L85UE5BK","img_art/25.jpg","0","","","","","","","","","","","","","","","","","","","","","","","","",""
"null","","html-keyboard-response","173","1381988","0.0-172.0","A3SQV2L85UE5BK","<p style=""font-size: 48px;"">+</p>","","","","","null","allTrialResponses","1000","1","18","img_art/25.jpg","25","I like the colors. The painting reminds me of The Wickerman.","Juan,Luke,Jordan,Travis,William,Tyler","I don't like the color. I don't like the abstract-ness of it.,-22,260,20","the contrasting colors are very interesting,24,20,20","This is creepy and I dont like it,-28,160,20","I hate the colors and the scene,-46,260,20","makes me think of a scary movie,-20,380,20","Meh. Hardly abstract, though.,-40,320,20","Luke","the contrasting colors are very interesting,24,20,20","William","makes me think of a scary movie,-20,380,20","Juan","I don't like the color. I don't like the abstract-ness of it.,-22,260,20","2"
"25152","","survey-text","174","1407145","0.0-173.0-0.0","A3SQV2L85UE5BK","","","","{""Q0"":""It looks like random strokes.""}","","","","","","","","","","","","","","","","","","","","","","",""
"2793.300000011921","","image-slider-response","175","1409941","0.0-174.0","A3SQV2L85UE5BK","","","","","-28","","","","","","","","","","","","","","","","","","","","","",""
"null","","image-button-response","176","1414944","0.0-175.0","A3SQV2L85UE5BK","img_art/3.jpg","null","","","","","","","","","","","","","","","","","","","","","","","","",""
"245","","image-button-response","177","1415191","0.0-176.0","A3SQV2L85UE5BK","img_art/3.jpg","5","","","","","","","","","","","","","","","","","","","","","","","","",""
"1133","","image-button-response","178","1416326","0.0-177.0-0.0","A3SQV2L85UE5BK","img_art/3.jpg","4","","","","","","","","","","","","","","","","","","","","","","","","",""
"1121","","image-button-response","179","1417450","0.0-178.0-0.0","A3SQV2L85UE5BK","img_art/3.jpg","2","","","","","","","","","","","","","","","","","","","","","","","","",""
"null","","html-keyboard-response","180","1417952","0.0-179.0","A3SQV2L85UE5BK","<p style=""font-size: 48px;"">+</p>","","","","","null","allTrialResponses","500","1","19","img_art/3.jpg","-28","It looks like random strokes.","Juan,Luke,Evan,Alexander,William,Ryan","It makes me think of just an angry scribble. There's no beauty to it for me.,-50,260,20","it makes me feel really angry,-20,20,20","It feels like a half assed and failed imitation of Japanese signatures on old paintings,-22,140,20","Somewhere between a child's art and a poorly drawn battle map.,8,120,20","makes me think of anger,-33,380,20","Looks like someone threw blood at a wall,-50,380,20","Ryan","Looks like someone threw blood at a wall,-50,380,20","William","makes me think of anger,-33,380,20","Evan","It feels like a half assed and failed imitation of Japanese signatures on old paintings,-22,140,20","2"
"21781","","survey-text","181","1439738","0.0-180.0-0.0","A3SQV2L85UE5BK","","","","{""Q0"":""There is nothing unique or special about this painting.""}","","","","","","","","","","","","","","","","","","","","","","",""
"3320.5","","image-slider-response","182","1443061","0.0-181.0","A3SQV2L85UE5BK","","","","","-31","","","","","","","","","","","","","","","","","","","","","",""
"null","","image-button-response","183","1448064","0.0-182.0","A3SQV2L85UE5BK","img_art/30.jpg","null","","","","","","","","","","","","","","","","","","","","","","","","",""
"6183","","image-button-response","184","1454250","0.0-183.0","A3SQV2L85UE5BK","img_art/30.jpg","4","","","","","","","","","","","","","","","","","","","","","","","","",""
"1761","","image-button-response","185","1456013","0.0-184.0-0.0","A3SQV2L85UE5BK","img_art/30.jpg","0","","","","","","","","","","","","","","","","","","","","","","","","",""
"1181","","image-button-response","186","1457197","0.0-185.0-0.0","A3SQV2L85UE5BK","img_art/30.jpg","3","","","","","","","","","","","","","","","","","","","","","","","","",""
"null","","html-keyboard-response","187","1458699","0.0-186.0","A3SQV2L85UE5BK","<p style=""font-size: 48px;"">+</p>","","","","","null","allTrialResponses","1500","1","20","img_art/30.jpg","-31","There is nothing unique or special about this painting.","Jake,Thomas,Evan,Adam,William,Ryan","This is just simple and ugly.,-2,360,20","I like the colors,18,220,20","I really like the broad and colorful strokes,21,140,20","Dislike the contrast here.,-5,40,20","to dark and dreary,-28,380,20","Love how the red stands out,20,380,20","William","to dark and dreary,-28,380,20","Jake","This is just simple and ugly.,-2,360,20","Adam","Dislike the contrast here.,-5,40,20","2"
"2735","","survey-text","188","1461445","0.0-187.0-0.0","A3SQV2L85UE5BK","","","","{""Q0"":""we""}","","","","","","","","","","","","","","","","","","","","","","",""
"45507","","survey-text","189","1506953","0.0-188.0-0.0","A3SQV2L85UE5BK","","","","{""Q0"":""This is an absolutely gorgeous painting with vivid colors and intricate designs.""}","","","","","","","","","","","","","","","","","","","","","","",""
"3129.5","","image-slider-response","190","1510085","0.0-189.0","A3SQV2L85UE5BK","","","","","50","","","","","","","","","","","","","","","","","","","","","",""
"null","","image-button-response","191","1515088","0.0-190.0","A3SQV2L85UE5BK","img_art/8.jpg","null","","","","","","","","","","","","","","","","","","","","","","","","",""
"1495","","image-button-response","192","1516584","0.0-191.0","A3SQV2L85UE5BK","img_art/8.jpg","2","","","","","","","","","","","","","","","","","","","","","","","","",""
"1179","","image-button-response","193","1517765","0.0-192.0-0.0","A3SQV2L85UE5BK","img_art/8.jpg","1","","","","","","","","","","","","","","","","","","","","","","","","",""
"1437","","image-button-response","194","1519205","0.0-193.0-0.0","A3SQV2L85UE5BK","img_art/8.jpg","5","","","","","","","","","","","","","","","","","","","","","","","","",""
"null","","html-keyboard-response","195","1520222","0.0-194.0","A3SQV2L85UE5BK","<p style=""font-size: 48px;"">+</p>","","","","","null","allTrialResponses","1000","1","21","img_art/8.jpg","50","This is an absolutely gorgeous painting with vivid colors and intricate designs.","Jake,Charles,Justin,Adam,William,Victor","It's a poor rendition of an MC Escher inspired piece.,-25,360,20","Feels very 90's but I like the doorway,15,100,20","Interesting to look at, there are many things happening in the painting.,32,280,20","Eclectic city with good mix of colors.,10,40,20","makes me think of a busy city,-18,380,20","I like the colors,10,340,20","Justin","Interesting to look at, there are many things happening in the painting.,32,280,20","Charles","Feels very 90's but I like the doorway,15,100,20","Victor","I like the colors,10,340,20","2"
"24108","","survey-text","196","1544337","0.0-195.0-0.0","A3SQV2L85UE5BK","","","","{""Q0"":""I love the tree design and natural colors.""}","","","","","","","","","","","","","","","","","","","","","","",""
"3590.099999964237","","image-slider-response","197","1547929","0.0-196.0","A3SQV2L85UE5BK","","","","","50","","","","","","","","","","","","","","","","","","","","","",""
"null","","image-button-response","198","1552934","0.0-197.0","A3SQV2L85UE5BK","img_art/17.jpg","null","","","","","","","","","","","","","","","","","","","","","","","","",""
"585","","image-button-response","199","1553521","0.0-198.0","A3SQV2L85UE5BK","img_art/17.jpg","0","","","","","","","","","","","","","","","","","","","","","","","","",""
"1679","","image-button-response","200","1555203","0.0-199.0-0.0","A3SQV2L85UE5BK","img_art/17.jpg","4","","","","","","","","","","","","","","","","","","","","","","","","",""
"752","","image-button-response","201","1555957","0.0-200.0-0.0","A3SQV2L85UE5BK","img_art/17.jpg","5","","","","","","","","","","","","","","","","","","","","","","","","",""
"null","","html-keyboard-response","202","1556962","0.0-201.0","A3SQV2L85UE5BK","<p style=""font-size: 48px;"">+</p>","","","","","null","allTrialResponses","1000","1","22","img_art/17.jpg","50","I love the tree design and natural colors.","Kyle,Charles,Justin,Aaron,Devin,Victor","I like the use of color in this and how you can actually see shapes form. Seems thoughtful,22,340,20","I like the trees, but the doors less so,19,100,20","I like the colors and the design.,20,280,20","it brings a clear picture to my minds eye:,45,20,20","So expressive and wonderful wow!,17,380,20","cool. Sharp and blocky below, light and flowing on top. Overall pleasing to look at,32,340,20","Kyle","I like the use of color in this and how you can actually see shapes form. Seems thoughtful,22,340,20","Devin","So expressive and wonderful wow!,17,380,20","Victor","cool. Sharp and blocky below, light and flowing on top. Overall pleasing to look at,32,340,20","2"
"28084","","survey-text","203","1585053","0.0-202.0-0.0","A3SQV2L85UE5BK","","","","{""Q0"":""I like the 3D look.""}","","","","","","","","","","","","","","","","","","","","","","",""
"2321.600000023842","","image-slider-response","204","1587376","0.0-203.0","A3SQV2L85UE5BK","","","","","14","","","","","","","","","","","","","","","","","","","","","",""
"3922","","image-button-response","205","1592379","0.0-204.0","A3SQV2L85UE5BK","img_art/29.jpg","1","","","","","","","","","","","","","","","","","","","","","","","","",""
"635","","image-button-response","206","1593016","0.0-205.0","A3SQV2L85UE5BK","img_art/29.jpg","1","","","","","","","","","","","","","","","","","","","","","","","","",""
"750","","image-button-response","207","1593768","0.0-206.0-0.0","A3SQV2L85UE5BK","img_art/29.jpg","0","","","","","","","","","","","","","","","","","","","","","","","","",""
"878","","image-button-response","208","1594648","0.0-207.0-0.0","A3SQV2L85UE5BK","img_art/29.jpg","3","","","","","","","","","","","","","","","","","","","","","","","","",""
"null","","html-keyboard-response","209","1596638","0.0-208.0","A3SQV2L85UE5BK","<p style=""font-size: 48px;"">+</p>","","","","","null","allTrialResponses","1000","1","23","img_art/29.jpg","14","I like the 3D look.","Kyle,Nicholas,Shawn,Malik,Devin,Victor","I like the usage of blacks and greys in this,8,340,20","I love this things almost hidden in it like paint brush and other details,50,240,20","Looks muddy and sticky,-31,100,20","Feels like an abandoned dream,13,40,20","Looks a bit messy,-13,380,20","I like the colors but it looks very amateur,1,340,20","Nicholas","I love this things almost hidden in it like paint brush and other details,50,240,20","Kyle","I like the usage of blacks and greys in this,8,340,20","Malik","Feels like an abandoned dream,13,40,20","2"
"52767","","survey-text","210","1649413","0.0-209.0-0.0","A3SQV2L85UE5BK","","","","{""Q0"":""I like the scenic look. It reminds me of a sunset over the ocean.""}","","","","","","","","","","","","","","","","","","","","","","",""
"10997.900000035763","","image-slider-response","211","1660413","0.0-210.0","A3SQV2L85UE5BK","","","","","32","","","","","","","","","","","","","","","","","","","","","",""
"3709","","image-button-response","212","1665419","0.0-211.0","A3SQV2L85UE5BK","img_art/21.jpg","1","","","","","","","","","","","","","","","","","","","","","","","","",""
"852","","image-button-response","213","1666274","0.0-212.0","A3SQV2L85UE5BK","img_art/21.jpg","1","","","","","","","","","","","","","","","","","","","","","","","","",""
"1469","","image-button-response","214","1667745","0.0-213.0-0.0","A3SQV2L85UE5BK","img_art/21.jpg","4","","","","","","","","","","","","","","","","","","","","","","","","",""
"1658","","image-button-response","215","1669406","0.0-214.0-0.0","A3SQV2L85UE5BK","img_art/21.jpg","5","","","","","","","","","","","","","","","","","","","","","","","","",""
"null","","html-keyboard-response","216","1670410","0.0-215.0","A3SQV2L85UE5BK","<p style=""font-size: 48px;"">+</p>","","","","","null","allTrialResponses","1000","1","24","img_art/21.jpg","32","I like the scenic look. It reminds me of a sunset over the ocean.","Kyle,Nicholas,Patrick,Malik,Bryan,Devon","The blues make me feel sadder as my mood is already not the best right now,-10,340,20","Love the colors and the relationship between the light and storm,50,240,20","It looks confusing,-21,280,20","Indistinct, but beautiful hues,10,40,20","Like the colors, the cloudy, airy effects. Nice.,46,400,20","waterpaint is attractive,13,400,20","Nicholas","Love the colors and the relationship between the light and storm,50,240,20","Bryan","Like the colors, the cloudy, airy effects. Nice.,46,400,20","Devon","waterpaint is attractive,13,400,20","2"
"14057","","survey-text","217","1684472","0.0-216.0-0.0","A3SQV2L85UE5BK","","","","{""Q0"":""I like the colors.""}","","","","","","","","","","","","","","","","","","","","","","",""
"2156.5","","image-slider-response","218","1686631","0.0-217.0","A3SQV2L85UE5BK","","","","","11","","","","","","","","","","","","","","","","","","","","","",""
"3736","","image-button-response","219","1691647","0.0-218.0","A3SQV2L85UE5BK","img_art/27.jpg","5","","","","","","","","","","","","","","","","","","","","","","","","",""
"551","","image-button-response","220","1692200","0.0-219.0","A3SQV2L85UE5BK","img_art/27.jpg","5","","","","","","","","","","","","","","","","","","","","","","","","",""
"1090","","image-button-response","221","1693293","0.0-220.0-0.0","A3SQV2L85UE5BK","img_art/27.jpg","3","","","","","","","","","","","","","","","","","","","","","","","","",""
"1102","","image-button-response","222","1694398","0.0-221.0-0.0","A3SQV2L85UE5BK","img_art/27.jpg","1","","","","","","","","","","","","","","","","","","","","","","","","",""
"null","","html-keyboard-response","223","1694909","0.0-222.0","A3SQV2L85UE5BK","<p style=""font-size: 48px;"">+</p>","","","","","null","allTrialResponses","500","1","25","img_art/27.jpg","11","I like the colors.","Tristan,Nicholas,Jose,James,Bryan,Devon","The colors provide a complexity to the nearly child-like sketches.,5,300,20","I like all it has going but i wouldnt put it in my house unless my child did it,25,240,20","it's like a weird version of heaven,16,200,20","This painting is very unique,21,380,20","Not fond of the bad pencil drawing mixed with the drab colors.,-21,400,20","this reminds me of simpler time,31,400,20","Devon","this reminds me of simpler time,31,400,20","James","This painting is very unique,21,380,20","Nicholas","I like all it has going but i wouldnt put it in my house unless my child did it,25,240,20","2"
"3698","","survey-text","224","1698613","0.0-223.0-0.0","A3SQV2L85UE5BK","","","","{""Q0"":""table""}","","","","","","","","","","","","","","","","","","","","","","",""
"13737","","survey-text","225","1712352","0.0-224.0-0.0","A3SQV2L85UE5BK","","","","{""Q0"":""It is nothing special.""}","","","","","","","","","","","","","","","","","","","","","","",""
"3537.400000035763","","image-slider-response","226","1715892","0.0-225.0","A3SQV2L85UE5BK","","","","","-20","","","","","","","","","","","","","","","","","","","","","",""
"4786","","image-button-response","227","1720901","0.0-226.0","A3SQV2L85UE5BK","img_art/1.jpg","2","","","","","","","","","","","","","","","","","","","","","","","","",""
"1365","","image-button-response","228","1722269","0.0-227.0","A3SQV2L85UE5BK","img_art/1.jpg","2","","","","","","","","","","","","","","","","","","","","","","","","",""
"2194","","image-button-response","229","1724465","0.0-228.0-0.0","A3SQV2L85UE5BK","img_art/1.jpg","3","","","","","","","","","","","","","","","","","","","","","","","","",""
"941","","image-button-response","230","1725409","0.0-229.0-0.0","A3SQV2L85UE5BK","img_art/1.jpg","0","","","","","","","","","","","","","","","","","","","","","","","","",""
"null","","html-keyboard-response","231","1726911","0.0-230.0","A3SQV2L85UE5BK","<p style=""font-size: 48px;"">+</p>","","","","","null","allTrialResponses","1500","1","26","img_art/1.jpg","-20","It is nothing special.","Isaiah,Nicholas,Alex,James,Grant,Devon","I feel relaxed, like I'm watching the leaves change color.,17,300,20","Love the colors but it makes me feel like someone is looking at me through it,38,240,20","Random paint does not make art,-5,100,20","It's very colorful, and I like it,11,380,20","The use of reds, blues, and yellows together reminds me of fire. Very interesting to look at.,40,200,20","I see happiness from different aspects of life,31,400,20","Alex","Random paint does not make art,-5,100,20","James","It's very colorful, and I like it,11,380,20","Isaiah","I feel relaxed, like I'm watching the leaves change color.,17,300,20","2"
"26615","","survey-text","232","1753532","0.0-231.0-0.0","A3SQV2L85UE5BK","","","","{""Q0"":""The colors do not appeal to me.""}","","","","","","","","","","","","","","","","","","","","","","",""
"2498","","image-slider-response","233","1756032","0.0-232.0","A3SQV2L85UE5BK","","","","","-23","","","","","","","","","","","","","","","","","","","","","",""
"null","","image-button-response","234","1761039","0.0-233.0","A3SQV2L85UE5BK","img_art/9.jpg","null","","","","","","","","","","","","","","","","","","","","","","","","",""
"791","","image-button-response","235","1761833","0.0-234.0","A3SQV2L85UE5BK","img_art/9.jpg","2","","","","","","","","","","","","","","","","","","","","","","","","",""
"973","","image-button-response","236","1762809","0.0-235.0-0.0","A3SQV2L85UE5BK","img_art/9.jpg","0","","","","","","","","","","","","","","","","","","","","","","","","",""
"1601","","image-button-response","237","1764413","0.0-236.0-0.0","A3SQV2L85UE5BK","img_art/9.jpg","4","","","","","","","","","","","","","","","","","","","","","","","","",""
"null","","html-keyboard-response","238","1765421","0.0-237.0","A3SQV2L85UE5BK","<p style=""font-size: 48px;"">+</p>","","","","","null","allTrialResponses","1000","1","27","img_art/9.jpg","-23","The colors do not appeal to me.","Isaiah,Angel,Alex,James,Eric,Dustin","The piece of art makes me happy, it reminds me of a lively carnival.,15,300,20","This feels dreamy. Like I'm seeing inside someone's head while they're sleeping.,20,180,20","Alright, I can see a reclining lady, I'm just glad to be able to tell what's in the picture,5,100,20","This has some of my favorite colors, and I like it,21,380,20","I see some of my favorite colors which I like, but I don't like what's portrayed.,35,100,20","I like the blues and pinks. The woman lying down communicates relaxation. It is a serene, calming scene,30,20,20","Alex","Alright, I can see a reclining lady, I'm just glad to be able to tell what's in the picture,5,100,20","Isaiah","The piece of art makes me happy, it reminds me of a lively carnival.,15,300,20","Eric","I see some of my favorite colors which I like, but I don't like what's portrayed.,35,100,20","2"
"37022","","survey-text","239","1802450","0.0-238.0-0.0","A3SQV2L85UE5BK","","","","{""Q0"":""I like the trees with the blue birds in them.""}","","","","","","","","","","","","","","","","","","","","","","",""
"2208.900000035763","","image-slider-response","240","1804661","0.0-239.0","A3SQV2L85UE5BK","","","","","35","","","","","","","","","","","","","","","","","","","","","",""
"null","","image-button-response","241","1809671","0.0-240.0","A3SQV2L85UE5BK","img_art/15.jpg","null","","","","","","","","","","","","","","","","","","","","","","","","",""
"348","","image-button-response","242","1810021","0.0-241.0","A3SQV2L85UE5BK","img_art/15.jpg","0","","","","","","","","","","","","","","","","","","","","","","","","",""
"1410","","image-button-response","243","1811432","0.0-242.0-0.0","A3SQV2L85UE5BK","img_art/15.jpg","3","","","","","","","","","","","","","","","","","","","","","","","","",""
"814","","image-button-response","244","1812249","0.0-243.0-0.0","A3SQV2L85UE5BK","img_art/15.jpg","2","","","","","","","","","","","","","","","","","","","","","","","","",""
"null","","html-keyboard-response","245","1813264","0.0-244.0","A3SQV2L85UE5BK","<p style=""font-size: 48px;"">+</p>","","","","","null","allTrialResponses","1000","1","28","img_art/15.jpg","35","I like the trees with the blue birds in them.","Isaiah,Daniel,Alex,Corey,Eric,Samuel","The painting is very relaxing, I'm reminded of sitting in a garden in the evening.,8,300,20","Dark, drab asymmetrical floral piece,-26,320,20","Interesting to look at but I don't appreciate the abstraction,2,100,20","i like the pop of blue within all the black,8,260,20","This picture is too confusing for me. I wouldn't want to stare at it to figure it out.,-10,100,20","Black reminds me of darkness,-18,400,20","Isaiah","The painting is very relaxing, I'm reminded of sitting in a garden in the evening.,8,300,20","Corey","i like the pop of blue within all the black,8,260,20","Alex","Interesting to look at but I don't appreciate the abstraction,2,100,20","2"
"14330","","survey-text","246","1827601","0.0-245.0-0.0","A3SQV2L85UE5BK","","","","{""Q0"":""I like the colors and intricate designs.""}","","","","","","","","","","","","","","","","","","","","","","",""
"3825.899999976158","","image-slider-response","247","1831429","0.0-246.0","A3SQV2L85UE5BK","","","","","21","","","","","","","","","","","","","","","","","","","","","",""
"3985","","image-button-response","248","1836436","0.0-247.0","A3SQV2L85UE5BK","img_art/19.jpg","4","","","","","","","","","","","","","","","","","","","","","","","","",""
"294","","image-button-response","249","1836733","0.0-248.0","A3SQV2L85UE5BK","img_art/19.jpg","4","","","","","","","","","","","","","","","","","","","","","","","","",""
"1415","","image-button-response","250","1838150","0.0-249.0-0.0","A3SQV2L85UE5BK","img_art/19.jpg","0","","","","","","","","","","","","","","","","","","","","","","","","",""
"380","","image-button-response","251","1838533","0.0-250.0-0.0","A3SQV2L85UE5BK","img_art/19.jpg","1","","","","","","","","","","","","","","","","","","","","","","","","",""
"null","","html-keyboard-response","252","1840045","0.0-251.0","A3SQV2L85UE5BK","<p style=""font-size: 48px;"">+</p>","","","","","null","allTrialResponses","1500","1","29","img_art/19.jpg","21","I like the colors and intricate designs.","Isaiah,Steven,Alex,Corey,Mitchell,Colton","I feel a little anxious and happy. I'm about to walk into a market and any number of treasures could be found,14,300,20","I like it, I see someone walking his dog in the early morning time,23,160,20","I like the water but again, the small lines with no detail are irritating,3,100,20","i think it is ugly and hate the colors,-35,260,20","Higher power looking down at its creation with a half smile and some hurt.,45,180,20","way too much going on,-33,220,20","Mitchell","Higher power looking down at its creation with a half smile and some hurt.,45,180,20","Isaiah","I feel a little anxious and happy. I'm about to walk into a market and any number of treasures could be found,14,300,20","Steven","I like it, I see someone walking his dog in the early morning time,23,160,20","2"
"17055","","survey-text","253","1857106","0.0-252.0-0.0","A3SQV2L85UE5BK","","","","{""Q0"":""I like the colors and unique design.""}","","","","","","","","","","","","","","","","","","","","","","",""
"3285.100000023842","","image-slider-response","254","1860393","0.0-253.0","A3SQV2L85UE5BK","","","","","23","","","","","","","","","","","","","","","","","","","","","",""
"4689","","image-button-response","255","1865410","0.0-254.0","A3SQV2L85UE5BK","img_art/28.jpg","0","","","","","","","","","","","","","","","","","","","","","","","","",""
"288","","image-button-response","256","1865701","0.0-255.0","A3SQV2L85UE5BK","img_art/28.jpg","0","","","","","","","","","","","","","","","","","","","","","","","","",""
"1538","","image-button-response","257","1867241","0.0-256.0-0.0","A3SQV2L85UE5BK","img_art/28.jpg","2","","","","","","","","","","","","","","","","","","","","","","","","",""
"1634","","image-button-response","258","1868877","0.0-257.0-0.0","A3SQV2L85UE5BK","img_art/28.jpg","3","","","","","","","","","","","","","","","","","","","","","","","","",""
"null","","html-keyboard-response","259","1869378","0.0-258.0","A3SQV2L85UE5BK","<p style=""font-size: 48px;"">+</p>","","","","","null","allTrialResponses","500","1","30","img_art/28.jpg","23","I like the colors and unique design.","Isaiah,Steven,Mark,Austin,Mitchell,Joshua","It makes me feel happy, and a little anxious.,50,300,20","It's a bike that was left abandoned by someone who doesnt care for it,1,160,20","It reminds me of the cantina in Star Wars.,37,80,20","Not really exciting,23,240,20","A mom protecting her child because something scary, (perhaps imaginary) wants to take the child.,-10,180,20","The colors are drab and a little depressing.,-20,240,20","Isaiah","It makes me feel happy, and a little anxious.,50,300,20","Mark","It reminds me of the cantina in Star Wars.,37,80,20","Austin","Not really exciting,23,240,20","2"
"3551","","image-button-response_instructions","260","1872937","0.0-259.0","A3SQV2L85UE5BK","","0","instructions","","","","","","","","","","","","","","","","","","","","","","","",""
"1081","","image-button-response","261","1874025","0.0-260.0","A3SQV2L85UE5BK","","0","","","","","","","","","","","","","","","","","","","","","","","","",""
