"rt","url","trial_type","trial_index","time_elapsed","internal_node_id","participant_id","stimulus","button_pressed","Name","responses","response","key_press","variableName","fixationTime","condition","trial","photo","subjectRating","subjectResponse","agentsNames","agent_1_Response","agent_2_Response","agent_3_Response","agent_4_Response","agent_5_Response","agent_6_Response","kept_1_name","kept_1_response","kept_2_name","kept_2_response","kept_3_name","kept_3_response","errorCounter"
"13268","external_page_harvard.html","external-html","0","13435","0.0-0.0","A3TDPXTB6Y6H1I","","","","","","","","","","","","","","","","","","","","","","","","","","",""
"3170","","image-button-response","1","16607","0.0-1.0","A3TDPXTB6Y6H1I","","1","","","","","","","","","","","","","","","","","","","","","","","","",""
"2550","","image-button-response","2","19164","0.0-2.0-0.0","A3TDPXTB6Y6H1I","","1","phone","","","","","","","","","","","","","","","","","","","","","","","",""
"3910","","survey-text","3","23077","0.0-3.0-0.0","A3TDPXTB6Y6H1I","","","","{""Q0"":""A3TDPXTB6Y6H1I""}","","","","","","","","","","","","","","","","","","","","","","",""
"61341","","image-button-response_instructions","4","84419","0.0-4.0","A3TDPXTB6Y6H1I","","0","instructions","","","","","","","","","","","","","","","","","","","","","","","",""
"22034","","image-button-response_instructions","5","106454","0.0-5.0","A3TDPXTB6Y6H1I","img_art/ins/popularity/ins1.png","0","instructions","","","","","","","","","","","","","","","","","","","","","","","",""
"4294","","image-button-response_instructions","6","110749","0.0-6.0","A3TDPXTB6Y6H1I","img_art/ins/popularity/ins2.png","0","instructions","","","","","","","","","","","","","","","","","","","","","","","",""
"963","","image-button-response_instructions","7","111713","0.0-7.0","A3TDPXTB6Y6H1I","img_art/ins/popularity/ins2Extreme.png","0","instructions","","","","","","","","","","","","","","","","","","","","","","","",""
"973","","image-button-response_instructions","8","112687","0.0-8.0","A3TDPXTB6Y6H1I","img_art/ins/popularity/ins3KEEPpop.PNG","0","instructions","","","","","","","","","","","","","","","","","","","","","","","",""
"1849","","image-button-response_instructions","9","114537","0.0-9.0","A3TDPXTB6Y6H1I","img_art/ins/popularity/ins3ANamepop.PNG","0","instructions","","","","","","","","","","","","","","","","","","","","","","","",""
"2030","","image-button-response_instructions","10","116568","0.0-10.0","A3TDPXTB6Y6H1I","img_art/ins/popularity/ins3ARatingpop.png","0","instructions","","","","","","","","","","","","","","","","","","","","","","","",""
"1524","","image-button-response_instructions","11","118092","0.0-11.0","A3TDPXTB6Y6H1I","img_art/ins/popularity/ins3ATextpop.png","0","instructions","","","","","","","","","","","","","","","","","","","","","","","",""
"1783","","image-button-response_instructions","12","119877","0.0-12.0","A3TDPXTB6Y6H1I","img_art/ins/popularity/ins3ALikespop.png","0","instructions","","","","","","","","","","","","","","","","","","","","","","","",""
"10057","","image-button-response_instructions","13","129935","0.0-13.0","A3TDPXTB6Y6H1I","img_art/ins/popularity/ins3KEEPpop.PNG","0","instructions","","","","","","","","","","","","","","","","","","","","","","","",""
"2335","","image-button-response_instructions","14","132272","0.0-14.0","A3TDPXTB6Y6H1I","img_art/ins/popularity/ins3_5RED.png","0","instructions","","","","","","","","","","","","","","","","","","","","","","","",""
"675","","image-button-response_instructions","15","132949","0.0-15.0","A3TDPXTB6Y6H1I","img_art/ins/popularity/ins3KEEPpop.PNG","0","instructions","","","","","","","","","","","","","","","","","","","","","","","",""
"4263","","image-button-response_instructions","16","137214","0.0-16.0","A3TDPXTB6Y6H1I","img_art/ins/popularity/ins4KEEPpop.PNG","0","instructions","","","","","","","","","","","","","","","","","","","","","","","",""
"1707","","image-button-response_instructions","17","138922","0.0-17.0","A3TDPXTB6Y6H1I","img_art/ins/popularity/ins5KEEPpop.PNG","0","instructions","","","","","","","","","","","","","","","","","","","","","","","",""
"840","","image-button-response_instructions","18","139764","0.0-18.0","A3TDPXTB6Y6H1I","","0","instructions","","","","","","","","","","","","","","","","","","","","","","","",""
"3041","","survey-text","19","142826","0.0-19.0-0.0","A3TDPXTB6Y6H1I","","","","{""Q0"":""but""}","","","","","","","","","","","","","","","","","","","","","","",""
"35895","","survey-text","20","178722","0.0-20.0-0.0","A3TDPXTB6Y6H1I","","","","{""Q0"":""It makes me think of a ketchup and mustard mishap on a table at McDonald's.""}","","","","","","","","","","","","","","","","","","","","","","",""
"5108.899999976158","","image-slider-response","21","183833","0.0-21.0","A3TDPXTB6Y6H1I","","","","","-15","","","","","","","","","","","","","","","","","","","","","",""
"4106","","image-button-response","22","188844","0.0-22.0","A3TDPXTB6Y6H1I","img_art/ins/1.jpg","2","","","","","","","","","","","","","","","","","","","","","","","","",""
"5397","","image-button-response","23","194244","0.0-23.0","A3TDPXTB6Y6H1I","img_art/ins/1.jpg","2","","","","","","","","","","","","","","","","","","","","","","","","",""
"6453","","image-button-response","24","200701","0.0-24.0-0.0","A3TDPXTB6Y6H1I","img_art/ins/1.jpg","0","","","","","","","","","","","","","","","","","","","","","","","","",""
"1086","","image-button-response","25","201792","0.0-25.0-0.0","A3TDPXTB6Y6H1I","img_art/ins/1.jpg","3","","","","","","","","","","","","","","","","","","","","","","","","",""
"null","","html-keyboard-response","26","203295","0.0-26.0","A3TDPXTB6Y6H1I","<p style=""font-size: 48px;"">+</p>","","","","","null","allTrialResponses","1500","1","-2","img_art/ins/1.jpg","-15","It makes me think of a ketchup and mustard mishap on a table at McDonald's.","Allison,Ashley,Beth,Dora,Erika,Jen","looks like a lot of things going on in the mist,20,20,20","I just don't get why these type of art would be popular,-32,40,20","This color reminds me of poo,-46,60,20","looks like what my niece in 3rd grade did this afternoon,-50,80,20","I like the sophisticated brushwork,40,100,20","It reminds me of a candy land dream I had,36,120,20","Beth","This color reminds me of poo,-46,60,20","Allison","looks like a lot of things going on in the mist,20,20,20","Dora","looks like what my niece in 3rd grade did this afternoon,-50,80,20","0"
"43427","","survey-text","27","246727","0.0-27.0-0.0","A3TDPXTB6Y6H1I","","","","{""Q0"":""It looks like the pallet where you mix the paint itself.""}","","","","","","","","","","","","","","","","","","","","","","",""
"4581.299999952316","","image-slider-response","28","251310","0.0-28.0","A3TDPXTB6Y6H1I","","","","","-3","","","","","","","","","","","","","","","","","","","","","",""
"null","","image-button-response","29","256313","0.0-29.0","A3TDPXTB6Y6H1I","img_art/ins/2.jpg","null","","","","","","","","","","","","","","","","","","","","","","","","",""
"1661","","image-button-response","30","257977","0.0-30.0","A3TDPXTB6Y6H1I","img_art/ins/2.jpg","2","","","","","","","","","","","","","","","","","","","","","","","","",""
"2320","","image-button-response","31","260300","0.0-31.0-0.0","A3TDPXTB6Y6H1I","img_art/ins/2.jpg","3","","","","","","","","","","","","","","","","","","","","","","","","",""
"1670","","image-button-response","32","261974","0.0-32.0-0.0","A3TDPXTB6Y6H1I","img_art/ins/2.jpg","4","","","","","","","","","","","","","","","","","","","","","","","","",""
"null","","html-keyboard-response","33","263484","0.0-33.0","A3TDPXTB6Y6H1I","<p style=""font-size: 48px;"">+</p>","","","","","null","allTrialResponses","1500","1","-1","img_art/ins/2.jpg","-3","It looks like the pallet where you mix the paint itself.","Allison,Jenna,Beth,Dora,Kara,Katie","I don't have strong feelings about this,10,20,20","One of my pet peevs,-48,140,20","meaningless painting,-45,60,20","looks too angry,-50,80,20","I like the blocks of color arrangements,30,160,20","too much color!,-28,180,20","Beth","meaningless painting,-45,60,20","Dora","looks too angry,-50,80,20","Kara","I like the blocks of color arrangements,30,160,20","0"
"30269","","survey-text","34","293758","0.0-34.0-0.0","A3TDPXTB6Y6H1I","","","","{""Q0"":""This evokes a cool, icy feeling. I like the composition even though it's abstract.""}","","","","","","","","","","","","","","","","","","","","","","",""
"3461.7999999523163","","image-slider-response","35","297221","0.0-35.0","A3TDPXTB6Y6H1I","","","","","20","","","","","","","","","","","","","","","","","","","","","",""
"4250","","image-button-response","36","302224","0.0-36.0","A3TDPXTB6Y6H1I","img_art/ins/3.jpg","2","","","","","","","","","","","","","","","","","","","","","","","","",""
"410","","image-button-response","37","302637","0.0-37.0","A3TDPXTB6Y6H1I","img_art/ins/3.jpg","3","","","","","","","","","","","","","","","","","","","","","","","","",""
"391","","image-button-response","38","303030","0.0-38.0-0.0","A3TDPXTB6Y6H1I","img_art/ins/3.jpg","4","","","","","","","","","","","","","","","","","","","","","","","","",""
"2743","","image-button-response","39","305776","0.0-39.0-0.0","A3TDPXTB6Y6H1I","img_art/ins/3.jpg","2","","","","","","","","","","","","","","","","","","","","","","","","",""
"null","","html-keyboard-response","40","306789","0.0-40.0","A3TDPXTB6Y6H1I","<p style=""font-size: 48px;"">+</p>","","","","","null","allTrialResponses","1000","1","0","img_art/ins/3.jpg","20","This evokes a cool, icy feeling. I like the composition even though it's abstract.","Mary,Leslie,Beth,Dora,Kara,Rose","I like the overlapping of brushes,41,220,20","It's an alright work,15,200,20","This thing gives me anxiety,-41,60,20","My worst nightmare,-42,80,20","calming blue is very nice,36,160,20","My daily routine, it's depressing,-20,240,20","Dora","My worst nightmare,-42,80,20","Kara","calming blue is very nice,36,160,20","Beth","This thing gives me anxiety,-41,60,20","0"
"35053","","image-button-response_instructions","41","341847","0.0-41.0","A3TDPXTB6Y6H1I","","0","instructions","","","","","","","","","","","","","","","","","","","","","","","",""
"93211","","survey-likert","42","435060","0.0-42.0-0.0","A3TDPXTB6Y6H1I","","","","{""Q0"":"""",""Q1"":0,""Q2"":1}","","","","","","","","","","","","","","","","","","","","","","",""
"9739","","survey-text","43","444806","0.0-43.0-0.0","A3TDPXTB6Y6H1I","","","","{""Q0"":""rock""}","","","","","","","","","","","","","","","","","","","","","","",""
"27014","","survey-text","44","471820","0.0-44.0-0.0","A3TDPXTB6Y6H1I","","","","{""Q0"":""It looks like bird poop on a blue and white painting.""}","","","","","","","","","","","","","","","","","","","","","","",""
"3376.6999999284744","","image-slider-response","45","475199","0.0-45.0","A3TDPXTB6Y6H1I","","","","","-30","","","","","","","","","","","","","","","","","","","","","",""
"3725","","image-button-response","46","480224","0.0-46.0","A3TDPXTB6Y6H1I","img_art/15.jpg","0","","","","","","","","","","","","","","","","","","","","","","","","",""
"442","","image-button-response","47","480667","0.0-47.0","A3TDPXTB6Y6H1I","img_art/15.jpg","0","","","","","","","","","","","","","","","","","","","","","","","","",""
"9573","","image-button-response","48","490243","0.0-48.0-0.0","A3TDPXTB6Y6H1I","img_art/15.jpg","5","","","","","","","","","","","","","","","","","","","","","","","","",""
"1303","","image-button-response","49","491549","0.0-49.0-0.0","A3TDPXTB6Y6H1I","img_art/15.jpg","2","","","","","","","","","","","","","","","","","","","","","","","","",""
"null","","html-keyboard-response","50","492552","0.0-50.0","A3TDPXTB6Y6H1I","<p style=""font-size: 48px;"">+</p>","","","","","null","allTrialResponses","1000","1","1","img_art/15.jpg","-30","It looks like bird poop on a blue and white painting.","Cassidy,Shelby,Sophia,Hannah,Destiny,Lindsey","I like the random blue dabs to break up the black, but it looks unfinished.,4,140,20","This painting gives a calm vibe but no stronger emotions than that,10,240,20","I feel like there's ski jumping going on here.,2,280,20","Like this for the colors and arrangement.,11,240,20","I couldn't tell you why but I'm really into this,39,360,20","Not a fan. This piece would only go with very specific decor in a modern home.,-35,400,20","Cassidy","I like the random blue dabs to break up the black, but it looks unfinished.,4,140,20","Lindsey","Not a fan. This piece would only go with very specific decor in a modern home.,-35,400,20","Sophia","I feel like there's ski jumping going on here.,2,280,20","0"
"40903","","survey-text","51","533459","0.0-51.0-0.0","A3TDPXTB6Y6H1I","","","","{""Q0"":""Has a vague, dreamlike feel. I like that it very loosely resembles a scenery.""}","","","","","","","","","","","","","","","","","","","","","","",""
"3908.100000023842","","image-slider-response","52","537369","0.0-52.0","A3TDPXTB6Y6H1I","","","","","27","","","","","","","","","","","","","","","","","","","","","",""
"4009","","image-button-response","53","542371","0.0-53.0","A3TDPXTB6Y6H1I","img_art/19.jpg","4","","","","","","","","","","","","","","","","","","","","","","","","",""
"719","","image-button-response","54","543093","0.0-54.0","A3TDPXTB6Y6H1I","img_art/19.jpg","4","","","","","","","","","","","","","","","","","","","","","","","","",""
"1154","","image-button-response","55","544249","0.0-55.0-0.0","A3TDPXTB6Y6H1I","img_art/19.jpg","5","","","","","","","","","","","","","","","","","","","","","","","","",""
"534","","image-button-response","56","544785","0.0-56.0-0.0","A3TDPXTB6Y6H1I","img_art/19.jpg","3","","","","","","","","","","","","","","","","","","","","","","","","",""
"null","","html-keyboard-response","57","545290","0.0-57.0","A3TDPXTB6Y6H1I","<p style=""font-size: 48px;"">+</p>","","","","","null","allTrialResponses","500","1","2","img_art/19.jpg","27","Has a vague, dreamlike feel. I like that it very loosely resembles a scenery.","Cassidy,Kelly,Sophia,Madison,Crystal,Lindsey","too much going on, can't tell what it is,-14,140,20","TOo much brown.,-24,220,20","This looks like a child's piece. I appreciate the artistic value, but not for me.,-20,280,20","Seems unfinished and sloppy,-11,60,20","It is an interesting piece but there are too many muted tones,22,300,20","Pleasant colors with just enough detail to be recognizable. I can see a scene in it that tells a story.,7,400,20","Crystal","It is an interesting piece but there are too many muted tones,22,300,20","Lindsey","Pleasant colors with just enough detail to be recognizable. I can see a scene in it that tells a story.,7,400,20","Madison","Seems unfinished and sloppy,-11,60,20","0"
"24788","","survey-text","58","570083","0.0-58.0-0.0","A3TDPXTB6Y6H1I","","","","{""Q0"":""I love the color composition. There's a darkness about it.""}","","","","","","","","","","","","","","","","","","","","","","",""
"2863.3000000715256","","image-slider-response","59","572948","0.0-59.0","A3TDPXTB6Y6H1I","","","","","30","","","","","","","","","","","","","","","","","","","","","",""
"null","","image-button-response","60","577951","0.0-60.0","A3TDPXTB6Y6H1I","img_art/16.jpg","null","","","","","","","","","","","","","","","","","","","","","","","","",""
"1688","","image-button-response","61","579641","0.0-61.0","A3TDPXTB6Y6H1I","img_art/16.jpg","5","","","","","","","","","","","","","","","","","","","","","","","","",""
"888","","image-button-response","62","580532","0.0-62.0-0.0","A3TDPXTB6Y6H1I","img_art/16.jpg","2","","","","","","","","","","","","","","","","","","","","","","","","",""
"754","","image-button-response","63","581289","0.0-63.0-0.0","A3TDPXTB6Y6H1I","img_art/16.jpg","1","","","","","","","","","","","","","","","","","","","","","","","","",""
"null","","html-keyboard-response","64","582298","0.0-64.0","A3TDPXTB6Y6H1I","<p style=""font-size: 48px;"">+</p>","","","","","null","allTrialResponses","1000","1","3","img_art/16.jpg","30","I love the color composition. There's a darkness about it.","Jordan,Jasmine,Abigail,Madison,Crystal,Lindsey","Not interested at all,-15,20,20","I like it because it's quite different from the rest,23,340,20","The bear makes me very uncomfortable,-50,20,20","Pop art, Tate Modern horse dung.,-50,60,20","Garble and nonsense,-50,300,20","It's depressing. Probably achieved its goal. But I wouldn't want it hanging in my home.,-31,400,20","Lindsey","It's depressing. Probably achieved its goal. But I wouldn't want it hanging in my home.,-31,400,20","Abigail","The bear makes me very uncomfortable,-50,20,20","Jasmine","I like it because it's quite different from the rest,23,340,20","0"
"33236","","survey-text","65","615540","0.0-65.0-0.0","A3TDPXTB6Y6H1I","","","","{""Q0"":""It looks like my son fingerpainted on a window.""}","","","","","","","","","","","","","","","","","","","","","","",""
"13814.399999976158","","image-slider-response","66","629357","0.0-66.0","A3TDPXTB6Y6H1I","","","","","13","","","","","","","","","","","","","","","","","","","","","",""
"null","","image-button-response","67","634361","0.0-67.0","A3TDPXTB6Y6H1I","img_art/30.jpg","null","","","","","","","","","","","","","","","","","","","","","","","","",""
"3644","","image-button-response","68","638007","0.0-68.0","A3TDPXTB6Y6H1I","img_art/30.jpg","1","","","","","","","","","","","","","","","","","","","","","","","","",""
"862","","image-button-response","69","638872","0.0-69.0-0.0","A3TDPXTB6Y6H1I","img_art/30.jpg","1","","","","","","","","","","","","","","","","","","","","","","","","",""
"811","","image-button-response","70","644472","0.0-69.1-0.1","A3TDPXTB6Y6H1I","img_art/30.jpg","3","","","","","","","","","","","","","","","","","","","","","","","","",""
"1931","","image-button-response","71","646407","0.0-70.0-0.0","A3TDPXTB6Y6H1I","img_art/30.jpg","4","","","","","","","","","","","","","","","","","","","","","","","","",""
"null","","html-keyboard-response","72","647422","0.0-71.0","A3TDPXTB6Y6H1I","<p style=""font-size: 48px;"">+</p>","","","","","null","allTrialResponses","1000","1","4","img_art/30.jpg","13","It looks like my son fingerpainted on a window.","Emma,Jasmine,Abigail,Laura,Taylor,Lindsey","Like the design, not a big fan of the colors,20,60,20","Pretty neutral about this one,0,340,20","Combination of colors arent good,-6,20,20","sloppy, unintentional,-20,320,20","It's a really interesting piece,20,340,20","Interesting. Not sure what I'm seeing but it makes me want to figure it out.,5,400,20","Jasmine","Pretty neutral about this one,0,340,20","Laura","sloppy, unintentional,-20,320,20","Taylor","It's a really interesting piece,20,340,20","2"
"42810","","survey-text","73","690238","0.0-72.0-0.0","A3TDPXTB6Y6H1I","","","","{""Q0"":""Chaotic, looks like it was a painting that a child drew over top of.""}","","","","","","","","","","","","","","","","","","","","","","",""
"2490.5","","image-slider-response","74","692730","0.0-73.0","A3TDPXTB6Y6H1I","","","","","-21","","","","","","","","","","","","","","","","","","","","","",""
"3942","","image-button-response","75","697732","0.0-74.0","A3TDPXTB6Y6H1I","img_art/27.jpg","0","","","","","","","","","","","","","","","","","","","","","","","","",""
"606","","image-button-response","76","698340","0.0-75.0","A3TDPXTB6Y6H1I","img_art/27.jpg","0","","","","","","","","","","","","","","","","","","","","","","","","",""
"3350","","image-button-response","77","701692","0.0-76.0-0.0","A3TDPXTB6Y6H1I","img_art/27.jpg","5","","","","","","","","","","","","","","","","","","","","","","","","",""
"1499","","image-button-response","78","703194","0.0-77.0-0.0","A3TDPXTB6Y6H1I","img_art/27.jpg","0","","","","","","","","","","","","","","","","","","","","","","","","",""
"733","","image-button-response","79","709050","0.0-77.1-0.1","A3TDPXTB6Y6H1I","img_art/27.jpg","4","","","","","","","","","","","","","","","","","","","","","","","","",""
"null","","html-keyboard-response","80","710051","0.0-78.0","A3TDPXTB6Y6H1I","<p style=""font-size: 48px;"">+</p>","","","","","null","allTrialResponses","1000","1","5","img_art/27.jpg","-21","Chaotic, looks like it was a painting that a child drew over top of.","Cynthia,Jasmine,Mary,Laura,Taylor,Alyssa","dirty and misunderstood,-47,320,20","I have no strong reactions to this,-1,340,20","I like the layer upon layer of different mediums used here.,21,180,20","feels like a bar scene, tucked away in the corner of a small town,-40,320,20","Reminds me of a town on fire,-15,340,20","Looks as if a toddler painted it,-20,160,20","Cynthia","dirty and misunderstood,-47,320,20","Alyssa","Looks as if a toddler painted it,-20,160,20","Taylor","Reminds me of a town on fire,-15,340,20","4"
"2271","","survey-text","81","712331","0.0-79.0-0.0","A3TDPXTB6Y6H1I","","","","{""Q0"":""sky""}","","","","","","","","","","","","","","","","","","","","","","",""
"34738","","survey-text","82","747071","0.0-80.0-0.0","A3TDPXTB6Y6H1I","","","","{""Q0"":""I like the tessellation effect. The colors give off a southwestern vibe.""}","","","","","","","","","","","","","","","","","","","","","","",""
"2980.5","","image-slider-response","83","750057","0.0-81.0","A3TDPXTB6Y6H1I","","","","","30","","","","","","","","","","","","","","","","","","","","","",""
"4028","","image-button-response","84","755059","0.0-82.0","A3TDPXTB6Y6H1I","img_art/12.jpg","1","","","","","","","","","","","","","","","","","","","","","","","","",""
"1927","","image-button-response","85","756989","0.0-83.0","A3TDPXTB6Y6H1I","img_art/12.jpg","2","","","","","","","","","","","","","","","","","","","","","","","","",""
"800","","image-button-response","86","757792","0.0-84.0-0.0","A3TDPXTB6Y6H1I","img_art/12.jpg","5","","","","","","","","","","","","","","","","","","","","","","","","",""
"2737","","image-button-response","87","760531","0.0-85.0-0.0","A3TDPXTB6Y6H1I","img_art/12.jpg","1","","","","","","","","","","","","","","","","","","","","","","","","",""
"null","","html-keyboard-response","88","761546","0.0-86.0","A3TDPXTB6Y6H1I","<p style=""font-size: 48px;"">+</p>","","","","","null","allTrialResponses","1000","1","6","img_art/12.jpg","30","I like the tessellation effect. The colors give off a southwestern vibe.","Cynthia,Gabriela,Alexis,Jacqueline,Taylor,Alyssa","Windows to a different story,6,320,20","In my opinion, this photo has an old school vibe,22,140,20","I like the cubic feel.,11,100,20","It's not particularly interesting or ugly.,-7,300,20","It's kind of ominous,-15,340,20","Its cool,reminiscent of Andy Warhol type of style,10,160,20","Alexis","I like the cubic feel.,11,100,20","Alyssa","Its cool,reminiscent of Andy Warhol type of style,10,160,20","Gabriela","In my opinion, this photo has an old school vibe,22,140,20","4"
"75955","","survey-text","89","837507","0.0-87.0-0.0","A3TDPXTB6Y6H1I","","","","{""Q0"":""The brown color ruins it for me. Otherwise, it could resemble a heavenly scene.""}","","","","","","","","","","","","","","","","","","","","","","",""
"2985.600000023842","","image-slider-response","90","840494","0.0-88.0","A3TDPXTB6Y6H1I","","","","","-34","","","","","","","","","","","","","","","","","","","","","",""
"4715","","image-button-response","91","845497","0.0-89.0","A3TDPXTB6Y6H1I","img_art/21.jpg","2","","","","","","","","","","","","","","","","","","","","","","","","",""
"2214","","image-button-response","92","847714","0.0-90.0","A3TDPXTB6Y6H1I","img_art/21.jpg","4","","","","","","","","","","","","","","","","","","","","","","","","",""
"1054","","image-button-response","93","848771","0.0-91.0-0.0","A3TDPXTB6Y6H1I","img_art/21.jpg","3","","","","","","","","","","","","","","","","","","","","","","","","",""
"831","","image-button-response","94","849604","0.0-92.0-0.0","A3TDPXTB6Y6H1I","img_art/21.jpg","1","","","","","","","","","","","","","","","","","","","","","","","","",""
"null","","html-keyboard-response","95","850111","0.0-93.0","A3TDPXTB6Y6H1I","<p style=""font-size: 48px;"">+</p>","","","","","null","allTrialResponses","500","1","7","img_art/21.jpg","-34","The brown color ruins it for me. Otherwise, it could resemble a heavenly scene.","Alicia,Gabriela,Alexis,Kaylee,Morgan,Alyssa","Don't know why I like it, cant describe, maybe many landscapes?,47,120,20","It makes me feel mellow or ""chill"". It makes me have a positive and calm mood,42,140,20","I love this. Reminds me of a coast. The colors flow beautifully,40,100,20","looks like a sea during some war,27,200,20","Survivable storm on the open sea.,27,380,20","I like the colors that were used and the stark contrast between the two sides,25,160,20","Morgan","Survivable storm on the open sea.,27,380,20","Kaylee","looks like a sea during some war,27,200,20","Gabriela","It makes me feel mellow or ""chill"". It makes me have a positive and calm mood,42,140,20","4"
"28248","","survey-text","96","878364","0.0-94.0-0.0","A3TDPXTB6Y6H1I","","","","{""Q0"":""Very simple, yet pleasing to my eyes.""}","","","","","","","","","","","","","","","","","","","","","","",""
"2676.7000000476837","","image-slider-response","97","881042","0.0-95.0","A3TDPXTB6Y6H1I","","","","","28","","","","","","","","","","","","","","","","","","","","","",""
"1457","","image-button-response","98","886058","0.0-96.0","A3TDPXTB6Y6H1I","img_art/13.jpg","0","","","","","","","","","","","","","","","","","","","","","","","","",""
"2481","","image-button-response","99","888542","0.0-97.0","A3TDPXTB6Y6H1I","img_art/13.jpg","4","","","","","","","","","","","","","","","","","","","","","","","","",""
"532","","image-button-response","100","889077","0.0-98.0-0.0","A3TDPXTB6Y6H1I","img_art/13.jpg","5","","","","","","","","","","","","","","","","","","","","","","","","",""
"874","","image-button-response","101","889954","0.0-99.0-0.0","A3TDPXTB6Y6H1I","img_art/13.jpg","0","","","","","","","","","","","","","","","","","","","","","","","","",""
"null","","html-keyboard-response","102","891462","0.0-100.0","A3TDPXTB6Y6H1I","<p style=""font-size: 48px;"">+</p>","","","","","null","allTrialResponses","1500","1","8","img_art/13.jpg","28","Very simple, yet pleasing to my eyes.","Madeline,Gabriela,Shannon,Kaylee,Morgan,Cassandra","Really love the colors,11,40,20","It looks too common, is a bit boring,-41,140,20","It looks like someone splattered a bunch of different colors to make a picture; I think its ugly.,-40,220,20","its crazy to the point that i cant get it,-28,200,20","Seeing the world through different lenses.,15,380,20","I love the colors and the texture,37,120,20","Morgan","Seeing the world through different lenses.,15,380,20","Cassandra","I love the colors and the texture,37,120,20","Madeline","Really love the colors,11,40,20","4"
"29418","","survey-text","103","920885","0.0-101.0-0.0","A3TDPXTB6Y6H1I","","","","{""Q0"":""Chaotic, confusing, and a bit scary. Is that dude God?""}","","","","","","","","","","","","","","","","","","","","","","",""
"6473.399999976158","","image-slider-response","104","927360","0.0-102.0","A3TDPXTB6Y6H1I","","","","","1","","","","","","","","","","","","","","","","","","","","","",""
"2835","","image-button-response","105","932377","0.0-103.0","A3TDPXTB6Y6H1I","img_art/8.jpg","2","","","","","","","","","","","","","","","","","","","","","","","","",""
"454","","image-button-response","106","932833","0.0-104.0","A3TDPXTB6Y6H1I","img_art/8.jpg","4","","","","","","","","","","","","","","","","","","","","","","","","",""
"2304","","image-button-response","107","935139","0.0-105.0-0.0","A3TDPXTB6Y6H1I","img_art/8.jpg","1","","","","","","","","","","","","","","","","","","","","","","","","",""
"533","","image-button-response","108","935675","0.0-106.0-0.0","A3TDPXTB6Y6H1I","img_art/8.jpg","2","","","","","","","","","","","","","","","","","","","","","","","","",""
"null","","html-keyboard-response","109","936187","0.0-107.0","A3TDPXTB6Y6H1I","<p style=""font-size: 48px;"">+</p>","","","","","null","allTrialResponses","500","1","9","img_art/8.jpg","1","Chaotic, confusing, and a bit scary. Is that dude God?","Madeline,Leslie,Claire,Sydney,Morgan,Cassandra","Very nice detail and colors!,10,40,20","The stylized faces remind me of German expressionism in a very good way.,40,380,20","looks like an aerial view, very pretty,32,260,20","I love the colors in this piece.,25,320,20","Falling into a city's heart.,10,380,20","I like the colors and the scene.,24,120,20","Morgan","Falling into a city's heart.,10,380,20","Leslie","The stylized faces remind me of German expressionism in a very good way.,40,380,20","Claire","looks like an aerial view, very pretty,32,260,20","4"
"27392","","survey-text","110","963585","0.0-108.0-0.0","A3TDPXTB6Y6H1I","","","","{""Q0"":""A bit drab, but still fun to look at. I'd like it with more color.""}","","","","","","","","","","","","","","","","","","","","","","",""
"2929.5","","image-slider-response","111","966516","0.0-109.0","A3TDPXTB6Y6H1I","","","","","4","","","","","","","","","","","","","","","","","","","","","",""
"2413","","image-button-response","112","971534","0.0-110.0","A3TDPXTB6Y6H1I","img_art/11.jpg","0","","","","","","","","","","","","","","","","","","","","","","","","",""
"843","","image-button-response","113","972379","0.0-111.0","A3TDPXTB6Y6H1I","img_art/11.jpg","3","","","","","","","","","","","","","","","","","","","","","","","","",""
"1099","","image-button-response","114","973480","0.0-112.0-0.0","A3TDPXTB6Y6H1I","img_art/11.jpg","0","","","","","","","","","","","","","","","","","","","","","","","","",""
"1500","","image-button-response","115","974983","0.0-113.0-0.0","A3TDPXTB6Y6H1I","img_art/11.jpg","0","","","","","","","","","","","","","","","","","","","","","","","","",""
"733","","image-button-response","116","980909","0.0-113.1-0.1","A3TDPXTB6Y6H1I","img_art/11.jpg","5","","","","","","","","","","","","","","","","","","","","","","","","",""
"null","","html-keyboard-response","117","981423","0.0-114.0","A3TDPXTB6Y6H1I","<p style=""font-size: 48px;"">+</p>","","","","","null","allTrialResponses","500","1","10","img_art/11.jpg","4","A bit drab, but still fun to look at. I'd like it with more color.","Mariah,Leslie,Claire,Sierra,Morgan,Jenna","The colors are lovely. February getting ready to yield to March.,41,140,20","This elicits no reaction in me.,0,380,20","the wavy lines are nice and pleasing,13,260,20","i like the colors and patters and waves,5,260,20","Waves of signs.,15,380,20","makes me think of city highways & bridges on a rainy, foggy day. I like the melancholy it evokes.,43,360,20","Sierra","i like the colors and patters and waves,5,260,20","Mariah","The colors are lovely. February getting ready to yield to March.,41,140,20","Jenna","makes me think of city highways & bridges on a rainy, foggy day. I like the melancholy it evokes.,43,360,20","6"
"3379","","survey-text","118","984809","0.0-115.0-0.0","A3TDPXTB6Y6H1I","","","","{""Q0"":""our""}","","","","","","","","","","","","","","","","","","","","","","",""
"22051","","survey-text","119","1006861","0.0-116.0-0.0","A3TDPXTB6Y6H1I","","","","{""Q0"":""Too abstract for me. I don't like the shade of green. It has no overall effect on me.""}","","","","","","","","","","","","","","","","","","","","","","",""
"2711.600000023842","","image-slider-response","120","1009575","0.0-117.0","A3TDPXTB6Y6H1I","","","","","-42","","","","","","","","","","","","","","","","","","","","","",""
"3904","","image-button-response","121","1014589","0.0-118.0","A3TDPXTB6Y6H1I","img_art/2.jpg","4","","","","","","","","","","","","","","","","","","","","","","","","",""
"1154","","image-button-response","122","1015745","0.0-119.0","A3TDPXTB6Y6H1I","img_art/2.jpg","5","","","","","","","","","","","","","","","","","","","","","","","","",""
"1565","","image-button-response","123","1017313","0.0-120.0-0.0","A3TDPXTB6Y6H1I","img_art/2.jpg","1","","","","","","","","","","","","","","","","","","","","","","","","",""
"1666","","image-button-response","124","1018981","0.0-121.0-0.0","A3TDPXTB6Y6H1I","img_art/2.jpg","4","","","","","","","","","","","","","","","","","","","","","","","","",""
"null","","html-keyboard-response","125","1019498","0.0-122.0","A3TDPXTB6Y6H1I","<p style=""font-size: 48px;"">+</p>","","","","","null","allTrialResponses","500","1","11","img_art/2.jpg","-42","Too abstract for me. I don't like the shade of green. It has no overall effect on me.","Mariah,Kaitlyn,Caroline,Sierra,Paige,Jenna","The colors are soothing, but the composition feels thoughtless.,-11,140,20","Too jumbled and disorienting,-13,80,20","Colors are drab and cause a sense of blandness,-28,100,20","looks like a happy child,15,260,20","Unhappy. I do not like it,-5,60,20","the colors are a bit odd, and the squiggly line at the top is distracting,0,360,20","Jenna","the colors are a bit odd, and the squiggly line at the top is distracting,0,360,20","Kaitlyn","Too jumbled and disorienting,-13,80,20","Paige","Unhappy. I do not like it,-5,60,20","6"
"41527","","survey-text","126","1061031","0.0-123.0-0.0","A3TDPXTB6Y6H1I","","","","{""Q0"":""Seems to symbolize endless beauty crammed into one small plane of existence. The earth, perhaps?""}","","","","","","","","","","","","","","","","","","","","","","",""
"3300.899999976158","","image-slider-response","127","1064333","0.0-124.0","A3TDPXTB6Y6H1I","","","","","12","","","","","","","","","","","","","","","","","","","","","",""
"3283","","image-button-response","128","1069349","0.0-125.0","A3TDPXTB6Y6H1I","img_art/9.jpg","2","","","","","","","","","","","","","","","","","","","","","","","","",""
"969","","image-button-response","129","1070321","0.0-126.0","A3TDPXTB6Y6H1I","img_art/9.jpg","3","","","","","","","","","","","","","","","","","","","","","","","","",""
"1295","","image-button-response","130","1071619","0.0-127.0-0.0","A3TDPXTB6Y6H1I","img_art/9.jpg","0","","","","","","","","","","","","","","","","","","","","","","","","",""
"1083","","image-button-response","131","1072705","0.0-128.0-0.0","A3TDPXTB6Y6H1I","img_art/9.jpg","0","","","","","","","","","","","","","","","","","","","","","","","","",""
"868","","image-button-response","132","1078142","0.0-128.1-0.1","A3TDPXTB6Y6H1I","img_art/9.jpg","2","","","","","","","","","","","","","","","","","","","","","","","","",""
"null","","html-keyboard-response","133","1079158","0.0-129.0","A3TDPXTB6Y6H1I","<p style=""font-size: 48px;"">+</p>","","","","","null","allTrialResponses","1000","1","12","img_art/9.jpg","12","Seems to symbolize endless beauty crammed into one small plane of existence. The earth, perhaps?","Kylie,Kaitlyn,Caitlin,Michaela,Paige,Jenna","Peaceful dreaming,40,300,20","Focal point is interesting,2,80,20","Caveman. Not for my walls.,-5,80,20","The colors remind me of peacocks,24,260,20","I feel this incites anger,-16,60,20","gorgeous colors, love the little details,42,360,20","Michaela","The colors remind me of peacocks,24,260,20","Kylie","Peaceful dreaming,40,300,20","Caitlin","Caveman. Not for my walls.,-5,80,20","8"
"28352","","survey-text","134","1107517","0.0-130.0-0.0","A3TDPXTB6Y6H1I","","","","{""Q0"":""Immediately evokes American Psycho... It's cranapple.""}","","","","","","","","","","","","","","","","","","","","","","",""
"2746","","image-slider-response","135","1110264","0.0-131.0","A3TDPXTB6Y6H1I","","","","","37","","","","","","","","","","","","","","","","","","","","","",""
"null","","image-button-response","136","1115266","0.0-132.0","A3TDPXTB6Y6H1I","img_art/3.jpg","null","","","","","","","","","","","","","","","","","","","","","","","","",""
"1758","","image-button-response","137","1117027","0.0-133.0","A3TDPXTB6Y6H1I","img_art/3.jpg","5","","","","","","","","","","","","","","","","","","","","","","","","",""
"631","","image-button-response","138","1117660","0.0-134.0-0.0","A3TDPXTB6Y6H1I","img_art/3.jpg","4","","","","","","","","","","","","","","","","","","","","","","","","",""
"570","","image-button-response","139","1118233","0.0-135.0-0.0","A3TDPXTB6Y6H1I","img_art/3.jpg","3","","","","","","","","","","","","","","","","","","","","","","","","",""
"null","","html-keyboard-response","140","1118742","0.0-136.0","A3TDPXTB6Y6H1I","<p style=""font-size: 48px;"">+</p>","","","","","null","allTrialResponses","500","1","13","img_art/3.jpg","37","Immediately evokes American Psycho... It's cranapple.","Kylie,Anna,Caitlin,Michaela,Amber,Amanda","Confusion and mayhem,-10,300,20","Definition of mediocre abstract art,-12,300,20","Why kids with color crayons is called art is beyond me. People pay for this???,-40,80,20","It looks like someone took a red sharpie and just scribbled angrily,-20,260,20","seems to be a lot of angry scribble.,-20,200,20","Looks like someone threw blood at a wall,-50,180,20","Amanda","Looks like someone threw blood at a wall,-50,180,20","Amber","seems to be a lot of angry scribble.,-20,200,20","Michaela","It looks like someone took a red sharpie and just scribbled angrily,-20,260,20","8"
"21886","","survey-text","141","1140635","0.0-137.0-0.0","A3TDPXTB6Y6H1I","","","","{""Q0"":""I don't like it, it's too plain, but the feeling is very lonely and solitary.""}","","","","","","","","","","","","","","","","","","","","","","",""
"3874.600000023842","","image-slider-response","142","1144511","0.0-138.0","A3TDPXTB6Y6H1I","","","","","7","","","","","","","","","","","","","","","","","","","","","",""
"null","","image-button-response","143","1149522","0.0-139.0","A3TDPXTB6Y6H1I","img_art/6.jpg","null","","","","","","","","","","","","","","","","","","","","","","","","",""
"1429","","image-button-response","144","1150953","0.0-140.0","A3TDPXTB6Y6H1I","img_art/6.jpg","4","","","","","","","","","","","","","","","","","","","","","","","","",""
"854","","image-button-response","145","1151811","0.0-141.0-0.0","A3TDPXTB6Y6H1I","img_art/6.jpg","5","","","","","","","","","","","","","","","","","","","","","","","","",""
"945","","image-button-response","146","1152759","0.0-142.0-0.0","A3TDPXTB6Y6H1I","img_art/6.jpg","2","","","","","","","","","","","","","","","","","","","","","","","","",""
"null","","html-keyboard-response","147","1153768","0.0-143.0","A3TDPXTB6Y6H1I","<p style=""font-size: 48px;"">+</p>","","","","","null","allTrialResponses","1000","1","14","img_art/6.jpg","7","I don't like it, it's too plain, but the feeling is very lonely and solitary.","Diana,Christina,Michelle,Michaela,Amber,Amanda","I love it. It reminds me of a bird sitting on a wall.,26,380,20","i like the simplicity of the tree and the colors,50,240,20","Definitely belongs at a doctor's office, I think it's a crow or a tree?,-3,280,20","It looks like a bird looking away,32,260,20","Something very simplistic about it. The colors mesh well.,10,200,20","Makes me feel lonely,-22,180,20","Amber","Something very simplistic about it. The colors mesh well.,10,200,20","Amanda","Makes me feel lonely,-22,180,20","Michelle","Definitely belongs at a doctor's office, I think it's a crow or a tree?,-3,280,20","8"
"22274","","survey-text","148","1176047","0.0-144.0-0.0","A3TDPXTB6Y6H1I","","","","{""Q0"":""Conjures a feeling of being in a darkened bar or club with smoke and lots of people.""}","","","","","","","","","","","","","","","","","","","","","","",""
"3872.600000023842","","image-slider-response","149","1179921","0.0-145.0","A3TDPXTB6Y6H1I","","","","","0","","","","","","","","","","","","","","","","","","","","","",""
"null","","image-button-response","150","1184923","0.0-146.0","A3TDPXTB6Y6H1I","img_art/28.jpg","null","","","","","","","","","","","","","","","","","","","","","","","","",""
"152","","image-button-response","151","1185077","0.0-147.0","A3TDPXTB6Y6H1I","img_art/28.jpg","1","","","","","","","","","","","","","","","","","","","","","","","","",""
"1449","","image-button-response","152","1186528","0.0-148.0-0.0","A3TDPXTB6Y6H1I","img_art/28.jpg","4","","","","","","","","","","","","","","","","","","","","","","","","",""
"1467","","image-button-response","153","1187998","0.0-149.0-0.0","A3TDPXTB6Y6H1I","img_art/28.jpg","5","","","","","","","","","","","","","","","","","","","","","","","","",""
"null","","html-keyboard-response","154","1189500","0.0-150.0","A3TDPXTB6Y6H1I","<p style=""font-size: 48px;"">+</p>","","","","","null","allTrialResponses","1500","1","15","img_art/28.jpg","0","Conjures a feeling of being in a darkened bar or club with smoke and lots of people.","Alexandria,Julia,Michelle,Sabrina,Amber,Amanda","no clear colors or meaning to evoke emotions,-15,80,20","the people kind of scare me in this one,-15,40,20","This piece is depressing to me, reminds me of German paintings,-6,280,20","Self-hate and abuse at home, unsafe and torturing,-30,120,20","Colors are too dull.,-30,200,20","Colors look too muddy for my liking,-33,180,20","Julia","the people kind of scare me in this one,-15,40,20","Amber","Colors are too dull.,-30,200,20","Amanda","Colors look too muddy for my liking,-33,180,20","8"
"4664","","survey-text","155","1194174","0.0-151.0-0.0","A3TDPXTB6Y6H1I","","","","{""Q0"":""course""}","","","","","","","","","","","","","","","","","","","","","","",""
"30916","","survey-text","156","1225091","0.0-152.0-0.0","A3TDPXTB6Y6H1I","","","","{""Q0"":""Looks like sidewalk chalk doodles by a kid that were painted over.""}","","","","","","","","","","","","","","","","","","","","","","",""
"3250.1999999284744","","image-slider-response","157","1228343","0.0-153.0","A3TDPXTB6Y6H1I","","","","","-4","","","","","","","","","","","","","","","","","","","","","",""
"4898","","image-button-response","158","1233359","0.0-154.0","A3TDPXTB6Y6H1I","img_art/29.jpg","4","","","","","","","","","","","","","","","","","","","","","","","","",""
"2470","","image-button-response","159","1235832","0.0-155.0","A3TDPXTB6Y6H1I","img_art/29.jpg","0","","","","","","","","","","","","","","","","","","","","","","","","",""
"872","","image-button-response","160","1236707","0.0-156.0-0.0","A3TDPXTB6Y6H1I","img_art/29.jpg","1","","","","","","","","","","","","","","","","","","","","","","","","",""
"1649","","image-button-response","161","1238358","0.0-157.0-0.0","A3TDPXTB6Y6H1I","img_art/29.jpg","4","","","","","","","","","","","","","","","","","","","","","","","","",""
"null","","html-keyboard-response","162","1239870","0.0-158.0","A3TDPXTB6Y6H1I","<p style=""font-size: 48px;"">+</p>","","","","","null","allTrialResponses","1500","1","16","img_art/29.jpg","-4","Looks like sidewalk chalk doodles by a kid that were painted over.","Elizabeth,Julia,Gabrielle,Maria,Amber,Amanda","Has a haunting feel to it,22,20,20","it looks like a top-down battle arena,26,40,20","it's OK, no clue to what's going on but good use of light and dark,4,160,20","the mixed medium / collage annoys me,-19,120,20","Don't like the red X across the painting.,-15,200,20","Once again, very modern, activists will love,27,180,20","Elizabeth","Has a haunting feel to it,22,20,20","Julia","it looks like a top-down battle arena,26,40,20","Amber","Don't like the red X across the painting.,-15,200,20","8"
"43935","","survey-text","163","1283811","0.0-159.0-0.0","A3TDPXTB6Y6H1I","","","","{""Q0"":""I see death on a white horse.""}","","","","","","","","","","","","","","","","","","","","","","",""
"2392.3000000715256","","image-slider-response","164","1286205","0.0-160.0","A3TDPXTB6Y6H1I","","","","","9","","","","","","","","","","","","","","","","","","","","","",""
"2996","","image-button-response","165","1291206","0.0-161.0","A3TDPXTB6Y6H1I","img_art/18.jpg","1","","","","","","","","","","","","","","","","","","","","","","","","",""
"508","","image-button-response","166","1291718","0.0-162.0","A3TDPXTB6Y6H1I","img_art/18.jpg","5","","","","","","","","","","","","","","","","","","","","","","","","",""
"1219","","image-button-response","167","1292939","0.0-163.0-0.0","A3TDPXTB6Y6H1I","img_art/18.jpg","1","","","","","","","","","","","","","","","","","","","","","","","","",""
"2374","","image-button-response","168","1295316","0.0-164.0-0.0","A3TDPXTB6Y6H1I","img_art/18.jpg","4","","","","","","","","","","","","","","","","","","","","","","","","",""
"null","","html-keyboard-response","169","1296329","0.0-165.0","A3TDPXTB6Y6H1I","<p style=""font-size: 48px;"">+</p>","","","","","null","allTrialResponses","1000","1","17","img_art/18.jpg","9","I see death on a white horse.","Elizabeth,Julia,Emily,Alexandra,Amber,Autumn","Nice abstract art,50,20,20","Very classy, I feel like it's the apocalypse.,25,40,20","Not my style but I can see some serious skill went int it.,21,40,20","Ugly, too much is going on,-40,60,20","ugly and lots of movement,-6,200,20","This looks amazing.,40,340,20","Autumn","This looks amazing.,40,340,20","Julia","Very classy, I feel like it's the apocalypse.,25,40,20","Amber","ugly and lots of movement,-6,200,20","8"
"25392","","survey-text","170","1321728","0.0-166.0-0.0","A3TDPXTB6Y6H1I","","","","{""Q0"":""The colors gross me out. Looks like fingerpaint with poo""}","","","","","","","","","","","","","","","","","","","","","","",""
"2926.3000000715256","","image-slider-response","171","1324655","0.0-167.0","A3TDPXTB6Y6H1I","","","","","-49","","","","","","","","","","","","","","","","","","","","","",""
"3371","","image-button-response","172","1329664","0.0-168.0","A3TDPXTB6Y6H1I","img_art/4.jpg","1","","","","","","","","","","","","","","","","","","","","","","","","",""
"1616","","image-button-response","173","1331283","0.0-169.0","A3TDPXTB6Y6H1I","img_art/4.jpg","0","","","","","","","","","","","","","","","","","","","","","","","","",""
"1293","","image-button-response","174","1332579","0.0-170.0-0.0","A3TDPXTB6Y6H1I","img_art/4.jpg","1","","","","","","","","","","","","","","","","","","","","","","","","",""
"956","","image-button-response","175","1333537","0.0-171.0-0.0","A3TDPXTB6Y6H1I","img_art/4.jpg","5","","","","","","","","","","","","","","","","","","","","","","","","",""
"null","","html-keyboard-response","176","1334539","0.0-172.0","A3TDPXTB6Y6H1I","<p style=""font-size: 48px;"">+</p>","","","","","null","allTrialResponses","1000","1","18","img_art/4.jpg","-49","The colors gross me out. Looks like fingerpaint with poo","Mackenzie,Julia,Natalie,Haley,Amber,Autumn","I don't enjoy the colors, or texture, it seems like mustard,-23,20,20","it reminds me of McDonalds, and not in a good way.,-34,40,20","dont know what im looking at,1,400,20","This image doesn't invoke anything in me,-9,220,20","I like the bold style.,10,200,20","I don't like murky colors.,-40,340,20","Mackenzie","I don't enjoy the colors, or texture, it seems like mustard,-23,20,20","Julia","it reminds me of McDonalds, and not in a good way.,-34,40,20","Autumn","I don't like murky colors.,-40,340,20","8"
"19888","","survey-text","177","1354433","0.0-173.0-0.0","A3TDPXTB6Y6H1I","","","","{""Q0"":""I see part of a possible peacock, but it's too vague to make sense of.""}","","","","","","","","","","","","","","","","","","","","","","",""
"2833","","image-slider-response","178","1357267","0.0-174.0","A3TDPXTB6Y6H1I","","","","","7","","","","","","","","","","","","","","","","","","","","","",""
"null","","image-button-response","179","1362270","0.0-175.0","A3TDPXTB6Y6H1I","img_art/17.jpg","null","","","","","","","","","","","","","","","","","","","","","","","","",""
"1369","","image-button-response","180","1363641","0.0-176.0","A3TDPXTB6Y6H1I","img_art/17.jpg","3","","","","","","","","","","","","","","","","","","","","","","","","",""
"1797","","image-button-response","181","1365441","0.0-177.0-0.0","A3TDPXTB6Y6H1I","img_art/17.jpg","2","","","","","","","","","","","","","","","","","","","","","","","","",""
"392","","image-button-response","182","1365836","0.0-178.0-0.0","A3TDPXTB6Y6H1I","img_art/17.jpg","1","","","","","","","","","","","","","","","","","","","","","","","","",""
"null","","html-keyboard-response","183","1367338","0.0-179.0","A3TDPXTB6Y6H1I","<p style=""font-size: 48px;"">+</p>","","","","","null","allTrialResponses","1500","1","19","img_art/17.jpg","7","I see part of a possible peacock, but it's too vague to make sense of.","Mackenzie,Julia,Rebecca,Andrea,Dominique,Autumn","Very fun textures,32,20,20","I'm not into paintings of trees,-18,40,20","tree sprouting out of a box (house) the invasion of nature?,39,100,20","A coming storm but I think I would appreciate it more with more contrast.,-12,240,20","Another favorite a relaxing day with nature a day to take it all In,34,400,20","Looks awesome .,33,340,20","Andrea","A coming storm but I think I would appreciate it more with more contrast.,-12,240,20","Rebecca","tree sprouting out of a box (house) the invasion of nature?,39,100,20","Julia","I'm not into paintings of trees,-18,40,20","8"
"24497","","survey-text","184","1391841","0.0-180.0-0.0","A3TDPXTB6Y6H1I","","","","{""Q0"":""It looks like a watercolor painting, but evokes no real feeling.""}","","","","","","","","","","","","","","","","","","","","","","",""
"2100.399999976158","","image-slider-response","185","1393943","0.0-181.0","A3TDPXTB6Y6H1I","","","","","-22","","","","","","","","","","","","","","","","","","","","","",""
"null","","image-button-response","186","1398959","0.0-182.0","A3TDPXTB6Y6H1I","img_art/14.jpg","null","","","","","","","","","","","","","","","","","","","","","","","","",""
"1277","","image-button-response","187","1400239","0.0-183.0","A3TDPXTB6Y6H1I","img_art/14.jpg","5","","","","","","","","","","","","","","","","","","","","","","","","",""
"1649","","image-button-response","188","1401891","0.0-184.0-0.0","A3TDPXTB6Y6H1I","img_art/14.jpg","1","","","","","","","","","","","","","","","","","","","","","","","","",""
"578","","image-button-response","189","1402472","0.0-185.0-0.0","A3TDPXTB6Y6H1I","img_art/14.jpg","0","","","","","","","","","","","","","","","","","","","","","","","","",""
"null","","html-keyboard-response","190","1403476","0.0-186.0","A3TDPXTB6Y6H1I","<p style=""font-size: 48px;"">+</p>","","","","","null","allTrialResponses","1000","1","20","img_art/14.jpg","-22","It looks like a watercolor painting, but evokes no real feeling.","Melissa,Julia,Rebecca,Andrea,Sara,Makayla","makes me feel sad,-2,240,20","I don't care for the style,-38,40,20","medium recalls back to an oriental style,16,100,20","Cute little plant.,15,240,20","It uplifts my mood due to the color scheme,32,160,20","I like that it's like a snippet of a field in the desert,21,80,20","Makayla","I like that it's like a snippet of a field in the desert,21,80,20","Julia","I don't care for the style,-38,40,20","Melissa","makes me feel sad,-2,240,20","8"
"1656","","survey-text","191","1405143","0.0-187.0-0.0","A3TDPXTB6Y6H1I","","","","{""Q0"":""we""}","","","","","","","","","","","","","","","","","","","","","","",""
"27973","","survey-text","192","1433116","0.0-188.0-0.0","A3TDPXTB6Y6H1I","","","","{""Q0"":""I don't like how overly layered the colors seem. It has no real effect on me.""}","","","","","","","","","","","","","","","","","","","","","","",""
"1825.6999999284744","","image-slider-response","193","1434943","0.0-189.0","A3TDPXTB6Y6H1I","","","","","-20","","","","","","","","","","","","","","","","","","","","","",""
"4331","","image-button-response","194","1439946","0.0-190.0","A3TDPXTB6Y6H1I","img_art/22.jpg","5","","","","","","","","","","","","","","","","","","","","","","","","",""
"648","","image-button-response","195","1440596","0.0-191.0","A3TDPXTB6Y6H1I","img_art/22.jpg","5","","","","","","","","","","","","","","","","","","","","","","","","",""
"752","","image-button-response","196","1441351","0.0-192.0-0.0","A3TDPXTB6Y6H1I","img_art/22.jpg","1","","","","","","","","","","","","","","","","","","","","","","","","",""
"601","","image-button-response","197","1441955","0.0-193.0-0.0","A3TDPXTB6Y6H1I","img_art/22.jpg","0","","","","","","","","","","","","","","","","","","","","","","","","",""
"null","","html-keyboard-response","198","1443467","0.0-194.0","A3TDPXTB6Y6H1I","<p style=""font-size: 48px;"">+</p>","","","","","null","allTrialResponses","1500","1","21","img_art/22.jpg","-20","I don't like how overly layered the colors seem. It has no real effect on me.","Melissa,Julia,Chelsea,Katie,Brittany,Makayla","strong blending skills,7,240,20","this is too generic,-27,40,20","The colors clash, and I don't know what is happening.,-23,180,20","Too much red. The red/yellow/orange make me think of heat/fire, which makes me anxious.,-10,160,20","It reminds me of sunsets and dusks.,22,40,20","Just neutral no feelings,2,80,20","Makayla","Just neutral no feelings,2,80,20","Julia","this is too generic,-27,40,20","Melissa","strong blending skills,7,240,20","8"
"19564","","survey-text","199","1463038","0.0-195.0-0.0","A3TDPXTB6Y6H1I","","","","{""Q0"":""Reminds me of a woodland stream. Evokes a feeling of peace and solitude.""}","","","","","","","","","","","","","","","","","","","","","","",""
"3269.7000000476837","","image-slider-response","200","1466309","0.0-196.0","A3TDPXTB6Y6H1I","","","","","33","","","","","","","","","","","","","","","","","","","","","",""
"3361","","image-button-response","201","1471311","0.0-197.0","A3TDPXTB6Y6H1I","img_art/24.jpg","1","","","","","","","","","","","","","","","","","","","","","","","","",""
"888","","image-button-response","202","1472202","0.0-198.0","A3TDPXTB6Y6H1I","img_art/24.jpg","1","","","","","","","","","","","","","","","","","","","","","","","","",""
"1519","","image-button-response","203","1473723","0.0-199.0-0.0","A3TDPXTB6Y6H1I","img_art/24.jpg","4","","","","","","","","","","","","","","","","","","","","","","","","",""
"1436","","image-button-response","204","1475161","0.0-200.0-0.0","A3TDPXTB6Y6H1I","img_art/24.jpg","3","","","","","","","","","","","","","","","","","","","","","","","","",""
"null","","html-keyboard-response","205","1476675","0.0-201.0","A3TDPXTB6Y6H1I","<p style=""font-size: 48px;"">+</p>","","","","","null","allTrialResponses","1500","1","22","img_art/24.jpg","33","Reminds me of a woodland stream. Evokes a feeling of peace and solitude.","Melissa,Julia,Brooke,Danielle,Olivia,Makayla","feels overdone, but still executed well,0,240,20","it's a nice stream, but I don't care for plain nature,-15,40,20","Mountain stream pineapple texture?,30,60,20","Looks like a mystical type of forest/waterfall. Love it,40,340,20","tranquility in the stream,34,40,20","Looks like a serene waterfall and woods,29,80,20","Julia","it's a nice stream, but I don't care for plain nature,-15,40,20","Olivia","tranquility in the stream,34,40,20","Danielle","Looks like a mystical type of forest/waterfall. Love it,40,340,20","8"
"21159","","survey-text","206","1497841","0.0-202.0-0.0","A3TDPXTB6Y6H1I","","","","{""Q0"":""The color juxtaposition bothers my eyes. It makes me stressed out.""}","","","","","","","","","","","","","","","","","","","","","","",""
"2573.8000000715256","","image-slider-response","207","1500416","0.0-203.0","A3TDPXTB6Y6H1I","","","","","-21","","","","","","","","","","","","","","","","","","","","","",""
"4234","","image-button-response","208","1505419","0.0-204.0","A3TDPXTB6Y6H1I","img_art/23.jpg","3","","","","","","","","","","","","","","","","","","","","","","","","",""
"1383","","image-button-response","209","1506804","0.0-205.0","A3TDPXTB6Y6H1I","img_art/23.jpg","1","","","","","","","","","","","","","","","","","","","","","","","","",""
"3190","","image-button-response","210","1509996","0.0-206.0-0.0","A3TDPXTB6Y6H1I","img_art/23.jpg","4","","","","","","","","","","","","","","","","","","","","","","","","",""
"827","","image-button-response","211","1510827","0.0-207.0-0.0","A3TDPXTB6Y6H1I","img_art/23.jpg","2","","","","","","","","","","","","","","","","","","","","","","","","",""
"null","","html-keyboard-response","212","1511331","0.0-208.0","A3TDPXTB6Y6H1I","<p style=""font-size: 48px;"">+</p>","","","","","null","allTrialResponses","500","1","23","img_art/23.jpg","-21","The color juxtaposition bothers my eyes. It makes me stressed out.","Brianna,Julia,Chloe,Danielle,Olivia,Ashley","I love the rainbow!,12,20,20","this looks like a pop rock album cover,-10,40,20","Poster shop camp.,-40,220,20","While I don't normally enjoy these color schemes all together, I kind of like this one,10,340,20","happiness in the universe,28,40,20","A line dance, it's really strinkingly beautiful.,50,320,20","Julia","this looks like a pop rock album cover,-10,40,20","Olivia","happiness in the universe,28,40,20","Chloe","Poster shop camp.,-40,220,20","8"
"24152","","survey-text","213","1535489","0.0-209.0-0.0","A3TDPXTB6Y6H1I","","","","{""Q0"":""Looks like one of those things you sweep dirt into while holding the black handle.""}","","","","","","","","","","","","","","","","","","","","","","",""
"2964.5","","image-slider-response","214","1538455","0.0-210.0","A3TDPXTB6Y6H1I","","","","","-40","","","","","","","","","","","","","","","","","","","","","",""
"3550","","image-button-response","215","1543457","0.0-211.0","A3TDPXTB6Y6H1I","img_art/5.jpg","5","","","","","","","","","","","","","","","","","","","","","","","","",""
"1225","","image-button-response","216","1544685","0.0-212.0","A3TDPXTB6Y6H1I","img_art/5.jpg","0","","","","","","","","","","","","","","","","","","","","","","","","",""
"1660","","image-button-response","217","1546347","0.0-213.0-0.0","A3TDPXTB6Y6H1I","img_art/5.jpg","2","","","","","","","","","","","","","","","","","","","","","","","","",""
"749","","image-button-response","218","1547099","0.0-214.0-0.0","A3TDPXTB6Y6H1I","img_art/5.jpg","5","","","","","","","","","","","","","","","","","","","","","","","","",""
"null","","html-keyboard-response","219","1548613","0.0-215.0","A3TDPXTB6Y6H1I","<p style=""font-size: 48px;"">+</p>","","","","","null","allTrialResponses","1500","1","24","img_art/5.jpg","-40","Looks like one of those things you sweep dirt into while holding the black handle.","Kathryn,Julia,Chloe,Erika,Olivia,Vanessa","I see a sign advising me to be cautious.,-20,140,20","I like this one but wish it had more context around it,18,40,20","Black stripe looks violent,-31,220,20","Not sure what I'm looking at,-16,100,20","a brush in time,-14,40,20","The yellow is garish and the picture doesn't look liked anything.,-49,380,20","Kathryn","I see a sign advising me to be cautious.,-20,140,20","Chloe","Black stripe looks violent,-31,220,20","Vanessa","The yellow is garish and the picture doesn't look liked anything.,-49,380,20","8"
"22159","","survey-text","220","1570779","0.0-216.0-0.0","A3TDPXTB6Y6H1I","","","","{""Q0"":""Very generic, hotel room wall type of feel. A hazy dreamlike memory.""}","","","","","","","","","","","","","","","","","","","","","","",""
"2679.100000023842","","image-slider-response","221","1573460","0.0-217.0","A3TDPXTB6Y6H1I","","","","","2","","","","","","","","","","","","","","","","","","","","","",""
"4043","","image-button-response","222","1578462","0.0-218.0","A3TDPXTB6Y6H1I","img_art/26.jpg","5","","","","","","","","","","","","","","","","","","","","","","","","",""
"184","","image-button-response","223","1578649","0.0-219.0","A3TDPXTB6Y6H1I","img_art/26.jpg","5","","","","","","","","","","","","","","","","","","","","","","","","",""
"898","","image-button-response","224","1579550","0.0-220.0-0.0","A3TDPXTB6Y6H1I","img_art/26.jpg","3","","","","","","","","","","","","","","","","","","","","","","","","",""
"345","","image-button-response","225","1579898","0.0-221.0-0.0","A3TDPXTB6Y6H1I","img_art/26.jpg","4","","","","","","","","","","","","","","","","","","","","","","","","",""
"null","","html-keyboard-response","226","1580408","0.0-222.0","A3TDPXTB6Y6H1I","<p style=""font-size: 48px;"">+</p>","","","","","null","allTrialResponses","500","1","25","img_art/26.jpg","2","Very generic, hotel room wall type of feel. A hazy dreamlike memory.","Kathryn,Marissa,Chloe,Angela,Megan,Vanessa","This piece feels pretty chill like it's just a normal day in the city.,10,140,20","It feels simple and pretty,12,160,20","Not great use of space and brush strokes seem indistinct/accidental,-30,220,20","Nice, but not very interesting. I do like the blue tree though.,6,260,20","Washed out suburban scene with childish tones.,-24,200,20","Something I'd see in a thrift store. It looks like not much effort was used to paint this.,9,380,20","Vanessa","Something I'd see in a thrift store. It looks like not much effort was used to paint this.,9,380,20","Angela","Nice, but not very interesting. I do like the blue tree though.,6,260,20","Megan","Washed out suburban scene with childish tones.,-24,200,20","8"
"1919","","survey-text","227","1582337","0.0-223.0-0.0","A3TDPXTB6Y6H1I","","","","{""Q0"":""table""}","","","","","","","","","","","","","","","","","","","","","","",""
"18660","","survey-text","228","1600998","0.0-224.0-0.0","A3TDPXTB6Y6H1I","","","","{""Q0"":""Vaguely reminds me of a guitar, but too abstract to really conclude anything.""}","","","","","","","","","","","","","","","","","","","","","","",""
"1932.2000000476837","","image-slider-response","229","1602932","0.0-225.0","A3TDPXTB6Y6H1I","","","","","-42","","","","","","","","","","","","","","","","","","","","","",""
"4012","","image-button-response","230","1607945","0.0-226.0","A3TDPXTB6Y6H1I","img_art/10.jpg","1","","","","","","","","","","","","","","","","","","","","","","","","",""
"981","","image-button-response","231","1608928","0.0-227.0","A3TDPXTB6Y6H1I","img_art/10.jpg","1","","","","","","","","","","","","","","","","","","","","","","","","",""
"3185","","image-button-response","232","1612115","0.0-228.0-0.0","A3TDPXTB6Y6H1I","img_art/10.jpg","3","","","","","","","","","","","","","","","","","","","","","","","","",""
"429","","image-button-response","233","1612547","0.0-229.0-0.0","A3TDPXTB6Y6H1I","img_art/10.jpg","4","","","","","","","","","","","","","","","","","","","","","","","","",""
"null","","html-keyboard-response","234","1614048","0.0-230.0","A3TDPXTB6Y6H1I","<p style=""font-size: 48px;"">+</p>","","","","","null","allTrialResponses","1500","1","26","img_art/10.jpg","-42","Vaguely reminds me of a guitar, but too abstract to really conclude anything.","Victoria,Leah,Jennifer,Angela,Megan,Vanessa","absolutely beautiful piece of art,49,400,20","Dark with no object, looks like experimentation, slightly like a storm on the ocean,-21,360,20","I am neutral towards the artwork,1,380,20","This makes me think of a city, specifically London.,20,260,20","Music visualized with subtle color,17,200,20","It's interesting and my eyes keep being drawn to different parts of the picture.,11,380,20","Leah","Dark with no object, looks like experimentation, slightly like a storm on the ocean,-21,360,20","Angela","This makes me think of a city, specifically London.,20,260,20","Megan","Music visualized with subtle color,17,200,20","8"
"27336","","survey-text","235","1641391","0.0-231.0-0.0","A3TDPXTB6Y6H1I","","","","{""Q0"":""It reminds me of the rocky banks of a river in the southwest USA. ""}","","","","","","","","","","","","","","","","","","","","","","",""
"2208.600000023842","","image-slider-response","236","1643601","0.0-232.0","A3TDPXTB6Y6H1I","","","","","4","","","","","","","","","","","","","","","","","","","","","",""
"3447","","image-button-response","237","1648610","0.0-233.0","A3TDPXTB6Y6H1I","img_art/20.jpg","1","","","","","","","","","","","","","","","","","","","","","","","","",""
"4362","","image-button-response","238","1652974","0.0-234.0","A3TDPXTB6Y6H1I","img_art/20.jpg","4","","","","","","","","","","","","","","","","","","","","","","","","",""
"638","","image-button-response","239","1653615","0.0-235.0-0.0","A3TDPXTB6Y6H1I","img_art/20.jpg","1","","","","","","","","","","","","","","","","","","","","","","","","",""
"535","","image-button-response","240","1654153","0.0-236.0-0.0","A3TDPXTB6Y6H1I","img_art/20.jpg","2","","","","","","","","","","","","","","","","","","","","","","","","",""
"null","","html-keyboard-response","241","1654656","0.0-237.0","A3TDPXTB6Y6H1I","<p style=""font-size: 48px;"">+</p>","","","","","null","allTrialResponses","500","1","27","img_art/20.jpg","4","It reminds me of the rocky banks of a river in the southwest USA. ","Heather,Leah,Monica,Angela,Megan,Katherine","make me feel like its a little country maybe a tractor and a skull head of a bull,1,260,20","A sad past town, pollution, guess I like happier scenes,-30,360,20","It looks like a junkyard and isn't appealing,-22,360,20","I like the blues, and the sense of foreboding it makes me feel.,20,260,20","Fails to capture what similar styles do,-12,200,20","More dark colors and blurry objects.,13,120,20","Megan","Fails to capture what similar styles do,-12,200,20","Leah","A sad past town, pollution, guess I like happier scenes,-30,360,20","Monica","It looks like a junkyard and isn't appealing,-22,360,20","8"
"22161","","survey-text","242","1676823","0.0-238.0-0.0","A3TDPXTB6Y6H1I","","","","{""Q0"":""I love the colors, and I love the figure. I wish to know more behind the meaning.""}","","","","","","","","","","","","","","","","","","","","","","",""
"2355.6999999284744","","image-slider-response","243","1679180","0.0-239.0","A3TDPXTB6Y6H1I","","","","","35","","","","","","","","","","","","","","","","","","","","","",""
"null","","image-button-response","244","1684182","0.0-240.0","A3TDPXTB6Y6H1I","img_art/25.jpg","null","","","","","","","","","","","","","","","","","","","","","","","","",""
"1528","","image-button-response","245","1685712","0.0-241.0","A3TDPXTB6Y6H1I","img_art/25.jpg","4","","","","","","","","","","","","","","","","","","","","","","","","",""
"706","","image-button-response","246","1686421","0.0-242.0-0.0","A3TDPXTB6Y6H1I","img_art/25.jpg","1","","","","","","","","","","","","","","","","","","","","","","","","",""
"660","","image-button-response","247","1687084","0.0-243.0-0.0","A3TDPXTB6Y6H1I","img_art/25.jpg","2","","","","","","","","","","","","","","","","","","","","","","","","",""
"null","","html-keyboard-response","248","1688597","0.0-244.0","A3TDPXTB6Y6H1I","<p style=""font-size: 48px;"">+</p>","","","","","null","allTrialResponses","1500","1","28","img_art/25.jpg","35","I love the colors, and I love the figure. I wish to know more behind the meaning.","Kelsey,Leah,Monica,Alexa,Megan,Courtney","quite unnerving,-15,240,20","I really like it, very simple, very tribal,38,360,20","The skeletal figure is a bit scary,-12,360,20","It's really neat and cool looking,20,40,20","Beautiful color with an interesting otherworldly figure,29,200,20","That on i find a bit creapy.,-19,280,20","Megan","Beautiful color with an interesting otherworldly figure,29,200,20","Leah","I really like it, very simple, very tribal,38,360,20","Monica","The skeletal figure is a bit scary,-12,360,20","8"
"21880","","survey-text","249","1710483","0.0-245.0-0.0","A3TDPXTB6Y6H1I","","","","{""Q0"":""Makes me think of strawberry ice cream. Quite textured.""}","","","","","","","","","","","","","","","","","","","","","","",""
"1914.6000000238419","","image-slider-response","250","1712399","0.0-246.0","A3TDPXTB6Y6H1I","","","","","8","","","","","","","","","","","","","","","","","","","","","",""
"4408","","image-button-response","251","1717402","0.0-247.0","A3TDPXTB6Y6H1I","img_art/7.jpg","2","","","","","","","","","","","","","","","","","","","","","","","","",""
"459","","image-button-response","252","1717863","0.0-248.0","A3TDPXTB6Y6H1I","img_art/7.jpg","2","","","","","","","","","","","","","","","","","","","","","","","","",""
"1494","","image-button-response","253","1719360","0.0-249.0-0.0","A3TDPXTB6Y6H1I","img_art/7.jpg","5","","","","","","","","","","","","","","","","","","","","","","","","",""
"1071","","image-button-response","254","1720433","0.0-250.0-0.0","A3TDPXTB6Y6H1I","img_art/7.jpg","0","","","","","","","","","","","","","","","","","","","","","","","","",""
"null","","html-keyboard-response","255","1721438","0.0-251.0","A3TDPXTB6Y6H1I","<p style=""font-size: 48px;"">+</p>","","","","","null","allTrialResponses","1000","1","29","img_art/7.jpg","8","Makes me think of strawberry ice cream. Quite textured.","Kimberly,Leah,Monica,Erica,Megan,Hailey","Looks like a bad picture of a beach,-21,260,20","I love it, it looks like a landscape photograph in desert or rocky mountain,50,360,20","It looks like bloody scabs on skin, I don't like it,-42,360,20","No not cause many emotions,1,80,20","Great portrayal of solid surface,19,200,20","hot desert with big rocks.,-19,200,20","Monica","It looks like bloody scabs on skin, I don't like it,-42,360,20","Hailey","hot desert with big rocks.,-19,200,20","Kimberly","Looks like a bad picture of a beach,-21,260,20","8"
"19615","","survey-text","256","1741059","0.0-252.0-0.0","A3TDPXTB6Y6H1I","","","","{""Q0"":""This is too messy. I can't conceptualize anything from it.""}","","","","","","","","","","","","","","","","","","","","","","",""
"2861.2999999523163","","image-slider-response","257","1743922","0.0-253.0","A3TDPXTB6Y6H1I","","","","","-40","","","","","","","","","","","","","","","","","","","","","",""
"null","","image-button-response","258","1748924","0.0-254.0","A3TDPXTB6Y6H1I","img_art/1.jpg","null","","","","","","","","","","","","","","","","","","","","","","","","",""
"2096","","image-button-response","259","1751024","0.0-255.0","A3TDPXTB6Y6H1I","img_art/1.jpg","3","","","","","","","","","","","","","","","","","","","","","","","","",""
"663","","image-button-response","260","1751689","0.0-256.0-0.0","A3TDPXTB6Y6H1I","img_art/1.jpg","0","","","","","","","","","","","","","","","","","","","","","","","","",""
"476","","image-button-response","261","1752168","0.0-257.0-0.0","A3TDPXTB6Y6H1I","img_art/1.jpg","1","","","","","","","","","","","","","","","","","","","","","","","","",""
"null","","html-keyboard-response","262","1753183","0.0-258.0","A3TDPXTB6Y6H1I","<p style=""font-size: 48px;"">+</p>","","","","","null","allTrialResponses","1000","1","30","img_art/1.jpg","-40","This is too messy. I can't conceptualize anything from it.","Kimberly,Amy,Monica,Margaret,Savannah,Hailey","It's like being out on a psychedelic lake,32,260,20","Unpleasing palette. I see a figure but it seems incongrous to the highly abstract background.,-20,220,20","I like the yellow and purple but the large red spot reminds me of blood and isn't great,6,360,20","basic reminds me of something a school would have on the wall,-7,100,20","Its simply okay.,3,200,20","colors that are fairly warm. its ok,8,200,20","Margaret","basic reminds me of something a school would have on the wall,-7,100,20","Kimberly","It's like being out on a psychedelic lake,32,260,20","Amy","Unpleasing palette. I see a figure but it seems incongrous to the highly abstract background.,-20,220,20","8"
"1770","","image-button-response_instructions","263","1754958","0.0-259.0","A3TDPXTB6Y6H1I","","0","instructions","","","","","","","","","","","","","","","","","","","","","","","",""
"1090","","image-button-response","264","1756054","0.0-260.0","A3TDPXTB6Y6H1I","","0","","","","","","","","","","","","","","","","","","","","","","","","",""
