"rt","url","trial_type","trial_index","time_elapsed","internal_node_id","participant_id","stimulus","button_pressed","Name","responses","response","key_press","variableName","fixationTime","condition","trial","photo","subjectRating","subjectResponse","agentsNames","agent_1_Response","agent_2_Response","agent_3_Response","agent_4_Response","agent_5_Response","agent_6_Response","kept_1_name","kept_1_response","kept_2_name","kept_2_response","kept_3_name","kept_3_response","errorCounter"
"7743","external_page_harvard.html","external-html","0","7822","0.0-0.0","A3TXECGOC6JHBL","","","","","","","","","","","","","","","","","","","","","","","","","","",""
"1853","","image-button-response","1","9676","0.0-1.0","A3TXECGOC6JHBL","","1","","","","","","","","","","","","","","","","","","","","","","","","",""
"1716","","image-button-response","2","11396","0.0-2.0-0.0","A3TXECGOC6JHBL","","1","phone","","","","","","","","","","","","","","","","","","","","","","","",""
"10399","","survey-text","3","21796","0.0-3.0-0.0","A3TXECGOC6JHBL","","","","{""Q0"":""A3TXECGOC6JHBL""}","","","","","","","","","","","","","","","","","","","","","","",""
"9575","","image-button-response_instructions","4","31372","0.0-4.0","A3TXECGOC6JHBL","","0","instructions","","","","","","","","","","","","","","","","","","","","","","","",""
"24536","","image-button-response_instructions","5","55909","0.0-5.0","A3TXECGOC6JHBL","img_art/ins/popularity/ins1.png","0","instructions","","","","","","","","","","","","","","","","","","","","","","","",""
"7814","","image-button-response_instructions","6","63724","0.0-6.0","A3TXECGOC6JHBL","img_art/ins/popularity/ins2.png","0","instructions","","","","","","","","","","","","","","","","","","","","","","","",""
"2327","","image-button-response_instructions","7","66052","0.0-7.0","A3TXECGOC6JHBL","img_art/ins/popularity/ins2Extreme.png","0","instructions","","","","","","","","","","","","","","","","","","","","","","","",""
"2495","","image-button-response_instructions","8","68548","0.0-8.0","A3TXECGOC6JHBL","img_art/ins/popularity/ins3KEEPpop.PNG","0","instructions","","","","","","","","","","","","","","","","","","","","","","","",""
"3599","","image-button-response_instructions","9","72148","0.0-9.0","A3TXECGOC6JHBL","img_art/ins/popularity/ins3ANamepop.PNG","0","instructions","","","","","","","","","","","","","","","","","","","","","","","",""
"1936","","image-button-response_instructions","10","74085","0.0-10.0","A3TXECGOC6JHBL","img_art/ins/popularity/ins3ARatingpop.png","0","instructions","","","","","","","","","","","","","","","","","","","","","","","",""
"175","","image-button-response_instructions","11","74260","0.0-11.0","A3TXECGOC6JHBL","img_art/ins/popularity/ins3ATextpop.png","0","instructions","","","","","","","","","","","","","","","","","","","","","","","",""
"3599","","image-button-response_instructions","12","77860","0.0-12.0","A3TXECGOC6JHBL","img_art/ins/popularity/ins3ALikespop.png","0","instructions","","","","","","","","","","","","","","","","","","","","","","","",""
"5118","","image-button-response_instructions","13","82980","0.0-13.0","A3TXECGOC6JHBL","img_art/ins/popularity/ins3KEEPpop.PNG","0","instructions","","","","","","","","","","","","","","","","","","","","","","","",""
"3864","","image-button-response_instructions","14","86844","0.0-14.0","A3TXECGOC6JHBL","img_art/ins/popularity/ins3_5RED.png","0","instructions","","","","","","","","","","","","","","","","","","","","","","","",""
"1375","","image-button-response_instructions","15","88220","0.0-15.0","A3TXECGOC6JHBL","img_art/ins/popularity/ins3KEEPpop.PNG","0","instructions","","","","","","","","","","","","","","","","","","","","","","","",""
"2216","","image-button-response_instructions","16","90436","0.0-16.0","A3TXECGOC6JHBL","img_art/ins/popularity/ins4KEEPpop.PNG","0","instructions","","","","","","","","","","","","","","","","","","","","","","","",""
"2248","","image-button-response_instructions","17","92684","0.0-17.0","A3TXECGOC6JHBL","img_art/ins/popularity/ins5KEEPpop.PNG","0","instructions","","","","","","","","","","","","","","","","","","","","","","","",""
"1208","","image-button-response_instructions","18","93892","0.0-18.0","A3TXECGOC6JHBL","","0","instructions","","","","","","","","","","","","","","","","","","","","","","","",""
"6317","","survey-text","19","100228","0.0-19.0-0.0","A3TXECGOC6JHBL","","","","{""Q0"":""but""}","","","","","","","","","","","","","","","","","","","","","","",""
"8407","","survey-text","20","108636","0.0-20.0-0.0","A3TXECGOC6JHBL","","","","{""Q0"":""colorful and messy""}","","","","","","","","","","","","","","","","","","","","","","",""
"11614.100000000093","","image-slider-response","21","120252","0.0-21.0","A3TXECGOC6JHBL","","","","","3","","","","","","","","","","","","","","","","","","","","","",""
"null","","image-button-response","22","125261","0.0-22.0","A3TXECGOC6JHBL","img_art/ins/1.jpg","null","","","","","","","","","","","","","","","","","","","","","","","","",""
"6711","","image-button-response","23","131973","0.0-23.0","A3TXECGOC6JHBL","img_art/ins/1.jpg","4","","","","","","","","","","","","","","","","","","","","","","","","",""
"5942","","image-button-response","24","137917","0.0-24.0-0.0","A3TXECGOC6JHBL","img_art/ins/1.jpg","5","","","","","","","","","","","","","","","","","","","","","","","","",""
"5518","","image-button-response","25","143437","0.0-25.0-0.0","A3TXECGOC6JHBL","img_art/ins/1.jpg","0","","","","","","","","","","","","","","","","","","","","","","","","",""
"null","","html-keyboard-response","26","143941","0.0-26.0","A3TXECGOC6JHBL","<p style=""font-size: 48px;"">+</p>","","","","","null","allTrialResponses","500","1","-2","img_art/ins/1.jpg","3","colorful and messy","Allison,Ashley,Beth,Dora,Erika,Jen","looks like a lot of things going on in the mist,20,20,20","I just don't get why these type of art would be popular,-32,40,20","This color reminds me of poo,-46,60,20","looks like what my niece in 3rd grade did this afternoon,-50,80,20","I like the sophisticated brushwork,40,100,20","It reminds me of a candy land dream I had,36,120,20","Erika","I like the sophisticated brushwork,40,100,20","Jen","It reminds me of a candy land dream I had,36,120,20","Allison","looks like a lot of things going on in the mist,20,20,20","0"
"19769","","survey-text","27","163716","0.0-27.0-0.0","A3TXECGOC6JHBL","","","","{""Q0"":""geometric and vibrant""}","","","","","","","","","","","","","","","","","","","","","","",""
"3502.5999999996275","","image-slider-response","28","167220","0.0-28.0","A3TXECGOC6JHBL","","","","","-8","","","","","","","","","","","","","","","","","","","","","",""
"null","","image-button-response","29","172225","0.0-29.0","A3TXECGOC6JHBL","img_art/ins/2.jpg","null","","","","","","","","","","","","","","","","","","","","","","","","",""
"4113","","image-button-response","30","176341","0.0-30.0","A3TXECGOC6JHBL","img_art/ins/2.jpg","1","","","","","","","","","","","","","","","","","","","","","","","","",""
"4878","","image-button-response","31","181221","0.0-31.0-0.0","A3TXECGOC6JHBL","img_art/ins/2.jpg","5","","","","","","","","","","","","","","","","","","","","","","","","",""
"3438","","image-button-response","32","184661","0.0-32.0-0.0","A3TXECGOC6JHBL","img_art/ins/2.jpg","4","","","","","","","","","","","","","","","","","","","","","","","","",""
"null","","html-keyboard-response","33","185663","0.0-33.0","A3TXECGOC6JHBL","<p style=""font-size: 48px;"">+</p>","","","","","null","allTrialResponses","1000","1","-1","img_art/ins/2.jpg","-8","geometric and vibrant","Allison,Kara,Katie,Jenna,Erika,Jen","I don't have strong feelings about this,10,20,20","I like the blocks of color arrangements,30,160,20","too much color!,-28,180,20","One of my pet peevs,-48,140,20","I would never be able to compose a sophisticated pallete like this,48,100,20","It reminds me of a fireplace,36,120,20","Kara","I like the blocks of color arrangements,30,160,20","Jen","It reminds me of a fireplace,36,120,20","Erika","I would never be able to compose a sophisticated pallete like this,48,100,20","0"
"16527","","survey-text","34","202196","0.0-34.0-0.0","A3TXECGOC6JHBL","","","","{""Q0"":""cold and winter-like""}","","","","","","","","","","","","","","","","","","","","","","",""
"5190.699999999721","","image-slider-response","35","207388","0.0-35.0","A3TXECGOC6JHBL","","","","","-3","","","","","","","","","","","","","","","","","","","","","",""
"4671","","image-button-response","36","212404","0.0-36.0","A3TXECGOC6JHBL","img_art/ins/3.jpg","0","","","","","","","","","","","","","","","","","","","","","","","","",""
"1046","","image-button-response","37","213453","0.0-37.0","A3TXECGOC6JHBL","img_art/ins/3.jpg","1","","","","","","","","","","","","","","","","","","","","","","","","",""
"983","","image-button-response","38","214436","0.0-38.0-0.0","A3TXECGOC6JHBL","img_art/ins/3.jpg","0","","","","","","","","","","","","","","","","","","","","","","","","",""
"1607","","image-button-response","39","216044","0.0-39.0-0.0","A3TXECGOC6JHBL","img_art/ins/3.jpg","0","","","","","","","","","","","","","","","","","","","","","","","","",""
"4943","","image-button-response","40","224220","0.0-39.1-0.1","A3TXECGOC6JHBL","img_art/ins/3.jpg","4","","","","","","","","","","","","","","","","","","","","","","","","",""
"null","","html-keyboard-response","41","225733","0.0-40.0","A3TXECGOC6JHBL","<p style=""font-size: 48px;"">+</p>","","","","","null","allTrialResponses","1500","1","0","img_art/ins/3.jpg","-3","cold and winter-like","Mary,Kara,Rose,Leslie,Erika,Jen","I like the overlapping of brushes,41,220,20","calming blue is very nice,36,160,20","My daily routine, it's depressing,-20,240,20","It's an alright work,15,200,20","I feel connected to the artist,40,100,20","I can feel a rainy day from this painting,18,120,20","Kara","calming blue is very nice,36,160,20","Mary","I like the overlapping of brushes,41,220,20","Erika","I feel connected to the artist,40,100,20","2"
"4586","","image-button-response_instructions","42","230325","0.0-41.0","A3TXECGOC6JHBL","","0","instructions","","","","","","","","","","","","","","","","","","","","","","","",""
"8775","","survey-likert","43","239100","0.0-42.0-0.0","A3TXECGOC6JHBL","","","","{""Q0"":"""",""Q1"":0,""Q2"":1}","","","","","","","","","","","","","","","","","","","","","","",""
"5684","","survey-text","44","244788","0.0-43.0-0.0","A3TXECGOC6JHBL","","","","{""Q0"":""rock""}","","","","","","","","","","","","","","","","","","","","","","",""
"27159","","survey-text","45","271948","0.0-44.0-0.0","A3TXECGOC6JHBL","","","","{""Q0"":""grey and confusing""}","","","","","","","","","","","","","","","","","","","","","","",""
"3742.6999999997206","","image-slider-response","46","275692","0.0-45.0","A3TXECGOC6JHBL","","","","","-37","","","","","","","","","","","","","","","","","","","","","",""
"null","","image-button-response","47","280712","0.0-46.0","A3TXECGOC6JHBL","img_art/28.jpg","null","","","","","","","","","","","","","","","","","","","","","","","","",""
"2898","","image-button-response","48","283612","0.0-47.0","A3TXECGOC6JHBL","img_art/28.jpg","2","","","","","","","","","","","","","","","","","","","","","","","","",""
"5279","","image-button-response","49","288892","0.0-48.0-0.0","A3TXECGOC6JHBL","img_art/28.jpg","4","","","","","","","","","","","","","","","","","","","","","","","","",""
"39","","image-button-response","50","288932","0.0-49.0-0.0","A3TXECGOC6JHBL","img_art/28.jpg","4","","","","","","","","","","","","","","","","","","","","","","","","",""
"3087","","image-button-response","51","295764","0.0-49.1-0.1","A3TXECGOC6JHBL","img_art/28.jpg","5","","","","","","","","","","","","","","","","","","","","","","","","",""
"null","","html-keyboard-response","52","297266","0.0-50.0","A3TXECGOC6JHBL","<p style=""font-size: 48px;"">+</p>","","","","","null","allTrialResponses","1500","1","1","img_art/28.jpg","-37","grey and confusing","Kaitlin,Cassidy,Isabella,Kelsey,Jamie,Caroline","i'm not too impressed with this one.,-10,60,20","Almost looks like child's artwork, sloppy and chaotic,6,140,20","This is also something I would see in a serious but safe environment,14,280,20","this one is rather disturbing,-22,240,20","Gloomy colors and picture,5,320,20","Colors are pleasing. Made me think of two people kneeling and talking. A curious feeling.,15,100,20","Isabella","This is also something I would see in a serious but safe environment,14,280,20","Jamie","Gloomy colors and picture,5,320,20","Caroline","Colors are pleasing. Made me think of two people kneeling and talking. A curious feeling.,15,100,20","4"
"12613","","survey-text","53","309884","0.0-51.0-0.0","A3TXECGOC6JHBL","","","","{""Q0"":""simple and vibrant""}","","","","","","","","","","","","","","","","","","","","","","",""
"3486.6999999997206","","image-slider-response","54","313372","0.0-52.0","A3TXECGOC6JHBL","","","","","-29","","","","","","","","","","","","","","","","","","","","","",""
"4055","","image-button-response","55","318375","0.0-53.0","A3TXECGOC6JHBL","img_art/5.jpg","0","","","","","","","","","","","","","","","","","","","","","","","","",""
"459","","image-button-response","56","318836","0.0-54.0","A3TXECGOC6JHBL","img_art/5.jpg","0","","","","","","","","","","","","","","","","","","","","","","","","",""
"2871","","image-button-response","57","321708","0.0-55.0-0.0","A3TXECGOC6JHBL","img_art/5.jpg","2","","","","","","","","","","","","","","","","","","","","","","","","",""
"5527","","image-button-response","58","327236","0.0-56.0-0.0","A3TXECGOC6JHBL","img_art/5.jpg","3","","","","","","","","","","","","","","","","","","","","","","","","",""
"null","","html-keyboard-response","59","327744","0.0-57.0","A3TXECGOC6JHBL","<p style=""font-size: 48px;"">+</p>","","","","","null","allTrialResponses","500","1","2","img_art/5.jpg","-29","simple and vibrant","Abigail,Madeline,Isabella,Jasmine,Jamie,Caroline","Reminds me of a broken umbrella,-9,20,20","A bit too messy in my eyes,-4,40,20","Seems clean and neat,11,280,20","Not sure what to say about this piece honestly. It's okay I guess.,0,340,20","Don't really see it and yellow/pink don't go well together,-35,320,20","Too much angular things happening, makes me think of stabbing something which makes me uncomfortable,-50,100,20","Abigail","Reminds me of a broken umbrella,-9,20,20","Isabella","Seems clean and neat,11,280,20","Jasmine","Not sure what to say about this piece honestly. It's okay I guess.,0,340,20","4"
"9142","","survey-text","60","336892","0.0-58.0-0.0","A3TXECGOC6JHBL","","","","{""Q0"":""colorful and pleasing""}","","","","","","","","","","","","","","","","","","","","","","",""
"3830.600000000093","","image-slider-response","61","340724","0.0-59.0","A3TXECGOC6JHBL","","","","","18","","","","","","","","","","","","","","","","","","","","","",""
"2479","","image-button-response","62","345726","0.0-60.0","A3TXECGOC6JHBL","img_art/1.jpg","0","","","","","","","","","","","","","","","","","","","","","","","","",""
"492","","image-button-response","63","346220","0.0-61.0","A3TXECGOC6JHBL","img_art/1.jpg","1","","","","","","","","","","","","","","","","","","","","","","","","",""
"1903","","image-button-response","64","348124","0.0-62.0-0.0","A3TXECGOC6JHBL","img_art/1.jpg","2","","","","","","","","","","","","","","","","","","","","","","","","",""
"1167","","image-button-response","65","349292","0.0-63.0-0.0","A3TXECGOC6JHBL","img_art/1.jpg","0","","","","","","","","","","","","","","","","","","","","","","","","",""
"null","","html-keyboard-response","66","350794","0.0-64.0","A3TXECGOC6JHBL","<p style=""font-size: 48px;"">+</p>","","","","","null","allTrialResponses","1500","1","3","img_art/1.jpg","18","colorful and pleasing","Abigail,Mackenzie,Isabella,Jasmine,Angelica,Melissa","I like the warmth of the picture,21,20,20","I like the simple aspect to the design,21,20,20","Warmth of the sun,22,280,20","Too similar to some of the other pieces,-18,340,20","This is ugly with bad colors.,-6,280,20","muddy and uninteresting,-16,240,20","Mackenzie","I like the simple aspect to the design,21,20,20","Isabella","Warmth of the sun,22,280,20","Abigail","I like the warmth of the picture,21,20,20","4"
"15209","","survey-text","67","366012","0.0-65.0-0.0","A3TXECGOC6JHBL","","","","{""Q0"":""flowing and eye catching ""}","","","","","","","","","","","","","","","","","","","","","","",""
"3694.5999999996275","","image-slider-response","68","369708","0.0-66.0","A3TXECGOC6JHBL","","","","","15","","","","","","","","","","","","","","","","","","","","","",""
"3479","","image-button-response","69","374710","0.0-67.0","A3TXECGOC6JHBL","img_art/17.jpg","1","","","","","","","","","","","","","","","","","","","","","","","","",""
"1875","","image-button-response","70","376588","0.0-68.0","A3TXECGOC6JHBL","img_art/17.jpg","2","","","","","","","","","","","","","","","","","","","","","","","","",""
"3463","","image-button-response","71","380052","0.0-69.0-0.0","A3TXECGOC6JHBL","img_art/17.jpg","4","","","","","","","","","","","","","","","","","","","","","","","","",""
"4775","","image-button-response","72","384828","0.0-70.0-0.0","A3TXECGOC6JHBL","img_art/17.jpg","1","","","","","","","","","","","","","","","","","","","","","","","","",""
"null","","html-keyboard-response","73","385830","0.0-71.0","A3TXECGOC6JHBL","<p style=""font-size: 48px;"">+</p>","","","","","null","allTrialResponses","1000","1","4","img_art/17.jpg","15","flowing and eye catching ","Abigail,Mackenzie,Isabella,Kimberly,Heather,Kathryn","Really love the branches. The bottom made it not perfect,42,20,20","Very fun textures,32,20,20","Pleasant fall to winter day,22,280,20","I like the trees, but the doors less so,19,260,20","Beautiful simply beautiful. i would love this,,50,260,20","Reminds me of the modern art museum in Rome. I didn't ""get"" many pieces, but had a positive cultural experience overall.,20,140,20","Isabella","Pleasant fall to winter day,22,280,20","Heather","Beautiful simply beautiful. i would love this,,50,260,20","Mackenzie","Very fun textures,32,20,20","4"
"12989","","survey-text","74","398828","0.0-72.0-0.0","A3TXECGOC6JHBL","","","","{""Q0"":""nature like and calming""}","","","","","","","","","","","","","","","","","","","","","","",""
"4118.5999999996275","","image-slider-response","75","402948","0.0-73.0","A3TXECGOC6JHBL","","","","","23","","","","","","","","","","","","","","","","","","","","","",""
"3646","","image-button-response","76","407949","0.0-74.0","A3TXECGOC6JHBL","img_art/24.jpg","1","","","","","","","","","","","","","","","","","","","","","","","","",""
"1451","","image-button-response","77","409404","0.0-75.0","A3TXECGOC6JHBL","img_art/24.jpg","1","","","","","","","","","","","","","","","","","","","","","","","","",""
"1791","","image-button-response","78","411196","0.0-76.0-0.0","A3TXECGOC6JHBL","img_art/24.jpg","2","","","","","","","","","","","","","","","","","","","","","","","","",""
"2062","","image-button-response","79","413260","0.0-77.0-0.0","A3TXECGOC6JHBL","img_art/24.jpg","4","","","","","","","","","","","","","","","","","","","","","","","","",""
"null","","html-keyboard-response","80","414761","0.0-78.0","A3TXECGOC6JHBL","<p style=""font-size: 48px;"">+</p>","","","","","null","allTrialResponses","1500","1","5","img_art/24.jpg","23","nature like and calming","Mary,Mackenzie,Isabella,Kelly,Heather,Michelle","This is sort of interesting. I think it's a bit busy. Less is more.,3,180,20","I like the vivid colors and different textures,32,20,20","A peaceful day by the river,42,280,20","Cute; I like what the image itself & the colors.,25,220,20","i feel peace and wanting. i love waterfalls,50,260,20","Looks like a waterfall or a brook, the colors are very nice,15,280,20","Mackenzie","I like the vivid colors and different textures,32,20,20","Isabella","A peaceful day by the river,42,280,20","Heather","i feel peace and wanting. i love waterfalls,50,260,20","4"
"4582","","survey-text","81","419347","0.0-79.0-0.0","A3TXECGOC6JHBL","","","","{""Q0"":""sky""}","","","","","","","","","","","","","","","","","","","","","","",""
"18543","","survey-text","82","437892","0.0-80.0-0.0","A3TXECGOC6JHBL","","","","{""Q0"":""reminds me of wooden objects""}","","","","","","","","","","","","","","","","","","","","","","",""
"3911.899999999907","","image-slider-response","83","441804","0.0-81.0","A3TXECGOC6JHBL","","","","","-7","","","","","","","","","","","","","","","","","","","","","",""
"4534","","image-button-response","84","446815","0.0-82.0","A3TXECGOC6JHBL","img_art/4.jpg","2","","","","","","","","","","","","","","","","","","","","","","","","",""
"769","","image-button-response","85","447588","0.0-83.0","A3TXECGOC6JHBL","img_art/4.jpg","2","","","","","","","","","","","","","","","","","","","","","","","","",""
"4926","","image-button-response","86","452516","0.0-84.0-0.0","A3TXECGOC6JHBL","img_art/4.jpg","5","","","","","","","","","","","","","","","","","","","","","","","","",""
"6038","","image-button-response","87","458556","0.0-85.0-0.0","A3TXECGOC6JHBL","img_art/4.jpg","3","","","","","","","","","","","","","","","","","","","","","","","","",""
"null","","html-keyboard-response","88","459059","0.0-86.0","A3TXECGOC6JHBL","<p style=""font-size: 48px;"">+</p>","","","","","null","allTrialResponses","500","1","6","img_art/4.jpg","-7","reminds me of wooden objects","Hannah,Mackenzie,Isabella,Brittany,Heather,Molly","looks very rudimentary and too simple.,-14,240,20","I don't enjoy the colors, or texture, it seems like mustard,-23,20,20","Looks like a creative hand,45,280,20","Rather boring design and colors.,-21,40,20","looks like an award from an award show.,22,260,20","Not bad at all.,20,340,20","Isabella","Looks like a creative hand,45,280,20","Molly","Not bad at all.,20,340,20","Brittany","Rather boring design and colors.,-21,40,20","4"
"19003","","survey-text","89","478068","0.0-87.0-0.0","A3TXECGOC6JHBL","","","","{""Q0"":""geometric scene from a village""}","","","","","","","","","","","","","","","","","","","","","","",""
"4886.600000000093","","image-slider-response","90","482956","0.0-88.0","A3TXECGOC6JHBL","","","","","1","","","","","","","","","","","","","","","","","","","","","",""
"4734","","image-button-response","91","487958","0.0-89.0","A3TXECGOC6JHBL","img_art/8.jpg","0","","","","","","","","","","","","","","","","","","","","","","","","",""
"947","","image-button-response","92","488908","0.0-90.0","A3TXECGOC6JHBL","img_art/8.jpg","0","","","","","","","","","","","","","","","","","","","","","","","","",""
"3590","","image-button-response","93","492500","0.0-91.0-0.0","A3TXECGOC6JHBL","img_art/8.jpg","1","","","","","","","","","","","","","","","","","","","","","","","","",""
"3662","","image-button-response","94","496164","0.0-92.0-0.0","A3TXECGOC6JHBL","img_art/8.jpg","3","","","","","","","","","","","","","","","","","","","","","","","","",""
"null","","html-keyboard-response","95","496670","0.0-93.0","A3TXECGOC6JHBL","<p style=""font-size: 48px;"">+</p>","","","","","null","allTrialResponses","500","1","7","img_art/8.jpg","1","geometric scene from a village","Amy,Megan,Isabella,Brittany,Sarah,Molly","The definition and the colors give make this painting accessible and thought provoking.,30,220,20","Cortez's influence with fair color choices,10,200,20","Ancient city looked after by diety,38,280,20","Interesting to look at, there are many things happening in the painting.,32,40,20","it's interesting but i don't enjoy the style,-5,180,20","Different styles make this picture outstanding.,20,340,20","Amy","The definition and the colors give make this painting accessible and thought provoking.,30,220,20","Megan","Cortez's influence with fair color choices,10,200,20","Brittany","Interesting to look at, there are many things happening in the painting.,32,40,20","4"
"15671","","survey-text","96","512348","0.0-94.0-0.0","A3TXECGOC6JHBL","","","","{""Q0"":""looks like a voyage on a ship""}","","","","","","","","","","","","","","","","","","","","","","",""
"3894.7999999998137","","image-slider-response","97","516244","0.0-95.0","A3TXECGOC6JHBL","","","","","-9","","","","","","","","","","","","","","","","","","","","","",""
"null","","image-button-response","98","521246","0.0-96.0","A3TXECGOC6JHBL","img_art/18.jpg","null","","","","","","","","","","","","","","","","","","","","","","","","",""
"338","","image-button-response","99","521588","0.0-97.0","A3TXECGOC6JHBL","img_art/18.jpg","1","","","","","","","","","","","","","","","","","","","","","","","","",""
"2183","","image-button-response","100","523772","0.0-98.0-0.0","A3TXECGOC6JHBL","img_art/18.jpg","2","","","","","","","","","","","","","","","","","","","","","","","","",""
"3199","","image-button-response","101","526973","0.0-99.0-0.0","A3TXECGOC6JHBL","img_art/18.jpg","3","","","","","","","","","","","","","","","","","","","","","","","","",""
"null","","html-keyboard-response","102","527474","0.0-100.0","A3TXECGOC6JHBL","<p style=""font-size: 48px;"">+</p>","","","","","null","allTrialResponses","500","1","8","img_art/18.jpg","-9","looks like a voyage on a ship","Amy,Megan,Erica,Brittany,Cheyenne,Briana","So much going on. Frightening and tumultous, brave and inspiring. I'd like to spend the rest of my life interpreting it.,30,220,20","Nice palette with complexity becoming nice at the center,34,200,20","Makes me to look at it and investigate what it is about and what is going on,17,80,20","This is really interesting to look at. I like the colors and the spectral look.,27,40,20","Too abstract to me,-30,200,20","Two people fighting with one watching,17,400,20","Megan","Nice palette with complexity becoming nice at the center,34,200,20","Erica","Makes me to look at it and investigate what it is about and what is going on,17,80,20","Brittany","This is really interesting to look at. I like the colors and the spectral look.,27,40,20","4"
"16215","","survey-text","103","543692","0.0-101.0-0.0","A3TXECGOC6JHBL","","","","{""Q0"":""I like the contrasting colors from top to bottom""}","","","","","","","","","","","","","","","","","","","","","","",""
"3047.100000000093","","image-slider-response","104","546740","0.0-102.0","A3TXECGOC6JHBL","","","","","6","","","","","","","","","","","","","","","","","","","","","",""
"4815","","image-button-response","105","551756","0.0-103.0","A3TXECGOC6JHBL","img_art/12.jpg","2","","","","","","","","","","","","","","","","","","","","","","","","",""
"873","","image-button-response","106","552629","0.0-104.0","A3TXECGOC6JHBL","img_art/12.jpg","2","","","","","","","","","","","","","","","","","","","","","","","","",""
"1950","","image-button-response","107","554581","0.0-105.0-0.0","A3TXECGOC6JHBL","img_art/12.jpg","4","","","","","","","","","","","","","","","","","","","","","","","","",""
"7614","","image-button-response","108","562197","0.0-106.0-0.0","A3TXECGOC6JHBL","img_art/12.jpg","3","","","","","","","","","","","","","","","","","","","","","","","","",""
"null","","html-keyboard-response","109","563199","0.0-107.0","A3TXECGOC6JHBL","<p style=""font-size: 48px;"">+</p>","","","","","null","allTrialResponses","1000","1","9","img_art/12.jpg","6","I like the contrasting colors from top to bottom","Kristen,Megan,Erica,Brittany,Kylie,Makayla","stressful, upsetting,-10,280,20","Blocky windowed, safe and selfish,-41,200,20","good colours scheme; organised,17,80,20","Too blocky and not interesting enough.,-15,40,20","Night and day, light and dark,35,300,20","Reminds me Early 2000's decor, don't favor it,-10,80,20","Erica","good colours scheme; organised,17,80,20","Kylie","Night and day, light and dark,35,300,20","Brittany","Too blocky and not interesting enough.,-15,40,20","4"
"25800","","survey-text","110","589004","0.0-108.0-0.0","A3TXECGOC6JHBL","","","","{""Q0"":""rather depressing and dark""}","","","","","","","","","","","","","","","","","","","","","","",""
"4031","","image-slider-response","111","593036","0.0-109.0","A3TXECGOC6JHBL","","","","","-40","","","","","","","","","","","","","","","","","","","","","",""
"null","","image-button-response","112","598038","0.0-110.0","A3TXECGOC6JHBL","img_art/20.jpg","null","","","","","","","","","","","","","","","","","","","","","","","","",""
"277","","image-button-response","113","598316","0.0-111.0","A3TXECGOC6JHBL","img_art/20.jpg","3","","","","","","","","","","","","","","","","","","","","","","","","",""
"4527","","image-button-response","114","602844","0.0-112.0-0.0","A3TXECGOC6JHBL","img_art/20.jpg","5","","","","","","","","","","","","","","","","","","","","","","","","",""
"3983","","image-button-response","115","606828","0.0-113.0-0.0","A3TXECGOC6JHBL","img_art/20.jpg","0","","","","","","","","","","","","","","","","","","","","","","","","",""
"null","","html-keyboard-response","116","608330","0.0-114.0","A3TXECGOC6JHBL","<p style=""font-size: 48px;"">+</p>","","","","","null","allTrialResponses","1500","1","10","img_art/20.jpg","-40","rather depressing and dark","Lauren,Madison,Erica,Brittany,Kylie,Sabrina","I like how the image is depicting a scene.,10,340,20","This is not abstract art, it is representative.,0,60,20","looks like an auto accident,-30,80,20","The colors and the scene depicted is interesting.,13,40,20","City life vs shore life,40,300,20","I love the way it expresses dark nature and uncontrolled situations.,44,120,20","Brittany","The colors and the scene depicted is interesting.,13,40,20","Sabrina","I love the way it expresses dark nature and uncontrolled situations.,44,120,20","Lauren","I like how the image is depicting a scene.,10,340,20","4"
"4633","","survey-text","117","612980","0.0-115.0-0.0","A3TXECGOC6JHBL","","","","{""Q0"":""our""}","","","","","","","","","","","","","","","","","","","","","","",""
"18583","","survey-text","118","631564","0.0-116.0-0.0","A3TXECGOC6JHBL","","","","{""Q0"":""reminds me of flowers in a field""}","","","","","","","","","","","","","","","","","","","","","","",""
"3342.5999999996275","","image-slider-response","119","634908","0.0-117.0","A3TXECGOC6JHBL","","","","","10","","","","","","","","","","","","","","","","","","","","","",""
"4487","","image-button-response","120","639916","0.0-118.0","A3TXECGOC6JHBL","img_art/27.jpg","1","","","","","","","","","","","","","","","","","","","","","","","","",""
"1982","","image-button-response","121","641900","0.0-119.0","A3TXECGOC6JHBL","img_art/27.jpg","1","","","","","","","","","","","","","","","","","","","","","","","","",""
"2335","","image-button-response","122","644236","0.0-120.0-0.0","A3TXECGOC6JHBL","img_art/27.jpg","3","","","","","","","","","","","","","","","","","","","","","","","","",""
"1967","","image-button-response","123","646204","0.0-121.0-0.0","A3TXECGOC6JHBL","img_art/27.jpg","4","","","","","","","","","","","","","","","","","","","","","","","","",""
"null","","html-keyboard-response","124","646706","0.0-122.0","A3TXECGOC6JHBL","<p style=""font-size: 48px;"">+</p>","","","","","null","allTrialResponses","500","1","11","img_art/27.jpg","10","reminds me of flowers in a field","Lauren,Elizabeth,Savannah,Brittany,Ashley,Sabrina","Not a fan of the green; gives off the impression that someone else drew on it.,-20,340,20","Like the abstractness of this picture,20,20,20","An abstract piece with such lifeless colors.,-26,200,20","The colors are put together in an interesting way.,-9,40,20","Lots of activity, layers, imagination at work here.,29,320,20","Love the representation of home,22,120,20","Elizabeth","Like the abstractness of this picture,20,20,20","Brittany","The colors are put together in an interesting way.,-9,40,20","Ashley","Lots of activity, layers, imagination at work here.,29,320,20","4"
"17816","","survey-text","125","664524","0.0-123.0-0.0","A3TXECGOC6JHBL","","","","{""Q0"":""I like the contrasting bright and cool colors ""}","","","","","","","","","","","","","","","","","","","","","","",""
"3278.7000000001863","","image-slider-response","126","667804","0.0-124.0","A3TXECGOC6JHBL","","","","","5","","","","","","","","","","","","","","","","","","","","","",""
"3495","","image-button-response","127","672807","0.0-125.0","A3TXECGOC6JHBL","img_art/21.jpg","1","","","","","","","","","","","","","","","","","","","","","","","","",""
"2323","","image-button-response","128","675132","0.0-126.0","A3TXECGOC6JHBL","img_art/21.jpg","1","","","","","","","","","","","","","","","","","","","","","","","","",""
"1991","","image-button-response","129","677124","0.0-127.0-0.0","A3TXECGOC6JHBL","img_art/21.jpg","3","","","","","","","","","","","","","","","","","","","","","","","","",""
"3839","","image-button-response","130","680964","0.0-128.0-0.0","A3TXECGOC6JHBL","img_art/21.jpg","5","","","","","","","","","","","","","","","","","","","","","","","","",""
"null","","html-keyboard-response","131","681471","0.0-129.0","A3TXECGOC6JHBL","<p style=""font-size: 48px;"">+</p>","","","","","null","allTrialResponses","500","1","12","img_art/21.jpg","5","I like the contrasting bright and cool colors ","Sophia,Elizabeth,Mikayla,Brittany,Ashley,Kaylee","Indifferent toward this one.,6,280,20","Touches the heart,50,20,20","Nothing exciting in this one.,-36,300,20","Alright. I like the colors.,5,40,20","Disturbing, land meets ocean, lvoely really.,43,320,20","looks like a sea during some war,27,200,20","Elizabeth","Touches the heart,50,20,20","Brittany","Alright. I like the colors.,5,40,20","Kaylee","looks like a sea during some war,27,200,20","4"
"22040","","survey-text","132","703516","0.0-130.0-0.0","A3TXECGOC6JHBL","","","","{""Q0"":""I like the prominent green although too abstract""}","","","","","","","","","","","","","","","","","","","","","","",""
"2814.5999999996275","","image-slider-response","133","706332","0.0-131.0","A3TXECGOC6JHBL","","","","","3","","","","","","","","","","","","","","","","","","","","","",""
"3806","","image-button-response","134","711334","0.0-132.0","A3TXECGOC6JHBL","img_art/2.jpg","1","","","","","","","","","","","","","","","","","","","","","","","","",""
"618","","image-button-response","135","711956","0.0-133.0","A3TXECGOC6JHBL","img_art/2.jpg","1","","","","","","","","","","","","","","","","","","","","","","","","",""
"2566","","image-button-response","136","714524","0.0-134.0-0.0","A3TXECGOC6JHBL","img_art/2.jpg","3","","","","","","","","","","","","","","","","","","","","","","","","",""
"2462","","image-button-response","137","716988","0.0-135.0-0.0","A3TXECGOC6JHBL","img_art/2.jpg","4","","","","","","","","","","","","","","","","","","","","","","","","",""
"null","","html-keyboard-response","138","718490","0.0-136.0","A3TXECGOC6JHBL","<p style=""font-size: 48px;"">+</p>","","","","","null","allTrialResponses","1500","1","13","img_art/2.jpg","3","I like the prominent green although too abstract","Caitlin,Elizabeth,Meghan,Brittany,Lindsey,Kaylee","Have now advanced from kindergarten to the first grade.,-5,80,20","Good color pallette,12,20,20","looks like a child's artwork,-40,220,20","This one feels rather flat and not engaging.,-15,40,20","Not a fan of the colors or the style.,-31,400,20","its ugly af to be honest,-50,200,20","Elizabeth","Good color pallette,12,20,20","Brittany","This one feels rather flat and not engaging.,-15,40,20","Lindsey","Not a fan of the colors or the style.,-31,400,20","4"
"13851","","survey-text","139","732348","0.0-137.0-0.0","A3TXECGOC6JHBL","","","","{""Q0"":""It reminds me of an angry animal ""}","","","","","","","","","","","","","","","","","","","","","","",""
"3430.7999999998137","","image-slider-response","140","735780","0.0-138.0","A3TXECGOC6JHBL","","","","","-26","","","","","","","","","","","","","","","","","","","","","",""
"null","","image-button-response","141","740782","0.0-139.0","A3TXECGOC6JHBL","img_art/9.jpg","null","","","","","","","","","","","","","","","","","","","","","","","","",""
"978","","image-button-response","142","741764","0.0-140.0","A3TXECGOC6JHBL","img_art/9.jpg","0","","","","","","","","","","","","","","","","","","","","","","","","",""
"8118","","image-button-response","143","749884","0.0-141.0-0.0","A3TXECGOC6JHBL","img_art/9.jpg","5","","","","","","","","","","","","","","","","","","","","","","","","",""
"1430","","image-button-response","144","751316","0.0-142.0-0.0","A3TXECGOC6JHBL","img_art/9.jpg","3","","","","","","","","","","","","","","","","","","","","","","","","",""
"null","","html-keyboard-response","145","752817","0.0-143.0","A3TXECGOC6JHBL","<p style=""font-size: 48px;"">+</p>","","","","","null","allTrialResponses","1500","1","14","img_art/9.jpg","-26","It reminds me of an angry animal ","Shannon,Elizabeth,Andrea,Brittany,Lindsey,Brooke","This looks like someone sleeping in a bed, and I think the colors make it look interesting.,20,220,20","Love the uniqueness,21,20,20","Sleeping woman in a cave. Makes me feel safe.,20,240,20","It reminds me of an illustration for a fairy tale.,19,40,20","Looks like my niece's doodles.,-50,400,20","Dark fantasy seaside cave carnival? Fun.,15,60,20","Shannon","This looks like someone sleeping in a bed, and I think the colors make it look interesting.,20,220,20","Brooke","Dark fantasy seaside cave carnival? Fun.,15,60,20","Brittany","It reminds me of an illustration for a fairy tale.,19,40,20","4"
"18712","","survey-text","146","771531","0.0-144.0-0.0","A3TXECGOC6JHBL","","","","{""Q0"":""busy city life""}","","","","","","","","","","","","","","","","","","","","","","",""
"3015.4000000003725","","image-slider-response","147","774548","0.0-145.0","A3TXECGOC6JHBL","","","","","-2","","","","","","","","","","","","","","","","","","","","","",""
"4110","","image-button-response","148","779555","0.0-146.0","A3TXECGOC6JHBL","img_art/19.jpg","1","","","","","","","","","","","","","","","","","","","","","","","","",""
"782","","image-button-response","149","780340","0.0-147.0","A3TXECGOC6JHBL","img_art/19.jpg","1","","","","","","","","","","","","","","","","","","","","","","","","",""
"3551","","image-button-response","150","783892","0.0-148.0-0.0","A3TXECGOC6JHBL","img_art/19.jpg","4","","","","","","","","","","","","","","","","","","","","","","","","",""
"3271","","image-button-response","151","787164","0.0-149.0-0.0","A3TXECGOC6JHBL","img_art/19.jpg","5","","","","","","","","","","","","","","","","","","","","","","","","",""
"null","","html-keyboard-response","152","788666","0.0-150.0","A3TXECGOC6JHBL","<p style=""font-size: 48px;"">+</p>","","","","","null","allTrialResponses","1500","1","15","img_art/19.jpg","-2","busy city life","Shannon,Emma,Paige,Brittany,Claire,Brooke","This looks like a bunch of weird blobs and the colors don't go great together.,-10,220,20","Interesting, leaves you wondering what it is,40,60,20","it's too busy for me. Makes me feel stressed.,1,60,20","It looks too much of a rough sketch. Don't really enjoy looking at it.,-9,40,20","way too much going on,-33,260,20","Snowy winter scene,25,60,20","Emma","Interesting, leaves you wondering what it is,40,60,20","Claire","way too much going on,-33,260,20","Brooke","Snowy winter scene,25,60,20","4"
"5178","","survey-text","153","793852","0.0-151.0-0.0","A3TXECGOC6JHBL","","","","{""Q0"":""course""}","","","","","","","","","","","","","","","","","","","","","","",""
"17743","","survey-text","154","811596","0.0-152.0-0.0","A3TXECGOC6JHBL","","","","{""Q0"":""looks like mud or dirt on the road""}","","","","","","","","","","","","","","","","","","","","","","",""
"4014.7999999998137","","image-slider-response","155","815612","0.0-153.0","A3TXECGOC6JHBL","","","","","-43","","","","","","","","","","","","","","","","","","","","","",""
"4167","","image-button-response","156","820614","0.0-154.0","A3TXECGOC6JHBL","img_art/29.jpg","1","","","","","","","","","","","","","","","","","","","","","","","","",""
"548","","image-button-response","157","821164","0.0-155.0","A3TXECGOC6JHBL","img_art/29.jpg","1","","","","","","","","","","","","","","","","","","","","","","","","",""
"1863","","image-button-response","158","823028","0.0-156.0-0.0","A3TXECGOC6JHBL","img_art/29.jpg","2","","","","","","","","","","","","","","","","","","","","","","","","",""
"3367","","image-button-response","159","826397","0.0-157.0-0.0","A3TXECGOC6JHBL","img_art/29.jpg","4","","","","","","","","","","","","","","","","","","","","","","","","",""
"null","","html-keyboard-response","160","826906","0.0-158.0","A3TXECGOC6JHBL","<p style=""font-size: 48px;"">+</p>","","","","","null","allTrialResponses","500","1","16","img_art/29.jpg","-43","looks like mud or dirt on the road","Morgan,Emma,Brianna,Laura,Claire,Brooke","Tested and failed a lot of ideas.,-20,380,20","Feels messy, stressful,-22,60,20","It has a red X on there, and x's mean bad in my perspective,-29,20,20","this is not art to me - it's random collage,-45,320,20","interesting, but I wouldn't put it on my wall,8,260,20","Lines and light are clean but subject doesn't interest me,0,60,20","Emma","Feels messy, stressful,-22,60,20","Brianna","It has a red X on there, and x's mean bad in my perspective,-29,20,20","Claire","interesting, but I wouldn't put it on my wall,8,260,20","4"
"25532","","survey-text","161","852444","0.0-159.0-0.0","A3TXECGOC6JHBL","","","","{""Q0"":""it looks very abstract""}","","","","","","","","","","","","","","","","","","","","","","",""
"3958.600000000559","","image-slider-response","162","856404","0.0-160.0","A3TXECGOC6JHBL","","","","","-9","","","","","","","","","","","","","","","","","","","","","",""
"4480","","image-button-response","163","861413","0.0-161.0","A3TXECGOC6JHBL","img_art/14.jpg","0","","","","","","","","","","","","","","","","","","","","","","","","",""
"1749","","image-button-response","164","863165","0.0-162.0","A3TXECGOC6JHBL","img_art/14.jpg","2","","","","","","","","","","","","","","","","","","","","","","","","",""
"2214","","image-button-response","165","865381","0.0-163.0-0.0","A3TXECGOC6JHBL","img_art/14.jpg","1","","","","","","","","","","","","","","","","","","","","","","","","",""
"5478","","image-button-response","166","870861","0.0-164.0-0.0","A3TXECGOC6JHBL","img_art/14.jpg","4","","","","","","","","","","","","","","","","","","","","","","","","",""
"null","","html-keyboard-response","167","871367","0.0-165.0","A3TXECGOC6JHBL","<p style=""font-size: 48px;"">+</p>","","","","","null","allTrialResponses","500","1","17","img_art/14.jpg","-9","it looks very abstract","Alexis,Emma,Brianna,Diana,Claire,Sydney","Don't like the colors on this. Too simple,-20,100,20","Don't love it.,-10,60,20","It uses interesting techniques on this picture, but I have no feelings for or against.,1,20,20","This piece feels inviting. It's like opening up the pages of your favorite book for the first time.,26,380,20","mythical and nature like,37,260,20","I'm imagining a flower bouquet with pretty colors which I like.,35,320,20","Brianna","It uses interesting techniques on this picture, but I have no feelings for or against.,1,20,20","Emma","Don't love it.,-10,60,20","Claire","mythical and nature like,37,260,20","4"
"19752","","survey-text","168","891123","0.0-166.0-0.0","A3TXECGOC6JHBL","","","","{""Q0"":""I don't see how the teddy bear fits in with the rest of it""}","","","","","","","","","","","","","","","","","","","","","","",""
"3766.7999999998137","","image-slider-response","169","894891","0.0-167.0","A3TXECGOC6JHBL","","","","","-50","","","","","","","","","","","","","","","","","","","","","",""
"4238","","image-button-response","170","899894","0.0-168.0","A3TXECGOC6JHBL","img_art/16.jpg","1","","","","","","","","","","","","","","","","","","","","","","","","",""
"650","","image-button-response","171","900548","0.0-169.0","A3TXECGOC6JHBL","img_art/16.jpg","1","","","","","","","","","","","","","","","","","","","","","","","","",""
"6760","","image-button-response","172","907308","0.0-170.0-0.0","A3TXECGOC6JHBL","img_art/16.jpg","3","","","","","","","","","","","","","","","","","","","","","","","","",""
"5230","","image-button-response","173","912540","0.0-171.0-0.0","A3TXECGOC6JHBL","img_art/16.jpg","2","","","","","","","","","","","","","","","","","","","","","","","","",""
"null","","html-keyboard-response","174","913542","0.0-172.0","A3TXECGOC6JHBL","<p style=""font-size: 48px;"">+</p>","","","","","null","allTrialResponses","1000","1","18","img_art/16.jpg","-50","I don't see how the teddy bear fits in with the rest of it","Alexandria,Emma,Brianna,Leah,Claire,Victoria","while simple, it seems to have a deeper meaning on childhood,33,80,20","Kind of creepyyyyyy,-41,60,20","It is interesting to say the least,0,20,20","Know it is a piece relating to children and gun violence. Sad,-30,360,20","the materials used are interesting,30,260,20","liked the bear, nothing else made sense,10,400,20","Emma","Kind of creepyyyyyy,-41,60,20","Leah","Know it is a piece relating to children and gun violence. Sad,-30,360,20","Brianna","It is interesting to say the least,0,20,20","4"
"15747","","survey-text","175","929292","0.0-173.0-0.0","A3TXECGOC6JHBL","","","","{""Q0"":""i like the brightness and color in this""}","","","","","","","","","","","","","","","","","","","","","","",""
"3902.7000000001863","","image-slider-response","176","933196","0.0-174.0","A3TXECGOC6JHBL","","","","","12","","","","","","","","","","","","","","","","","","","","","",""
"4886","","image-button-response","177","938211","0.0-175.0","A3TXECGOC6JHBL","img_art/22.jpg","1","","","","","","","","","","","","","","","","","","","","","","","","",""
"815","","image-button-response","178","939028","0.0-176.0","A3TXECGOC6JHBL","img_art/22.jpg","1","","","","","","","","","","","","","","","","","","","","","","","","",""
"3519","","image-button-response","179","942548","0.0-177.0-0.0","A3TXECGOC6JHBL","img_art/22.jpg","4","","","","","","","","","","","","","","","","","","","","","","","","",""
"2942","","image-button-response","180","945492","0.0-178.0-0.0","A3TXECGOC6JHBL","img_art/22.jpg","3","","","","","","","","","","","","","","","","","","","","","","","","",""
"null","","html-keyboard-response","181","946495","0.0-179.0","A3TXECGOC6JHBL","<p style=""font-size: 48px;"">+</p>","","","","","null","allTrialResponses","1000","1","19","img_art/22.jpg","12","i like the brightness and color in this","Chelsea,Emma,Brianna,Leah,Haley,Anna","The colors clash, and I don't know what is happening.,-23,180,20","Love the use of color,50,60,20","Like the black key and the rainbow color theme.,31,20,20","Pretty colors but too blocky for me,-19,360,20","Beautiful. I love the color contrast and gradients.,50,220,20","Boring, typical abstract art,-30,300,20","Emma","Love the use of color,50,60,20","Haley","Beautiful. I love the color contrast and gradients.,50,220,20","Leah","Pretty colors but too blocky for me,-19,360,20","4"
"14201","","survey-text","182","960700","0.0-180.0-0.0","A3TXECGOC6JHBL","","","","{""Q0"":""I like the blue shades""}","","","","","","","","","","","","","","","","","","","","","","",""
"3830.5999999996275","","image-slider-response","183","964532","0.0-181.0","A3TXECGOC6JHBL","","","","","8","","","","","","","","","","","","","","","","","","","","","",""
"4198","","image-button-response","184","969533","0.0-182.0","A3TXECGOC6JHBL","img_art/13.jpg","1","","","","","","","","","","","","","","","","","","","","","","","","",""
"237","","image-button-response","185","969772","0.0-183.0","A3TXECGOC6JHBL","img_art/13.jpg","1","","","","","","","","","","","","","","","","","","","","","","","","",""
"1462","","image-button-response","186","971236","0.0-184.0-0.0","A3TXECGOC6JHBL","img_art/13.jpg","2","","","","","","","","","","","","","","","","","","","","","","","","",""
"3118","","image-button-response","187","974356","0.0-185.0-0.0","A3TXECGOC6JHBL","img_art/13.jpg","3","","","","","","","","","","","","","","","","","","","","","","","","",""
"null","","html-keyboard-response","188","975358","0.0-186.0","A3TXECGOC6JHBL","<p style=""font-size: 48px;"">+</p>","","","","","null","allTrialResponses","1000","1","20","img_art/13.jpg","8","I like the blue shades","Alexa,Emma,Autumn,Leah,Haley,Erika","This looks like a staple bedroom or bathroom piece,41,40,20","It's pretty ...........,41,60,20","Nice color abstractions.,21,340,20","Like it a lot, reminds me of rainy day on glass,43,360,20","Nothing about this stands out to me,-10,220,20","Gorgeous contrast and color choice, very pleasing,50,100,20","Emma","It's pretty ...........,41,60,20","Autumn","Nice color abstractions.,21,340,20","Leah","Like it a lot, reminds me of rainy day on glass,43,360,20","4"
"4123","","survey-text","189","979500","0.0-187.0-0.0","A3TXECGOC6JHBL","","","","{""Q0"":""we""}","","","","","","","","","","","","","","","","","","","","","","",""
"20127","","survey-text","190","999628","0.0-188.0-0.0","A3TXECGOC6JHBL","","","","{""Q0"":""It looks like toothpaste smears on a mirror""}","","","","","","","","","","","","","","","","","","","","","","",""
"4206.700000000186","","image-slider-response","191","1003836","0.0-189.0","A3TXECGOC6JHBL","","","","","-30","","","","","","","","","","","","","","","","","","","","","",""
"4679","","image-button-response","192","1008839","0.0-190.0","A3TXECGOC6JHBL","img_art/30.jpg","2","","","","","","","","","","","","","","","","","","","","","","","","",""
"580","","image-button-response","193","1009420","0.0-191.0","A3TXECGOC6JHBL","img_art/30.jpg","2","","","","","","","","","","","","","","","","","","","","","","","","",""
"2294","","image-button-response","194","1011716","0.0-192.0-0.0","A3TXECGOC6JHBL","img_art/30.jpg","4","","","","","","","","","","","","","","","","","","","","","","","","",""
"5190","","image-button-response","195","1016908","0.0-193.0-0.0","A3TXECGOC6JHBL","img_art/30.jpg","1","","","","","","","","","","","","","","","","","","","","","","","","",""
"null","","html-keyboard-response","196","1017910","0.0-194.0","A3TXECGOC6JHBL","<p style=""font-size: 48px;"">+</p>","","","","","null","allTrialResponses","1000","1","21","img_art/30.jpg","-30","It looks like toothpaste smears on a mirror","Cynthia,Emma,Autumn,Leah,Gabrielle,Destiny","fun and imaginative,12,320,20","Like the design, not a big fan of the colors,20,60,20","Absolutely messy,-31,340,20","Interesting, almost an underworld of plant life,11,360,20","looks very childish, like your kid did it,-33,160,20","literally stupid I made this with as seen on tv products when I was 7,-42,360,20","Autumn","Absolutely messy,-31,340,20","Gabrielle","looks very childish, like your kid did it,-33,160,20","Emma","Like the design, not a big fan of the colors,20,60,20","4"
"15859","","survey-text","197","1033780","0.0-195.0-0.0","A3TXECGOC6JHBL","","","","{""Q0"":""I like the vibrant and colorful background""}","","","","","","","","","","","","","","","","","","","","","","",""
"3382.9000000003725","","image-slider-response","198","1037164","0.0-196.0","A3TXECGOC6JHBL","","","","","6","","","","","","","","","","","","","","","","","","","","","",""
"4054","","image-button-response","199","1042166","0.0-197.0","A3TXECGOC6JHBL","img_art/23.jpg","1","","","","","","","","","","","","","","","","","","","","","","","","",""
"299","","image-button-response","200","1042468","0.0-198.0","A3TXECGOC6JHBL","img_art/23.jpg","1","","","","","","","","","","","","","","","","","","","","","","","","",""
"1263","","image-button-response","201","1043732","0.0-199.0-0.0","A3TXECGOC6JHBL","img_art/23.jpg","2","","","","","","","","","","","","","","","","","","","","","","","","",""
"5758","","image-button-response","202","1049492","0.0-200.0-0.0","A3TXECGOC6JHBL","img_art/23.jpg","4","","","","","","","","","","","","","","","","","","","","","","","","",""
"null","","html-keyboard-response","203","1050493","0.0-201.0","A3TXECGOC6JHBL","<p style=""font-size: 48px;"">+</p>","","","","","null","allTrialResponses","1000","1","22","img_art/23.jpg","6","I like the vibrant and colorful background","Bailey,Emma,Autumn,Erin,Gabrielle,Amanda","Not a fan of these dot pieces. They hurt my eyes.,-25,360,20","Love the use of colors and light,50,60,20","Awesome abstraction love it.,30,340,20","Confetti dancer,-7,120,20","it's OK, but just OK, kind of interesting but I wouldn't spend money on it,4,160,20","One of my favorites, love the colors and how the white looks like humans,50,180,20","Emma","Love the use of colors and light,50,60,20","Autumn","Awesome abstraction love it.,30,340,20","Gabrielle","it's OK, but just OK, kind of interesting but I wouldn't spend money on it,4,160,20","4"
"20687","","survey-text","204","1071188","0.0-202.0-0.0","A3TXECGOC6JHBL","","","","{""Q0"":""this looks like a calming city landscape""}","","","","","","","","","","","","","","","","","","","","","","",""
"4231.5999999996275","","image-slider-response","205","1075421","0.0-203.0","A3TXECGOC6JHBL","","","","","13","","","","","","","","","","","","","","","","","","","","","",""
"4934","","image-button-response","206","1080422","0.0-204.0","A3TXECGOC6JHBL","img_art/26.jpg","0","","","","","","","","","","","","","","","","","","","","","","","","",""
"699","","image-button-response","207","1081124","0.0-205.0","A3TXECGOC6JHBL","img_art/26.jpg","0","","","","","","","","","","","","","","","","","","","","","","","","",""
"2479","","image-button-response","208","1083604","0.0-206.0-0.0","A3TXECGOC6JHBL","img_art/26.jpg","3","","","","","","","","","","","","","","","","","","","","","","","","",""
"2286","","image-button-response","209","1085892","0.0-207.0-0.0","A3TXECGOC6JHBL","img_art/26.jpg","4","","","","","","","","","","","","","","","","","","","","","","","","",""
"null","","html-keyboard-response","210","1086893","0.0-208.0","A3TXECGOC6JHBL","<p style=""font-size: 48px;"">+</p>","","","","","null","allTrialResponses","1000","1","23","img_art/26.jpg","13","this looks like a calming city landscape","Tiffany,Emma,Autumn,Sierra,Gabrielle,Jennifer","It is very relaxing to look at, almost a relief.,21,360,20","Looks unfinished,-31,60,20","Murky, messy, kid like.,-45,340,20","soothing and subtle,1,260,20","subtle use of colors, city street view?,8,160,20","This picture doesn't really stand out.,0,380,20","Tiffany","It is very relaxing to look at, almost a relief.,21,360,20","Sierra","soothing and subtle,1,260,20","Gabrielle","subtle use of colors, city street view?,8,160,20","4"
"18299","","survey-text","211","1105196","0.0-209.0-0.0","A3TXECGOC6JHBL","","","","{""Q0"":""It looks like a bird standing on a solitary beach""}","","","","","","","","","","","","","","","","","","","","","","",""
"4246.700000000186","","image-slider-response","212","1109444","0.0-210.0","A3TXECGOC6JHBL","","","","","-17","","","","","","","","","","","","","","","","","","","","","",""
"null","","image-button-response","213","1114457","0.0-211.0","A3TXECGOC6JHBL","img_art/6.jpg","null","","","","","","","","","","","","","","","","","","","","","","","","",""
"1490","","image-button-response","214","1115948","0.0-212.0","A3TXECGOC6JHBL","img_art/6.jpg","0","","","","","","","","","","","","","","","","","","","","","","","","",""
"166","","image-button-response","215","1116116","0.0-213.0-0.0","A3TXECGOC6JHBL","img_art/6.jpg","0","","","","","","","","","","","","","","","","","","","","","","","","",""
"1560","","image-button-response","216","1120804","0.0-213.1-0.1","A3TXECGOC6JHBL","img_art/6.jpg","3","","","","","","","","","","","","","","","","","","","","","","","","",""
"3222","","image-button-response","217","1124028","0.0-214.0-0.0","A3TXECGOC6JHBL","img_art/6.jpg","5","","","","","","","","","","","","","","","","","","","","","","","","",""
"null","","html-keyboard-response","218","1124530","0.0-215.0","A3TXECGOC6JHBL","<p style=""font-size: 48px;"">+</p>","","","","","null","allTrialResponses","500","1","24","img_art/6.jpg","-17","It looks like a bird standing on a solitary beach","Tiffany,Emily,Rachel,Sierra,Gabrielle,Jordan","The painting makes me happy. Like I'm looking at a little bird.,6,360,20","Looks like a kid created it.,-50,40,20","Reminds me of a plant poking through the soil. It reminds me of new life.,31,80,20","simplistic. i love orange and green and i love the subject,50,260,20","simplistic but reminds me of a crow in a field,-10,160,20","This is interesting, I feel solitude, and loneliness from this.,13,20,20","Tiffany","The painting makes me happy. Like I'm looking at a little bird.,6,360,20","Sierra","simplistic. i love orange and green and i love the subject,50,260,20","Jordan","This is interesting, I feel solitude, and loneliness from this.,13,20,20","6"
"21619","","survey-text","219","1146156","0.0-216.0-0.0","A3TXECGOC6JHBL","","","","{""Q0"":""It looks like a commanding figure leading others""}","","","","","","","","","","","","","","","","","","","","","","",""
"4159","","image-slider-response","220","1150316","0.0-217.0","A3TXECGOC6JHBL","","","","","-24","","","","","","","","","","","","","","","","","","","","","",""
"4718","","image-button-response","221","1155329","0.0-218.0","A3TXECGOC6JHBL","img_art/25.jpg","0","","","","","","","","","","","","","","","","","","","","","","","","",""
"1808","","image-button-response","222","1157140","0.0-219.0","A3TXECGOC6JHBL","img_art/25.jpg","0","","","","","","","","","","","","","","","","","","","","","","","","",""
"1063","","image-button-response","223","1158204","0.0-220.0-0.0","A3TXECGOC6JHBL","img_art/25.jpg","1","","","","","","","","","","","","","","","","","","","","","","","","",""
"2391","","image-button-response","224","1160596","0.0-221.0-0.0","A3TXECGOC6JHBL","img_art/25.jpg","4","","","","","","","","","","","","","","","","","","","","","","","","",""
"null","","html-keyboard-response","225","1161101","0.0-222.0","A3TXECGOC6JHBL","<p style=""font-size: 48px;"">+</p>","","","","","null","allTrialResponses","500","1","25","img_art/25.jpg","-24","It looks like a commanding figure leading others","Tiffany,Angela,Grace,Sierra,Monica,Jordan","I feel little to no emotion looking at this painting.,0,360,20","Ugly green color and don't like it at all,-30,260,20","Scary. Something out of a Stephen King book/movie.,-31,180,20","the green is serene. the figure is scare crow like,7,260,20","The skeletal figure is a bit scary,-12,360,20","It's fine, belongs in a church, or somewhere else mystical,15,20,20","Tiffany","I feel little to no emotion looking at this painting.,0,360,20","Angela","Ugly green color and don't like it at all,-30,260,20","Monica","The skeletal figure is a bit scary,-12,360,20","6"
"5317","","survey-text","226","1166428","0.0-223.0-0.0","A3TXECGOC6JHBL","","","","{""Q0"":""table""}","","","","","","","","","","","","","","","","","","","","","","",""
"15255","","survey-text","227","1181684","0.0-224.0-0.0","A3TXECGOC6JHBL","","","","{""Q0"":""red reminds me of blood or someone bleeding""}","","","","","","","","","","","","","","","","","","","","","","",""
"4062.600000000559","","image-slider-response","228","1185748","0.0-225.0","A3TXECGOC6JHBL","","","","","-49","","","","","","","","","","","","","","","","","","","","","",""
"4686","","image-button-response","229","1190757","0.0-226.0","A3TXECGOC6JHBL","img_art/3.jpg","0","","","","","","","","","","","","","","","","","","","","","","","","",""
"891","","image-button-response","230","1191652","0.0-227.0","A3TXECGOC6JHBL","img_art/3.jpg","0","","","","","","","","","","","","","","","","","","","","","","","","",""
"998","","image-button-response","231","1192652","0.0-228.0-0.0","A3TXECGOC6JHBL","img_art/3.jpg","2","","","","","","","","","","","","","","","","","","","","","","","","",""
"4942","","image-button-response","232","1197596","0.0-229.0-0.0","A3TXECGOC6JHBL","img_art/3.jpg","4","","","","","","","","","","","","","","","","","","","","","","","","",""
"null","","html-keyboard-response","233","1199099","0.0-230.0","A3TXECGOC6JHBL","<p style=""font-size: 48px;"">+</p>","","","","","null","allTrialResponses","1500","1","26","img_art/3.jpg","-49","red reminds me of blood or someone bleeding","Tiffany,Angela,Vanessa,Jenna,Monica,Marissa","I feel uncomfortable, like I am looking at a crime scene.,-17,360,20","Like the colors and energy of this work.,10,260,20","It makes me think of just an angry scribble. There's no beauty to it for me.,-50,380,20","unique & stylized. interesting. another one I could keep staring at.,50,360,20","It looks like random scribbles by a child and not appealing,-38,360,20","It feels like a half assed and failed imitation of Japanese signatures on old paintings,-22,160,20","Tiffany","I feel uncomfortable, like I am looking at a crime scene.,-17,360,20","Vanessa","It makes me think of just an angry scribble. There's no beauty to it for me.,-50,380,20","Monica","It looks like random scribbles by a child and not appealing,-38,360,20","6"
"21481","","survey-text","234","1220588","0.0-231.0-0.0","A3TXECGOC6JHBL","","","","{""Q0"":""it looks like a violin or other musical instrument""}","","","","","","","","","","","","","","","","","","","","","","",""
"5974.5","","image-slider-response","235","1226564","0.0-232.0","A3TXECGOC6JHBL","","","","","-48","","","","","","","","","","","","","","","","","","","","","",""
"4503","","image-button-response","236","1231578","0.0-233.0","A3TXECGOC6JHBL","img_art/10.jpg","0","","","","","","","","","","","","","","","","","","","","","","","","",""
"1311","","image-button-response","237","1232892","0.0-234.0","A3TXECGOC6JHBL","img_art/10.jpg","0","","","","","","","","","","","","","","","","","","","","","","","","",""
"942","","image-button-response","238","1233836","0.0-235.0-0.0","A3TXECGOC6JHBL","img_art/10.jpg","2","","","","","","","","","","","","","","","","","","","","","","","","",""
"4742","","image-button-response","239","1238580","0.0-236.0-0.0","A3TXECGOC6JHBL","img_art/10.jpg","5","","","","","","","","","","","","","","","","","","","","","","","","",""
"null","","html-keyboard-response","240","1239081","0.0-237.0","A3TXECGOC6JHBL","<p style=""font-size: 48px;"">+</p>","","","","","null","allTrialResponses","500","1","27","img_art/10.jpg","-48","it looks like a violin or other musical instrument","Tiffany,Hailey,Vanessa,Crystal,Monica,Katie","I feel little to no emotion looking at this painting.,0,360,20","a fast racetrack. go, go, go,5,200,20","It's interesting and my eyes keep being drawn to different parts of the picture.,11,380,20","The contrast between the messy dots/dabs vs the straight affluent lines is unappealing,-20,300,20","It doesn't look pleasing to the eye, it kind of looks like an animal but a dirty one,-38,360,20","Dark and weird. Unidentifiable shape. I can't tell what it is, so I don't like it.,-50,160,20","Tiffany","I feel little to no emotion looking at this painting.,0,360,20","Vanessa","It's interesting and my eyes keep being drawn to different parts of the picture.,11,380,20","Katie","Dark and weird. Unidentifiable shape. I can't tell what it is, so I don't like it.,-50,160,20","6"
"14654","","survey-text","241","1253740","0.0-238.0-0.0","A3TXECGOC6JHBL","","","","{""Q0"":""It looks like rocks stuck in the sand ""}","","","","","","","","","","","","","","","","","","","","","","",""
"4110.700000000186","","image-slider-response","242","1257852","0.0-239.0","A3TXECGOC6JHBL","","","","","-37","","","","","","","","","","","","","","","","","","","","","",""
"4199","","image-button-response","243","1262854","0.0-240.0","A3TXECGOC6JHBL","img_art/7.jpg","1","","","","","","","","","","","","","","","","","","","","","","","","",""
"166","","image-button-response","244","1263020","0.0-241.0","A3TXECGOC6JHBL","img_art/7.jpg","1","","","","","","","","","","","","","","","","","","","","","","","","",""
"935","","image-button-response","245","1263956","0.0-242.0-0.0","A3TXECGOC6JHBL","img_art/7.jpg","2","","","","","","","","","","","","","","","","","","","","","","","","",""
"3287","","image-button-response","246","1267244","0.0-243.0-0.0","A3TXECGOC6JHBL","img_art/7.jpg","3","","","","","","","","","","","","","","","","","","","","","","","","",""
"null","","html-keyboard-response","247","1268746","0.0-244.0","A3TXECGOC6JHBL","<p style=""font-size: 48px;"">+</p>","","","","","null","allTrialResponses","1500","1","28","img_art/7.jpg","-37","It looks like rocks stuck in the sand ","Tiffany,Maria,Vanessa,Courtney,Taylor,Katie","I feel relaxed and a little nostalgic, like I'm exploring the wall of a very old building.,18,360,20","elicits no real response,0,120,20","This is borning and lifeless.,-50,380,20","That a desert floor,16,280,20","It makes me think of new archaeology discoveries,15,340,20","I see dryness, which is sad. Dirt, sand, the dessert. Barren dry lifeless,-30,160,20","Maria","elicits no real response,0,120,20","Vanessa","This is borning and lifeless.,-50,380,20","Courtney","That a desert floor,16,280,20","6"
"14052","","survey-text","248","1282804","0.0-245.0-0.0","A3TXECGOC6JHBL","","","","{""Q0"":""I like the wavy lines and movement ""}","","","","","","","","","","","","","","","","","","","","","","",""
"3383.5","","image-slider-response","249","1286189","0.0-246.0","A3TXECGOC6JHBL","","","","","17","","","","","","","","","","","","","","","","","","","","","",""
"null","","image-button-response","250","1291195","0.0-247.0","A3TXECGOC6JHBL","img_art/11.jpg","null","","","","","","","","","","","","","","","","","","","","","","","","",""
"631","","image-button-response","251","1291828","0.0-248.0","A3TXECGOC6JHBL","img_art/11.jpg","2","","","","","","","","","","","","","","","","","","","","","","","","",""
"3927","","image-button-response","252","1295756","0.0-249.0-0.0","A3TXECGOC6JHBL","img_art/11.jpg","4","","","","","","","","","","","","","","","","","","","","","","","","",""
"3247","","image-button-response","253","1299004","0.0-250.0-0.0","A3TXECGOC6JHBL","img_art/11.jpg","5","","","","","","","","","","","","","","","","","","","","","","","","",""
"null","","html-keyboard-response","254","1300017","0.0-251.0","A3TXECGOC6JHBL","<p style=""font-size: 48px;"">+</p>","","","","","null","allTrialResponses","1000","1","29","img_art/11.jpg","17","I like the wavy lines and movement ","Christina,Maria,Vanessa,Courtney,Alexandra,Chloe","I like how it looks like buildings but i'm not a fan of colors,20,240,20","I enjoy the kandinsky-like general vibe, but the grey brings me down a bit,27,120,20","It makes me think of a rainy day and I like the colors. Also like the wavy lines.,22,380,20","Thats a creepy old rollercoasters abandoned,-2,280,20","I normally would not like this photo, but the design is nice.,21,60,20","Like the movement but not the background colors.,21,220,20","Vanessa","It makes me think of a rainy day and I like the colors. Also like the wavy lines.,22,380,20","Alexandra","I normally would not like this photo, but the design is nice.,21,60,20","Chloe","Like the movement but not the background colors.,21,220,20","6"
"18091","","survey-text","255","1318116","0.0-252.0-0.0","A3TXECGOC6JHBL","","","","{""Q0"":""I like the blue but not a fan of too much black""}","","","","","","","","","","","","","","","","","","","","","","",""
"3686.7000000001863","","image-slider-response","256","1321804","0.0-253.0","A3TXECGOC6JHBL","","","","","-24","","","","","","","","","","","","","","","","","","","","","",""
"4318","","image-button-response","257","1326806","0.0-254.0","A3TXECGOC6JHBL","img_art/15.jpg","0","","","","","","","","","","","","","","","","","","","","","","","","",""
"954","","image-button-response","258","1327764","0.0-255.0","A3TXECGOC6JHBL","img_art/15.jpg","1","","","","","","","","","","","","","","","","","","","","","","","","",""
"1094","","image-button-response","259","1328860","0.0-256.0-0.0","A3TXECGOC6JHBL","img_art/15.jpg","0","","","","","","","","","","","","","","","","","","","","","","","","",""
"1758","","image-button-response","260","1330620","0.0-257.0-0.0","A3TXECGOC6JHBL","img_art/15.jpg","2","","","","","","","","","","","","","","","","","","","","","","","","",""
"null","","html-keyboard-response","261","1331622","0.0-258.0","A3TXECGOC6JHBL","<p style=""font-size: 48px;"">+</p>","","","","","null","allTrialResponses","1000","1","30","img_art/15.jpg","-24","I like the blue but not a fan of too much black","Alyssa,Stephanie,Vanessa,Mariah,Alexandra,Chloe","Uninteresting and too much black,-30,160,20","This piece is too dark,-42,300,20","I don't even know what's going on here. Again, this is too abstract.,-21,380,20","It is visually appealing, stark and simple but natural.,41,140,20","This is sort of ugly, but I do like the design.,10,60,20","Like the composition and lines,26,220,20","Stephanie","This piece is too dark,-42,300,20","Alyssa","Uninteresting and too much black,-30,160,20","Vanessa","I don't even know what's going on here. Again, this is too abstract.,-21,380,20","6"
"3999","","image-button-response_instructions","262","1335636","0.0-259.0","A3TXECGOC6JHBL","","0","instructions","","","","","","","","","","","","","","","","","","","","","","","",""
"1459","","image-button-response","263","1337100","0.0-260.0","A3TXECGOC6JHBL","","0","","","","","","","","","","","","","","","","","","","","","","","","",""
