"rt","url","trial_type","trial_index","time_elapsed","internal_node_id","participant_id","stimulus","button_pressed","Name","responses","response","key_press","variableName","fixationTime","condition","trial","photo","subjectRating","subjectResponse","agentsNames","agent_1_Response","agent_2_Response","agent_3_Response","agent_4_Response","agent_5_Response","agent_6_Response","kept_1_name","kept_1_response","kept_2_name","kept_2_response","kept_3_name","kept_3_response","errorCounter"
"13162","external_page_harvard.html","external-html","0","13995","0.0-0.0","A3TXLDTWZKFA38","","","","","","","","","","","","","","","","","","","","","","","","","","",""
"2411","","image-button-response","1","16414","0.0-1.0","A3TXLDTWZKFA38","","1","","","","","","","","","","","","","","","","","","","","","","","","",""
"6701","","image-button-response","2","23135","0.0-2.0-0.0","A3TXLDTWZKFA38","","1","phone","","","","","","","","","","","","","","","","","","","","","","","",""
"7015","","survey-text","3","30157","0.0-3.0-0.0","A3TXLDTWZKFA38","","","","{""Q0"":""A3TXLDTWZKFA38""}","","","","","","","","","","","","","","","","","","","","","","",""
"8445","","image-button-response_instructions","4","38608","0.0-4.0","A3TXLDTWZKFA38","","0","instructions","","","","","","","","","","","","","","","","","","","","","","","",""
"30621","","image-button-response_instructions","5","69235","0.0-5.0","A3TXLDTWZKFA38","img_art/ins/popularity/ins1.png","0","instructions","","","","","","","","","","","","","","","","","","","","","","","",""
"12748","","image-button-response_instructions","6","81993","0.0-6.0","A3TXLDTWZKFA38","img_art/ins/popularity/ins2.png","0","instructions","","","","","","","","","","","","","","","","","","","","","","","",""
"37055","","image-button-response_instructions","7","119066","0.0-7.0","A3TXLDTWZKFA38","img_art/ins/popularity/ins2Extreme.png","0","instructions","","","","","","","","","","","","","","","","","","","","","","","",""
"28341","","image-button-response_instructions","8","147414","0.0-8.0","A3TXLDTWZKFA38","img_art/ins/popularity/ins3KEEPpop.PNG","0","instructions","","","","","","","","","","","","","","","","","","","","","","","",""
"7463","","image-button-response_instructions","9","154882","0.0-9.0","A3TXLDTWZKFA38","img_art/ins/popularity/ins3ANamepop.PNG","0","instructions","","","","","","","","","","","","","","","","","","","","","","","",""
"5104","","image-button-response_instructions","10","159990","0.0-10.0","A3TXLDTWZKFA38","img_art/ins/popularity/ins3ARatingpop.png","0","instructions","","","","","","","","","","","","","","","","","","","","","","","",""
"11194","","image-button-response_instructions","11","171189","0.0-11.0","A3TXLDTWZKFA38","img_art/ins/popularity/ins3ATextpop.png","0","instructions","","","","","","","","","","","","","","","","","","","","","","","",""
"6985","","image-button-response_instructions","12","178182","0.0-12.0","A3TXLDTWZKFA38","img_art/ins/popularity/ins3ALikespop.png","0","instructions","","","","","","","","","","","","","","","","","","","","","","","",""
"14249","","image-button-response_instructions","13","192438","0.0-13.0","A3TXLDTWZKFA38","img_art/ins/popularity/ins3KEEPpop.PNG","0","instructions","","","","","","","","","","","","","","","","","","","","","","","",""
"18389","","image-button-response_instructions","14","210835","0.0-14.0","A3TXLDTWZKFA38","img_art/ins/popularity/ins3_5RED.png","0","instructions","","","","","","","","","","","","","","","","","","","","","","","",""
"8314","","image-button-response_instructions","15","219159","0.0-15.0","A3TXLDTWZKFA38","img_art/ins/popularity/ins3KEEPpop.PNG","0","instructions","","","","","","","","","","","","","","","","","","","","","","","",""
"9932","","image-button-response_instructions","16","229096","0.0-16.0","A3TXLDTWZKFA38","img_art/ins/popularity/ins4KEEPpop.PNG","0","instructions","","","","","","","","","","","","","","","","","","","","","","","",""
"4192","","image-button-response_instructions","17","233293","0.0-17.0","A3TXLDTWZKFA38","img_art/ins/popularity/ins5KEEPpop.PNG","0","instructions","","","","","","","","","","","","","","","","","","","","","","","",""
"4641","","image-button-response_instructions","18","237944","0.0-18.0","A3TXLDTWZKFA38","","0","instructions","","","","","","","","","","","","","","","","","","","","","","","",""
"6845","","survey-text","19","244889","0.0-19.0-0.0","A3TXLDTWZKFA38","","","","{""Q0"":""but""}","","","","","","","","","","","","","","","","","","","","","","",""
"8442","","survey-text","20","253338","0.0-20.0-0.0","A3TXLDTWZKFA38","","","","{""Q0"":""colourful""}","","","","","","","","","","","","","","","","","","","","","","",""
"4511","","image-slider-response","21","257859","0.0-21.0","A3TXLDTWZKFA38","","","","","20","","","","","","","","","","","","","","","","","","","","","",""
"4631","","image-button-response","22","262991","0.0-22.0","A3TXLDTWZKFA38","img_art/ins/1.jpg","0","","","","","","","","","","","","","","","","","","","","","","","","",""
"4144","","image-button-response","23","267148","0.0-23.0","A3TXLDTWZKFA38","img_art/ins/1.jpg","5","","","","","","","","","","","","","","","","","","","","","","","","",""
"29424","","image-button-response","24","296585","0.0-24.0-0.0","A3TXLDTWZKFA38","img_art/ins/1.jpg","5","","","","","","","","","","","","","","","","","","","","","","","","",""
"2304","","image-button-response","25","305280","0.0-24.1-0.1","A3TXLDTWZKFA38","img_art/ins/1.jpg","0","","","","","","","","","","","","","","","","","","","","","","","","",""
"1678","","image-button-response","26","306966","0.0-25.0-0.0","A3TXLDTWZKFA38","img_art/ins/1.jpg","4","","","","","","","","","","","","","","","","","","","","","","","","",""
"null","","html-keyboard-response","27","308550","0.0-26.0","A3TXLDTWZKFA38","<p style=""font-size: 48px;"">+</p>","","","","","null","allTrialResponses","1500","1","-2","img_art/ins/1.jpg","20","colourful","Allison,Ashley,Beth,Dora,Erika,Jen","looks like a lot of things going on in the mist,20,20,20","I just don't get why these type of art would be popular,-32,40,20","This color reminds me of poo,-46,60,20","looks like what my niece in 3rd grade did this afternoon,-50,80,20","I like the sophisticated brushwork,40,100,20","It reminds me of a candy land dream I had,36,120,20","Jen","It reminds me of a candy land dream I had,36,120,20","Allison","looks like a lot of things going on in the mist,20,20,20","Erika","I like the sophisticated brushwork,40,100,20","2"
"12908","","survey-text","28","321486","0.0-27.0-0.0","A3TXLDTWZKFA38","","","","{""Q0"":""awesome""}","","","","","","","","","","","","","","","","","","","","","","",""
"5104","","image-slider-response","29","326598","0.0-28.0","A3TXLDTWZKFA38","","","","","5","","","","","","","","","","","","","","","","","","","","","",""
"null","","image-button-response","30","331608","0.0-29.0","A3TXLDTWZKFA38","img_art/ins/2.jpg","null","","","","","","","","","","","","","","","","","","","","","","","","",""
"3570","","image-button-response","31","335187","0.0-30.0","A3TXLDTWZKFA38","img_art/ins/2.jpg","2","","","","","","","","","","","","","","","","","","","","","","","","",""
"3407","","image-button-response","32","338603","0.0-31.0-0.0","A3TXLDTWZKFA38","img_art/ins/2.jpg","5","","","","","","","","","","","","","","","","","","","","","","","","",""
"5233","","image-button-response","33","343851","0.0-32.0-0.0","A3TXLDTWZKFA38","img_art/ins/2.jpg","4","","","","","","","","","","","","","","","","","","","","","","","","",""
"null","","html-keyboard-response","34","345357","0.0-33.0","A3TXLDTWZKFA38","<p style=""font-size: 48px;"">+</p>","","","","","null","allTrialResponses","1500","1","-1","img_art/ins/2.jpg","5","awesome","Allison,Kara,Katie,Jenna,Erika,Jen","I don't have strong feelings about this,10,20,20","I like the blocks of color arrangements,30,160,20","too much color!,-28,180,20","One of my pet peevs,-48,140,20","I would never be able to compose a sophisticated pallete like this,48,100,20","It reminds me of a fireplace,36,120,20","Katie","too much color!,-28,180,20","Jen","It reminds me of a fireplace,36,120,20","Erika","I would never be able to compose a sophisticated pallete like this,48,100,20","2"
"8986","","survey-text","35","354362","0.0-34.0-0.0","A3TXLDTWZKFA38","","","","{""Q0"":""eye catch""}","","","","","","","","","","","","","","","","","","","","","","",""
"5386","","image-slider-response","36","359754","0.0-35.0","A3TXLDTWZKFA38","","","","","-7","","","","","","","","","","","","","","","","","","","","","",""
"4778","","image-button-response","37","364760","0.0-36.0","A3TXLDTWZKFA38","img_art/ins/3.jpg","2","","","","","","","","","","","","","","","","","","","","","","","","",""
"199","","image-button-response","38","364967","0.0-37.0","A3TXLDTWZKFA38","img_art/ins/3.jpg","1","","","","","","","","","","","","","","","","","","","","","","","","",""
"1547","","image-button-response","39","366520","0.0-38.0-0.0","A3TXLDTWZKFA38","img_art/ins/3.jpg","2","","","","","","","","","","","","","","","","","","","","","","","","",""
"5814","","image-button-response","40","372349","0.0-39.0-0.0","A3TXLDTWZKFA38","img_art/ins/3.jpg","3","","","","","","","","","","","","","","","","","","","","","","","","",""
"null","","html-keyboard-response","41","373859","0.0-40.0","A3TXLDTWZKFA38","<p style=""font-size: 48px;"">+</p>","","","","","null","allTrialResponses","1500","1","0","img_art/ins/3.jpg","-7","eye catch","Mary,Rose,Katie,Leslie,Erika,Jen","I like the overlapping of brushes,41,220,20","My daily routine, it's depressing,-20,240,20","It looks depressing,-26,180,20","It's an alright work,15,200,20","I feel connected to the artist,40,100,20","I can feel a rainy day from this painting,18,120,20","Rose","My daily routine, it's depressing,-20,240,20","Katie","It looks depressing,-26,180,20","Leslie","It's an alright work,15,200,20","2"
"6985","","image-button-response_instructions","42","380884","0.0-41.0","A3TXLDTWZKFA38","","0","instructions","","","","","","","","","","","","","","","","","","","","","","","",""
"25704","","survey-likert","43","406600","0.0-42.0-0.0","A3TXLDTWZKFA38","","","","{""Q0"":"""",""Q1"":0,""Q2"":1}","","","","","","","","","","","","","","","","","","","","","","",""
"5428","","survey-text","44","412052","0.0-43.0-0.0","A3TXLDTWZKFA38","","","","{""Q0"":""rock""}","","","","","","","","","","","","","","","","","","","","","","",""
"7879","","survey-text","45","419939","0.0-44.0-0.0","A3TXLDTWZKFA38","","","","{""Q0"":""mind blowing""}","","","","","","","","","","","","","","","","","","","","","","",""
"5032","","image-slider-response","46","424979","0.0-45.0","A3TXLDTWZKFA38","","","","","7","","","","","","","","","","","","","","","","","","","","","",""
"null","","image-button-response","47","430014","0.0-46.0","A3TXLDTWZKFA38","img_art/2.jpg","null","","","","","","","","","","","","","","","","","","","","","","","","",""
"1013","","image-button-response","48","431034","0.0-47.0","A3TXLDTWZKFA38","img_art/2.jpg","4","","","","","","","","","","","","","","","","","","","","","","","","",""
"2173","","image-button-response","49","433212","0.0-48.0-0.0","A3TXLDTWZKFA38","img_art/2.jpg","3","","","","","","","","","","","","","","","","","","","","","","","","",""
"1560","","image-button-response","50","434778","0.0-49.0-0.0","A3TXLDTWZKFA38","img_art/2.jpg","3","","","","","","","","","","","","","","","","","","","","","","","","",""
"9766","","image-button-response","51","447973","0.0-49.1-0.1","A3TXLDTWZKFA38","img_art/2.jpg","1","","","","","","","","","","","","","","","","","","","","","","","","",""
"null","","html-keyboard-response","52","449605","0.0-50.0","A3TXLDTWZKFA38","<p style=""font-size: 48px;"">+</p>","","","","","null","allTrialResponses","1500","1","1","img_art/2.jpg","7","mind blowing","Kelly,Kelsey,Chelsea,Kathryn,Lauren,Alyssa","I cant tell whats happening here and that shade of green is just not my thing.,-17,220,20","i dont like it, no thank you,-28,240,20","Not sure what is happening. I'm not a big fan of the colors but they don't bother me either.,1,180,20","I think I'm put off by the clashing colors here. It feels discombobulated and sick.,-10,140,20","I feel that its too abstract for me to understand what I'm looking at.,-15,340,20","Its meh. Doesnt illicit any strong feelings in me,1,160,20","Lauren","I feel that its too abstract for me to understand what I'm looking at.,-15,340,20","Kathryn","I think I'm put off by the clashing colors here. It feels discombobulated and sick.,-10,140,20","Kelsey","i dont like it, no thank you,-28,240,20","4"
"13384","","survey-text","53","463016","0.0-51.0-0.0","A3TXLDTWZKFA38","","","","{""Q0"":""just wow""}","","","","","","","","","","","","","","","","","","","","","","",""
"3934","","image-slider-response","54","466957","0.0-52.0","A3TXLDTWZKFA38","","","","","13","","","","","","","","","","","","","","","","","","","","","",""
"3546","","image-button-response","55","471968","0.0-53.0","A3TXLDTWZKFA38","img_art/6.jpg","1","","","","","","","","","","","","","","","","","","","","","","","","",""
"1284","","image-button-response","56","473263","0.0-54.0","A3TXLDTWZKFA38","img_art/6.jpg","0","","","","","","","","","","","","","","","","","","","","","","","","",""
"2395","","image-button-response","57","475665","0.0-55.0-0.0","A3TXLDTWZKFA38","img_art/6.jpg","3","","","","","","","","","","","","","","","","","","","","","","","","",""
"3187","","image-button-response","58","478861","0.0-56.0-0.0","A3TXLDTWZKFA38","img_art/6.jpg","2","","","","","","","","","","","","","","","","","","","","","","","","",""
"null","","html-keyboard-response","59","479808","0.0-57.0","A3TXLDTWZKFA38","<p style=""font-size: 48px;"">+</p>","","","","","null","allTrialResponses","500","1","2","img_art/6.jpg","13","just wow","Grace,Kelsey,Alexis,Kathryn,Lauren,Erica","Growth in the desert?  Don't care for it very much.,-26,180,20","its like a jalapeno,-28,240,20","The feeling of isolation with so little objects. Great,20,100,20","This piece feels hopeful, like an oasis in the desert.,20,140,20","I like the simplicity of the piece.,10,340,20","positive because of bright colours and a bird,20,80,20","Grace","Growth in the desert?  Don't care for it very much.,-26,180,20","Kathryn","This piece feels hopeful, like an oasis in the desert.,20,140,20","Alexis","The feeling of isolation with so little objects. Great,20,100,20","4"
"14776","","survey-text","60","494613","0.0-58.0-0.0","A3TXLDTWZKFA38","","","","{""Q0"":""marvelous ""}","","","","","","","","","","","","","","","","","","","","","","",""
"5499","","image-slider-response","61","500119","0.0-59.0","A3TXLDTWZKFA38","","","","","50","","","","","","","","","","","","","","","","","","","","","",""
"2118","","image-button-response","62","505132","0.0-60.0","A3TXLDTWZKFA38","img_art/16.jpg","4","","","","","","","","","","","","","","","","","","","","","","","","",""
"1175","","image-button-response","63","506317","0.0-61.0","A3TXLDTWZKFA38","img_art/16.jpg","5","","","","","","","","","","","","","","","","","","","","","","","","",""
"3050","","image-button-response","64","509375","0.0-62.0-0.0","A3TXLDTWZKFA38","img_art/16.jpg","3","","","","","","","","","","","","","","","","","","","","","","","","",""
"1659","","image-button-response","65","511043","0.0-63.0-0.0","A3TXLDTWZKFA38","img_art/16.jpg","4","","","","","","","","","","","","","","","","","","","","","","","","",""
"null","","html-keyboard-response","66","512772","0.0-64.0","A3TXLDTWZKFA38","<p style=""font-size: 48px;"">+</p>","","","","","null","allTrialResponses","1500","1","3","img_art/16.jpg","50","marvelous ","Grace,Kaitlin,Alexis,Kathryn,Vanessa,Cynthia","Something terrible happened. Either the figure on the right is the victim or another shredded toy.,-49,180,20","The teddy bear looks really scared,-30,60,20","Don't like this technique. Too serial killer.,-50,100,20","I see something that is supposed to be comforting but it's been discarded and lost.,-20,140,20","This is too bizarre.,-39,380,20","Dreamy and chaotic,-9,320,20","Cynthia","Dreamy and chaotic,-9,320,20","Kathryn","I see something that is supposed to be comforting but it's been discarded and lost.,-20,140,20","Vanessa","This is too bizarre.,-39,380,20","4"
"21317","","survey-text","67","534128","0.0-65.0-0.0","A3TXLDTWZKFA38","","","","{""Q0"":""telling some story""}","","","","","","","","","","","","","","","","","","","","","","",""
"3297","","image-slider-response","68","537435","0.0-66.0","A3TXLDTWZKFA38","","","","","18","","","","","","","","","","","","","","","","","","","","","",""
"1797","","image-button-response","69","542444","0.0-67.0","A3TXLDTWZKFA38","img_art/10.jpg","4","","","","","","","","","","","","","","","","","","","","","","","","",""
"1540","","image-button-response","70","543995","0.0-68.0","A3TXLDTWZKFA38","img_art/10.jpg","2","","","","","","","","","","","","","","","","","","","","","","","","",""
"1792","","image-button-response","71","545793","0.0-69.0-0.0","A3TXLDTWZKFA38","img_art/10.jpg","0","","","","","","","","","","","","","","","","","","","","","","","","",""
"1563","","image-button-response","72","547368","0.0-70.0-0.0","A3TXLDTWZKFA38","img_art/10.jpg","5","","","","","","","","","","","","","","","","","","","","","","","","",""
"null","","html-keyboard-response","73","548387","0.0-71.0","A3TXLDTWZKFA38","<p style=""font-size: 48px;"">+</p>","","","","","null","allTrialResponses","1000","1","4","img_art/10.jpg","18","telling some story","Natalie,Kaitlyn,Emma,Kathryn,Vanessa,Cynthia","I see a rollercoaster,23,400,20","Picture looks smudged,-7,80,20","Feels musical .....,40,60,20","This piece makes me think of music. The music is dark; I like dark music so it edges toward good.,10,140,20","It's interesting and my eyes keep being drawn to different parts of the picture.,11,380,20","cultural with a symphony,40,320,20","Emma","Feels musical .....,40,60,20","Natalie","I see a rollercoaster,23,400,20","Cynthia","cultural with a symphony,40,320,20","4"
"8042","","survey-text","74","556441","0.0-72.0-0.0","A3TXLDTWZKFA38","","","","{""Q0"":""nice one""}","","","","","","","","","","","","","","","","","","","","","","",""
"14257","","image-slider-response","75","570706","0.0-73.0","A3TXLDTWZKFA38","","","","","35","","","","","","","","","","","","","","","","","","","","","",""
"3458","","image-button-response","76","575715","0.0-74.0","A3TXLDTWZKFA38","img_art/28.jpg","4","","","","","","","","","","","","","","","","","","","","","","","","",""
"787","","image-button-response","77","576509","0.0-75.0","A3TXLDTWZKFA38","img_art/28.jpg","3","","","","","","","","","","","","","","","","","","","","","","","","",""
"2089","","image-button-response","78","578606","0.0-76.0-0.0","A3TXLDTWZKFA38","img_art/28.jpg","0","","","","","","","","","","","","","","","","","","","","","","","","",""
"1739","","image-button-response","79","580364","0.0-77.0-0.0","A3TXLDTWZKFA38","img_art/28.jpg","1","","","","","","","","","","","","","","","","","","","","","","","","",""
"null","","html-keyboard-response","80","581370","0.0-78.0","A3TXLDTWZKFA38","<p style=""font-size: 48px;"">+</p>","","","","","null","allTrialResponses","1000","1","5","img_art/28.jpg","35","nice one","Natalie,Katherine,Emma,Tiffany,Jenna,Cynthia","it looks alright,-1,400,20","Eh it's just kinda brown and muddy and not very nice looking,-18,120,20","Don't love the colors,-10,60,20","It makes me feel happy, and a little anxious.,50,360,20","looks like humanoid figures in distress. I like it, but makes me slightly uncomfortable,35,360,20","nostalgic from a memory,11,320,20","Tiffany","It makes me feel happy, and a little anxious.,50,360,20","Natalie","it looks alright,-1,400,20","Katherine","Eh it's just kinda brown and muddy and not very nice looking,-18,120,20","4"
"4678","","survey-text","81","586082","0.0-79.0-0.0","A3TXLDTWZKFA38","","","","{""Q0"":""sky""}","","","","","","","","","","","","","","","","","","","","","","",""
"18506","","survey-text","82","604597","0.0-80.0-0.0","A3TXLDTWZKFA38","","","","{""Q0"":""good environment""}","","","","","","","","","","","","","","","","","","","","","","",""
"3391","","image-slider-response","83","608002","0.0-81.0","A3TXLDTWZKFA38","","","","","39","","","","","","","","","","","","","","","","","","","","","",""
"4828","","image-button-response","84","613048","0.0-82.0","A3TXLDTWZKFA38","img_art/8.jpg","2","","","","","","","","","","","","","","","","","","","","","","","","",""
"2491","","image-button-response","85","615550","0.0-83.0","A3TXLDTWZKFA38","img_art/8.jpg","5","","","","","","","","","","","","","","","","","","","","","","","","",""
"1594","","image-button-response","86","617153","0.0-84.0-0.0","A3TXLDTWZKFA38","img_art/8.jpg","4","","","","","","","","","","","","","","","","","","","","","","","","",""
"2230","","image-button-response","87","619391","0.0-85.0-0.0","A3TXLDTWZKFA38","img_art/8.jpg","2","","","","","","","","","","","","","","","","","","","","","","","","",""
"null","","html-keyboard-response","88","620420","0.0-86.0","A3TXLDTWZKFA38","<p style=""font-size: 48px;"">+</p>","","","","","null","allTrialResponses","1000","1","6","img_art/8.jpg","39","good environment","Natalie,Katherine,Alexa,Tiffany,Marissa,Jennifer","looks nice, like the details,25,400,20","This is really cool, I love the fragments of faces,38,120,20","It's simply gorgeous. This artist is very talented,50,40,20","It makes me feel nervous. I can't tell ifI'm looking at an apartment, or a hellscape.,-18,360,20","I can't tell if this is supposed to portray just city life or a town crumbling,-5,160,20","Not my favorite but has an interesting concept,32,380,20","Jennifer","Not my favorite but has an interesting concept,32,380,20","Marissa","I can't tell if this is supposed to portray just city life or a town crumbling,-5,160,20","Alexa","It's simply gorgeous. This artist is very talented,50,40,20","4"
"6111","","survey-text","89","626565","0.0-87.0-0.0","A3TXLDTWZKFA38","","","","{""Q0"":""good""}","","","","","","","","","","","","","","","","","","","","","","",""
"4749","","survey-text","90","634063","0.0-87.1-0.1","A3TXLDTWZKFA38","","","","{""Q0"":""good one""}","","","","","","","","","","","","","","","","","","","","","","",""
"3125","","image-slider-response","91","637194","0.0-88.0","A3TXLDTWZKFA38","","","","","22","","","","","","","","","","","","","","","","","","","","","",""
"3475","","image-button-response","92","642201","0.0-89.0","A3TXLDTWZKFA38","img_art/1.jpg","0","","","","","","","","","","","","","","","","","","","","","","","","",""
"557","","image-button-response","93","642765","0.0-90.0","A3TXLDTWZKFA38","img_art/1.jpg","2","","","","","","","","","","","","","","","","","","","","","","","","",""
"1183","","image-button-response","94","643954","0.0-91.0-0.0","A3TXLDTWZKFA38","img_art/1.jpg","1","","","","","","","","","","","","","","","","","","","","","","","","",""
"1378","","image-button-response","95","645339","0.0-92.0-0.0","A3TXLDTWZKFA38","img_art/1.jpg","0","","","","","","","","","","","","","","","","","","","","","","","","",""
"null","","html-keyboard-response","96","646844","0.0-93.0","A3TXLDTWZKFA38","<p style=""font-size: 48px;"">+</p>","","","","","null","allTrialResponses","1500","1","7","img_art/1.jpg","22","good one","Alicia,Rachel,Alexa,Taylor,Marissa,Jennifer","just colors mixed together. not interesting.,5,120,20","While I like the colors, I find nothing interesting or thought provoking about it.,10,80,20","The blend of colors are gorgeous and reminds me of fall,32,40,20","Makes me think of a bad thunderstorm,11,340,20","It is beautiful, I really enjoy the colors,32,160,20","Bright and colorful without being overpowering,32,380,20","Alexa","The blend of colors are gorgeous and reminds me of fall,32,40,20","Rachel","While I like the colors, I find nothing interesting or thought provoking about it.,10,80,20","Alicia","just colors mixed together. not interesting.,5,120,20","4"
"10002","","survey-text","97","656914","0.0-94.0-0.0","A3TXLDTWZKFA38","","","","{""Q0"":""foot print""}","","","","","","","","","","","","","","","","","","","","","","",""
"3202","","image-slider-response","98","660125","0.0-95.0","A3TXLDTWZKFA38","","","","","29","","","","","","","","","","","","","","","","","","","","","",""
"3231","","image-button-response","99","665136","0.0-96.0","A3TXLDTWZKFA38","img_art/7.jpg","3","","","","","","","","","","","","","","","","","","","","","","","","",""
"489","","image-button-response","100","665632","0.0-97.0","A3TXLDTWZKFA38","img_art/7.jpg","4","","","","","","","","","","","","","","","","","","","","","","","","",""
"1120","","image-button-response","101","666758","0.0-98.0-0.0","A3TXLDTWZKFA38","img_art/7.jpg","3","","","","","","","","","","","","","","","","","","","","","","","","",""
"1935","","image-button-response","102","668702","0.0-99.0-0.0","A3TXLDTWZKFA38","img_art/7.jpg","5","","","","","","","","","","","","","","","","","","","","","","","","",""
"null","","html-keyboard-response","103","670285","0.0-100.0","A3TXLDTWZKFA38","<p style=""font-size: 48px;"">+</p>","","","","","null","allTrialResponses","1500","1","8","img_art/7.jpg","29","foot print","Alicia,Rachel,Alexa,Brianna,Danielle,Christina","I don't get it. looks like a picture of the ground.,-42,120,20","Looks like a desert or another planet. While the color choices are narrow, it's still interesting because it is very natural.,12,80,20","Not a fan of the pattern or colors,-40,40,20","Looks plain and dull, sorry.,-31,20,20","I don't like this kind of color scheme or look they went for,-50,340,20","looks like the surface of the moon,-28,240,20","Danielle","I don't like this kind of color scheme or look they went for,-50,340,20","Brianna","Looks plain and dull, sorry.,-31,20,20","Christina","looks like the surface of the moon,-28,240,20","4"
"9790","","survey-text","104","680094","0.0-101.0-0.0","A3TXLDTWZKFA38","","","","{""Q0"":""sky world""}","","","","","","","","","","","","","","","","","","","","","","",""
"3798","","image-slider-response","105","683900","0.0-102.0","A3TXLDTWZKFA38","","","","","29","","","","","","","","","","","","","","","","","","","","","",""
"4395","","image-button-response","106","688908","0.0-103.0","A3TXLDTWZKFA38","img_art/21.jpg","1","","","","","","","","","","","","","","","","","","","","","","","","",""
"842","","image-button-response","107","689757","0.0-104.0","A3TXLDTWZKFA38","img_art/21.jpg","2","","","","","","","","","","","","","","","","","","","","","","","","",""
"660","","image-button-response","108","690424","0.0-105.0-0.0","A3TXLDTWZKFA38","img_art/21.jpg","1","","","","","","","","","","","","","","","","","","","","","","","","",""
"1209","","image-button-response","109","691646","0.0-106.0-0.0","A3TXLDTWZKFA38","img_art/21.jpg","0","","","","","","","","","","","","","","","","","","","","","","","","",""
"null","","html-keyboard-response","110","692658","0.0-107.0","A3TXLDTWZKFA38","<p style=""font-size: 48px;"">+</p>","","","","","null","allTrialResponses","1000","1","9","img_art/21.jpg","29","sky world","Breanna,Shelby,Kayla,Brianna,Danielle,Christina","Can't understand what it is,-27,380,20","Very calming and soft, makes me feel good,31,240,20","I like that it reminds me of an abstract version of a Bob Ross painting.,36,180,20","Don't really lean either way.,1,20,20","I like it. It's some of war-scene, bloodshed and battle on the left, field of dispair on the right, dark and rich,40,340,20","it has a lot of happy colors and it's very classic looking,35,240,20","Kayla","I like that it reminds me of an abstract version of a Bob Ross painting.,36,180,20","Shelby","Very calming and soft, makes me feel good,31,240,20","Breanna","Can't understand what it is,-27,380,20","4"
"5252","","survey-text","111","697941","0.0-108.0-0.0","A3TXLDTWZKFA38","","","","{""Q0"":""nice one""}","","","","","","","","","","","","","","","","","","","","","","",""
"3231","","image-slider-response","112","701180","0.0-109.0","A3TXLDTWZKFA38","","","","","26","","","","","","","","","","","","","","","","","","","","","",""
"3368","","image-button-response","113","706217","0.0-110.0","A3TXLDTWZKFA38","img_art/11.jpg","4","","","","","","","","","","","","","","","","","","","","","","","","",""
"2393","","image-button-response","114","708617","0.0-111.0","A3TXLDTWZKFA38","img_art/11.jpg","1","","","","","","","","","","","","","","","","","","","","","","","","",""
"2218","","image-button-response","115","710844","0.0-112.0-0.0","A3TXLDTWZKFA38","img_art/11.jpg","4","","","","","","","","","","","","","","","","","","","","","","","","",""
"1231","","image-button-response","116","712086","0.0-113.0-0.0","A3TXLDTWZKFA38","img_art/11.jpg","5","","","","","","","","","","","","","","","","","","","","","","","","",""
"null","","html-keyboard-response","117","712701","0.0-114.0","A3TXLDTWZKFA38","<p style=""font-size: 48px;"">+</p>","","","","","null","allTrialResponses","500","1","10","img_art/11.jpg","26","nice one","Breanna,Shelby,Kayla,Dominique,Jordan,Jacqueline","Very cool, makes me feel good,39,380,20","The movement in this one is extremely pleasent,40,240,20","I like that it could be train tracks, or telephone wires, etc. It's always a means of getting from a to b.,15,180,20","Looks like a familiar area,31,400,20","Oh, I love this one, it says to me that life is very busy,50,20,20","It's too dark and dingy.,-30,300,20","Shelby","The movement in this one is extremely pleasent,40,240,20","Jordan","Oh, I love this one, it says to me that life is very busy,50,20,20","Jacqueline","It's too dark and dingy.,-30,300,20","4"
"4549","","survey-text","118","717289","0.0-115.0-0.0","A3TXLDTWZKFA38","","","","{""Q0"":""our""}","","","","","","","","","","","","","","","","","","","","","","",""
"7337","","survey-text","119","724634","0.0-116.0-0.0","A3TXLDTWZKFA38","","","","{""Q0"":""tree life""}","","","","","","","","","","","","","","","","","","","","","","",""
"3401","","image-slider-response","120","728042","0.0-117.0","A3TXLDTWZKFA38","","","","","32","","","","","","","","","","","","","","","","","","","","","",""
"4279","","image-button-response","121","733049","0.0-118.0","A3TXLDTWZKFA38","img_art/14.jpg","2","","","","","","","","","","","","","","","","","","","","","","","","",""
"1349","","image-button-response","122","734405","0.0-119.0","A3TXLDTWZKFA38","img_art/14.jpg","1","","","","","","","","","","","","","","","","","","","","","","","","",""
"2060","","image-button-response","123","736472","0.0-120.0-0.0","A3TXLDTWZKFA38","img_art/14.jpg","3","","","","","","","","","","","","","","","","","","","","","","","","",""
"1390","","image-button-response","124","737869","0.0-121.0-0.0","A3TXLDTWZKFA38","img_art/14.jpg","2","","","","","","","","","","","","","","","","","","","","","","","","",""
"null","","html-keyboard-response","125","738373","0.0-122.0","A3TXLDTWZKFA38","<p style=""font-size: 48px;"">+</p>","","","","","null","allTrialResponses","500","1","11","img_art/14.jpg","32","tree life","Mackenzie,Shelby,Sabrina,Emily,Jordan,Jacqueline","I like the combination of colors and textures.,35,20,20","Something about the cahotic imagery makes me uncomfortable,-15,240,20","Love the assortment of colors and flowers, expressing gentle and caring,50,120,20","Looks like there is some skill but also at the same time parts look unskilled.,-16,40,20","this one isn't bad, reminds me a tree that gives life, and people are waiting for someone new to be born,27,20,20","It kind of looks like a tree but I feel very netural.,0,300,20","Shelby","Something about the cahotic imagery makes me uncomfortable,-15,240,20","Emily","Looks like there is some skill but also at the same time parts look unskilled.,-16,40,20","Sabrina","Love the assortment of colors and flowers, expressing gentle and caring,50,120,20","4"
"10135","","survey-text","126","748538","0.0-123.0-0.0","A3TXLDTWZKFA38","","","","{""Q0"":""street view""}","","","","","","","","","","","","","","","","","","","","","","",""
"4810","","image-slider-response","127","753355","0.0-124.0","A3TXLDTWZKFA38","","","","","28","","","","","","","","","","","","","","","","","","","","","",""
"2522","","image-button-response","128","758370","0.0-125.0","A3TXLDTWZKFA38","img_art/19.jpg","3","","","","","","","","","","","","","","","","","","","","","","","","",""
"4654","","image-button-response","129","763035","0.0-126.0","A3TXLDTWZKFA38","img_art/19.jpg","0","","","","","","","","","","","","","","","","","","","","","","","","",""
"2011","","image-button-response","130","765057","0.0-127.0-0.0","A3TXLDTWZKFA38","img_art/19.jpg","4","","","","","","","","","","","","","","","","","","","","","","","","",""
"2595","","image-button-response","131","767663","0.0-128.0-0.0","A3TXLDTWZKFA38","img_art/19.jpg","5","","","","","","","","","","","","","","","","","","","","","","","","",""
"null","","html-keyboard-response","132","768670","0.0-129.0","A3TXLDTWZKFA38","<p style=""font-size: 48px;"">+</p>","","","","","null","allTrialResponses","1000","1","12","img_art/19.jpg","28","street view","Lindsey,Shelby,Sabrina,Emily,Sarah,Savannah","Pleasant colors with just enough detail to be recognizable. I can see a scene in it that tells a story.,7,400,20","Something weird is going on in this painting,-20,240,20","Gives a very open and freeing vibe,42,120,20","Loks like an amature did it, Not pleasing.,-45,40,20","too much of a mix of lines and shading,-22,180,20","Watercolor abstract? Strange.,1,200,20","Lindsey","Pleasant colors with just enough detail to be recognizable. I can see a scene in it that tells a story.,7,400,20","Sarah","too much of a mix of lines and shading,-22,180,20","Savannah","Watercolor abstract? Strange.,1,200,20","4"
"8587","","survey-text","133","777282","0.0-130.0-0.0","A3TXLDTWZKFA38","","","","{""Q0"":""good squre""}","","","","","","","","","","","","","","","","","","","","","","",""
"4343","","image-slider-response","134","781631","0.0-131.0","A3TXLDTWZKFA38","","","","","14","","","","","","","","","","","","","","","","","","","","","",""
"2237","","image-button-response","135","786637","0.0-132.0","A3TXLDTWZKFA38","img_art/12.jpg","1","","","","","","","","","","","","","","","","","","","","","","","","",""
"1102","","image-button-response","136","787750","0.0-133.0","A3TXLDTWZKFA38","img_art/12.jpg","5","","","","","","","","","","","","","","","","","","","","","","","","",""
"1463","","image-button-response","137","789221","0.0-134.0-0.0","A3TXLDTWZKFA38","img_art/12.jpg","1","","","","","","","","","","","","","","","","","","","","","","","","",""
"2384","","image-button-response","138","791623","0.0-135.0-0.0","A3TXLDTWZKFA38","img_art/12.jpg","3","","","","","","","","","","","","","","","","","","","","","","","","",""
"null","","html-keyboard-response","139","793134","0.0-136.0","A3TXLDTWZKFA38","<p style=""font-size: 48px;"">+</p>","","","","","null","allTrialResponses","1500","1","13","img_art/12.jpg","14","good squre","Lindsey,Sierra,Sara,Laura,Sarah,Savannah","Ugly colors and I'm just not too much a fan of cubist abstract art.,-50,400,20","i dont see the point.,-19,260,20","I don't like the blocking,-20,160,20","angry, disturbed and sharp,-25,320,20","i think it's a good piece but it doesn't appeal to me,-18,180,20","Almost natural flowing between abstract sections.,27,200,20","Savannah","Almost natural flowing between abstract sections.,27,200,20","Sierra","i dont see the point.,-19,260,20","Laura","angry, disturbed and sharp,-25,320,20","4"
"6074","","survey-text","140","799228","0.0-137.0-0.0","A3TXLDTWZKFA38","","","","{""Q0"":""nive one""}","","","","","","","","","","","","","","","","","","","","","","",""
"3048","","image-slider-response","141","802284","0.0-138.0","A3TXLDTWZKFA38","","","","","13","","","","","","","","","","","","","","","","","","","","","",""
"2696","","image-button-response","142","807411","0.0-139.0","A3TXLDTWZKFA38","img_art/29.jpg","1","","","","","","","","","","","","","","","","","","","","","","","","",""
"430","","image-button-response","143","807859","0.0-140.0","A3TXLDTWZKFA38","img_art/29.jpg","3","","","","","","","","","","","","","","","","","","","","","","","","",""
"1273","","image-button-response","144","809140","0.0-141.0-0.0","A3TXLDTWZKFA38","img_art/29.jpg","4","","","","","","","","","","","","","","","","","","","","","","","","",""
"1386","","image-button-response","145","810532","0.0-142.0-0.0","A3TXLDTWZKFA38","img_art/29.jpg","1","","","","","","","","","","","","","","","","","","","","","","","","",""
"null","","html-keyboard-response","146","812038","0.0-143.0","A3TXLDTWZKFA38","<p style=""font-size: 48px;"">+</p>","","","","","null","allTrialResponses","1500","1","14","img_art/29.jpg","13","nive one","Heather,Sierra,Elizabeth,Laura,Olivia,Savannah","i dont know how it makes me feel.,1,260,20","not digging the paintbrush,1,260,20","Has a haunting feel to it,22,20,20","this is not art to me - it's random collage,-45,320,20","too challenging to comprehend,-28,40,20","Looks wrong. Like a real painting was vandalized.,-50,200,20","Laura","this is not art to me - it's random collage,-45,320,20","Olivia","too challenging to comprehend,-28,40,20","Sierra","not digging the paintbrush,1,260,20","4"
"6443","","survey-text","147","818500","0.0-144.0-0.0","A3TXLDTWZKFA38","","","","{""Q0"":""awesome""}","","","","","","","","","","","","","","","","","","","","","","",""
"3697","","image-slider-response","148","822205","0.0-145.0","A3TXLDTWZKFA38","","","","","21","","","","","","","","","","","","","","","","","","","","","",""
"4336","","image-button-response","149","827287","0.0-146.0","A3TXLDTWZKFA38","img_art/20.jpg","2","","","","","","","","","","","","","","","","","","","","","","","","",""
"1036","","image-button-response","150","828340","0.0-147.0","A3TXLDTWZKFA38","img_art/20.jpg","5","","","","","","","","","","","","","","","","","","","","","","","","",""
"1251","","image-button-response","151","829599","0.0-148.0-0.0","A3TXLDTWZKFA38","img_art/20.jpg","4","","","","","","","","","","","","","","","","","","","","","","","","",""
"1292","","image-button-response","152","830901","0.0-149.0-0.0","A3TXLDTWZKFA38","img_art/20.jpg","3","","","","","","","","","","","","","","","","","","","","","","","","",""
"null","","html-keyboard-response","153","832409","0.0-150.0","A3TXLDTWZKFA38","<p style=""font-size: 48px;"">+</p>","","","","","null","allTrialResponses","1500","1","15","img_art/20.jpg","21","awesome","Miranda,Sierra,Brooke,Laura,Olivia,Amber","A painting within a painting, the inner painting looks like a car crash with a semi truck.,21,320,20","i like the rounded edges,18,260,20","Dinosaur skill and some dark shadow above,-30,60,20","very fluid and mysterious,37,320,20","crash after traffic causing grief,-11,40,20","Bold strokes and colors.,6,200,20","Amber","Bold strokes and colors.,6,200,20","Olivia","crash after traffic causing grief,-11,40,20","Laura","very fluid and mysterious,37,320,20","4"
"6865","","survey-text","154","839310","0.0-151.0-0.0","A3TXLDTWZKFA38","","","","{""Q0"":""course""}","","","","","","","","","","","","","","","","","","","","","","",""
"7024","","survey-text","155","846343","0.0-152.0-0.0","A3TXLDTWZKFA38","","","","{""Q0"":""real painting""}","","","","","","","","","","","","","","","","","","","","","","",""
"2694","","image-slider-response","156","849046","0.0-153.0","A3TXLDTWZKFA38","","","","","23","","","","","","","","","","","","","","","","","","","","","",""
"4105","","image-button-response","157","854084","0.0-154.0","A3TXLDTWZKFA38","img_art/26.jpg","0","","","","","","","","","","","","","","","","","","","","","","","","",""
"346","","image-button-response","158","854435","0.0-155.0","A3TXLDTWZKFA38","img_art/26.jpg","2","","","","","","","","","","","","","","","","","","","","","","","","",""
"1437","","image-button-response","159","855951","0.0-156.0-0.0","A3TXLDTWZKFA38","img_art/26.jpg","0","","","","","","","","","","","","","","","","","","","","","","","","",""
"1183","","image-button-response","160","857140","0.0-157.0-0.0","A3TXLDTWZKFA38","img_art/26.jpg","1","","","","","","","","","","","","","","","","","","","","","","","","",""
"null","","html-keyboard-response","161","858146","0.0-158.0","A3TXLDTWZKFA38","<p style=""font-size: 48px;"">+</p>","","","","","null","allTrialResponses","1000","1","16","img_art/26.jpg","23","real painting","Paige,Kylie,Angelica,Laura,Olivia,Amber","somewhat happy, like being outside on a nice day,30,60,20","Picturesque little town,45,300,20","It's not ugly but not beautiful at all.,-3,280,20","juvenile, faint and weak,-41,320,20","reminds me of a hometown,7,40,20","The colors are muted.,1,200,20","Angelica","It's not ugly but not beautiful at all.,-3,280,20","Paige","somewhat happy, like being outside on a nice day,30,60,20","Kylie","Picturesque little town,45,300,20","4"
"5015","","survey-text","162","863198","0.0-159.0-0.0","A3TXLDTWZKFA38","","","","{""Q0"":""good one""}","","","","","","","","","","","","","","","","","","","","","","",""
"2532","","image-slider-response","163","865737","0.0-160.0","A3TXLDTWZKFA38","","","","","20","","","","","","","","","","","","","","","","","","","","","",""
"1622","","image-button-response","164","870747","0.0-161.0","A3TXLDTWZKFA38","img_art/18.jpg","4","","","","","","","","","","","","","","","","","","","","","","","","",""
"1515","","image-button-response","165","872271","0.0-162.0","A3TXLDTWZKFA38","img_art/18.jpg","2","","","","","","","","","","","","","","","","","","","","","","","","",""
"1775","","image-button-response","166","874055","0.0-163.0-0.0","A3TXLDTWZKFA38","img_art/18.jpg","4","","","","","","","","","","","","","","","","","","","","","","","","",""
"811","","image-button-response","167","874877","0.0-164.0-0.0","A3TXLDTWZKFA38","img_art/18.jpg","5","","","","","","","","","","","","","","","","","","","","","","","","",""
"null","","html-keyboard-response","168","875880","0.0-165.0","A3TXLDTWZKFA38","<p style=""font-size: 48px;"">+</p>","","","","","null","allTrialResponses","1000","1","17","img_art/18.jpg","20","good one","Paige,Kylie,Angelica,Angela,Madeline,Anna","Unhappy. Makes me thing of evil,-10,60,20","Kind of weird in a confusing way,10,300,20","It looks grotesque and violent.,-50,280,20","like the grays and contrast of the yellow. This piece feels a bit angry,10,260,20","Good concept but then scribbled on a bit?,15,40,20","I could spend a long time looking at it and see different things in the shapes.,21,300,20","Angelica","It looks grotesque and violent.,-50,280,20","Madeline","Good concept but then scribbled on a bit?,15,40,20","Anna","I could spend a long time looking at it and see different things in the shapes.,21,300,20","4"
"17457","","survey-text","169","893384","0.0-166.0-0.0","A3TXLDTWZKFA38","","","","{""Q0"":""awesome colorful""}","","","","","","","","","","","","","","","","","","","","","","",""
"5224","","image-slider-response","170","898647","0.0-167.0","A3TXLDTWZKFA38","","","","","22","","","","","","","","","","","","","","","","","","","","","",""
"3114","","image-button-response","171","903714","0.0-168.0","A3TXLDTWZKFA38","img_art/5.jpg","0","","","","","","","","","","","","","","","","","","","","","","","","",""
"1453","","image-button-response","172","905216","0.0-169.0","A3TXLDTWZKFA38","img_art/5.jpg","2","","","","","","","","","","","","","","","","","","","","","","","","",""
"1709","","image-button-response","173","906939","0.0-170.0-0.0","A3TXLDTWZKFA38","img_art/5.jpg","0","","","","","","","","","","","","","","","","","","","","","","","","",""
"1961","","image-button-response","174","908913","0.0-171.0-0.0","A3TXLDTWZKFA38","img_art/5.jpg","1","","","","","","","","","","","","","","","","","","","","","","","","",""
"null","","html-keyboard-response","175","910426","0.0-172.0","A3TXLDTWZKFA38","<p style=""font-size: 48px;"">+</p>","","","","","null","allTrialResponses","1500","1","18","img_art/5.jpg","22","awesome colorful","Leah,Michaela,Angelica,Michelle,Madeline,Anna","Boring, no flow except the pink feathery band,-42,360,20","Pretty simple, I'm not sure what it's supposed to mean,14,260,20","This is interesting and nice.,16,280,20","What is this? It looks like no effort was put into this work,-2,280,20","A bit too messy in my eyes,-4,40,20","It's kind of boring.,-20,300,20","Angelica","This is interesting and nice.,16,280,20","Leah","Boring, no flow except the pink feathery band,-42,360,20","Michaela","Pretty simple, I'm not sure what it's supposed to mean,14,260,20","4"
"6498","","survey-text","176","916955","0.0-173.0-0.0","A3TXLDTWZKFA38","","","","{""Q0"":""colourful""}","","","","","","","","","","","","","","","","","","","","","","",""
"2518","","image-slider-response","177","919484","0.0-174.0","A3TXLDTWZKFA38","","","","","16","","","","","","","","","","","","","","","","","","","","","",""
"3823","","image-button-response","178","924492","0.0-175.0","A3TXLDTWZKFA38","img_art/22.jpg","4","","","","","","","","","","","","","","","","","","","","","","","","",""
"1313","","image-button-response","179","925814","0.0-176.0","A3TXLDTWZKFA38","img_art/22.jpg","3","","","","","","","","","","","","","","","","","","","","","","","","",""
"904","","image-button-response","180","926727","0.0-177.0-0.0","A3TXLDTWZKFA38","img_art/22.jpg","4","","","","","","","","","","","","","","","","","","","","","","","","",""
"2985","","image-button-response","181","929717","0.0-178.0-0.0","A3TXLDTWZKFA38","img_art/22.jpg","0","","","","","","","","","","","","","","","","","","","","","","","","",""
"null","","html-keyboard-response","182","931227","0.0-179.0","A3TXLDTWZKFA38","<p style=""font-size: 48px;"">+</p>","","","","","null","allTrialResponses","1500","1","19","img_art/22.jpg","16","colourful","Leah,Michaela,Angelica,Chloe,Rebecca,Jessica","Pretty colors but too blocky for me,-19,360,20","I like the use of primary colors in an interesting way,29,260,20","It's bland and ugly.,-21,280,20","Still like the colors but not the most interesting composition,17,220,20","colorful water (in front of castle?),17,100,20","I like the mixing of the primary colors.,8,400,20","Chloe","Still like the colors but not the most interesting composition,17,220,20","Rebecca","colorful water (in front of castle?),17,100,20","Leah","Pretty colors but too blocky for me,-19,360,20","4"
"6883","","survey-text","183","938128","0.0-180.0-0.0","A3TXLDTWZKFA38","","","","{""Q0"":""water save""}","","","","","","","","","","","","","","","","","","","","","","",""
"4967","","image-slider-response","184","943104","0.0-181.0","A3TXLDTWZKFA38","","","","","48","","","","","","","","","","","","","","","","","","","","","",""
"4180","","image-button-response","185","948115","0.0-182.0","A3TXLDTWZKFA38","img_art/24.jpg","4","","","","","","","","","","","","","","","","","","","","","","","","",""
"1420","","image-button-response","186","949543","0.0-183.0","A3TXLDTWZKFA38","img_art/24.jpg","4","","","","","","","","","","","","","","","","","","","","","","","","",""
"1361","","image-button-response","187","950912","0.0-184.0-0.0","A3TXLDTWZKFA38","img_art/24.jpg","5","","","","","","","","","","","","","","","","","","","","","","","","",""
"1358","","image-button-response","188","952277","0.0-185.0-0.0","A3TXLDTWZKFA38","img_art/24.jpg","3","","","","","","","","","","","","","","","","","","","","","","","","",""
"null","","html-keyboard-response","189","953312","0.0-186.0","A3TXLDTWZKFA38","<p style=""font-size: 48px;"">+</p>","","","","","null","allTrialResponses","1000","1","20","img_art/24.jpg","48","water save","Leah,Shannon,Mikayla,Chloe,Rebecca,Cassandra","Happy, the forest as I would love to see it,50,360,20","I like the way the colors are put together, and I can imagine this picture in real life.,40,220,20","Looks like a waterfall!,34,300,20","Pretty but cheesy,-15,220,20","organized mess at first glance, would love to inspect this in closer proximity,39,100,20","I like it...looks like a waterfall.,11,120,20","Rebecca","organized mess at first glance, would love to inspect this in closer proximity,39,100,20","Cassandra","I like it...looks like a waterfall.,11,120,20","Chloe","Pretty but cheesy,-15,220,20","4"
"4057","","survey-text","190","957471","0.0-187.0-0.0","A3TXLDTWZKFA38","","","","{""Q0"":""we""}","","","","","","","","","","","","","","","","","","","","","","",""
"5350","","survey-text","191","962826","0.0-188.0-0.0","A3TXLDTWZKFA38","","","","{""Q0"":""good one""}","","","","","","","","","","","","","","","","","","","","","","",""
"3535","","image-slider-response","192","966371","0.0-189.0","A3TXLDTWZKFA38","","","","","23","","","","","","","","","","","","","","","","","","","","","",""
"null","","image-button-response","193","971383","0.0-190.0","A3TXLDTWZKFA38","img_art/17.jpg","null","","","","","","","","","","","","","","","","","","","","","","","","",""
"366","","image-button-response","194","971755","0.0-191.0","A3TXLDTWZKFA38","img_art/17.jpg","0","","","","","","","","","","","","","","","","","","","","","","","","",""
"1943","","image-button-response","195","973704","0.0-192.0-0.0","A3TXLDTWZKFA38","img_art/17.jpg","1","","","","","","","","","","","","","","","","","","","","","","","","",""
"1381","","image-button-response","196","975094","0.0-193.0-0.0","A3TXLDTWZKFA38","img_art/17.jpg","2","","","","","","","","","","","","","","","","","","","","","","","","",""
"null","","html-keyboard-response","197","975599","0.0-194.0","A3TXLDTWZKFA38","<p style=""font-size: 48px;"">+</p>","","","","","null","allTrialResponses","500","1","21","img_art/17.jpg","23","good one","Samantha,Katie,Monica,Chloe,Rebecca,Cassandra","Nice colors, shapes, flow,31,140,20","Is it a tree/plant of some sort?  Or, I see hair?  I don't get it. But, the colors are pleasing to me.,1,160,20","The colors remind me of a sunset and give a bittersweet feeling. It looks unfinished but not terrible.,6,360,20","Pretty but a little cheesy,-10,220,20","tree sprouting out of a box (house) the invasion of nature?,39,100,20","Very pretty...the colors and good and flow well.,33,120,20","Samantha","Nice colors, shapes, flow,31,140,20","Katie","Is it a tree/plant of some sort?  Or, I see hair?  I don't get it. But, the colors are pleasing to me.,1,160,20","Monica","The colors remind me of a sunset and give a bittersweet feeling. It looks unfinished but not terrible.,6,360,20","4"
"7400","","survey-text","198","983020","0.0-195.0-0.0","A3TXLDTWZKFA38","","","","{""Q0"":""some what""}","","","","","","","","","","","","","","","","","","","","","","",""
"3554","","image-slider-response","199","986581","0.0-196.0","A3TXLDTWZKFA38","","","","","14","","","","","","","","","","","","","","","","","","","","","",""
"3606","","image-button-response","200","991591","0.0-197.0","A3TXLDTWZKFA38","img_art/3.jpg","1","","","","","","","","","","","","","","","","","","","","","","","","",""
"1311","","image-button-response","201","992907","0.0-198.0","A3TXLDTWZKFA38","img_art/3.jpg","4","","","","","","","","","","","","","","","","","","","","","","","","",""
"1204","","image-button-response","202","994117","0.0-199.0-0.0","A3TXLDTWZKFA38","img_art/3.jpg","5","","","","","","","","","","","","","","","","","","","","","","","","",""
"1408","","image-button-response","203","995531","0.0-200.0-0.0","A3TXLDTWZKFA38","img_art/3.jpg","1","","","","","","","","","","","","","","","","","","","","","","","","",""
"null","","html-keyboard-response","204","997038","0.0-201.0","A3TXLDTWZKFA38","<p style=""font-size: 48px;"">+</p>","","","","","null","allTrialResponses","1500","1","22","img_art/3.jpg","14","some what","Samantha,Katie,Monica,Sophia,Jamie,Megan","Too angry and scribbly,-43,140,20","Messy. Looks like a children's drawing being passed off as expensive art. Too much red.,-50,160,20","It looks like random scribbles by a child and not appealing,-38,360,20","Marker gone wild?  Not sure what's going on here.,-21,280,20","Looks like somebody squirted ketchup everywhere,-40,320,20","5 min scribble by a 3 year old,-46,200,20","Jamie","Looks like somebody squirted ketchup everywhere,-40,320,20","Megan","5 min scribble by a 3 year old,-46,200,20","Katie","Messy. Looks like a children's drawing being passed off as expensive art. Too much red.,-50,160,20","4"
"11918","","survey-text","205","1008982","0.0-202.0-0.0","A3TXLDTWZKFA38","","","","{""Q0"":""water colour""}","","","","","","","","","","","","","","","","","","","","","","",""
"5743","","image-slider-response","206","1014732","0.0-203.0","A3TXLDTWZKFA38","","","","","21","","","","","","","","","","","","","","","","","","","","","",""
"3204","","image-button-response","207","1019740","0.0-204.0","A3TXLDTWZKFA38","img_art/13.jpg","3","","","","","","","","","","","","","","","","","","","","","","","","",""
"1753","","image-button-response","208","1021507","0.0-205.0","A3TXLDTWZKFA38","img_art/13.jpg","5","","","","","","","","","","","","","","","","","","","","","","","","",""
"1482","","image-button-response","209","1022997","0.0-206.0-0.0","A3TXLDTWZKFA38","img_art/13.jpg","1","","","","","","","","","","","","","","","","","","","","","","","","",""
"1478","","image-button-response","210","1024486","0.0-207.0-0.0","A3TXLDTWZKFA38","img_art/13.jpg","3","","","","","","","","","","","","","","","","","","","","","","","","",""
"null","","html-keyboard-response","211","1025992","0.0-208.0","A3TXLDTWZKFA38","<p style=""font-size: 48px;"">+</p>","","","","","null","allTrialResponses","1500","1","23","img_art/13.jpg","21","water colour","Jasmine,Katie,Ashley,Gabriela,Jamie,Megan","I like the colors together,17,340,20","Cool and calming colors. I like splatter art.,10,160,20","AWESOME! Pollack but with more direction.,32,320,20","It looks too common, is a bit boring,-41,140,20","Cool colors and looks like rain on a window,45,320,20","Average overly symmetrical safe,-26,200,20","Megan","Average overly symmetrical safe,-26,200,20","Katie","Cool and calming colors. I like splatter art.,10,160,20","Gabriela","It looks too common, is a bit boring,-41,140,20","4"
"8200","","survey-text","212","1034217","0.0-209.0-0.0","A3TXLDTWZKFA38","","","","{""Q0"":""colourful""}","","","","","","","","","","","","","","","","","","","","","","",""
"2434","","image-slider-response","213","1036663","0.0-210.0","A3TXLDTWZKFA38","","","","","20","","","","","","","","","","","","","","","","","","","","","",""
"4000","","image-button-response","214","1041698","0.0-211.0","A3TXLDTWZKFA38","img_art/23.jpg","2","","","","","","","","","","","","","","","","","","","","","","","","",""
"1666","","image-button-response","215","1043371","0.0-212.0","A3TXLDTWZKFA38","img_art/23.jpg","4","","","","","","","","","","","","","","","","","","","","","","","","",""
"810","","image-button-response","216","1044187","0.0-213.0-0.0","A3TXLDTWZKFA38","img_art/23.jpg","5","","","","","","","","","","","","","","","","","","","","","","","","",""
"736","","image-button-response","217","1044930","0.0-214.0-0.0","A3TXLDTWZKFA38","img_art/23.jpg","3","","","","","","","","","","","","","","","","","","","","","","","","",""
"null","","html-keyboard-response","218","1045939","0.0-215.0","A3TXLDTWZKFA38","<p style=""font-size: 48px;"">+</p>","","","","","null","allTrialResponses","1000","1","24","img_art/23.jpg","20","colourful","Mariah,Katie,Courtney,Gabriela,Katelyn,Megan","It feels active and vibrant.,20,140,20","I don't get it! the white in the middle of the speckled rainbow is confusing.,-10,160,20","Looks like fish fossils,12,280,20","It looks like a parade of musicians full of excitement. Makes me feel upbeat,33,140,20","Makes me want to stare at it for hours. Like there is something deeper to find.,37,100,20","Too busy with color with warrior lineup,0,200,20","Katelyn","Makes me want to stare at it for hours. Like there is something deeper to find.,37,100,20","Megan","Too busy with color with warrior lineup,0,200,20","Gabriela","It looks like a parade of musicians full of excitement. Makes me feel upbeat,33,140,20","4"
"8022","","survey-text","219","1054000","0.0-216.0-0.0","A3TXLDTWZKFA38","","","","{""Q0"":""mind blowing""}","","","","","","","","","","","","","","","","","","","","","","",""
"2819","","image-slider-response","220","1056825","0.0-217.0","A3TXLDTWZKFA38","","","","","22","","","","","","","","","","","","","","","","","","","","","",""
"1797","","image-button-response","221","1061848","0.0-218.0","A3TXLDTWZKFA38","img_art/27.jpg","1","","","","","","","","","","","","","","","","","","","","","","","","",""
"1112","","image-button-response","222","1062973","0.0-219.0","A3TXLDTWZKFA38","img_art/27.jpg","4","","","","","","","","","","","","","","","","","","","","","","","","",""
"1773","","image-button-response","223","1064753","0.0-220.0-0.0","A3TXLDTWZKFA38","img_art/27.jpg","1","","","","","","","","","","","","","","","","","","","","","","","","",""
"1981","","image-button-response","224","1066743","0.0-221.0-0.0","A3TXLDTWZKFA38","img_art/27.jpg","0","","","","","","","","","","","","","","","","","","","","","","","","",""
"null","","html-keyboard-response","225","1067249","0.0-222.0","A3TXLDTWZKFA38","<p style=""font-size: 48px;"">+</p>","","","","","null","allTrialResponses","500","1","25","img_art/27.jpg","22","mind blowing","Molly,Briana,Caroline,Gabriela,Katelyn,Megan","No clue what to say.,0,340,20","Unfinished something?,-30,400,20","Didnt actually make me feel anything, sort of bland,3,100,20","I like hoe it looks like a fall day in a city,45,140,20","Doesnt look like anything to me. Doesnt capture my attention.,-25,100,20","Nice back ground with childish scribble on top,-30,200,20","Katelyn","Doesnt look like anything to me. Doesnt capture my attention.,-25,100,20","Briana","Unfinished something?,-30,400,20","Molly","No clue what to say.,0,340,20","4"
"4259","","survey-text","226","1071553","0.0-223.0-0.0","A3TXLDTWZKFA38","","","","{""Q0"":""table""}","","","","","","","","","","","","","","","","","","","","","","",""
"5739","","survey-text","227","1077300","0.0-224.0-0.0","A3TXLDTWZKFA38","","","","{""Q0"":""nice one""}","","","","","","","","","","","","","","","","","","","","","","",""
"4366","","image-slider-response","228","1081673","0.0-225.0","A3TXLDTWZKFA38","","","","","31","","","","","","","","","","","","","","","","","","","","","",""
"1604","","image-button-response","229","1086679","0.0-226.0","A3TXLDTWZKFA38","img_art/4.jpg","4","","","","","","","","","","","","","","","","","","","","","","","","",""
"1211","","image-button-response","230","1087896","0.0-227.0","A3TXLDTWZKFA38","img_art/4.jpg","1","","","","","","","","","","","","","","","","","","","","","","","","",""
"1500","","image-button-response","231","1089403","0.0-228.0-0.0","A3TXLDTWZKFA38","img_art/4.jpg","2","","","","","","","","","","","","","","","","","","","","","","","","",""
"1490","","image-button-response","232","1090901","0.0-229.0-0.0","A3TXLDTWZKFA38","img_art/4.jpg","4","","","","","","","","","","","","","","","","","","","","","","","","",""
"null","","html-keyboard-response","233","1091406","0.0-230.0","A3TXLDTWZKFA38","<p style=""font-size: 48px;"">+</p>","","","","","null","allTrialResponses","500","1","26","img_art/4.jpg","31","nice one","Molly,Briana,Nicole,Julia,Katelyn,Kaylee","Not bad at all.,20,340,20","Fingerpaint of a hand?,-30,400,20","Mcdonald's french fries :(,-40,20,20","it reminds me of McDonalds, and not in a good way.,-34,40,20","I like the warmth in the colors. Its reassuring.,9,100,20","just a scuffed hand,-15,200,20","Briana","Fingerpaint of a hand?,-30,400,20","Nicole","Mcdonald's french fries :(,-40,20,20","Katelyn","I like the warmth in the colors. Its reassuring.,9,100,20","4"
"12441","","survey-text","234","1103869","0.0-231.0-0.0","A3TXLDTWZKFA38","","","","{""Q0"":""snake like""}","","","","","","","","","","","","","","","","","","","","","","",""
"3488","","image-slider-response","235","1107366","0.0-232.0","A3TXLDTWZKFA38","","","","","31","","","","","","","","","","","","","","","","","","","","","",""
"2838","","image-button-response","236","1112408","0.0-233.0","A3TXLDTWZKFA38","img_art/30.jpg","1","","","","","","","","","","","","","","","","","","","","","","","","",""
"1404","","image-button-response","237","1113824","0.0-234.0","A3TXLDTWZKFA38","img_art/30.jpg","0","","","","","","","","","","","","","","","","","","","","","","","","",""
"1786","","image-button-response","238","1115615","0.0-235.0-0.0","A3TXLDTWZKFA38","img_art/30.jpg","4","","","","","","","","","","","","","","","","","","","","","","","","",""
"1574","","image-button-response","239","1117197","0.0-236.0-0.0","A3TXLDTWZKFA38","img_art/30.jpg","5","","","","","","","","","","","","","","","","","","","","","","","","",""
"null","","html-keyboard-response","240","1117703","0.0-237.0","A3TXLDTWZKFA38","<p style=""font-size: 48px;"">+</p>","","","","","null","allTrialResponses","500","1","27","img_art/30.jpg","31","snake like","Madison,Briana,Nicole,Gabrielle,Katelyn,Hailey","Interesting brushstroke work, but not particularly memorable.,21,60,20","Its ugly. Too simple,-23,400,20","I like the softness of this but it doesn't make me feel that nice,5,20,20","looks very childish, like your kid did it,-33,160,20","I do like the multi-dimensional aspect of this piece,10,100,20","snakes in the grass, I don't like it,-17,200,20","Madison","Interesting brushstroke work, but not particularly memorable.,21,60,20","Katelyn","I do like the multi-dimensional aspect of this piece,10,100,20","Hailey","snakes in the grass, I don't like it,-17,200,20","4"
"6694","","survey-text","241","1124420","0.0-238.0-0.0","A3TXLDTWZKFA38","","","","{""Q0"":""nice colour""}","","","","","","","","","","","","","","","","","","","","","","",""
"3114","","image-slider-response","242","1127548","0.0-239.0","A3TXLDTWZKFA38","","","","","19","","","","","","","","","","","","","","","","","","","","","",""
"4667","","image-button-response","243","1132555","0.0-240.0","A3TXLDTWZKFA38","img_art/15.jpg","0","","","","","","","","","","","","","","","","","","","","","","","","",""
"1970","","image-button-response","244","1134530","0.0-241.0","A3TXLDTWZKFA38","img_art/15.jpg","0","","","","","","","","","","","","","","","","","","","","","","","","",""
"1283","","image-button-response","245","1135819","0.0-242.0-0.0","A3TXLDTWZKFA38","img_art/15.jpg","4","","","","","","","","","","","","","","","","","","","","","","","","",""
"911","","image-button-response","246","1136736","0.0-243.0-0.0","A3TXLDTWZKFA38","img_art/15.jpg","5","","","","","","","","","","","","","","","","","","","","","","","","",""
"null","","html-keyboard-response","247","1137241","0.0-244.0","A3TXLDTWZKFA38","<p style=""font-size: 48px;"">+</p>","","","","","null","allTrialResponses","500","1","28","img_art/15.jpg","19","nice colour","Madison,Leslie,Autumn,Kristen,Katelyn,Hailey","I am starting to feel description fatigue. This would be pleasant enough in a doctor's office waiting room.,15,60,20","This elicits no reaction in me.,0,380,20","Simple but not good,-34,340,20","darkness, hatred, fear,-29,280,20","Doesnt trigger much of a reaction overall,-2,100,20","ugly picture and don't like it,-22,200,20","Madison","I am starting to feel description fatigue. This would be pleasant enough in a doctor's office waiting room.,15,60,20","Katelyn","Doesnt trigger much of a reaction overall,-2,100,20","Hailey","ugly picture and don't like it,-22,200,20","4"
"12226","","survey-text","248","1149497","0.0-245.0-0.0","A3TXLDTWZKFA38","","","","{""Q0"":""word no""}","","","","","","","","","","","","","","","","","","","","","","",""
"4494","","image-slider-response","249","1153998","0.0-246.0","A3TXLDTWZKFA38","","","","","18","","","","","","","","","","","","","","","","","","","","","",""
"3266","","image-button-response","250","1159009","0.0-247.0","A3TXLDTWZKFA38","img_art/25.jpg","4","","","","","","","","","","","","","","","","","","","","","","","","",""
"1252","","image-button-response","251","1160277","0.0-248.0","A3TXLDTWZKFA38","img_art/25.jpg","1","","","","","","","","","","","","","","","","","","","","","","","","",""
"836","","image-button-response","252","1161120","0.0-249.0-0.0","A3TXLDTWZKFA38","img_art/25.jpg","2","","","","","","","","","","","","","","","","","","","","","","","","",""
"1172","","image-button-response","253","1162299","0.0-250.0-0.0","A3TXLDTWZKFA38","img_art/25.jpg","0","","","","","","","","","","","","","","","","","","","","","","","","",""
"null","","html-keyboard-response","254","1162805","0.0-251.0","A3TXLDTWZKFA38","<p style=""font-size: 48px;"">+</p>","","","","","null","allTrialResponses","500","1","29","img_art/25.jpg","18","word no","Madison,Crystal,Diana,Melissa,Katelyn,Hailey","Meh. Hardly abstract, though.,-40,60,20","Seems ritualistic and nativist,50,300,20","This piece feels cultural. Like it represents something culturally.,22,380,20","do not like that color of green,-11,240,20","Creates a bit of fear in me for some reason,-26,100,20","ugly color and very sad old lady,-45,200,20","Crystal","Seems ritualistic and nativist,50,300,20","Diana","This piece feels cultural. Like it represents something culturally.,22,380,20","Madison","Meh. Hardly abstract, though.,-40,60,20","4"
"12181","","survey-text","255","1175016","0.0-252.0-0.0","A3TXLDTWZKFA38","","","","{""Q0"":""some girl in this picture""}","","","","","","","","","","","","","","","","","","","","","","",""
"2835","","image-slider-response","256","1177858","0.0-253.0","A3TXLDTWZKFA38","","","","","19","","","","","","","","","","","","","","","","","","","","","",""
"3169","","image-button-response","257","1182866","0.0-254.0","A3TXLDTWZKFA38","img_art/9.jpg","4","","","","","","","","","","","","","","","","","","","","","","","","",""
"774","","image-button-response","258","1183648","0.0-255.0","A3TXLDTWZKFA38","img_art/9.jpg","5","","","","","","","","","","","","","","","","","","","","","","","","",""
"838","","image-button-response","259","1184492","0.0-256.0-0.0","A3TXLDTWZKFA38","img_art/9.jpg","4","","","","","","","","","","","","","","","","","","","","","","","","",""
"1215","","image-button-response","260","1185713","0.0-257.0-0.0","A3TXLDTWZKFA38","img_art/9.jpg","3","","","","","","","","","","","","","","","","","","","","","","","","",""
"null","","html-keyboard-response","261","1186716","0.0-258.0","A3TXLDTWZKFA38","<p style=""font-size: 48px;"">+</p>","","","","","null","allTrialResponses","1000","1","30","img_art/9.jpg","19","some girl in this picture","Madison,Crystal,Diana,Claire,Isabella,Maria","No cohesive form whatsoever. Hard pass.,-31,60,20","Evokes triumph of a mountain over powering a drowning sea,24,300,20","I think it's sleeping beauty but I'm not sure. I didn't care for this piece.,-30,380,20","the colors are nice,6,260,20","Angry beast mouth,-37,280,20","while I don't dispute the art, it feels childish,-20,120,20","Maria","while I don't dispute the art, it feels childish,-20,120,20","Isabella","Angry beast mouth,-37,280,20","Claire","the colors are nice,6,260,20","4"
"5706","","image-button-response_instructions","262","1192442","0.0-259.0","A3TXLDTWZKFA38","","0","instructions","","","","","","","","","","","","","","","","","","","","","","","",""
"2001","","image-button-response","263","1194464","0.0-260.0","A3TXLDTWZKFA38","","0","","","","","","","","","","","","","","","","","","","","","","","","",""
