"rt","url","trial_type","trial_index","time_elapsed","internal_node_id","participant_id","stimulus","button_pressed","Name","responses","response","key_press","variableName","fixationTime","condition","trial","photo","subjectRating","subjectResponse","agentsNames","agent_1_Response","agent_2_Response","agent_3_Response","agent_4_Response","agent_5_Response","agent_6_Response","kept_1_name","kept_1_response","kept_2_name","kept_2_response","kept_3_name","kept_3_response","errorCounter"
"6093","external_page_harvard.html","external-html","0","6439","0.0-0.0","A3U01JD1ZRRHPL","","","","","","","","","","","","","","","","","","","","","","","","","","",""
"2000","","image-button-response","1","8441","0.0-1.0","A3U01JD1ZRRHPL","","1","","","","","","","","","","","","","","","","","","","","","","","","",""
"2290","","image-button-response","2","10735","0.0-2.0-0.0","A3U01JD1ZRRHPL","","1","phone","","","","","","","","","","","","","","","","","","","","","","","",""
"13785","","survey-text","3","24521","0.0-3.0-0.0","A3U01JD1ZRRHPL","","","","{""Q0"":""A3U01JD1ZRRHPL""}","","","","","","","","","","","","","","","","","","","","","","",""
"10195","","image-button-response_instructions","4","34718","0.0-4.0","A3U01JD1ZRRHPL","","0","instructions","","","","","","","","","","","","","","","","","","","","","","","",""
"19199","","image-button-response_instructions","5","53918","0.0-5.0","A3U01JD1ZRRHPL","img_art/ins/popularity/ins1.png","0","instructions","","","","","","","","","","","","","","","","","","","","","","","",""
"5751","","image-button-response_instructions","6","59669","0.0-6.0","A3U01JD1ZRRHPL","img_art/ins/popularity/ins2.png","0","instructions","","","","","","","","","","","","","","","","","","","","","","","",""
"10957","","image-button-response_instructions","7","70627","0.0-7.0","A3U01JD1ZRRHPL","img_art/ins/popularity/ins2Extreme.png","0","instructions","","","","","","","","","","","","","","","","","","","","","","","",""
"15711","","image-button-response_instructions","8","86339","0.0-8.0","A3U01JD1ZRRHPL","img_art/ins/popularity/ins3KEEPpop.PNG","0","instructions","","","","","","","","","","","","","","","","","","","","","","","",""
"3928","","image-button-response_instructions","9","90267","0.0-9.0","A3U01JD1ZRRHPL","img_art/ins/popularity/ins3ANamepop.PNG","0","instructions","","","","","","","","","","","","","","","","","","","","","","","",""
"3079","","image-button-response_instructions","10","93347","0.0-10.0","A3U01JD1ZRRHPL","img_art/ins/popularity/ins3ARatingpop.png","0","instructions","","","","","","","","","","","","","","","","","","","","","","","",""
"2323","","image-button-response_instructions","11","95671","0.0-11.0","A3U01JD1ZRRHPL","img_art/ins/popularity/ins3ATextpop.png","0","instructions","","","","","","","","","","","","","","","","","","","","","","","",""
"7794","","image-button-response_instructions","12","103465","0.0-12.0","A3U01JD1ZRRHPL","img_art/ins/popularity/ins3ALikespop.png","0","instructions","","","","","","","","","","","","","","","","","","","","","","","",""
"9637","","image-button-response_instructions","13","113103","0.0-13.0","A3U01JD1ZRRHPL","img_art/ins/popularity/ins3KEEPpop.PNG","0","instructions","","","","","","","","","","","","","","","","","","","","","","","",""
"10793","","image-button-response_instructions","14","123897","0.0-14.0","A3U01JD1ZRRHPL","img_art/ins/popularity/ins3_5RED.png","0","instructions","","","","","","","","","","","","","","","","","","","","","","","",""
"6117","","image-button-response_instructions","15","130016","0.0-15.0","A3U01JD1ZRRHPL","img_art/ins/popularity/ins3KEEPpop.PNG","0","instructions","","","","","","","","","","","","","","","","","","","","","","","",""
"8765","","image-button-response_instructions","16","138781","0.0-16.0","A3U01JD1ZRRHPL","img_art/ins/popularity/ins4KEEPpop.PNG","0","instructions","","","","","","","","","","","","","","","","","","","","","","","",""
"5749","","image-button-response_instructions","17","144531","0.0-17.0","A3U01JD1ZRRHPL","img_art/ins/popularity/ins5KEEPpop.PNG","0","instructions","","","","","","","","","","","","","","","","","","","","","","","",""
"2143","","image-button-response_instructions","18","146675","0.0-18.0","A3U01JD1ZRRHPL","","0","instructions","","","","","","","","","","","","","","","","","","","","","","","",""
"6784","","survey-text","19","153479","0.0-19.0-0.0","A3U01JD1ZRRHPL","","","","{""Q0"":""but""}","","","","","","","","","","","","","","","","","","","","","","",""
"15443","","survey-text","20","168923","0.0-20.0-0.0","A3U01JD1ZRRHPL","","","","{""Q0"":""It reminds me of a field of flowers with wind blowing""}","","","","","","","","","","","","","","","","","","","","","","",""
"4572.600000023842","","image-slider-response","21","173497","0.0-21.0","A3U01JD1ZRRHPL","","","","","13","","","","","","","","","","","","","","","","","","","","","",""
"null","","image-button-response","22","178501","0.0-22.0","A3U01JD1ZRRHPL","img_art/ins/1.jpg","null","","","","","","","","","","","","","","","","","","","","","","","","",""
"2173","","image-button-response","23","180678","0.0-23.0","A3U01JD1ZRRHPL","img_art/ins/1.jpg","4","","","","","","","","","","","","","","","","","","","","","","","","",""
"2496","","image-button-response","24","183176","0.0-24.0-0.0","A3U01JD1ZRRHPL","img_art/ins/1.jpg","5","","","","","","","","","","","","","","","","","","","","","","","","",""
"4012","","image-button-response","25","187190","0.0-25.0-0.0","A3U01JD1ZRRHPL","img_art/ins/1.jpg","0","","","","","","","","","","","","","","","","","","","","","","","","",""
"null","","html-keyboard-response","26","188193","0.0-26.0","A3U01JD1ZRRHPL","<p style=""font-size: 48px;"">+</p>","","","","","null","allTrialResponses","1000","1","-2","img_art/ins/1.jpg","13","It reminds me of a field of flowers with wind blowing","Allison,Ashley,Beth,Dora,Erika,Jen","looks like a lot of things going on in the mist,20,20,20","I just don't get why these type of art would be popular,-32,40,20","This color reminds me of poo,-46,60,20","looks like what my niece in 3rd grade did this afternoon,-50,80,20","I like the sophisticated brushwork,40,100,20","It reminds me of a candy land dream I had,36,120,20","Erika","I like the sophisticated brushwork,40,100,20","Jen","It reminds me of a candy land dream I had,36,120,20","Allison","looks like a lot of things going on in the mist,20,20,20","0"
"17875","","survey-text","27","206073","0.0-27.0-0.0","A3U01JD1ZRRHPL","","","","{""Q0"":""Rather dark...reminds me of a fire""}","","","","","","","","","","","","","","","","","","","","","","",""
"3724.899999976158","","image-slider-response","28","209799","0.0-28.0","A3U01JD1ZRRHPL","","","","","-13","","","","","","","","","","","","","","","","","","","","","",""
"2581","","image-button-response","29","214802","0.0-29.0","A3U01JD1ZRRHPL","img_art/ins/2.jpg","5","","","","","","","","","","","","","","","","","","","","","","","","",""
"1749","","image-button-response","30","216556","0.0-30.0","A3U01JD1ZRRHPL","img_art/ins/2.jpg","5","","","","","","","","","","","","","","","","","","","","","","","","",""
"6871","","image-button-response","31","223428","0.0-31.0-0.0","A3U01JD1ZRRHPL","img_art/ins/2.jpg","1","","","","","","","","","","","","","","","","","","","","","","","","",""
"1128","","image-button-response","32","224558","0.0-32.0-0.0","A3U01JD1ZRRHPL","img_art/ins/2.jpg","2","","","","","","","","","","","","","","","","","","","","","","","","",""
"null","","html-keyboard-response","33","225559","0.0-33.0","A3U01JD1ZRRHPL","<p style=""font-size: 48px;"">+</p>","","","","","null","allTrialResponses","1000","1","-1","img_art/ins/2.jpg","-13","Rather dark...reminds me of a fire","Allison,Kara,Katie,Jenna,Erika,Jen","I don't have strong feelings about this,10,20,20","I like the blocks of color arrangements,30,160,20","too much color!,-28,180,20","One of my pet peevs,-48,140,20","I would never be able to compose a sophisticated pallete like this,48,100,20","It reminds me of a fireplace,36,120,20","Jen","It reminds me of a fireplace,36,120,20","Kara","I like the blocks of color arrangements,30,160,20","Katie","too much color!,-28,180,20","0"
"14020","","survey-text","34","239589","0.0-34.0-0.0","A3U01JD1ZRRHPL","","","","{""Q0"":""Its like the sky on a windy day""}","","","","","","","","","","","","","","","","","","","","","","",""
"2974.900000035763","","image-slider-response","35","242565","0.0-35.0","A3U01JD1ZRRHPL","","","","","-12","","","","","","","","","","","","","","","","","","","","","",""
"null","","image-button-response","36","247568","0.0-36.0","A3U01JD1ZRRHPL","img_art/ins/3.jpg","null","","","","","","","","","","","","","","","","","","","","","","","","",""
"957","","image-button-response","37","248527","0.0-37.0","A3U01JD1ZRRHPL","img_art/ins/3.jpg","1","","","","","","","","","","","","","","","","","","","","","","","","",""
"2504","","image-button-response","38","251032","0.0-38.0-0.0","A3U01JD1ZRRHPL","img_art/ins/3.jpg","5","","","","","","","","","","","","","","","","","","","","","","","","",""
"1546","","image-button-response","39","252579","0.0-39.0-0.0","A3U01JD1ZRRHPL","img_art/ins/3.jpg","3","","","","","","","","","","","","","","","","","","","","","","","","",""
"null","","html-keyboard-response","40","253580","0.0-40.0","A3U01JD1ZRRHPL","<p style=""font-size: 48px;"">+</p>","","","","","null","allTrialResponses","1000","1","0","img_art/ins/3.jpg","-12","Its like the sky on a windy day","Rose,Kara,Katie,Leslie,Mary,Jen","My daily routine, it's depressing,-20,240,20","calming blue is very nice,36,160,20","It looks depressing,-26,180,20","It's an alright work,15,200,20","I like the overlapping of brushes,41,220,20","I can feel a rainy day from this painting,18,120,20","Kara","calming blue is very nice,36,160,20","Jen","I can feel a rainy day from this painting,18,120,20","Leslie","It's an alright work,15,200,20","0"
"5945","","image-button-response_instructions","41","259531","0.0-41.0","A3U01JD1ZRRHPL","","0","instructions","","","","","","","","","","","","","","","","","","","","","","","",""
"10526","","survey-likert","42","270058","0.0-42.0-0.0","A3U01JD1ZRRHPL","","","","{""Q0"":"""",""Q1"":0,""Q2"":1}","","","","","","","","","","","","","","","","","","","","","","",""
"4371","","survey-text","43","274432","0.0-43.0-0.0","A3U01JD1ZRRHPL","","","","{""Q0"":""rock""}","","","","","","","","","","","","","","","","","","","","","","",""
"11677","","survey-text","44","286111","0.0-44.0-0.0","A3U01JD1ZRRHPL","","","","{""Q0"":""rain drops on a window in a storm""}","","","","","","","","","","","","","","","","","","","","","","",""
"3576.600000023842","","image-slider-response","45","289688","0.0-45.0","A3U01JD1ZRRHPL","","","","","-15","","","","","","","","","","","","","","","","","","","","","",""
"4416","","image-button-response","46","294711","0.0-46.0","A3U01JD1ZRRHPL","img_art/13.jpg","1","","","","","","","","","","","","","","","","","","","","","","","","",""
"1055","","image-button-response","47","295768","0.0-47.0","A3U01JD1ZRRHPL","img_art/13.jpg","1","","","","","","","","","","","","","","","","","","","","","","","","",""
"3007","","image-button-response","48","298776","0.0-48.0-0.0","A3U01JD1ZRRHPL","img_art/13.jpg","4","","","","","","","","","","","","","","","","","","","","","","","","",""
"1807","","image-button-response","49","300584","0.0-49.0-0.0","A3U01JD1ZRRHPL","img_art/13.jpg","5","","","","","","","","","","","","","","","","","","","","","","","","",""
"null","","html-keyboard-response","50","301587","0.0-50.0","A3U01JD1ZRRHPL","<p style=""font-size: 48px;"">+</p>","","","","","null","allTrialResponses","1000","1","1","img_art/13.jpg","-15","rain drops on a window in a storm","Gabriela,Tiffany,Sara,Mikayla,Sierra,Julia","It looks too common, is a bit boring,-41,140,20","The painting makes me feel awe and like I am very little. Like I am alone at the bottom of the ocean.,41,360,20","I love the different blue shades,31,160,20","My favorite!,47,300,20","the blues are soothing but the splatters are too much,-3,260,20","I don't really care for splatter paintings; the spectral colors underneath are nice.,-18,40,20","Tiffany","The painting makes me feel awe and like I am very little. Like I am alone at the bottom of the ocean.,41,360,20","Sierra","the blues are soothing but the splatters are too much,-3,260,20","Julia","I don't really care for splatter paintings; the spectral colors underneath are nice.,-18,40,20","0"
"22754","","survey-text","51","324350","0.0-51.0-0.0","A3U01JD1ZRRHPL","","","","{""Q0"":""a boss talking to his subordinate in his office. not a good conversation""}","","","","","","","","","","","","","","","","","","","","","","",""
"3259.199999988079","","image-slider-response","52","327610","0.0-52.0","A3U01JD1ZRRHPL","","","","","-27","","","","","","","","","","","","","","","","","","","","","",""
"null","","image-button-response","53","332613","0.0-53.0","A3U01JD1ZRRHPL","img_art/28.jpg","null","","","","","","","","","","","","","","","","","","","","","","","","",""
"2425","","image-button-response","54","335040","0.0-54.0","A3U01JD1ZRRHPL","img_art/28.jpg","3","","","","","","","","","","","","","","","","","","","","","","","","",""
"2269","","image-button-response","55","337310","0.0-55.0-0.0","A3U01JD1ZRRHPL","img_art/28.jpg","5","","","","","","","","","","","","","","","","","","","","","","","","",""
"2355","","image-button-response","56","339666","0.0-56.0-0.0","A3U01JD1ZRRHPL","img_art/28.jpg","1","","","","","","","","","","","","","","","","","","","","","","","","",""
"null","","html-keyboard-response","57","341167","0.0-57.0","A3U01JD1ZRRHPL","<p style=""font-size: 48px;"">+</p>","","","","","null","allTrialResponses","1500","1","2","img_art/28.jpg","-27","a boss talking to his subordinate in his office. not a good conversation","Brooke,Tiffany,Jennifer,Ashley,Sierra,Julia","dislike the colors. it looks like a bike, but misshapen wheels like it was wrecked.,-10,60,20","It makes me feel happy, and a little anxious.,50,360,20","This picture doesn't really stand out to me,1,380,20","Normally don't react well to abstract art, but it looks almost like something's there.,28,320,20","i like the colors and the shapes look like people,20,260,20","the people kind of scare me in this one,-15,40,20","Ashley","Normally don't react well to abstract art, but it looks almost like something's there.,28,320,20","Julia","the people kind of scare me in this one,-15,40,20","Tiffany","It makes me feel happy, and a little anxious.,50,360,20","0"
"18803","","survey-text","58","359974","0.0-58.0-0.0","A3U01JD1ZRRHPL","","","","{""Q0"":""looks like a tornado hitting a building...disturbing""}","","","","","","","","","","","","","","","","","","","","","","",""
"3242.800000011921","","image-slider-response","59","363218","0.0-59.0","A3U01JD1ZRRHPL","","","","","-41","","","","","","","","","","","","","","","","","","","","","",""
"3691","","image-button-response","60","368221","0.0-60.0","A3U01JD1ZRRHPL","img_art/18.jpg","0","","","","","","","","","","","","","","","","","","","","","","","","",""
"2268","","image-button-response","61","370492","0.0-61.0","A3U01JD1ZRRHPL","img_art/18.jpg","0","","","","","","","","","","","","","","","","","","","","","","","","",""
"4461","","image-button-response","62","374954","0.0-62.0-0.0","A3U01JD1ZRRHPL","img_art/18.jpg","4","","","","","","","","","","","","","","","","","","","","","","","","",""
"1898","","image-button-response","63","376854","0.0-63.0-0.0","A3U01JD1ZRRHPL","img_art/18.jpg","5","","","","","","","","","","","","","","","","","","","","","","","","",""
"null","","html-keyboard-response","64","378356","0.0-64.0","A3U01JD1ZRRHPL","<p style=""font-size: 48px;"">+</p>","","","","","null","allTrialResponses","1500","1","3","img_art/18.jpg","-41","looks like a tornado hitting a building...disturbing","Shelby,Tiffany,Kaylee,Ashley,Diana,Julia","This gives a very ominous feeling,-30,240,20","I'm mildly disgusted by the colors, and can't piece together the story the figures are trying to tell.,-10,360,20","looks like a war,22,200,20","Resembles a ship at sea, storm of activity.,28,320,20","This painting reminds me of the 4 horsemen of the apocalypse. It feels haunting.,31,380,20","Very classy, I feel like it's the apocalypse.,25,40,20","Shelby","This gives a very ominous feeling,-30,240,20","Diana","This painting reminds me of the 4 horsemen of the apocalypse. It feels haunting.,31,380,20","Julia","Very classy, I feel like it's the apocalypse.,25,40,20","0"
"13261","","survey-text","65","391623","0.0-65.0-0.0","A3U01JD1ZRRHPL","","","","{""Q0"":""Calm and pleasant! Makes me happy""}","","","","","","","","","","","","","","","","","","","","","","",""
"2857.900000035763","","image-slider-response","66","394482","0.0-66.0","A3U01JD1ZRRHPL","","","","","17","","","","","","","","","","","","","","","","","","","","","",""
"3471","","image-button-response","67","399485","0.0-67.0","A3U01JD1ZRRHPL","img_art/1.jpg","2","","","","","","","","","","","","","","","","","","","","","","","","",""
"1882","","image-button-response","68","401370","0.0-68.0","A3U01JD1ZRRHPL","img_art/1.jpg","2","","","","","","","","","","","","","","","","","","","","","","","","",""
"7195","","image-button-response","69","408567","0.0-69.0-0.0","A3U01JD1ZRRHPL","img_art/1.jpg","3","","","","","","","","","","","","","","","","","","","","","","","","",""
"980","","image-button-response","70","409548","0.0-70.0-0.0","A3U01JD1ZRRHPL","img_art/1.jpg","4","","","","","","","","","","","","","","","","","","","","","","","","",""
"null","","html-keyboard-response","71","410549","0.0-71.0","A3U01JD1ZRRHPL","<p style=""font-size: 48px;"">+</p>","","","","","null","allTrialResponses","1000","1","4","img_art/1.jpg","17","Calm and pleasant! Makes me happy","Shelby,Courtney,Madeline,Alexandria,Diana,Julia","This one has a pleasent energy,15,240,20","I cant make anything of this one.,-7,280,20","Quite messy looking,-22,40,20","it is very colorful and makes me happy,44,80,20","Might be a person rowing their boat across the lake. Not sure if the background is trees or not.,12,380,20","I don't feel like much is happening in this painting,-25,40,20","Madeline","Quite messy looking,-22,40,20","Alexandria","it is very colorful and makes me happy,44,80,20","Diana","Might be a person rowing their boat across the lake. Not sure if the background is trees or not.,12,380,20","0"
"17697","","survey-text","72","428252","0.0-72.0-0.0","A3U01JD1ZRRHPL","","","","{""Q0"":""A storm coming across a lake with waves""}","","","","","","","","","","","","","","","","","","","","","","",""
"2285.100000023842","","image-slider-response","73","430538","0.0-73.0","A3U01JD1ZRRHPL","","","","","-26","","","","","","","","","","","","","","","","","","","","","",""
"null","","image-button-response","74","435541","0.0-74.0","A3U01JD1ZRRHPL","img_art/21.jpg","null","","","","","","","","","","","","","","","","","","","","","","","","",""
"2607","","image-button-response","75","438148","0.0-75.0","A3U01JD1ZRRHPL","img_art/21.jpg","5","","","","","","","","","","","","","","","","","","","","","","","","",""
"1923","","image-button-response","76","440072","0.0-76.0-0.0","A3U01JD1ZRRHPL","img_art/21.jpg","2","","","","","","","","","","","","","","","","","","","","","","","","",""
"3031","","image-button-response","77","443105","0.0-77.0-0.0","A3U01JD1ZRRHPL","img_art/21.jpg","3","","","","","","","","","","","","","","","","","","","","","","","","",""
"null","","html-keyboard-response","78","443607","0.0-78.0","A3U01JD1ZRRHPL","<p style=""font-size: 48px;"">+</p>","","","","","null","allTrialResponses","500","1","5","img_art/21.jpg","-26","A storm coming across a lake with waves","Erica,Elizabeth,Madeline,Alexandria,Diana,Angela","Relaxing and easy to look at,27,80,20","Touches the heart,50,20,20","Evokes a strong colorful sense,8,40,20","the vast colors make me happy,15,80,20","Makes me feel light and airy. Like I've gone back in time to 1700th century France.,43,380,20","I feel like I'm looking at two different paintings mashed together in the middle.,20,260,20","Angela","I feel like I'm looking at two different paintings mashed together in the middle.,20,260,20","Madeline","Evokes a strong colorful sense,8,40,20","Alexandria","the vast colors make me happy,15,80,20","0"
"4438","","survey-text","79","448061","0.0-79.0-0.0","A3U01JD1ZRRHPL","","","","{""Q0"":""sky""}","","","","","","","","","","","","","","","","","","","","","","",""
"14319","","survey-text","80","462381","0.0-80.0-0.0","A3U01JD1ZRRHPL","","","","{""Q0"":""a city after a nuclear attack""}","","","","","","","","","","","","","","","","","","","","","","",""
"2676.800000011921","","image-slider-response","81","465059","0.0-81.0","A3U01JD1ZRRHPL","","","","","-42","","","","","","","","","","","","","","","","","","","","","",""
"3440","","image-button-response","82","470061","0.0-82.0","A3U01JD1ZRRHPL","img_art/20.jpg","2","","","","","","","","","","","","","","","","","","","","","","","","",""
"941","","image-button-response","83","471007","0.0-83.0","A3U01JD1ZRRHPL","img_art/20.jpg","2","","","","","","","","","","","","","","","","","","","","","","","","",""
"1711","","image-button-response","84","472719","0.0-84.0-0.0","A3U01JD1ZRRHPL","img_art/20.jpg","3","","","","","","","","","","","","","","","","","","","","","","","","",""
"2260","","image-button-response","85","474981","0.0-85.0-0.0","A3U01JD1ZRRHPL","img_art/20.jpg","5","","","","","","","","","","","","","","","","","","","","","","","","",""
"null","","html-keyboard-response","86","476483","0.0-86.0","A3U01JD1ZRRHPL","<p style=""font-size: 48px;"">+</p>","","","","","null","allTrialResponses","1500","1","6","img_art/20.jpg","-42","a city after a nuclear attack","Emily,Mariah,Madeline,Alexandria,Briana,Angela","Brings about an emotion response of dspair. Loose lines but yet has a cohesion.,8,40,20","It feels like it ""almost"" several things.,-10,140,20","Looks somewhat dark and emotional,-10,40,20","it looks like a car crash which is depressing,-19,80,20","Someone trying to be dali,-15,400,20","I like the blues, and the sense of foreboding it makes me feel.,20,260,20","Madeline","Looks somewhat dark and emotional,-10,40,20","Alexandria","it looks like a car crash which is depressing,-19,80,20","Angela","I like the blues, and the sense of foreboding it makes me feel.,20,260,20","0"
"18985","","survey-text","87","495474","0.0-87.0-0.0","A3U01JD1ZRRHPL","","","","{""Q0"":""looks like a rocky beach in the sun...nice and warm""}","","","","","","","","","","","","","","","","","","","","","","",""
"2786.699999988079","","image-slider-response","88","498262","0.0-88.0","A3U01JD1ZRRHPL","","","","","18","","","","","","","","","","","","","","","","","","","","","",""
"null","","image-button-response","89","503264","0.0-89.0","A3U01JD1ZRRHPL","img_art/7.jpg","null","","","","","","","","","","","","","","","","","","","","","","","","",""
"1922","","image-button-response","90","505189","0.0-90.0","A3U01JD1ZRRHPL","img_art/7.jpg","3","","","","","","","","","","","","","","","","","","","","","","","","",""
"3250","","image-button-response","91","508441","0.0-91.0-0.0","A3U01JD1ZRRHPL","img_art/7.jpg","2","","","","","","","","","","","","","","","","","","","","","","","","",""
"1560","","image-button-response","92","510003","0.0-92.0-0.0","A3U01JD1ZRRHPL","img_art/7.jpg","1","","","","","","","","","","","","","","","","","","","","","","","","",""
"null","","html-keyboard-response","93","510504","0.0-93.0","A3U01JD1ZRRHPL","<p style=""font-size: 48px;"">+</p>","","","","","null","allTrialResponses","500","1","7","img_art/7.jpg","18","looks like a rocky beach in the sun...nice and warm","Rebecca,Bailey,Madeline,Alexandria,Katherine,Angela","would love to take a closer look at the texture,15,100,20","It gives off an alien-like vastness of space vibe which I like,9,360,20","Not very big on the sameness here,-20,40,20","reminds me of the desert,-20,80,20","Reminds me of bugs, I hate bugs,-7,120,20","Looks like vomit, or chunky feces,-42,260,20","Alexandria","reminds me of the desert,-20,80,20","Madeline","Not very big on the sameness here,-20,40,20","Bailey","It gives off an alien-like vastness of space vibe which I like,9,360,20","0"
"22582","","survey-text","94","533095","0.0-94.0-0.0","A3U01JD1ZRRHPL","","","","{""Q0"":""an evil queen in a future world....ominous""}","","","","","","","","","","","","","","","","","","","","","","",""
"4246.699999988079","","image-slider-response","95","537343","0.0-95.0","A3U01JD1ZRRHPL","","","","","-48","","","","","","","","","","","","","","","","","","","","","",""
"null","","image-button-response","96","542346","0.0-96.0","A3U01JD1ZRRHPL","img_art/25.jpg","null","","","","","","","","","","","","","","","","","","","","","","","","",""
"1040","","image-button-response","97","543389","0.0-97.0","A3U01JD1ZRRHPL","img_art/25.jpg","0","","","","","","","","","","","","","","","","","","","","","","","","",""
"6384","","image-button-response","98","549775","0.0-98.0-0.0","A3U01JD1ZRRHPL","img_art/25.jpg","2","","","","","","","","","","","","","","","","","","","","","","","","",""
"987","","image-button-response","99","550763","0.0-99.0-0.0","A3U01JD1ZRRHPL","img_art/25.jpg","1","","","","","","","","","","","","","","","","","","","","","","","","",""
"null","","html-keyboard-response","100","551764","0.0-100.0","A3U01JD1ZRRHPL","<p style=""font-size: 48px;"">+</p>","","","","","null","allTrialResponses","1000","1","8","img_art/25.jpg","-48","an evil queen in a future world....ominous","Hannah,Bailey,Madeline,Alexandria,Sarah,Savannah","Looks like a voodoo figure in a New Orleans cemetery at night.,-5,240,20","I love the background color and it's creepy...but cool.,30,360,20","It looks a bit strange to me, neck too long,-19,40,20","the contrasting colors are very interesting,24,80,20","green is really cool, and the pieces in black fit together and are interesting,20,180,20","Very cool color, very clear message!,50,200,20","Hannah","Looks like a voodoo figure in a New Orleans cemetery at night.,-5,240,20","Madeline","It looks a bit strange to me, neck too long,-19,40,20","Bailey","I love the background color and it's creepy...but cool.,30,360,20","0"
"20719","","survey-text","101","572493","0.0-101.0-0.0","A3U01JD1ZRRHPL","","","","{""Q0"":""Very dark and disturbing...ashes in a fireplace?""}","","","","","","","","","","","","","","","","","","","","","","",""
"3458.400000035763","","image-slider-response","102","575953","0.0-102.0","A3U01JD1ZRRHPL","","","","","-49","","","","","","","","","","","","","","","","","","","","","",""
"null","","image-button-response","103","580956","0.0-103.0","A3U01JD1ZRRHPL","img_art/15.jpg","null","","","","","","","","","","","","","","","","","","","","","","","","",""
"1923","","image-button-response","104","582881","0.0-104.0","A3U01JD1ZRRHPL","img_art/15.jpg","4","","","","","","","","","","","","","","","","","","","","","","","","",""
"5805","","image-button-response","105","588687","0.0-105.0-0.0","A3U01JD1ZRRHPL","img_art/15.jpg","5","","","","","","","","","","","","","","","","","","","","","","","","",""
"1623","","image-button-response","106","590311","0.0-106.0-0.0","A3U01JD1ZRRHPL","img_art/15.jpg","1","","","","","","","","","","","","","","","","","","","","","","","","",""
"null","","html-keyboard-response","107","590814","0.0-107.0","A3U01JD1ZRRHPL","<p style=""font-size: 48px;"">+</p>","","","","","null","allTrialResponses","500","1","9","img_art/15.jpg","-49","Very dark and disturbing...ashes in a fireplace?","Hannah,Bailey,Madeline,Alexa,Kristen,Jacqueline","Like this for the colors and arrangement.,11,240,20","This is passable, but personally it just has nothing I'd like to see.,-14,360,20","Simple but needs some more detail somehow,-3,40,20","Although it looks a bit bland in terms of color, I really like the print/pattern,25,40,20","darkness, hatred, fear,-29,280,20","I don't like how the black dots are aligned.,-20,300,20","Kristen","darkness, hatred, fear,-29,280,20","Jacqueline","I don't like how the black dots are aligned.,-20,300,20","Bailey","This is passable, but personally it just has nothing I'd like to see.,-14,360,20","0"
"23569","","survey-text","108","614391","0.0-108.0-0.0","A3U01JD1ZRRHPL","","","","{""Q0"":""teddy bear in a bad family situation""}","","","","","","","","","","","","","","","","","","","","","","",""
"3722.600000023842","","image-slider-response","109","618115","0.0-109.0","A3U01JD1ZRRHPL","","","","","-49","","","","","","","","","","","","","","","","","","","","","",""
"3155","","image-button-response","110","623118","0.0-110.0","A3U01JD1ZRRHPL","img_art/16.jpg","5","","","","","","","","","","","","","","","","","","","","","","","","",""
"636","","image-button-response","111","623755","0.0-111.0","A3U01JD1ZRRHPL","img_art/16.jpg","5","","","","","","","","","","","","","","","","","","","","","","","","",""
"1585","","image-button-response","112","625341","0.0-112.0-0.0","A3U01JD1ZRRHPL","img_art/16.jpg","4","","","","","","","","","","","","","","","","","","","","","","","","",""
"1639","","image-button-response","113","626981","0.0-113.0-0.0","A3U01JD1ZRRHPL","img_art/16.jpg","0","","","","","","","","","","","","","","","","","","","","","","","","",""
"null","","html-keyboard-response","114","627982","0.0-114.0","A3U01JD1ZRRHPL","<p style=""font-size: 48px;"">+</p>","","","","","null","allTrialResponses","1000","1","10","img_art/16.jpg","-49","teddy bear in a bad family situation","Emma,Bailey,Kaitlyn,Stephanie,Kristen,Jacqueline","Kind of creepyyyyyy,-41,60,20","Creeps me out. Like..really creeps me out.,-48,360,20","The bear is a weird choice,-22,80,20","It looks violent.,-30,300,20","sad. desth of childhood,-5,280,20","Seems very twisted and dark.,-35,300,20","Jacqueline","Seems very twisted and dark.,-35,300,20","Kristen","sad. desth of childhood,-5,280,20","Emma","Kind of creepyyyyyy,-41,60,20","0"
"4033","","survey-text","115","632033","0.0-115.0-0.0","A3U01JD1ZRRHPL","","","","{""Q0"":""our""}","","","","","","","","","","","","","","","","","","","","","","",""
"17721","","survey-text","116","649755","0.0-116.0-0.0","A3U01JD1ZRRHPL","","","","{""Q0"":""poppies in a field with a cloudy sky""}","","","","","","","","","","","","","","","","","","","","","","",""
"3242.899999976158","","image-slider-response","117","652999","0.0-117.0","A3U01JD1ZRRHPL","","","","","-4","","","","","","","","","","","","","","","","","","","","","",""
"null","","image-button-response","118","658001","0.0-118.0","A3U01JD1ZRRHPL","img_art/27.jpg","null","","","","","","","","","","","","","","","","","","","","","","","","",""
"1364","","image-button-response","119","659369","0.0-119.0","A3U01JD1ZRRHPL","img_art/27.jpg","4","","","","","","","","","","","","","","","","","","","","","","","","",""
"2432","","image-button-response","120","661803","0.0-120.0-0.0","A3U01JD1ZRRHPL","img_art/27.jpg","3","","","","","","","","","","","","","","","","","","","","","","","","",""
"2080","","image-button-response","121","663885","0.0-121.0-0.0","A3U01JD1ZRRHPL","img_art/27.jpg","2","","","","","","","","","","","","","","","","","","","","","","","","",""
"null","","html-keyboard-response","122","664887","0.0-122.0","A3U01JD1ZRRHPL","<p style=""font-size: 48px;"">+</p>","","","","","null","allTrialResponses","1000","1","11","img_art/27.jpg","-4","poppies in a field with a cloudy sky","Emma,Nicole,Lindsey,Brittany,Kristen,Jacqueline","Not sure how I feel about this. Messy, even for art. But good colors.,0,60,20","Very cool colors and I like the contrast of lights and darks,30,20,20","Looks like my niece's doodles.,-50,400,20","The colors are put together in an interesting way.,-9,40,20","makes me think of fume clouds, low visibility,-28,280,20","I don't really see anything to this art.,-5,300,20","Kristen","makes me think of fume clouds, low visibility,-28,280,20","Brittany","The colors are put together in an interesting way.,-9,40,20","Lindsey","Looks like my niece's doodles.,-50,400,20","0"
"17438","","survey-text","123","682327","0.0-123.0-0.0","A3U01JD1ZRRHPL","","","","{""Q0"":""looks like my nephews scribbles when he is bored""}","","","","","","","","","","","","","","","","","","","","","","",""
"2282.7999999523163","","image-slider-response","124","684611","0.0-124.0","A3U01JD1ZRRHPL","","","","","-26","","","","","","","","","","","","","","","","","","","","","",""
"null","","image-button-response","125","689614","0.0-125.0","A3U01JD1ZRRHPL","img_art/3.jpg","null","","","","","","","","","","","","","","","","","","","","","","","","",""
"1491","","image-button-response","126","691108","0.0-126.0","A3U01JD1ZRRHPL","img_art/3.jpg","5","","","","","","","","","","","","","","","","","","","","","","","","",""
"1969","","image-button-response","127","693078","0.0-127.0-0.0","A3U01JD1ZRRHPL","img_art/3.jpg","3","","","","","","","","","","","","","","","","","","","","","","","","",""
"2072","","image-button-response","128","695152","0.0-128.0-0.0","A3U01JD1ZRRHPL","img_art/3.jpg","2","","","","","","","","","","","","","","","","","","","","","","","","",""
"null","","html-keyboard-response","129","696654","0.0-129.0","A3U01JD1ZRRHPL","<p style=""font-size: 48px;"">+</p>","","","","","null","allTrialResponses","1500","1","12","img_art/3.jpg","-26","looks like my nephews scribbles when he is bored","Leah,Kaitlin,Lindsey,Brittany,Kristen,Katie","Scratchy scrawly all one color, looks like a mistake,-28,360,20","good choice of color,12,60,20","Angry red crayons, like a child throwing a tantrum. No thanks.,-10,400,20","I don't care for art that looks like it was just scribbled.,-19,40,20","anger, blood, death,-24,280,20","Messy. Looks like a children's drawing being passed off as expensive art. Too much red.,-50,160,20","Katie","Messy. Looks like a children's drawing being passed off as expensive art. Too much red.,-50,160,20","Brittany","I don't care for art that looks like it was just scribbled.,-19,40,20","Lindsey","Angry red crayons, like a child throwing a tantrum. No thanks.,-10,400,20","0"
"19358","","survey-text","130","716017","0.0-130.0-0.0","A3U01JD1ZRRHPL","","","","{""Q0"":""like the watercolor, soft effect, looks melancholy""}","","","","","","","","","","","","","","","","","","","","","","",""
"2810.800000011921","","image-slider-response","131","718829","0.0-131.0","A3U01JD1ZRRHPL","","","","","-2","","","","","","","","","","","","","","","","","","","","","",""
"null","","image-button-response","132","723832","0.0-132.0","A3U01JD1ZRRHPL","img_art/14.jpg","null","","","","","","","","","","","","","","","","","","","","","","","","",""
"1051","","image-button-response","133","724886","0.0-133.0","A3U01JD1ZRRHPL","img_art/14.jpg","3","","","","","","","","","","","","","","","","","","","","","","","","",""
"2408","","image-button-response","134","727296","0.0-134.0-0.0","A3U01JD1ZRRHPL","img_art/14.jpg","5","","","","","","","","","","","","","","","","","","","","","","","","",""
"1868","","image-button-response","135","729165","0.0-135.0-0.0","A3U01JD1ZRRHPL","img_art/14.jpg","2","","","","","","","","","","","","","","","","","","","","","","","","",""
"null","","html-keyboard-response","136","729667","0.0-136.0","A3U01JD1ZRRHPL","<p style=""font-size: 48px;"">+</p>","","","","","null","allTrialResponses","500","1","13","img_art/14.jpg","-2","like the watercolor, soft effect, looks melancholy","Autumn,Vanessa,Lindsey,Brittany,Jordan,Katie","It's too basic.,23,340,20","I don't like the colors, but I espeically don't like all the negative space.,-20,380,20","Warm, positive, growth.,8,400,20","The colors are good and the design is intriguing.,15,40,20","this one isn't bad, reminds me a tree that gives life, and people are waiting for someone new to be born,27,20,20","It represents growth. I see a plant/tree growing out of the ground. I like the rainbow of color in the painting.,31,160,20","Brittany","The colors are good and the design is intriguing.,15,40,20","Katie","It represents growth. I see a plant/tree growing out of the ground. I like the rainbow of color in the painting.,31,160,20","Lindsey","Warm, positive, growth.,8,400,20","0"
"22553","","survey-text","137","752232","0.0-137.0-0.0","A3U01JD1ZRRHPL","","","","{""Q0"":""Looks like outlines of buildings in the city in summer...kind of nice colors""}","","","","","","","","","","","","","","","","","","","","","","",""
"3162.5","","image-slider-response","138","755396","0.0-138.0","A3U01JD1ZRRHPL","","","","","6","","","","","","","","","","","","","","","","","","","","","",""
"null","","image-button-response","139","760399","0.0-139.0","A3U01JD1ZRRHPL","img_art/22.jpg","null","","","","","","","","","","","","","","","","","","","","","","","","",""
"1238","","image-button-response","140","761640","0.0-140.0","A3U01JD1ZRRHPL","img_art/22.jpg","3","","","","","","","","","","","","","","","","","","","","","","","","",""
"1389","","image-button-response","141","763030","0.0-141.0-0.0","A3U01JD1ZRRHPL","img_art/22.jpg","4","","","","","","","","","","","","","","","","","","","","","","","","",""
"2000","","image-button-response","142","765032","0.0-142.0-0.0","A3U01JD1ZRRHPL","img_art/22.jpg","1","","","","","","","","","","","","","","","","","","","","","","","","",""
"null","","html-keyboard-response","143","766033","0.0-143.0","A3U01JD1ZRRHPL","<p style=""font-size: 48px;"">+</p>","","","","","null","allTrialResponses","1000","1","14","img_art/22.jpg","6","Looks like outlines of buildings in the city in summer...kind of nice colors","Kayla,Isabella,Lindsey,Brittany,Crystal,Katie","I don't like that it looks like a person is there upside down.,-16,180,20","Sunsets at the beach,42,280,20","Too much contrasting colors makes me feel anxious. I don't like it.,-20,400,20","It reminds me of sunsets and dusks.,22,40,20","Beautiful use of chalk or pastels. Love the abstract nature.,35,300,20","Too much red. The red/yellow/orange make me think of heat/fire, which makes me anxious.,-10,160,20","Brittany","It reminds me of sunsets and dusks.,22,40,20","Crystal","Beautiful use of chalk or pastels. Love the abstract nature.,35,300,20","Isabella","Sunsets at the beach,42,280,20","0"
"25117","","survey-text","144","791158","0.0-144.0-0.0","A3U01JD1ZRRHPL","","","","{""Q0"":""Looks like someone started a painting and gave up and x'd it out.  Bothersome""}","","","","","","","","","","","","","","","","","","","","","","",""
"2966.800000011921","","image-slider-response","145","794126","0.0-145.0","A3U01JD1ZRRHPL","","","","","-41","","","","","","","","","","","","","","","","","","","","","",""
"null","","image-button-response","146","799128","0.0-146.0","A3U01JD1ZRRHPL","img_art/29.jpg","null","","","","","","","","","","","","","","","","","","","","","","","","",""
"1263","","image-button-response","147","800394","0.0-147.0","A3U01JD1ZRRHPL","img_art/29.jpg","5","","","","","","","","","","","","","","","","","","","","","","","","",""
"1984","","image-button-response","148","802380","0.0-148.0-0.0","A3U01JD1ZRRHPL","img_art/29.jpg","1","","","","","","","","","","","","","","","","","","","","","","","","",""
"902","","image-button-response","149","803284","0.0-149.0-0.0","A3U01JD1ZRRHPL","img_art/29.jpg","0","","","","","","","","","","","","","","","","","","","","","","","","",""
"null","","html-keyboard-response","150","804286","0.0-150.0","A3U01JD1ZRRHPL","<p style=""font-size: 48px;"">+</p>","","","","","null","allTrialResponses","1000","1","15","img_art/29.jpg","-41","Looks like someone started a painting and gave up and x'd it out.  Bothersome","Makayla,Isabella,Cassidy,Brittany,Crystal,Angelica","Looks like a jail cell,-15,80,20","Darkness and torment,-50,280,20","I like the colors but it looks very amateur,1,140,20","It looks likes there's a lot going on, but they don't fit together.,2,40,20","Reminiscent of Jackson Pollock with a hint of abstract structure with the bordering.,32,300,20","This is very gross and odd looking.,-8,280,20","Angelica","This is very gross and odd looking.,-8,280,20","Isabella","Darkness and torment,-50,280,20","Makayla","Looks like a jail cell,-15,80,20","0"
"3969","","survey-text","151","808264","0.0-151.0-0.0","A3U01JD1ZRRHPL","","","","{""Q0"":""course""}","","","","","","","","","","","","","","","","","","","","","","",""
"19093","","survey-text","152","827357","0.0-152.0-0.0","A3U01JD1ZRRHPL","","","","{""Q0"":""Looks like a person's hand but deformed...""}","","","","","","","","","","","","","","","","","","","","","","",""
"3478.899999976158","","image-slider-response","153","830838","0.0-153.0","A3U01JD1ZRRHPL","","","","","-27","","","","","","","","","","","","","","","","","","","","","",""
"null","","image-button-response","154","835841","0.0-154.0","A3U01JD1ZRRHPL","img_art/4.jpg","null","","","","","","","","","","","","","","","","","","","","","","","","",""
"1058","","image-button-response","155","836902","0.0-155.0","A3U01JD1ZRRHPL","img_art/4.jpg","3","","","","","","","","","","","","","","","","","","","","","","","","",""
"1844","","image-button-response","156","838748","0.0-156.0-0.0","A3U01JD1ZRRHPL","img_art/4.jpg","5","","","","","","","","","","","","","","","","","","","","","","","","",""
"2998","","image-button-response","157","841748","0.0-157.0-0.0","A3U01JD1ZRRHPL","img_art/4.jpg","1","","","","","","","","","","","","","","","","","","","","","","","","",""
"null","","html-keyboard-response","158","842749","0.0-158.0","A3U01JD1ZRRHPL","<p style=""font-size: 48px;"">+</p>","","","","","null","allTrialResponses","1000","1","16","img_art/4.jpg","-27","Looks like a person's hand but deformed...","Makayla,Isabella,Paige,Michaela,Erika,Angelica","Looks like poop on walks,-27,80,20","Looks like a creative hand,45,280,20","the colors are calming,31,60,20","It reminds me of something a kid would make for their parents,13,260,20","Reminds me of late night frustrated paintings of my own made of coffee,12,100,20","This is ugly in color and in terms of the shape on it.,-32,280,20","Michaela","It reminds me of something a kid would make for their parents,13,260,20","Angelica","This is ugly in color and in terms of the shape on it.,-32,280,20","Isabella","Looks like a creative hand,45,280,20","0"
"25727","","survey-text","159","868482","0.0-159.0-0.0","A3U01JD1ZRRHPL","","","","{""Q0"":""looks like trees on a neighborhood street, like colors""}","","","","","","","","","","","","","","","","","","","","","","",""
"2340.400000035763","","image-slider-response","160","870824","0.0-160.0","A3U01JD1ZRRHPL","","","","","9","","","","","","","","","","","","","","","","","","","","","",""
"null","","image-button-response","161","875826","0.0-161.0","A3U01JD1ZRRHPL","img_art/26.jpg","null","","","","","","","","","","","","","","","","","","","","","","","","",""
"2259","","image-button-response","162","878088","0.0-162.0","A3U01JD1ZRRHPL","img_art/26.jpg","4","","","","","","","","","","","","","","","","","","","","","","","","",""
"3259","","image-button-response","163","881348","0.0-163.0-0.0","A3U01JD1ZRRHPL","img_art/26.jpg","2","","","","","","","","","","","","","","","","","","","","","","","","",""
"1254","","image-button-response","164","882604","0.0-164.0-0.0","A3U01JD1ZRRHPL","img_art/26.jpg","1","","","","","","","","","","","","","","","","","","","","","","","","",""
"null","","html-keyboard-response","165","884105","0.0-165.0","A3U01JD1ZRRHPL","<p style=""font-size: 48px;"">+</p>","","","","","null","allTrialResponses","1500","1","17","img_art/26.jpg","9","looks like trees on a neighborhood street, like colors","Katelyn,Isabella,Kylie,Michaela,Natalie,Angelica","Looks bland and boring,-5,100,20","Colors are full and reminds me of a messy room,-9,280,20","Picturesque little town,45,300,20","Elevator art but the watercolors are good,29,260,20","picture looks alright,1,400,20","It's not ugly but not beautiful at all.,-3,280,20","Natalie","picture looks alright,1,400,20","Kylie","Picturesque little town,45,300,20","Isabella","Colors are full and reminds me of a messy room,-9,280,20","0"
"21561","","survey-text","166","905670","0.0-166.0-0.0","A3U01JD1ZRRHPL","","","","{""Q0"":""chaos.  mountains in the background?  ""}","","","","","","","","","","","","","","","","","","","","","","",""
"2882.800000011921","","image-slider-response","167","908554","0.0-167.0","A3U01JD1ZRRHPL","","","","","-34","","","","","","","","","","","","","","","","","","","","","",""
"null","","image-button-response","168","913556","0.0-168.0","A3U01JD1ZRRHPL","img_art/19.jpg","null","","","","","","","","","","","","","","","","","","","","","","","","",""
"1137","","image-button-response","169","914696","0.0-169.0","A3U01JD1ZRRHPL","img_art/19.jpg","1","","","","","","","","","","","","","","","","","","","","","","","","",""
"2921","","image-button-response","170","917618","0.0-170.0-0.0","A3U01JD1ZRRHPL","img_art/19.jpg","4","","","","","","","","","","","","","","","","","","","","","","","","",""
"1579","","image-button-response","171","919198","0.0-171.0-0.0","A3U01JD1ZRRHPL","img_art/19.jpg","5","","","","","","","","","","","","","","","","","","","","","","","","",""
"null","","html-keyboard-response","172","920700","0.0-172.0","A3U01JD1ZRRHPL","<p style=""font-size: 48px;"">+</p>","","","","","null","allTrialResponses","1500","1","18","img_art/19.jpg","-34","chaos.  mountains in the background?  ","Chloe,Isabella,Kylie,Margaret,Natalie,Shannon","The use of space isn't my favorite.,-20,220,20","A day in a small city,45,280,20","Reminds me of a quaint little town I once visited in Italy,50,300,20","i think it is ugly and hate the colors,-35,100,20","the picture gave me anxiety,-38,400,20","This looks like a bunch of weird blobs and the colors don't go great together.,-10,220,20","Isabella","A day in a small city,45,280,20","Natalie","the picture gave me anxiety,-38,400,20","Shannon","This looks like a bunch of weird blobs and the colors don't go great together.,-10,220,20","0"
"22467","","survey-text","173","943173","0.0-173.0-0.0","A3U01JD1ZRRHPL","","","","{""Q0"":""a lone tree on the savannah in Africa. Kind of nice""}","","","","","","","","","","","","","","","","","","","","","","",""
"2815.800000011921","","image-slider-response","174","945990","0.0-174.0","A3U01JD1ZRRHPL","","","","","19","","","","","","","","","","","","","","","","","","","","","",""
"null","","image-button-response","175","950993","0.0-175.0","A3U01JD1ZRRHPL","img_art/6.jpg","null","","","","","","","","","","","","","","","","","","","","","","","","",""
"1783","","image-button-response","176","952778","0.0-176.0","A3U01JD1ZRRHPL","img_art/6.jpg","0","","","","","","","","","","","","","","","","","","","","","","","","",""
"2033","","image-button-response","177","954813","0.0-177.0-0.0","A3U01JD1ZRRHPL","img_art/6.jpg","3","","","","","","","","","","","","","","","","","","","","","","","","",""
"1670","","image-button-response","178","956485","0.0-178.0-0.0","A3U01JD1ZRRHPL","img_art/6.jpg","4","","","","","","","","","","","","","","","","","","","","","","","","",""
"null","","html-keyboard-response","179","957986","0.0-179.0","A3U01JD1ZRRHPL","<p style=""font-size: 48px;"">+</p>","","","","","null","allTrialResponses","1500","1","19","img_art/6.jpg","19","a lone tree on the savannah in Africa. Kind of nice","Haley,Isabella,Olivia,Melissa,Natalie,Shannon","I like the color and the gradient,10,220,20","A bird standing in the sun,37,280,20","surviving the dryness of life,30,40,20","composition is engaging,28,240,20","reminds me a giant peach,19,400,20","I can't tell what this image is, but it's boring because of lack of color variety and nothing in it,-41,220,20","Haley","I like the color and the gradient,10,220,20","Melissa","composition is engaging,28,240,20","Natalie","reminds me a giant peach,19,400,20","0"
"24124","","survey-text","180","982122","0.0-180.0-0.0","A3U01JD1ZRRHPL","","","","{""Q0"":""a futuristic city...very depressing. Don't like all the gray""}","","","","","","","","","","","","","","","","","","","","","","",""
"2990.900000035763","","image-slider-response","181","985114","0.0-181.0","A3U01JD1ZRRHPL","","","","","-41","","","","","","","","","","","","","","","","","","","","","",""
"null","","image-button-response","182","990118","0.0-182.0","A3U01JD1ZRRHPL","img_art/11.jpg","null","","","","","","","","","","","","","","","","","","","","","","","","",""
"1411","","image-button-response","183","991533","0.0-183.0","A3U01JD1ZRRHPL","img_art/11.jpg","1","","","","","","","","","","","","","","","","","","","","","","","","",""
"4380","","image-button-response","184","995915","0.0-184.0-0.0","A3U01JD1ZRRHPL","img_art/11.jpg","5","","","","","","","","","","","","","","","","","","","","","","","","",""
"3516","","image-button-response","185","999432","0.0-185.0-0.0","A3U01JD1ZRRHPL","img_art/11.jpg","0","","","","","","","","","","","","","","","","","","","","","","","","",""
"null","","html-keyboard-response","186","1000934","0.0-186.0","A3U01JD1ZRRHPL","<p style=""font-size: 48px;"">+</p>","","","","","null","allTrialResponses","1500","1","20","img_art/11.jpg","-41","a futuristic city...very depressing. Don't like all the gray","Haley,Destiny,Dominique,Melissa,Natalie,Heather","Lovely. I could look at this for a really long time. I love the details and the composition.,40,220,20","life is a highway,12,360,20","Looks like a familiar area,31,400,20","reminds me of home,5,240,20","pic looks alright,8,400,20","looks like highways and homes and lives intertwining.,27,260,20","Destiny","life is a highway,12,360,20","Heather","looks like highways and homes and lives intertwining.,27,260,20","Haley","Lovely. I could look at this for a really long time. I love the details and the composition.,40,220,20","0"
"2948","","survey-text","187","1003892","0.0-187.0-0.0","A3U01JD1ZRRHPL","","","","{""Q0"":""we""}","","","","","","","","","","","","","","","","","","","","","","",""
"15869","","survey-text","188","1019762","0.0-188.0-0.0","A3U01JD1ZRRHPL","","","","{""Q0"":""Not sure what this is.  too many jprimary colors""}","","","","","","","","","","","","","","","","","","","","","","",""
"2534.899999976158","","image-slider-response","189","1022299","0.0-189.0","A3U01JD1ZRRHPL","","","","","-35","","","","","","","","","","","","","","","","","","","","","",""
"null","","image-button-response","190","1027301","0.0-190.0","A3U01JD1ZRRHPL","img_art/2.jpg","null","","","","","","","","","","","","","","","","","","","","","","","","",""
"848","","image-button-response","191","1028151","0.0-191.0","A3U01JD1ZRRHPL","img_art/2.jpg","1","","","","","","","","","","","","","","","","","","","","","","","","",""
"2945","","image-button-response","192","1031097","0.0-192.0-0.0","A3U01JD1ZRRHPL","img_art/2.jpg","3","","","","","","","","","","","","","","","","","","","","","","","","",""
"2746","","image-button-response","193","1033845","0.0-193.0-0.0","A3U01JD1ZRRHPL","img_art/2.jpg","4","","","","","","","","","","","","","","","","","","","","","","","","",""
"null","","html-keyboard-response","194","1035346","0.0-194.0","A3U01JD1ZRRHPL","<p style=""font-size: 48px;"">+</p>","","","","","null","allTrialResponses","1500","1","21","img_art/2.jpg","-35","Not sure what this is.  too many jprimary colors","Haley,Destiny,Rachel,Sydney,Michelle,Heather","My first thought was that it looks like a children's art project,-30,220,20","omg she's so cute look at that little smile those eyelashes ugh love it,30,360,20","I am not a fan of the color story. I am confused by the piece and therefore do not like it.,-21,80,20","I like the color, but I feel like I see a creepy face which I dislike.,-5,320,20","Don't like the puke green color and also too abstact,-14,280,20","i like the colors and again can make out my own picture,38,260,20","Destiny","omg she's so cute look at that little smile those eyelashes ugh love it,30,360,20","Sydney","I like the color, but I feel like I see a creepy face which I dislike.,-5,320,20","Michelle","Don't like the puke green color and also too abstact,-14,280,20","0"
"20173","","survey-text","195","1055533","0.0-195.0-0.0","A3U01JD1ZRRHPL","","","","{""Q0"":""the white looks like eyelashes...strange""}","","","","","","","","","","","","","","","","","","","","","","",""
"3054.600000023842","","image-slider-response","196","1058588","0.0-196.0","A3U01JD1ZRRHPL","","","","","-23","","","","","","","","","","","","","","","","","","","","","",""
"null","","image-button-response","197","1063591","0.0-197.0","A3U01JD1ZRRHPL","img_art/23.jpg","null","","","","","","","","","","","","","","","","","","","","","","","","",""
"1546","","image-button-response","198","1065139","0.0-198.0","A3U01JD1ZRRHPL","img_art/23.jpg","1","","","","","","","","","","","","","","","","","","","","","","","","",""
"2677","","image-button-response","199","1067817","0.0-199.0-0.0","A3U01JD1ZRRHPL","img_art/23.jpg","3","","","","","","","","","","","","","","","","","","","","","","","","",""
"2738","","image-button-response","200","1070557","0.0-200.0-0.0","A3U01JD1ZRRHPL","img_art/23.jpg","4","","","","","","","","","","","","","","","","","","","","","","","","",""
"null","","html-keyboard-response","201","1072058","0.0-201.0","A3U01JD1ZRRHPL","<p style=""font-size: 48px;"">+</p>","","","","","null","allTrialResponses","1500","1","22","img_art/23.jpg","-23","the white looks like eyelashes...strange","Amber,Destiny,Jasmine,Sydney,Michelle,Kathryn","The background colors seem too dark and the middle images take away from it.,4,200,20","This looks like the cover art for a scene band,-29,360,20","Mostly neutral but a bit too guady with the brash colors,-6,340,20","The piece seems chaotic, and I dislike the random pop of white within so many colors.,-10,320,20","This is nice, the colorful background is fun and the white looks like dancing figures,5,280,20","I feel positive community and comfort. Singing along at a concert, united with a bunch of strangers through shared joy.,20,140,20","Destiny","This looks like the cover art for a scene band,-29,360,20","Sydney","The piece seems chaotic, and I dislike the random pop of white within so many colors.,-10,320,20","Michelle","This is nice, the colorful background is fun and the white looks like dancing figures,5,280,20","0"
"8868","","survey-text","202","1080932","0.0-202.0-0.0","A3U01JD1ZRRHPL","","","","{""Q0"":""worms in the dirt""}","","","","","","","","","","","","","","","","","","","","","","",""
"3197.399999976158","","image-slider-response","203","1084131","0.0-203.0","A3U01JD1ZRRHPL","","","","","-23","","","","","","","","","","","","","","","","","","","","","",""
"null","","image-button-response","204","1089133","0.0-204.0","A3U01JD1ZRRHPL","img_art/30.jpg","null","","","","","","","","","","","","","","","","","","","","","","","","",""
"6318","","image-button-response","205","1095455","0.0-205.0","A3U01JD1ZRRHPL","img_art/30.jpg","4","","","","","","","","","","","","","","","","","","","","","","","","",""
"1938","","image-button-response","206","1097395","0.0-206.0-0.0","A3U01JD1ZRRHPL","img_art/30.jpg","5","","","","","","","","","","","","","","","","","","","","","","","","",""
"1192","","image-button-response","207","1098589","0.0-207.0-0.0","A3U01JD1ZRRHPL","img_art/30.jpg","0","","","","","","","","","","","","","","","","","","","","","","","","",""
"null","","html-keyboard-response","208","1099590","0.0-208.0","A3U01JD1ZRRHPL","<p style=""font-size: 48px;"">+</p>","","","","","null","allTrialResponses","1000","1","23","img_art/30.jpg","-23","worms in the dirt","Alicia,Destiny,Amanda,Sydney,Michelle,Gabrielle","Neat, but simple, I could make this. not skilled.,9,120,20","literally stupid I made this with as seen on tv products when I was 7,-42,360,20","Love how the red stands out,20,180,20","I love the colors, the style, and the uniqueness in this piece. I love everything.,50,320,20","Don't like it at all, looks like a someone smeared paint with their fingers,-25,280,20","looks very childish, like your kid did it,-33,160,20","Michelle","Don't like it at all, looks like a someone smeared paint with their fingers,-25,280,20","Gabrielle","looks very childish, like your kid did it,-33,160,20","Alicia","Neat, but simple, I could make this. not skilled.,9,120,20","0"
"21217","","survey-text","209","1120814","0.0-209.0-0.0","A3U01JD1ZRRHPL","","","","{""Q0"":""A mountain stream flowing down a hill with flowers and grass on sides.  Nice!""}","","","","","","","","","","","","","","","","","","","","","","",""
"2418.899999976158","","image-slider-response","210","1123234","0.0-210.0","A3U01JD1ZRRHPL","","","","","34","","","","","","","","","","","","","","","","","","","","","",""
"null","","image-button-response","211","1128237","0.0-211.0","A3U01JD1ZRRHPL","img_art/24.jpg","null","","","","","","","","","","","","","","","","","","","","","","","","",""
"592","","image-button-response","212","1128833","0.0-212.0","A3U01JD1ZRRHPL","img_art/24.jpg","4","","","","","","","","","","","","","","","","","","","","","","","","",""
"3125","","image-button-response","213","1131958","0.0-213.0-0.0","A3U01JD1ZRRHPL","img_art/24.jpg","0","","","","","","","","","","","","","","","","","","","","","","","","",""
"1901","","image-button-response","214","1133861","0.0-214.0-0.0","A3U01JD1ZRRHPL","img_art/24.jpg","1","","","","","","","","","","","","","","","","","","","","","","","","",""
"null","","html-keyboard-response","215","1134862","0.0-215.0","A3U01JD1ZRRHPL","<p style=""font-size: 48px;"">+</p>","","","","","null","allTrialResponses","1000","1","24","img_art/24.jpg","34","A mountain stream flowing down a hill with flowers and grass on sides.  Nice!","Alicia,Brianna,Leslie,Maria,Michelle,Gabrielle","Nature, abstract, I'd hang this in my house.,37,120,20","The waterfall looks peaceful,11,20,20","The colors look nice, but the painting bores me.,-20,380,20","this evokes a gutural reaction - it displeases me how similar it is to art I saw growing up,-30,120,20","Looks like a waterfall or a brook, the colors are very nice,15,280,20","flowing water part is good, some of the rest is ok but dark,14,160,20","Michelle","Looks like a waterfall or a brook, the colors are very nice,15,280,20","Alicia","Nature, abstract, I'd hang this in my house.,37,120,20","Brianna","The waterfall looks peaceful,11,20,20","0"
"34202","","survey-text","216","1169070","0.0-216.0-0.0","A3U01JD1ZRRHPL","","","","{""Q0"":""A city viewed from above, with images of some of the inhabitants faces.  Scary""}","","","","","","","","","","","","","","","","","","","","","","",""
"2520.600000023842","","image-slider-response","217","1171593","0.0-217.0","A3U01JD1ZRRHPL","","","","","-32","","","","","","","","","","","","","","","","","","","","","",""
"4845","","image-button-response","218","1176596","0.0-218.0","A3U01JD1ZRRHPL","img_art/8.jpg","2","","","","","","","","","","","","","","","","","","","","","","","","",""
"815","","image-button-response","219","1177413","0.0-219.0","A3U01JD1ZRRHPL","img_art/8.jpg","2","","","","","","","","","","","","","","","","","","","","","","","","",""
"1649","","image-button-response","220","1179063","0.0-220.0-0.0","A3U01JD1ZRRHPL","img_art/8.jpg","3","","","","","","","","","","","","","","","","","","","","","","","","",""
"2715","","image-button-response","221","1181779","0.0-221.0-0.0","A3U01JD1ZRRHPL","img_art/8.jpg","4","","","","","","","","","","","","","","","","","","","","","","","","",""
"null","","html-keyboard-response","222","1182281","0.0-222.0","A3U01JD1ZRRHPL","<p style=""font-size: 48px;"">+</p>","","","","","null","allTrialResponses","500","1","25","img_art/8.jpg","-32","A city viewed from above, with images of some of the inhabitants faces.  Scary","Alicia,Brianna,Caitlin,Cheyenne,Michelle,Chelsea","wow. blocky, angled, neat colors. The faces are what makes it. love it.,45,120,20","It's very odd and I don't really like it,-30,20,20","And I'll huff and I'll puff and I'll blow your town down!!,20,80,20","Has nice depth to it.,12,200,20","I appreciate the complexity of this piece but it's too cubist for me,3,280,20","It looks like it took a lot of time to complete.,34,180,20","Caitlin","And I'll huff and I'll puff and I'll blow your town down!!,20,80,20","Cheyenne","Has nice depth to it.,12,200,20","Michelle","I appreciate the complexity of this piece but it's too cubist for me,3,280,20","0"
"7107","","survey-text","223","1189397","0.0-223.0-0.0","A3U01JD1ZRRHPL","","","","{""Q0"":""table""}","","","","","","","","","","","","","","","","","","","","","","",""
"18453","","survey-text","224","1207851","0.0-224.0-0.0","A3U01JD1ZRRHPL","","","","{""Q0"":""Repeating squares.  Dislike the colors a lot""}","","","","","","","","","","","","","","","","","","","","","","",""
"2668.600000023842","","image-slider-response","225","1210521","0.0-225.0","A3U01JD1ZRRHPL","","","","","-42","","","","","","","","","","","","","","","","","","","","","",""
"null","","image-button-response","226","1215524","0.0-226.0","A3U01JD1ZRRHPL","img_art/12.jpg","null","","","","","","","","","","","","","","","","","","","","","","","","",""
"1492","","image-button-response","227","1217019","0.0-227.0","A3U01JD1ZRRHPL","img_art/12.jpg","0","","","","","","","","","","","","","","","","","","","","","","","","",""
"1295","","image-button-response","228","1218315","0.0-228.0-0.0","A3U01JD1ZRRHPL","img_art/12.jpg","4","","","","","","","","","","","","","","","","","","","","","","","","",""
"1303","","image-button-response","229","1219619","0.0-229.0-0.0","A3U01JD1ZRRHPL","img_art/12.jpg","5","","","","","","","","","","","","","","","","","","","","","","","","",""
"null","","html-keyboard-response","230","1220120","0.0-230.0","A3U01JD1ZRRHPL","<p style=""font-size: 48px;"">+</p>","","","","","null","allTrialResponses","500","1","26","img_art/12.jpg","-42","Repeating squares.  Dislike the colors a lot","Christina,Kelsey,Caitlin,Cheyenne,Michelle,Anna","way too 90s/80s for me,-9,240,20","dont like the squares,-16,240,20","Just wish it was more colorful.,20,80,20","Comes off as a bit boring.,-11,200,20","eww hate everything about this, looks like it belongs in a dentist's office,-14,280,20","Therapist wall art.,10,300,20","Christina","way too 90s/80s for me,-9,240,20","Michelle","eww hate everything about this, looks like it belongs in a dentist's office,-14,280,20","Anna","Therapist wall art.,10,300,20","0"
"27553","","survey-text","231","1247677","0.0-231.0-0.0","A3U01JD1ZRRHPL","","","","{""Q0"":""Like the blue/green on the edges, but not the crazyness in the middle""}","","","","","","","","","","","","","","","","","","","","","","",""
"2228.699999988079","","image-slider-response","232","1249907","0.0-232.0","A3U01JD1ZRRHPL","","","","","-18","","","","","","","","","","","","","","","","","","","","","",""
"null","","image-button-response","233","1254910","0.0-233.0","A3U01JD1ZRRHPL","img_art/9.jpg","null","","","","","","","","","","","","","","","","","","","","","","","","",""
"2639","","image-button-response","234","1257551","0.0-234.0","A3U01JD1ZRRHPL","img_art/9.jpg","2","","","","","","","","","","","","","","","","","","","","","","","","",""
"2213","","image-button-response","235","1259765","0.0-235.0-0.0","A3U01JD1ZRRHPL","img_art/9.jpg","3","","","","","","","","","","","","","","","","","","","","","","","","",""
"1955","","image-button-response","236","1261721","0.0-236.0-0.0","A3U01JD1ZRRHPL","img_art/9.jpg","4","","","","","","","","","","","","","","","","","","","","","","","","",""
"null","","html-keyboard-response","237","1262222","0.0-237.0","A3U01JD1ZRRHPL","<p style=""font-size: 48px;"">+</p>","","","","","null","allTrialResponses","500","1","27","img_art/9.jpg","-18","Like the blue/green on the edges, but not the crazyness in the middle","Christina,Taylor,Monica,Amy,Michelle,Anna","nice colors but it looks like it's from the 80s,10,240,20","The peacock theme gives me negative connotations of my ex-sister-in-law,-10,340,20","I like the greens and blues around the sides and the person reclining in the center makes me feel relaxed,24,360,20","The busyness and harsh nature of the lines in this painting  mute my emotional response.,-10,220,20","Alright, I can see a reclining lady, I'm just glad to be able to tell what's in the picture,5,280,20","It looks like a child's crayon drawing.,-10,300,20","Monica","I like the greens and blues around the sides and the person reclining in the center makes me feel relaxed,24,360,20","Amy","The busyness and harsh nature of the lines in this painting  mute my emotional response.,-10,220,20","Michelle","Alright, I can see a reclining lady, I'm just glad to be able to tell what's in the picture,5,280,20","0"
"18558","","survey-text","238","1280795","0.0-238.0-0.0","A3U01JD1ZRRHPL","","","","{""Q0"":""A willow tree outside a building. Colors are too bland""}","","","","","","","","","","","","","","","","","","","","","","",""
"2636.699999988079","","image-slider-response","239","1283433","0.0-239.0","A3U01JD1ZRRHPL","","","","","-34","","","","","","","","","","","","","","","","","","","","","",""
"null","","image-button-response","240","1288435","0.0-240.0","A3U01JD1ZRRHPL","img_art/17.jpg","null","","","","","","","","","","","","","","","","","","","","","","","","",""
"1091","","image-button-response","241","1289529","0.0-241.0","A3U01JD1ZRRHPL","img_art/17.jpg","3","","","","","","","","","","","","","","","","","","","","","","","","",""
"1687","","image-button-response","242","1291217","0.0-242.0-0.0","A3U01JD1ZRRHPL","img_art/17.jpg","4","","","","","","","","","","","","","","","","","","","","","","","","",""
"1537","","image-button-response","243","1292755","0.0-243.0-0.0","A3U01JD1ZRRHPL","img_art/17.jpg","2","","","","","","","","","","","","","","","","","","","","","","","","",""
"null","","html-keyboard-response","244","1293756","0.0-244.0","A3U01JD1ZRRHPL","<p style=""font-size: 48px;"">+</p>","","","","","null","allTrialResponses","1000","1","28","img_art/17.jpg","-34","A willow tree outside a building. Colors are too bland","Breanna,Catherine,Monica,Amy,Michelle,Alyssa","Very cool, makes me feel calm,43,380,20","Nature coming to the inside of your space that you are locked into.,50,160,20","The colors remind me of a sunset and give a bittersweet feeling. It looks unfinished but not terrible.,6,360,20","peaceful. contemplative. balanced. old,10,220,20","I can tell there are tress and maybe some doors but I'm not a fan of the style,-2,280,20","It gorgeous and i love how the tree is almost 3 dimensional.So many elements to it.,50,160,20","Amy","peaceful. contemplative. balanced. old,10,220,20","Michelle","I can tell there are tress and maybe some doors but I'm not a fan of the style,-2,280,20","Monica","The colors remind me of a sunset and give a bittersweet feeling. It looks unfinished but not terrible.,6,360,20","0"
"23368","","survey-text","245","1317131","0.0-245.0-0.0","A3U01JD1ZRRHPL","","","","{""Q0"":""Too dark, hate the colors. Not sure what it is""}","","","","","","","","","","","","","","","","","","","","","","",""
"3382.7999999523163","","image-slider-response","246","1320515","0.0-246.0","A3U01JD1ZRRHPL","","","","","-47","","","","","","","","","","","","","","","","","","","","","",""
"null","","image-button-response","247","1325517","0.0-247.0","A3U01JD1ZRRHPL","img_art/10.jpg","null","","","","","","","","","","","","","","","","","","","","","","","","",""
"1249","","image-button-response","248","1326769","0.0-248.0","A3U01JD1ZRRHPL","img_art/10.jpg","1","","","","","","","","","","","","","","","","","","","","","","","","",""
"1749","","image-button-response","249","1328520","0.0-249.0-0.0","A3U01JD1ZRRHPL","img_art/10.jpg","4","","","","","","","","","","","","","","","","","","","","","","","","",""
"1146","","image-button-response","250","1329667","0.0-250.0-0.0","A3U01JD1ZRRHPL","img_art/10.jpg","5","","","","","","","","","","","","","","","","","","","","","","","","",""
"null","","html-keyboard-response","251","1331169","0.0-251.0","A3U01JD1ZRRHPL","<p style=""font-size: 48px;"">+</p>","","","","","null","allTrialResponses","1500","1","29","img_art/10.jpg","-47","Too dark, hate the colors. Not sure what it is","Madison,Erin,Monica,Amy,Michelle,Megan","In proper lighting I might enjoy this,11,60,20","Cello music instrument,11,120,20","It doesn't look pleasing to the eye, it kind of looks like an animal but a dirty one,-38,360,20","Highly abstract and yet the shapes and colors provide an emotional accessibility for me.,20,220,20","This could be a guitar, or it could be a completely random shape.,-3,280,20","Music visualized with subtle color,17,200,20","Erin","Cello music instrument,11,120,20","Michelle","This could be a guitar, or it could be a completely random shape.,-3,280,20","Megan","Music visualized with subtle color,17,200,20","0"
"23361","","survey-text","252","1354544","0.0-252.0-0.0","A3U01JD1ZRRHPL","","","","{""Q0"":""A wierd lemon with a knife stuck in it?""}","","","","","","","","","","","","","","","","","","","","","","",""
"3211","","image-slider-response","253","1357756","0.0-253.0","A3U01JD1ZRRHPL","","","","","-40","","","","","","","","","","","","","","","","","","","","","",""
"null","","image-button-response","254","1362758","0.0-254.0","A3U01JD1ZRRHPL","img_art/5.jpg","null","","","","","","","","","","","","","","","","","","","","","","","","",""
"872","","image-button-response","255","1363633","0.0-255.0","A3U01JD1ZRRHPL","img_art/5.jpg","1","","","","","","","","","","","","","","","","","","","","","","","","",""
"3996","","image-button-response","256","1367630","0.0-256.0-0.0","A3U01JD1ZRRHPL","img_art/5.jpg","4","","","","","","","","","","","","","","","","","","","","","","","","",""
"2898","","image-button-response","257","1370530","0.0-257.0-0.0","A3U01JD1ZRRHPL","img_art/5.jpg","5","","","","","","","","","","","","","","","","","","","","","","","","",""
"null","","html-keyboard-response","258","1371031","0.0-258.0","A3U01JD1ZRRHPL","<p style=""font-size: 48px;"">+</p>","","","","","null","allTrialResponses","500","1","30","img_art/5.jpg","-40","A wierd lemon with a knife stuck in it?","Hailey,Erin,Jessica,Allison,Michelle,Megan","puke yellow with nothing but sadness,-35,200,20","Flame, candle, wind,30,120,20","Don't really know the point of this one.,-11,400,20","Too loud. Dislike the bright yellow.,-5,140,20","What is this? It looks like no effort was put into this work,-2,280,20","Cop out, easy money for artist for a 4 min piece,-29,200,20","Erin","Flame, candle, wind,30,120,20","Michelle","What is this? It looks like no effort was put into this work,-2,280,20","Megan","Cop out, easy money for artist for a 4 min piece,-29,200,20","0"
"4170","","image-button-response_instructions","259","1375210","0.0-259.0","A3U01JD1ZRRHPL","","0","instructions","","","","","","","","","","","","","","","","","","","","","","","",""
"1410","","image-button-response","260","1376624","0.0-260.0","A3U01JD1ZRRHPL","","0","","","","","","","","","","","","","","","","","","","","","","","","",""
