"rt","url","trial_type","trial_index","time_elapsed","internal_node_id","participant_id","stimulus","button_pressed","Name","responses","response","key_press","variableName","fixationTime","condition","trial","photo","subjectRating","subjectResponse","agentsNames","agent_1_Response","agent_2_Response","agent_3_Response","agent_4_Response","agent_5_Response","agent_6_Response","kept_1_name","kept_1_response","kept_2_name","kept_2_response","kept_3_name","kept_3_response","errorCounter"
"50734","external_page_harvard.html","external-html","0","50812","0.0-0.0","A3UC8KZ5O8FVX9","","","","","","","","","","","","","","","","","","","","","","","","","","",""
"2164","","image-button-response","1","52980","0.0-1.0","A3UC8KZ5O8FVX9","","1","","","","","","","","","","","","","","","","","","","","","","","","",""
"2072","","image-button-response","2","55064","0.0-2.0-0.0","A3UC8KZ5O8FVX9","","1","phone","","","","","","","","","","","","","","","","","","","","","","","",""
"7467","","survey-text","3","62534","0.0-3.0-0.0","A3UC8KZ5O8FVX9","","","","{""Q0"":""A3UC8KZ5O8FVX9""}","","","","","","","","","","","","","","","","","","","","","","",""
"5645","","image-button-response_instructions","4","68183","0.0-4.0","A3UC8KZ5O8FVX9","","0","instructions","","","","","","","","","","","","","","","","","","","","","","","",""
"15524","","image-button-response_instructions","5","83710","0.0-5.0","A3UC8KZ5O8FVX9","img_art/ins/popularity/ins1.png","0","instructions","","","","","","","","","","","","","","","","","","","","","","","",""
"7127","","image-button-response_instructions","6","90839","0.0-6.0","A3UC8KZ5O8FVX9","img_art/ins/popularity/ins2.png","0","instructions","","","","","","","","","","","","","","","","","","","","","","","",""
"7883","","image-button-response_instructions","7","98724","0.0-7.0","A3UC8KZ5O8FVX9","img_art/ins/popularity/ins2Extreme.png","0","instructions","","","","","","","","","","","","","","","","","","","","","","","",""
"17189","","image-button-response_instructions","8","115916","0.0-8.0","A3UC8KZ5O8FVX9","img_art/ins/popularity/ins3KEEPpop.PNG","0","instructions","","","","","","","","","","","","","","","","","","","","","","","",""
"33083","","image-button-response_instructions","9","149002","0.0-9.0","A3UC8KZ5O8FVX9","img_art/ins/popularity/ins3ANamepop.PNG","0","instructions","","","","","","","","","","","","","","","","","","","","","","","",""
"4291","","image-button-response_instructions","10","153295","0.0-10.0","A3UC8KZ5O8FVX9","img_art/ins/popularity/ins3ARatingpop.png","0","instructions","","","","","","","","","","","","","","","","","","","","","","","",""
"2763","","image-button-response_instructions","11","156060","0.0-11.0","A3UC8KZ5O8FVX9","img_art/ins/popularity/ins3ATextpop.png","0","instructions","","","","","","","","","","","","","","","","","","","","","","","",""
"8547","","image-button-response_instructions","12","164609","0.0-12.0","A3UC8KZ5O8FVX9","img_art/ins/popularity/ins3ALikespop.png","0","instructions","","","","","","","","","","","","","","","","","","","","","","","",""
"14354","","image-button-response_instructions","13","178966","0.0-13.0","A3UC8KZ5O8FVX9","img_art/ins/popularity/ins3KEEPpop.PNG","0","instructions","","","","","","","","","","","","","","","","","","","","","","","",""
"12259","","image-button-response_instructions","14","191227","0.0-14.0","A3UC8KZ5O8FVX9","img_art/ins/popularity/ins3_5RED.png","0","instructions","","","","","","","","","","","","","","","","","","","","","","","",""
"5222","","image-button-response_instructions","15","196452","0.0-15.0","A3UC8KZ5O8FVX9","img_art/ins/popularity/ins3KEEPpop.PNG","0","instructions","","","","","","","","","","","","","","","","","","","","","","","",""
"10160","","image-button-response_instructions","16","206614","0.0-16.0","A3UC8KZ5O8FVX9","img_art/ins/popularity/ins4KEEPpop.PNG","0","instructions","","","","","","","","","","","","","","","","","","","","","","","",""
"4809","","image-button-response_instructions","17","211426","0.0-17.0","A3UC8KZ5O8FVX9","img_art/ins/popularity/ins5KEEPpop.PNG","0","instructions","","","","","","","","","","","","","","","","","","","","","","","",""
"1895","","image-button-response_instructions","18","213324","0.0-18.0","A3UC8KZ5O8FVX9","","0","instructions","","","","","","","","","","","","","","","","","","","","","","","",""
"6337","","survey-text","19","219705","0.0-19.0-0.0","A3UC8KZ5O8FVX9","","","","{""Q0"":""but""}","","","","","","","","","","","","","","","","","","","","","","",""
"20445","","survey-text","20","240152","0.0-20.0-0.0","A3UC8KZ5O8FVX9","","","","{""Q0"":""This is like something my son would do""}","","","","","","","","","","","","","","","","","","","","","","",""
"4159.9000000059605","","image-slider-response","21","244317","0.0-21.0","A3UC8KZ5O8FVX9","","","","","-6","","","","","","","","","","","","","","","","","","","","","",""
"null","","image-button-response","22","249342","0.0-22.0","A3UC8KZ5O8FVX9","img_art/ins/1.jpg","null","","","","","","","","","","","","","","","","","","","","","","","","",""
"1876","","image-button-response","23","251222","0.0-23.0","A3UC8KZ5O8FVX9","img_art/ins/1.jpg","5","","","","","","","","","","","","","","","","","","","","","","","","",""
"5895","","image-button-response","24","257122","0.0-24.0-0.0","A3UC8KZ5O8FVX9","img_art/ins/1.jpg","0","","","","","","","","","","","","","","","","","","","","","","","","",""
"20387","","image-button-response","25","277515","0.0-25.0-0.0","A3UC8KZ5O8FVX9","img_art/ins/1.jpg","4","","","","","","","","","","","","","","","","","","","","","","","","",""
"null","","html-keyboard-response","26","279027","0.0-26.0","A3UC8KZ5O8FVX9","<p style=""font-size: 48px;"">+</p>","","","","","null","allTrialResponses","1500","1","-2","img_art/ins/1.jpg","-6","This is like something my son would do","Allison,Ashley,Beth,Dora,Erika,Jen","looks like a lot of things going on in the mist,20,20,20","I just don't get why these type of art would be popular,-32,40,20","This color reminds me of poo,-46,60,20","looks like what my niece in 3rd grade did this afternoon,-50,80,20","I like the sophisticated brushwork,40,100,20","It reminds me of a candy land dream I had,36,120,20","Jen","It reminds me of a candy land dream I had,36,120,20","Allison","looks like a lot of things going on in the mist,20,20,20","Erika","I like the sophisticated brushwork,40,100,20","0"
"13882","","survey-text","27","292915","0.0-27.0-0.0","A3UC8KZ5O8FVX9","","","","{""Q0"":""I love that it was done with oil paints""}","","","","","","","","","","","","","","","","","","","","","","",""
"4731.79999999702","","image-slider-response","28","297650","0.0-28.0","A3UC8KZ5O8FVX9","","","","","4","","","","","","","","","","","","","","","","","","","","","",""
"2847","","image-button-response","29","302670","0.0-29.0","A3UC8KZ5O8FVX9","img_art/ins/2.jpg","1","","","","","","","","","","","","","","","","","","","","","","","","",""
"1736","","image-button-response","30","304411","0.0-30.0","A3UC8KZ5O8FVX9","img_art/ins/2.jpg","1","","","","","","","","","","","","","","","","","","","","","","","","",""
"4686","","image-button-response","31","309100","0.0-31.0-0.0","A3UC8KZ5O8FVX9","img_art/ins/2.jpg","5","","","","","","","","","","","","","","","","","","","","","","","","",""
"5234","","image-button-response","32","314340","0.0-32.0-0.0","A3UC8KZ5O8FVX9","img_art/ins/2.jpg","4","","","","","","","","","","","","","","","","","","","","","","","","",""
"null","","html-keyboard-response","33","315847","0.0-33.0","A3UC8KZ5O8FVX9","<p style=""font-size: 48px;"">+</p>","","","","","null","allTrialResponses","1500","1","-1","img_art/ins/2.jpg","4","I love that it was done with oil paints","Allison,Kara,Katie,Jenna,Erika,Jen","I don't have strong feelings about this,10,20,20","I like the blocks of color arrangements,30,160,20","too much color!,-28,180,20","One of my pet peevs,-48,140,20","I would never be able to compose a sophisticated pallete like this,48,100,20","It reminds me of a fireplace,36,120,20","Kara","I like the blocks of color arrangements,30,160,20","Jen","It reminds me of a fireplace,36,120,20","Erika","I would never be able to compose a sophisticated pallete like this,48,100,20","0"
"8599","","survey-text","34","324453","0.0-34.0-0.0","A3UC8KZ5O8FVX9","","","","{""Q0"":""I love all the blues""}","","","","","","","","","","","","","","","","","","","","","","",""
"4606.5999999940395","","image-slider-response","35","329063","0.0-35.0","A3UC8KZ5O8FVX9","","","","","17","","","","","","","","","","","","","","","","","","","","","",""
"3606","","image-button-response","36","334072","0.0-36.0","A3UC8KZ5O8FVX9","img_art/ins/3.jpg","5","","","","","","","","","","","","","","","","","","","","","","","","",""
"7668","","image-button-response","37","341744","0.0-37.0","A3UC8KZ5O8FVX9","img_art/ins/3.jpg","5","","","","","","","","","","","","","","","","","","","","","","","","",""
"3858","","image-button-response","38","345607","0.0-38.0-0.0","A3UC8KZ5O8FVX9","img_art/ins/3.jpg","4","","","","","","","","","","","","","","","","","","","","","","","","",""
"1848","","image-button-response","39","347459","0.0-39.0-0.0","A3UC8KZ5O8FVX9","img_art/ins/3.jpg","1","","","","","","","","","","","","","","","","","","","","","","","","",""
"null","","html-keyboard-response","40","347978","0.0-40.0","A3UC8KZ5O8FVX9","<p style=""font-size: 48px;"">+</p>","","","","","null","allTrialResponses","500","1","0","img_art/ins/3.jpg","17","I love all the blues","Mary,Kara,Rose,Leslie,Erika,Jen","I like the overlapping of brushes,41,220,20","calming blue is very nice,36,160,20","My daily routine, it's depressing,-20,240,20","It's an alright work,15,200,20","I feel connected to the artist,40,100,20","I can feel a rainy day from this painting,18,120,20","Jen","I can feel a rainy day from this painting,18,120,20","Erika","I feel connected to the artist,40,100,20","Kara","calming blue is very nice,36,160,20","0"
"7041","","image-button-response_instructions","41","355028","0.0-41.0","A3UC8KZ5O8FVX9","","0","instructions","","","","","","","","","","","","","","","","","","","","","","","",""
"24789","","survey-likert","42","379821","0.0-42.0-0.0","A3UC8KZ5O8FVX9","","","","{""Q0"":"""",""Q1"":0,""Q2"":1}","","","","","","","","","","","","","","","","","","","","","","",""
"3831","","survey-text","43","383662","0.0-43.0-0.0","A3UC8KZ5O8FVX9","","","","{""Q0"":""rock""}","","","","","","","","","","","","","","","","","","","","","","",""
"10024","","survey-text","44","393688","0.0-44.0-0.0","A3UC8KZ5O8FVX9","","","","{""Q0"":""I love how it sort of looks like a guitar""}","","","","","","","","","","","","","","","","","","","","","","",""
"2575.2000000029802","","image-slider-response","45","396267","0.0-45.0","A3UC8KZ5O8FVX9","","","","","10","","","","","","","","","","","","","","","","","","","","","",""
"2613","","image-button-response","46","401328","0.0-46.0","A3UC8KZ5O8FVX9","img_art/10.jpg","1","","","","","","","","","","","","","","","","","","","","","","","","",""
"2409","","image-button-response","47","403741","0.0-47.0","A3UC8KZ5O8FVX9","img_art/10.jpg","1","","","","","","","","","","","","","","","","","","","","","","","","",""
"4365","","image-button-response","48","408111","0.0-48.0-0.0","A3UC8KZ5O8FVX9","img_art/10.jpg","4","","","","","","","","","","","","","","","","","","","","","","","","",""
"4350","","image-button-response","49","412467","0.0-49.0-0.0","A3UC8KZ5O8FVX9","img_art/10.jpg","5","","","","","","","","","","","","","","","","","","","","","","","","",""
"null","","html-keyboard-response","50","413986","0.0-50.0","A3UC8KZ5O8FVX9","<p style=""font-size: 48px;"">+</p>","","","","","null","allTrialResponses","1500","1","1","img_art/10.jpg","10","I love how it sort of looks like a guitar","Monica,Cassandra,Shannon,Cassidy,Erica,Alicia","It doesn't look pleasing to the eye, it kind of looks like an animal but a dirty one,-38,360,20","I liked it...it looked somewhat like a guitar.,32,120,20","I can't tell what this picture is supposed to mean and I think the colors are lacking variety.,-42,220,20","Looks like someone just smeared some paint and called it good. Do not like.,-6,140,20","Relaxing; a lot of going on but colours make it easy to look at,20,80,20","It's art. (for some),7,120,20","Cassandra","I liked it...it looked somewhat like a guitar.,32,120,20","Erica","Relaxing; a lot of going on but colours make it easy to look at,20,80,20","Alicia","It's art. (for some),7,120,20","0"
"6774","","survey-text","51","420767","0.0-51.0-0.0","A3UC8KZ5O8FVX9","","","","{""Q0"":""I love the color cells""}","","","","","","","","","","","","","","","","","","","","","","",""
"4014.4000000059605","","image-slider-response","52","424785","0.0-52.0","A3UC8KZ5O8FVX9","","","","","36","","","","","","","","","","","","","","","","","","","","","",""
"null","","image-button-response","53","429803","0.0-53.0","A3UC8KZ5O8FVX9","img_art/12.jpg","null","","","","","","","","","","","","","","","","","","","","","","","","",""
"2599","","image-button-response","54","432405","0.0-54.0","A3UC8KZ5O8FVX9","img_art/12.jpg","4","","","","","","","","","","","","","","","","","","","","","","","","",""
"6347","","image-button-response","55","438755","0.0-55.0-0.0","A3UC8KZ5O8FVX9","img_art/12.jpg","0","","","","","","","","","","","","","","","","","","","","","","","","",""
"2084","","image-button-response","56","440845","0.0-56.0-0.0","A3UC8KZ5O8FVX9","img_art/12.jpg","2","","","","","","","","","","","","","","","","","","","","","","","","",""
"null","","html-keyboard-response","57","442355","0.0-57.0","A3UC8KZ5O8FVX9","<p style=""font-size: 48px;"">+</p>","","","","","null","allTrialResponses","1500","1","2","img_art/12.jpg","36","I love the color cells","Dominique,Cassandra,Grace,Hannah,Erica,Alicia","I have seen some like this before very popular and full of life,42,400,20","Neutral...just blocks.,3,120,20","Love the colors & the abstractness.,31,180,20","I don't get this one. Doesn't evoke an emotional response.,-10,240,20","good colours scheme; organised,17,80,20","it's ok, but blocky, looks old.,3,120,20","Erica","good colours scheme; organised,17,80,20","Dominique","I have seen some like this before very popular and full of life,42,400,20","Grace","Love the colors & the abstractness.,31,180,20","0"
"12264","","survey-text","58","454627","0.0-58.0-0.0","A3UC8KZ5O8FVX9","","","","{""Q0"":""I love how the middle looks like a mouth""}","","","","","","","","","","","","","","","","","","","","","","",""
"2402.0999999940395","","image-slider-response","59","457033","0.0-59.0","A3UC8KZ5O8FVX9","","","","","18","","","","","","","","","","","","","","","","","","","","","",""
"null","","image-button-response","60","462043","0.0-60.0","A3UC8KZ5O8FVX9","img_art/9.jpg","null","","","","","","","","","","","","","","","","","","","","","","","","",""
"2941","","image-button-response","61","464987","0.0-61.0","A3UC8KZ5O8FVX9","img_art/9.jpg","0","","","","","","","","","","","","","","","","","","","","","","","","",""
"11024","","image-button-response","62","476016","0.0-62.0-0.0","A3UC8KZ5O8FVX9","img_art/9.jpg","5","","","","","","","","","","","","","","","","","","","","","","","","",""
"5013","","image-button-response","63","481034","0.0-63.0-0.0","A3UC8KZ5O8FVX9","img_art/9.jpg","1","","","","","","","","","","","","","","","","","","","","","","","","",""
"null","","html-keyboard-response","64","481544","0.0-64.0","A3UC8KZ5O8FVX9","<p style=""font-size: 48px;"">+</p>","","","","","null","allTrialResponses","500","1","3","img_art/9.jpg","18","I love how the middle looks like a mouth","Dominique,Elizabeth,Grace,Heather,Erica,Mikayla","This speaks to me like a personalities and sides and not all are nice,19,400,20","Love the uniqueness,21,20,20","Huh?  Doesn't invoke much.,-37,180,20","a mother in bed surrounded by emotions,1,260,20","Looks very relaxing; someone laying in a meadow,13,80,20","Looks like a crayon drawing.,21,300,20","Dominique","This speaks to me like a personalities and sides and not all are nice,19,400,20","Mikayla","Looks like a crayon drawing.,21,300,20","Elizabeth","Love the uniqueness,21,20,20","0"
"6192","","survey-text","65","487745","0.0-65.0-0.0","A3UC8KZ5O8FVX9","","","","{""Q0"":""Love the brush strokes""}","","","","","","","","","","","","","","","","","","","","","","",""
"4265.9000000059605","","image-slider-response","66","492014","0.0-66.0","A3UC8KZ5O8FVX9","","","","","11","","","","","","","","","","","","","","","","","","","","","",""
"null","","image-button-response","67","497028","0.0-67.0","A3UC8KZ5O8FVX9","img_art/30.jpg","null","","","","","","","","","","","","","","","","","","","","","","","","",""
"1924","","image-button-response","68","498955","0.0-68.0","A3UC8KZ5O8FVX9","img_art/30.jpg","4","","","","","","","","","","","","","","","","","","","","","","","","",""
"4052","","image-button-response","69","503012","0.0-69.0-0.0","A3UC8KZ5O8FVX9","img_art/30.jpg","2","","","","","","","","","","","","","","","","","","","","","","","","",""
"2109","","image-button-response","70","505125","0.0-70.0-0.0","A3UC8KZ5O8FVX9","img_art/30.jpg","1","","","","","","","","","","","","","","","","","","","","","","","","",""
"null","","html-keyboard-response","71","506631","0.0-71.0","A3UC8KZ5O8FVX9","<p style=""font-size: 48px;"">+</p>","","","","","null","allTrialResponses","1500","1","4","img_art/30.jpg","11","Love the brush strokes","Dominique,Elizabeth,Kaitlin,Catherine,Brittany,Mikayla","Personal , calming conservative signature business ideal.,32,400,20","Love the bold brush strokes and the illusion it creates,50,20,20","the different roads to take in life,10,60,20","connection, Everything is connected even in contrast.,42,160,20","The colors and the brushstrokes are interesting enough.,17,40,20","Very colorful! Wow!,22,300,20","Brittany","The colors and the brushstrokes are interesting enough.,17,40,20","Kaitlin","the different roads to take in life,10,60,20","Elizabeth","Love the bold brush strokes and the illusion it creates,50,20,20","0"
"9148","","survey-text","72","515788","0.0-72.0-0.0","A3UC8KZ5O8FVX9","","","","{""Q0"":""I love the texture that was created""}","","","","","","","","","","","","","","","","","","","","","","",""
"2341.7999999970198","","image-slider-response","73","518133","0.0-73.0","A3UC8KZ5O8FVX9","","","","","43","","","","","","","","","","","","","","","","","","","","","",""
"null","","image-button-response","74","523139","0.0-74.0","A3UC8KZ5O8FVX9","img_art/18.jpg","null","","","","","","","","","","","","","","","","","","","","","","","","",""
"848","","image-button-response","75","523991","0.0-75.0","A3UC8KZ5O8FVX9","img_art/18.jpg","1","","","","","","","","","","","","","","","","","","","","","","","","",""
"2037","","image-button-response","76","526031","0.0-76.0-0.0","A3UC8KZ5O8FVX9","img_art/18.jpg","2","","","","","","","","","","","","","","","","","","","","","","","","",""
"3098","","image-button-response","77","529134","0.0-77.0-0.0","A3UC8KZ5O8FVX9","img_art/18.jpg","0","","","","","","","","","","","","","","","","","","","","","","","","",""
"null","","html-keyboard-response","78","530137","0.0-78.0","A3UC8KZ5O8FVX9","<p style=""font-size: 48px;"">+</p>","","","","","null","allTrialResponses","1000","1","5","img_art/18.jpg","43","I love the texture that was created","Victoria,Elizabeth,Kaitlin,Destiny,Brittany,Leah","Makes me think of stormy oceans,20,400,20","Nice abstract art,50,20,20","I really like this one - there seems to be a story behind it,32,60,20","Can't tell if I love it or hate it. That response warranted more than neutral so I gave it 20 but not sure,21,360,20","This is really interesting to look at. I like the colors and the spectral look.,27,40,20","I really like it, like hells drivers,43,360,20","Elizabeth","Nice abstract art,50,20,20","Kaitlin","I really like this one - there seems to be a story behind it,32,60,20","Victoria","Makes me think of stormy oceans,20,400,20","0"
"4519","","survey-text","79","534669","0.0-79.0-0.0","A3UC8KZ5O8FVX9","","","","{""Q0"":""sky""}","","","","","","","","","","","","","","","","","","","","","","",""
"8911","","survey-text","80","543583","0.0-80.0-0.0","A3UC8KZ5O8FVX9","","","","{""Q0"":""It reminds me of a western""}","","","","","","","","","","","","","","","","","","","","","","",""
"2756.7999999970198","","image-slider-response","81","546343","0.0-81.0","A3UC8KZ5O8FVX9","","","","","46","","","","","","","","","","","","","","","","","","","","","",""
"null","","image-button-response","82","551359","0.0-82.0","A3UC8KZ5O8FVX9","img_art/20.jpg","null","","","","","","","","","","","","","","","","","","","","","","","","",""
"1105","","image-button-response","83","552467","0.0-83.0","A3UC8KZ5O8FVX9","img_art/20.jpg","0","","","","","","","","","","","","","","","","","","","","","","","","",""
"2319","","image-button-response","84","554790","0.0-84.0-0.0","A3UC8KZ5O8FVX9","img_art/20.jpg","3","","","","","","","","","","","","","","","","","","","","","","","","",""
"2469","","image-button-response","85","557263","0.0-85.0-0.0","A3UC8KZ5O8FVX9","img_art/20.jpg","2","","","","","","","","","","","","","","","","","","","","","","","","",""
"null","","html-keyboard-response","86","558280","0.0-86.0","A3UC8KZ5O8FVX9","<p style=""font-size: 48px;"">+</p>","","","","","null","allTrialResponses","1000","1","6","img_art/20.jpg","46","It reminds me of a western","Victoria,Elizabeth,Kaitlin,Andrea,Ashley,Melissa","like the colors and desert feel,7,400,20","This painting would make a great display art,50,20,20","i can feel the intensity in this,11,60,20","Reminds me of persistance of time (a favorite of mine).,30,240,20","Painting within a painting, abstract.,32,320,20","feels underdeveloped,-11,240,20","Victoria","like the colors and desert feel,7,400,20","Andrea","Reminds me of persistance of time (a favorite of mine).,30,240,20","Kaitlin","i can feel the intensity in this,11,60,20","0"
"17745","","survey-text","87","576031","0.0-87.0-0.0","A3UC8KZ5O8FVX9","","","","{""Q0"":""Like the use of different kinds of lines""}","","","","","","","","","","","","","","","","","","","","","","",""
"3005.5","","image-slider-response","88","579040","0.0-88.0","A3UC8KZ5O8FVX9","","","","","3","","","","","","","","","","","","","","","","","","","","","",""
"null","","image-button-response","89","584054","0.0-89.0","A3UC8KZ5O8FVX9","img_art/3.jpg","null","","","","","","","","","","","","","","","","","","","","","","","","",""
"3192","","image-button-response","90","587250","0.0-90.0","A3UC8KZ5O8FVX9","img_art/3.jpg","5","","","","","","","","","","","","","","","","","","","","","","","","",""
"1792","","image-button-response","91","589047","0.0-91.0-0.0","A3UC8KZ5O8FVX9","img_art/3.jpg","2","","","","","","","","","","","","","","","","","","","","","","","","",""
"2200","","image-button-response","92","591252","0.0-92.0-0.0","A3UC8KZ5O8FVX9","img_art/3.jpg","4","","","","","","","","","","","","","","","","","","","","","","","","",""
"null","","html-keyboard-response","93","591775","0.0-93.0","A3UC8KZ5O8FVX9","<p style=""font-size: 48px;"">+</p>","","","","","null","allTrialResponses","500","1","7","img_art/3.jpg","3","Like the use of different kinds of lines","Victoria,Jennifer,Kaitlin,Andrea,Kylie,Amber","makes me think of anger,-33,400,20","This looks like something a child created in 5 minutes.,-50,380,20","good choice of color,12,60,20","I don't feel anything, it seems childish.,-25,240,20","Confusion and mayhem,-10,300,20","seems to be a lot of angry scribble.,-20,200,20","Amber","seems to be a lot of angry scribble.,-20,200,20","Kaitlin","good choice of color,12,60,20","Kylie","Confusion and mayhem,-10,300,20","0"
"10741","","survey-text","94","602523","0.0-94.0-0.0","A3UC8KZ5O8FVX9","","","","{""Q0"":""Love the babbling brook""}","","","","","","","","","","","","","","","","","","","","","","",""
"4392.0999999940395","","image-slider-response","95","606919","0.0-95.0","A3UC8KZ5O8FVX9","","","","","48","","","","","","","","","","","","","","","","","","","","","",""
"null","","image-button-response","96","611928","0.0-96.0","A3UC8KZ5O8FVX9","img_art/24.jpg","null","","","","","","","","","","","","","","","","","","","","","","","","",""
"1152","","image-button-response","97","613084","0.0-97.0","A3UC8KZ5O8FVX9","img_art/24.jpg","5","","","","","","","","","","","","","","","","","","","","","","","","",""
"732","","image-button-response","98","613820","0.0-98.0-0.0","A3UC8KZ5O8FVX9","img_art/24.jpg","4","","","","","","","","","","","","","","","","","","","","","","","","",""
"1978","","image-button-response","99","615802","0.0-99.0-0.0","A3UC8KZ5O8FVX9","img_art/24.jpg","2","","","","","","","","","","","","","","","","","","","","","","","","",""
"null","","html-keyboard-response","100","616810","0.0-100.0","A3UC8KZ5O8FVX9","<p style=""font-size: 48px;"">+</p>","","","","","null","allTrialResponses","1000","1","8","img_art/24.jpg","48","Love the babbling brook","Jasmine,Gabriela,Kaitlin,Kaitlyn,Kylie,Amber","This one is nice because it reminds me of nature,18,340,20","I love how bold and vibrant the colors are,40,140,20","Aww. I love the peace brought by this picture.,40,60,20","I like the bright colors,16,80,20","Forest waterfall,40,300,20","peaceful and calm yet joyous.,50,200,20","Amber","peaceful and calm yet joyous.,50,200,20","Kylie","Forest waterfall,40,300,20","Kaitlin","Aww. I love the peace brought by this picture.,40,60,20","0"
"13864","","survey-text","101","630683","0.0-101.0-0.0","A3UC8KZ5O8FVX9","","","","{""Q0"":""It's confusing""}","","","","","","","","","","","","","","","","","","","","","","",""
"3663.300000011921","","image-slider-response","102","634350","0.0-102.0","A3UC8KZ5O8FVX9","","","","","5","","","","","","","","","","","","","","","","","","","","","",""
"null","","image-button-response","103","639360","0.0-103.0","A3UC8KZ5O8FVX9","img_art/28.jpg","null","","","","","","","","","","","","","","","","","","","","","","","","",""
"4238","","image-button-response","104","643601","0.0-104.0","A3UC8KZ5O8FVX9","img_art/28.jpg","1","","","","","","","","","","","","","","","","","","","","","","","","",""
"3262","","image-button-response","105","646868","0.0-105.0-0.0","A3UC8KZ5O8FVX9","img_art/28.jpg","5","","","","","","","","","","","","","","","","","","","","","","","","",""
"749","","image-button-response","106","647623","0.0-106.0-0.0","A3UC8KZ5O8FVX9","img_art/28.jpg","4","","","","","","","","","","","","","","","","","","","","","","","","",""
"null","","html-keyboard-response","107","648653","0.0-107.0","A3UC8KZ5O8FVX9","<p style=""font-size: 48px;"">+</p>","","","","","null","allTrialResponses","1000","1","9","img_art/28.jpg","5","It's confusing","Angelica,Amanda,Kaitlin,Emily,Kylie,Amber","This is very ugly with poor colors.,-23,280,20","Colors look too muddy for my liking,-33,180,20","i'm not too impressed with this one.,-10,60,20","Incoherent ugly mess.,-50,40,20","Overpopulated city,35,300,20","Colors are too dull.,-30,200,20","Amanda","Colors look too muddy for my liking,-33,180,20","Amber","Colors are too dull.,-30,200,20","Kylie","Overpopulated city,35,300,20","0"
"9600","","survey-text","108","658259","0.0-108.0-0.0","A3UC8KZ5O8FVX9","","","","{""Q0"":""Love the park""}","","","","","","","","","","","","","","","","","","","","","","",""
"2405.4000000059605","","image-slider-response","109","660668","0.0-109.0","A3UC8KZ5O8FVX9","","","","","41","","","","","","","","","","","","","","","","","","","","","",""
"null","","image-button-response","110","665680","0.0-110.0","A3UC8KZ5O8FVX9","img_art/26.jpg","null","","","","","","","","","","","","","","","","","","","","","","","","",""
"2706","","image-button-response","111","668389","0.0-111.0","A3UC8KZ5O8FVX9","img_art/26.jpg","2","","","","","","","","","","","","","","","","","","","","","","","","",""
"2101","","image-button-response","112","670495","0.0-112.0-0.0","A3UC8KZ5O8FVX9","img_art/26.jpg","4","","","","","","","","","","","","","","","","","","","","","","","","",""
"1691","","image-button-response","113","672191","0.0-113.0-0.0","A3UC8KZ5O8FVX9","img_art/26.jpg","3","","","","","","","","","","","","","","","","","","","","","","","","",""
"null","","html-keyboard-response","114","673201","0.0-114.0","A3UC8KZ5O8FVX9","<p style=""font-size: 48px;"">+</p>","","","","","null","allTrialResponses","1000","1","10","img_art/26.jpg","41","Love the park","Julia,Amanda,Samantha,Alyssa,Kylie,Amber","I'm not really into landscapes unless I have a personal connection to them,-21,40,20","Pleasant to look at,28,180,20","I like the colors and trees. Seems cheap vintage retail store art but i love it anyways,50,140,20","Its pretty.And a nice use of water colors.,25,160,20","Picturesque little town,45,300,20","The colors are muted.,1,200,20","Samantha","I like the colors and trees. Seems cheap vintage retail store art but i love it anyways,50,140,20","Kylie","Picturesque little town,45,300,20","Alyssa","Its pretty.And a nice use of water colors.,25,160,20","0"
"3152","","survey-text","115","676363","0.0-115.0-0.0","A3UC8KZ5O8FVX9","","","","{""Q0"":""our""}","","","","","","","","","","","","","","","","","","","","","","",""
"6141","","survey-text","116","682506","0.0-116.0-0.0","A3UC8KZ5O8FVX9","","","","{""Q0"":""Love the use of colors""}","","","","","","","","","","","","","","","","","","","","","","",""
"2870.7999999970198","","image-slider-response","117","685380","0.0-117.0","A3UC8KZ5O8FVX9","","","","","26","","","","","","","","","","","","","","","","","","","","","",""
"null","","image-button-response","118","690385","0.0-118.0","A3UC8KZ5O8FVX9","img_art/1.jpg","null","","","","","","","","","","","","","","","","","","","","","","","","",""
"790","","image-button-response","119","691178","0.0-119.0","A3UC8KZ5O8FVX9","img_art/1.jpg","0","","","","","","","","","","","","","","","","","","","","","","","","",""
"8624","","image-button-response","120","699806","0.0-120.0-0.0","A3UC8KZ5O8FVX9","img_art/1.jpg","5","","","","","","","","","","","","","","","","","","","","","","","","",""
"1590","","image-button-response","121","701401","0.0-121.0-0.0","A3UC8KZ5O8FVX9","img_art/1.jpg","2","","","","","","","","","","","","","","","","","","","","","","","","",""
"null","","html-keyboard-response","122","701916","0.0-122.0","A3UC8KZ5O8FVX9","<p style=""font-size: 48px;"">+</p>","","","","","null","allTrialResponses","500","1","11","img_art/1.jpg","26","Love the use of colors","Gabrielle,Allison,Samantha,Alyssa,Kylie,Shelby","nice piece, fall like,31,160,20","Messy mix of primary colors.,-10,140,20","Love the colors but it makes me feel like someone is looking at me through it,38,140,20","Its okay,not great.,1,160,20","I don't know how I feel about this,1,300,20","This one has a pleasent energy,15,240,20","Gabrielle","nice piece, fall like,31,160,20","Shelby","This one has a pleasent energy,15,240,20","Samantha","Love the colors but it makes me feel like someone is looking at me through it,38,140,20","0"
"10578","","survey-text","123","712503","0.0-123.0-0.0","A3UC8KZ5O8FVX9","","","","{""Q0"":""Love all that is going on""}","","","","","","","","","","","","","","","","","","","","","","",""
"3040.2000000029802","","image-slider-response","124","715546","0.0-124.0","A3UC8KZ5O8FVX9","","","","","50","","","","","","","","","","","","","","","","","","","","","",""
"null","","image-button-response","125","720550","0.0-125.0","A3UC8KZ5O8FVX9","img_art/8.jpg","null","","","","","","","","","","","","","","","","","","","","","","","","",""
"1002","","image-button-response","126","721555","0.0-126.0","A3UC8KZ5O8FVX9","img_art/8.jpg","0","","","","","","","","","","","","","","","","","","","","","","","","",""
"5684","","image-button-response","127","727244","0.0-127.0-0.0","A3UC8KZ5O8FVX9","img_art/8.jpg","4","","","","","","","","","","","","","","","","","","","","","","","","",""
"2049","","image-button-response","128","729299","0.0-128.0-0.0","A3UC8KZ5O8FVX9","img_art/8.jpg","3","","","","","","","","","","","","","","","","","","","","","","","","",""
"null","","html-keyboard-response","129","730802","0.0-129.0","A3UC8KZ5O8FVX9","<p style=""font-size: 48px;"">+</p>","","","","","null","allTrialResponses","1500","1","12","img_art/8.jpg","50","Love all that is going on","Gabrielle,Stephanie,Samantha,Kayla,Caroline,Shelby","lots going on with great use of lots of color and geometry,24,160,20","I like the colors and geometrical shapes but the face in the sky makes it look scary,-10,300,20","The face bothers me,-25,140,20","The faces are kinda freaky.,-17,180,20","I love the colors in it and also the faces and door ways. Made me feel hopeful,35,100,20","Too much going on, too many colors, makes me feel uneasy,-20,240,20","Gabrielle","lots going on with great use of lots of color and geometry,24,160,20","Caroline","I love the colors in it and also the faces and door ways. Made me feel hopeful,35,100,20","Kayla","The faces are kinda freaky.,-17,180,20","0"
"7254","","survey-text","130","738066","0.0-130.0-0.0","A3UC8KZ5O8FVX9","","","","{""Q0"":""This one's a bit creepy""}","","","","","","","","","","","","","","","","","","","","","","",""
"3564.6000000089407","","image-slider-response","131","741634","0.0-131.0","A3UC8KZ5O8FVX9","","","","","-8","","","","","","","","","","","","","","","","","","","","","",""
"null","","image-button-response","132","746639","0.0-132.0","A3UC8KZ5O8FVX9","img_art/16.jpg","null","","","","","","","","","","","","","","","","","","","","","","","","",""
"2179","","image-button-response","133","748822","0.0-133.0","A3UC8KZ5O8FVX9","img_art/16.jpg","1","","","","","","","","","","","","","","","","","","","","","","","","",""
"3259","","image-button-response","134","752086","0.0-134.0-0.0","A3UC8KZ5O8FVX9","img_art/16.jpg","5","","","","","","","","","","","","","","","","","","","","","","","","",""
"3295","","image-button-response","135","755384","0.0-135.0-0.0","A3UC8KZ5O8FVX9","img_art/16.jpg","3","","","","","","","","","","","","","","","","","","","","","","","","",""
"null","","html-keyboard-response","136","755889","0.0-136.0","A3UC8KZ5O8FVX9","<p style=""font-size: 48px;"">+</p>","","","","","null","allTrialResponses","500","1","13","img_art/16.jpg","-8","This one's a bit creepy","Gabrielle,Amy,Alexis,Kayla,Caroline,Chloe","nonsense art, not really art,-44,160,20","visceral and a little disturbing.,10,220,20","Don't like this technique. Too serial killer.,-50,100,20","Looks upsetting. Like it's actually graphic violence but you can't tell.,-24,180,20","Did not like at all. I think something sinister going on in the background and the bear a diversion,-50,100,20","Fun but a little cheesy,15,220,20","Amy","visceral and a little disturbing.,10,220,20","Chloe","Fun but a little cheesy,15,220,20","Kayla","Looks upsetting. Like it's actually graphic violence but you can't tell.,-24,180,20","0"
"6582","","survey-text","137","762480","0.0-137.0-0.0","A3UC8KZ5O8FVX9","","","","{""Q0"":""Looks like a trash bag""}","","","","","","","","","","","","","","","","","","","","","","",""
"3553.2999999970198","","image-slider-response","138","766036","0.0-138.0","A3UC8KZ5O8FVX9","","","","","-22","","","","","","","","","","","","","","","","","","","","","",""
"null","","image-button-response","139","771048","0.0-139.0","A3UC8KZ5O8FVX9","img_art/5.jpg","null","","","","","","","","","","","","","","","","","","","","","","","","",""
"1184","","image-button-response","140","772235","0.0-140.0","A3UC8KZ5O8FVX9","img_art/5.jpg","4","","","","","","","","","","","","","","","","","","","","","","","","",""
"2099","","image-button-response","141","774338","0.0-141.0-0.0","A3UC8KZ5O8FVX9","img_art/5.jpg","0","","","","","","","","","","","","","","","","","","","","","","","","",""
"7980","","image-button-response","142","782322","0.0-142.0-0.0","A3UC8KZ5O8FVX9","img_art/5.jpg","2","","","","","","","","","","","","","","","","","","","","","","","","",""
"null","","html-keyboard-response","143","783337","0.0-143.0","A3UC8KZ5O8FVX9","<p style=""font-size: 48px;"">+</p>","","","","","null","allTrialResponses","1000","1","14","img_art/5.jpg","-22","Looks like a trash bag","Jessica,Amy,Brianna,Kayla,Sara,Chloe","Don't really know the point of this one.,-11,400,20","Nearly white background gives a lack of context. Questionable skills,-45,220,20","Very bright and has colors you wouldn't think would go together,11,20,20","I like that the pyramid is putting off a beacon of light.,11,180,20","It looks random,-10,160,20","Black stripe looks violent,-31,220,20","Sara","It looks random,-10,160,20","Jessica","Don't really know the point of this one.,-11,400,20","Brianna","Very bright and has colors you wouldn't think would go together,11,20,20","0"
"9598","","survey-text","144","792944","0.0-144.0-0.0","A3UC8KZ5O8FVX9","","","","{""Q0"":""Looks like a crime scene from Dexter""}","","","","","","","","","","","","","","","","","","","","","","",""
"2207.5","","image-slider-response","145","795154","0.0-145.0","A3UC8KZ5O8FVX9","","","","","22","","","","","","","","","","","","","","","","","","","","","",""
"null","","image-button-response","146","800162","0.0-146.0","A3UC8KZ5O8FVX9","img_art/29.jpg","null","","","","","","","","","","","","","","","","","","","","","","","","",""
"3566","","image-button-response","147","803731","0.0-147.0","A3UC8KZ5O8FVX9","img_art/29.jpg","3","","","","","","","","","","","","","","","","","","","","","","","","",""
"1976","","image-button-response","148","805712","0.0-148.0-0.0","A3UC8KZ5O8FVX9","img_art/29.jpg","5","","","","","","","","","","","","","","","","","","","","","","","","",""
"4764","","image-button-response","149","810481","0.0-149.0-0.0","A3UC8KZ5O8FVX9","img_art/29.jpg","2","","","","","","","","","","","","","","","","","","","","","","","","",""
"null","","html-keyboard-response","150","811991","0.0-150.0","A3UC8KZ5O8FVX9","<p style=""font-size: 48px;"">+</p>","","","","","null","allTrialResponses","1500","1","15","img_art/29.jpg","22","Looks like a crime scene from Dexter","Jessica,Cynthia,Brianna,Michaela,Sara,Sabrina","It looks cool but I don't really get what's going on, it looks too busy,0,400,20","makes me feel busy and unorganized,4,320,20","It has a red X on there, and x's mean bad in my perspective,-29,20,20","Like a crime scene. It's neat and different,30,260,20","I don't like the black,-50,160,20","I love the representation of a mess,50,120,20","Michaela","Like a crime scene. It's neat and different,30,260,20","Sabrina","I love the representation of a mess,50,120,20","Brianna","It has a red X on there, and x's mean bad in my perspective,-29,20,20","0"
"3413","","survey-text","151","815413","0.0-151.0-0.0","A3UC8KZ5O8FVX9","","","","{""Q0"":""course""}","","","","","","","","","","","","","","","","","","","","","","",""
"8639","","survey-text","152","824054","0.0-152.0-0.0","A3UC8KZ5O8FVX9","","","","{""Q0"":""Love the shapes created by the colors""}","","","","","","","","","","","","","","","","","","","","","","",""
"2253","","image-slider-response","153","826311","0.0-153.0","A3UC8KZ5O8FVX9","","","","","38","","","","","","","","","","","","","","","","","","","","","",""
"null","","image-button-response","154","831320","0.0-154.0","A3UC8KZ5O8FVX9","img_art/22.jpg","null","","","","","","","","","","","","","","","","","","","","","","","","",""
"6182","","image-button-response","155","837506","0.0-155.0","A3UC8KZ5O8FVX9","img_art/22.jpg","2","","","","","","","","","","","","","","","","","","","","","","","","",""
"3642","","image-button-response","156","841153","0.0-156.0-0.0","A3UC8KZ5O8FVX9","img_art/22.jpg","4","","","","","","","","","","","","","","","","","","","","","","","","",""
"378","","image-button-response","157","841537","0.0-157.0-0.0","A3UC8KZ5O8FVX9","img_art/22.jpg","3","","","","","","","","","","","","","","","","","","","","","","","","",""
"null","","html-keyboard-response","158","842054","0.0-158.0","A3UC8KZ5O8FVX9","<p style=""font-size: 48px;"">+</p>","","","","","null","allTrialResponses","500","1","16","img_art/22.jpg","38","Love the shapes created by the colors","Erin,Sydney,Brianna,Michaela,Kelly,Sabrina","Seems dated with geometic forms,-20,120,20","I don't normally like bright colors, but I like them in this. Don't like the random black paint.,30,320,20","Like the black key and the rainbow color theme.,31,20,20","I like the use of primary colors in an interesting way,29,260,20","I really enjoy the blended colors.,20,220,20","Just not feeling it,-19,120,20","Brianna","Like the black key and the rainbow color theme.,31,20,20","Kelly","I really enjoy the blended colors.,20,220,20","Michaela","I like the use of primary colors in an interesting way,29,260,20","0"
"5148","","survey-text","159","847210","0.0-159.0-0.0","A3UC8KZ5O8FVX9","","","","{""Q0"":""Love the texture""}","","","","","","","","","","","","","","","","","","","","","","",""
"2172.7999999970198","","image-slider-response","160","849386","0.0-160.0","A3UC8KZ5O8FVX9","","","","","24","","","","","","","","","","","","","","","","","","","","","",""
"null","","image-button-response","161","854396","0.0-161.0","A3UC8KZ5O8FVX9","img_art/7.jpg","null","","","","","","","","","","","","","","","","","","","","","","","","",""
"1464","","image-button-response","162","855863","0.0-162.0","A3UC8KZ5O8FVX9","img_art/7.jpg","5","","","","","","","","","","","","","","","","","","","","","","","","",""
"2709","","image-button-response","163","858575","0.0-163.0-0.0","A3UC8KZ5O8FVX9","img_art/7.jpg","1","","","","","","","","","","","","","","","","","","","","","","","","",""
"1966","","image-button-response","164","860546","0.0-164.0-0.0","A3UC8KZ5O8FVX9","img_art/7.jpg","3","","","","","","","","","","","","","","","","","","","","","","","","",""
"null","","html-keyboard-response","165","861564","0.0-165.0","A3UC8KZ5O8FVX9","<p style=""font-size: 48px;"">+</p>","","","","","null","allTrialResponses","1000","1","17","img_art/7.jpg","24","Love the texture","Molly,Courtney,Brianna,Michaela,Kelly,Taylor","Don't understand the meaning of this picture.,-30,340,20","That a desert floor,16,280,20","Looks plain and dull, sorry.,-31,20,20","It looks like maybe some seeds?,14,260,20","My firs thought was ""gross""...not sure what this is and I dont think i want to know.,-19,220,20","It makes me think of new archaeology discoveries,15,340,20","Taylor","It makes me think of new archaeology discoveries,15,340,20","Courtney","That a desert floor,16,280,20","Michaela","It looks like maybe some seeds?,14,260,20","0"
"7059","","survey-text","166","868632","0.0-166.0-0.0","A3UC8KZ5O8FVX9","","","","{""Q0"":""Like how this could be a face""}","","","","","","","","","","","","","","","","","","","","","","",""
"3128.300000011921","","image-slider-response","167","871764","0.0-167.0","A3UC8KZ5O8FVX9","","","","","6","","","","","","","","","","","","","","","","","","","","","",""
"null","","image-button-response","168","876784","0.0-168.0","A3UC8KZ5O8FVX9","img_art/2.jpg","null","","","","","","","","","","","","","","","","","","","","","","","","",""
"1394","","image-button-response","169","878181","0.0-169.0","A3UC8KZ5O8FVX9","img_art/2.jpg","1","","","","","","","","","","","","","","","","","","","","","","","","",""
"5762","","image-button-response","170","883946","0.0-170.0-0.0","A3UC8KZ5O8FVX9","img_art/2.jpg","3","","","","","","","","","","","","","","","","","","","","","","","","",""
"10296","","image-button-response","171","894247","0.0-171.0-0.0","A3UC8KZ5O8FVX9","img_art/2.jpg","2","","","","","","","","","","","","","","","","","","","","","","","","",""
"null","","html-keyboard-response","172","895253","0.0-172.0","A3UC8KZ5O8FVX9","<p style=""font-size: 48px;"">+</p>","","","","","null","allTrialResponses","1000","1","18","img_art/2.jpg","6","Like how this could be a face","Caitlin,Courtney,Diana,Michaela,Claire,Taylor","Have now advanced from kindergarten to the first grade.,-5,80,20","That looks look a cartoon character of some kind.,11,280,20","I think I see people sitting in lawn chairs in a circle watching an event. Not really sure so I rated it lower.,-35,380,20","My immediate reaction was it looked like a class but then I saw a smile in the middle,11,260,20","too blocky and don't like color combination,-32,260,20","Doesn't give me a reaction,10,340,20","Courtney","That looks look a cartoon character of some kind.,11,280,20","Michaela","My immediate reaction was it looked like a class but then I saw a smile in the middle,11,260,20","Diana","I think I see people sitting in lawn chairs in a circle watching an event. Not really sure so I rated it lower.,-35,380,20","0"
"12940","","survey-text","173","908201","0.0-173.0-0.0","A3UC8KZ5O8FVX9","","","","{""Q0"":""Love the melting cityscape ""}","","","","","","","","","","","","","","","","","","","","","","",""
"1866.699999988079","","image-slider-response","174","910071","0.0-174.0","A3UC8KZ5O8FVX9","","","","","26","","","","","","","","","","","","","","","","","","","","","",""
"null","","image-button-response","175","915091","0.0-175.0","A3UC8KZ5O8FVX9","img_art/11.jpg","null","","","","","","","","","","","","","","","","","","","","","","","","",""
"1570","","image-button-response","176","916664","0.0-176.0","A3UC8KZ5O8FVX9","img_art/11.jpg","3","","","","","","","","","","","","","","","","","","","","","","","","",""
"1041","","image-button-response","177","917710","0.0-177.0-0.0","A3UC8KZ5O8FVX9","img_art/11.jpg","0","","","","","","","","","","","","","","","","","","","","","","","","",""
"4292","","image-button-response","178","922007","0.0-178.0-0.0","A3UC8KZ5O8FVX9","img_art/11.jpg","1","","","","","","","","","","","","","","","","","","","","","","","","",""
"null","","html-keyboard-response","179","922511","0.0-179.0","A3UC8KZ5O8FVX9","<p style=""font-size: 48px;"">+</p>","","","","","null","allTrialResponses","500","1","19","img_art/11.jpg","26","Love the melting cityscape ","Tiffany,Courtney,Diana,Michaela,Katelyn,Meghan","I feel excited, like I'm in the middle of a bustling city.,26,360,20","Thats a creepy old rollercoasters abandoned,-2,280,20","It makes my head feel dizzy. So I rated it lower.,-25,380,20","Reminds me of a city and how chaotic it can be,22,260,20","I like the dark lines and it interests me,13,100,20","makes me feel dizzy,-37,220,20","Michaela","Reminds me of a city and how chaotic it can be,22,260,20","Tiffany","I feel excited, like I'm in the middle of a bustling city.,26,360,20","Courtney","Thats a creepy old rollercoasters abandoned,-2,280,20","0"
"7871","","survey-text","180","930392","0.0-180.0-0.0","A3UC8KZ5O8FVX9","","","","{""Q0"":""Love how this looks like water effects""}","","","","","","","","","","","","","","","","","","","","","","",""
"2955.2999999970198","","image-slider-response","181","933351","0.0-181.0","A3UC8KZ5O8FVX9","","","","","37","","","","","","","","","","","","","","","","","","","","","",""
"null","","image-button-response","182","938360","0.0-182.0","A3UC8KZ5O8FVX9","img_art/13.jpg","null","","","","","","","","","","","","","","","","","","","","","","","","",""
"1867","","image-button-response","183","940231","0.0-183.0","A3UC8KZ5O8FVX9","img_art/13.jpg","5","","","","","","","","","","","","","","","","","","","","","","","","",""
"874","","image-button-response","184","941109","0.0-184.0-0.0","A3UC8KZ5O8FVX9","img_art/13.jpg","4","","","","","","","","","","","","","","","","","","","","","","","","",""
"3312","","image-button-response","185","944427","0.0-185.0-0.0","A3UC8KZ5O8FVX9","img_art/13.jpg","1","","","","","","","","","","","","","","","","","","","","","","","","",""
"null","","html-keyboard-response","186","945935","0.0-186.0","A3UC8KZ5O8FVX9","<p style=""font-size: 48px;"">+</p>","","","","","null","allTrialResponses","1500","1","20","img_art/13.jpg","37","Love how this looks like water effects","Tiffany,Courtney,Emma,Michaela,Alexa,Hailey","The painting makes me feel awe and like I am very little. Like I am alone at the bottom of the ocean.,41,360,20","Debree on top of a calm pond.,18,280,20","It's pretty ...........,41,60,20","The colors are really pretty together,39,260,20","This looks like a staple bedroom or bathroom piece,41,40,20","warm splash of salt water from ocean,16,200,20","Hailey","warm splash of salt water from ocean,16,200,20","Alexa","This looks like a staple bedroom or bathroom piece,41,40,20","Courtney","Debree on top of a calm pond.,18,280,20","0"
"2883","","survey-text","187","948836","0.0-187.0-0.0","A3UC8KZ5O8FVX9","","","","{""Q0"":""we""}","","","","","","","","","","","","","","","","","","","","","","",""
"9091","","survey-text","188","957931","0.0-188.0-0.0","A3UC8KZ5O8FVX9","","","","{""Q0"":""Intrigued by the colors""}","","","","","","","","","","","","","","","","","","","","","","",""
"2357.2000000029802","","image-slider-response","189","960291","0.0-189.0","A3UC8KZ5O8FVX9","","","","","10","","","","","","","","","","","","","","","","","","","","","",""
"null","","image-button-response","190","965300","0.0-190.0","A3UC8KZ5O8FVX9","img_art/21.jpg","null","","","","","","","","","","","","","","","","","","","","","","","","",""
"1945","","image-button-response","191","967247","0.0-191.0","A3UC8KZ5O8FVX9","img_art/21.jpg","4","","","","","","","","","","","","","","","","","","","","","","","","",""
"566","","image-button-response","192","967817","0.0-192.0-0.0","A3UC8KZ5O8FVX9","img_art/21.jpg","3","","","","","","","","","","","","","","","","","","","","","","","","",""
"1314","","image-button-response","193","969135","0.0-193.0-0.0","A3UC8KZ5O8FVX9","img_art/21.jpg","5","","","","","","","","","","","","","","","","","","","","","","","","",""
"null","","html-keyboard-response","194","969651","0.0-194.0","A3UC8KZ5O8FVX9","<p style=""font-size: 48px;"">+</p>","","","","","null","allTrialResponses","500","1","21","img_art/21.jpg","10","Intrigued by the colors","Lauren,Courtney,Chelsea,Jordan,Alexa,Hailey","I like how the piece has the possibility of depicting some type of story.,30,340,20","Another ship on fire.,-10,280,20","I like the colors. It looks dramatic.,5,180,20","Okay, I love the color schemes, I can't quite figure it out though,14,20,20","I love the colors in this painting,30,40,20","ocean and rocks at the beach,11,200,20","Alexa","I love the colors in this painting,30,40,20","Jordan","Okay, I love the color schemes, I can't quite figure it out though,14,20,20","Hailey","ocean and rocks at the beach,11,200,20","0"
"9373","","survey-text","195","979036","0.0-195.0-0.0","A3UC8KZ5O8FVX9","","","","{""Q0"":""Love the dotting technique""}","","","","","","","","","","","","","","","","","","","","","","",""
"2353.4000000059605","","image-slider-response","196","981392","0.0-196.0","A3UC8KZ5O8FVX9","","","","","7","","","","","","","","","","","","","","","","","","","","","",""
"null","","image-button-response","197","986410","0.0-197.0","A3UC8KZ5O8FVX9","img_art/15.jpg","null","","","","","","","","","","","","","","","","","","","","","","","","",""
"5561","","image-button-response","198","991975","0.0-198.0","A3UC8KZ5O8FVX9","img_art/15.jpg","4","","","","","","","","","","","","","","","","","","","","","","","","",""
"6204","","image-button-response","199","998183","0.0-199.0-0.0","A3UC8KZ5O8FVX9","img_art/15.jpg","2","","","","","","","","","","","","","","","","","","","","","","","","",""
"970","","image-button-response","200","999157","0.0-200.0-0.0","A3UC8KZ5O8FVX9","img_art/15.jpg","0","","","","","","","","","","","","","","","","","","","","","","","","",""
"null","","html-keyboard-response","201","1000167","0.0-201.0","A3UC8KZ5O8FVX9","<p style=""font-size: 48px;"">+</p>","","","","","null","allTrialResponses","1000","1","22","img_art/15.jpg","7","Love the dotting technique","Miranda,Madison,Paige,Jordan,Alexa,Hailey","This gives a skin crawling feeling. Like something that you could see under a mircoscope,10,320,20","I am starting to feel description fatigue. This would be pleasant enough in a doctor's office waiting room.,15,60,20","I feel nothing when looking at this,1,60,20","I'm just not into it,-5,20,20","Although it looks a bit bland in terms of color, I really like the print/pattern,25,40,20","ugly picture and don't like it,-22,200,20","Alexa","Although it looks a bit bland in terms of color, I really like the print/pattern,25,40,20","Paige","I feel nothing when looking at this,1,60,20","Miranda","This gives a skin crawling feeling. Like something that you could see under a mircoscope,10,320,20","0"
"18526","","survey-text","202","1018703","0.0-202.0-0.0","A3UC8KZ5O8FVX9","","","","{""Q0"":""Love the people who are disappearing into this crazy world""}","","","","","","","","","","","","","","","","","","","","","","",""
"1608.9000000059605","","image-slider-response","203","1020316","0.0-203.0","A3UC8KZ5O8FVX9","","","","","42","","","","","","","","","","","","","","","","","","","","","",""
"null","","image-button-response","204","1025334","0.0-204.0","A3UC8KZ5O8FVX9","img_art/23.jpg","null","","","","","","","","","","","","","","","","","","","","","","","","",""
"5589","","image-button-response","205","1030925","0.0-205.0","A3UC8KZ5O8FVX9","img_art/23.jpg","1","","","","","","","","","","","","","","","","","","","","","","","","",""
"694","","image-button-response","206","1031622","0.0-206.0-0.0","A3UC8KZ5O8FVX9","img_art/23.jpg","0","","","","","","","","","","","","","","","","","","","","","","","","",""
"1413","","image-button-response","207","1033039","0.0-207.0-0.0","A3UC8KZ5O8FVX9","img_art/23.jpg","4","","","","","","","","","","","","","","","","","","","","","","","","",""
"null","","html-keyboard-response","208","1034048","0.0-208.0","A3UC8KZ5O8FVX9","<p style=""font-size: 48px;"">+</p>","","","","","null","allTrialResponses","1000","1","23","img_art/23.jpg","42","Love the people who are disappearing into this crazy world","Miranda,Makayla,Paige,Cheyenne,Alexa,Jamie","It's very colorful and different, the white looks like people dancing,26,320,20","Reminds me of disco/70's, not my favorite design,-12,80,20","Does not incite any emotional response,1,60,20","Solid colors but the white throws it off for me.,4,200,20","Very colorful and wild. It's cool and I like it,32,40,20","Reminds me of outer space and the stars,30,320,20","Makayla","Reminds me of disco/70's, not my favorite design,-12,80,20","Miranda","It's very colorful and different, the white looks like people dancing,26,320,20","Alexa","Very colorful and wild. It's cool and I like it,32,40,20","0"
"9159","","survey-text","209","1043217","0.0-209.0-0.0","A3UC8KZ5O8FVX9","","","","{""Q0"":""Looks like it's coming alive""}","","","","","","","","","","","","","","","","","","","","","","",""
"4566.199999988079","","image-slider-response","210","1047787","0.0-210.0","A3UC8KZ5O8FVX9","","","","","1","","","","","","","","","","","","","","","","","","","","","",""
"null","","image-button-response","211","1052806","0.0-211.0","A3UC8KZ5O8FVX9","img_art/4.jpg","null","","","","","","","","","","","","","","","","","","","","","","","","",""
"770","","image-button-response","212","1053580","0.0-212.0","A3UC8KZ5O8FVX9","img_art/4.jpg","4","","","","","","","","","","","","","","","","","","","","","","","","",""
"6136","","image-button-response","213","1059719","0.0-213.0-0.0","A3UC8KZ5O8FVX9","img_art/4.jpg","2","","","","","","","","","","","","","","","","","","","","","","","","",""
"3990","","image-button-response","214","1063715","0.0-214.0-0.0","A3UC8KZ5O8FVX9","img_art/4.jpg","1","","","","","","","","","","","","","","","","","","","","","","","","",""
"null","","html-keyboard-response","215","1064221","0.0-215.0","A3UC8KZ5O8FVX9","<p style=""font-size: 48px;"">+</p>","","","","","null","allTrialResponses","500","1","24","img_art/4.jpg","1","Looks like it's coming alive","Miranda,Makayla,Mary,Kelsey,Alexa,Kristen","I just don't understand this one at all, I do not like it,-43,320,20","Looks like poop on walks,-27,80,20","This looks like a child got into his diaper.,-46,180,20","this is terrible,-49,240,20","A bit too plain for my tastes,-10,40,20","stresses me out, uncomfortable,-18,280,20","Alexa","A bit too plain for my tastes,-10,40,20","Mary","This looks like a child got into his diaper.,-46,180,20","Makayla","Looks like poop on walks,-27,80,20","0"
"13086","","survey-text","216","1077317","0.0-216.0-0.0","A3UC8KZ5O8FVX9","","","","{""Q0"":""Love the tree showing life above and below""}","","","","","","","","","","","","","","","","","","","","","","",""
"1935.5999999940395","","image-slider-response","217","1079256","0.0-217.0","A3UC8KZ5O8FVX9","","","","","21","","","","","","","","","","","","","","","","","","","","","",""
"null","","image-button-response","218","1084276","0.0-218.0","A3UC8KZ5O8FVX9","img_art/14.jpg","null","","","","","","","","","","","","","","","","","","","","","","","","",""
"1970","","image-button-response","219","1086249","0.0-219.0","A3UC8KZ5O8FVX9","img_art/14.jpg","5","","","","","","","","","","","","","","","","","","","","","","","","",""
"2423","","image-button-response","220","1088675","0.0-220.0-0.0","A3UC8KZ5O8FVX9","img_art/14.jpg","1","","","","","","","","","","","","","","","","","","","","","","","","",""
"1899","","image-button-response","221","1090579","0.0-221.0-0.0","A3UC8KZ5O8FVX9","img_art/14.jpg","4","","","","","","","","","","","","","","","","","","","","","","","","",""
"null","","html-keyboard-response","222","1092095","0.0-222.0","A3UC8KZ5O8FVX9","<p style=""font-size: 48px;"">+</p>","","","","","null","allTrialResponses","1500","1","25","img_art/14.jpg","21","Love the tree showing life above and below","Katherine,Makayla,Mary,Rachel,Alexa,Mariah","I don't like the color red,30,120,20","I like that it's like a snippet of a field in the desert,21,80,20","I like the layers of color in this piece. The circles and lines are interesting.,29,180,20","Did not evoke much feeling except confusion. I am not sure what to make of this one.,-20,80,20","Very abstract and colorful,40,40,20","The lighting feels like spring.,20,140,20","Mariah","The lighting feels like spring.,20,140,20","Makayla","I like that it's like a snippet of a field in the desert,21,80,20","Alexa","Very abstract and colorful,40,40,20","0"
"2968","","survey-text","223","1095083","0.0-223.0-0.0","A3UC8KZ5O8FVX9","","","","{""Q0"":""table""}","","","","","","","","","","","","","","","","","","","","","","",""
"15009","","survey-text","224","1110094","0.0-224.0-0.0","A3UC8KZ5O8FVX9","","","","{""Q0"":""Love how it sort of looks like a bird in the desert""}","","","","","","","","","","","","","","","","","","","","","","",""
"3346.7999999970198","","image-slider-response","225","1113444","0.0-225.0","A3UC8KZ5O8FVX9","","","","","6","","","","","","","","","","","","","","","","","","","","","",""
"null","","image-button-response","226","1118460","0.0-226.0","A3UC8KZ5O8FVX9","img_art/6.jpg","null","","","","","","","","","","","","","","","","","","","","","","","","",""
"842","","image-button-response","227","1119306","0.0-227.0","A3UC8KZ5O8FVX9","img_art/6.jpg","0","","","","","","","","","","","","","","","","","","","","","","","","",""
"3911","","image-button-response","228","1123221","0.0-228.0-0.0","A3UC8KZ5O8FVX9","img_art/6.jpg","3","","","","","","","","","","","","","","","","","","","","","","","","",""
"1229","","image-button-response","229","1124455","0.0-229.0-0.0","A3UC8KZ5O8FVX9","img_art/6.jpg","5","","","","","","","","","","","","","","","","","","","","","","","","",""
"null","","html-keyboard-response","230","1125471","0.0-230.0","A3UC8KZ5O8FVX9","<p style=""font-size: 48px;"">+</p>","","","","","null","allTrialResponses","1000","1","26","img_art/6.jpg","6","Love how it sort of looks like a bird in the desert","Margaret,Makayla,Michelle,Laura,Alexa,Mariah","reminds me of a happy edgar allen poe poem,8,100,20","Don't like the black space,2,80,20","Definitely belongs at a doctor's office, I think it's a crow or a tree?,-3,280,20","graceful and light,35,320,20","Too basic for me,-20,40,20","Clean and simple, a pleasant resting place for the eyes.,21,140,20","Margaret","reminds me of a happy edgar allen poe poem,8,100,20","Laura","graceful and light,35,320,20","Mariah","Clean and simple, a pleasant resting place for the eyes.,21,140,20","0"
"5865","","survey-text","231","1131347","0.0-231.0-0.0","A3UC8KZ5O8FVX9","","","","{""Q0"":""Love the wintering look""}","","","","","","","","","","","","","","","","","","","","","","",""
"3438.3999999910593","","image-slider-response","232","1134789","0.0-232.0","A3UC8KZ5O8FVX9","","","","","37","","","","","","","","","","","","","","","","","","","","","",""
"null","","image-button-response","233","1139809","0.0-233.0","A3UC8KZ5O8FVX9","img_art/17.jpg","null","","","","","","","","","","","","","","","","","","","","","","","","",""
"2952","","image-button-response","234","1142765","0.0-234.0","A3UC8KZ5O8FVX9","img_art/17.jpg","5","","","","","","","","","","","","","","","","","","","","","","","","",""
"2243","","image-button-response","235","1145012","0.0-235.0-0.0","A3UC8KZ5O8FVX9","img_art/17.jpg","0","","","","","","","","","","","","","","","","","","","","","","","","",""
"1388","","image-button-response","236","1146405","0.0-236.0-0.0","A3UC8KZ5O8FVX9","img_art/17.jpg","1","","","","","","","","","","","","","","","","","","","","","","","","",""
"null","","html-keyboard-response","237","1146911","0.0-237.0","A3UC8KZ5O8FVX9","<p style=""font-size: 48px;"">+</p>","","","","","null","allTrialResponses","500","1","27","img_art/17.jpg","37","Love the wintering look","Margaret,Jenna,Isabella,Laura,Kimberly,Mariah","gentle watercolor vibes,12,100,20","stunning. makes me feel happy, hopeful, serene, and a little wistful.,50,360,20","Pleasant fall to winter day,22,280,20","home - reminds me of fond memories of the Barnes Museum courtyard (looks just like it),30,320,20","I like the trees, but the doors less so,19,260,20","It feels like nature overtaking civilization.,21,140,20","Mariah","It feels like nature overtaking civilization.,21,140,20","Margaret","gentle watercolor vibes,12,100,20","Jenna","stunning. makes me feel happy, hopeful, serene, and a little wistful.,50,360,20","0"
"7660","","survey-text","238","1154584","0.0-238.0-0.0","A3UC8KZ5O8FVX9","","","","{""Q0"":""Looks super chaotic""}","","","","","","","","","","","","","","","","","","","","","","",""
"1610.3999999910593","","image-slider-response","239","1156197","0.0-239.0","A3UC8KZ5O8FVX9","","","","","-6","","","","","","","","","","","","","","","","","","","","","",""
"null","","image-button-response","240","1161204","0.0-240.0","A3UC8KZ5O8FVX9","img_art/19.jpg","null","","","","","","","","","","","","","","","","","","","","","","","","",""
"2357","","image-button-response","241","1163565","0.0-241.0","A3UC8KZ5O8FVX9","img_art/19.jpg","3","","","","","","","","","","","","","","","","","","","","","","","","",""
"6211","","image-button-response","242","1169780","0.0-242.0-0.0","A3UC8KZ5O8FVX9","img_art/19.jpg","1","","","","","","","","","","","","","","","","","","","","","","","","",""
"1393","","image-button-response","243","1171178","0.0-243.0-0.0","A3UC8KZ5O8FVX9","img_art/19.jpg","2","","","","","","","","","","","","","","","","","","","","","","","","",""
"null","","html-keyboard-response","244","1171690","0.0-244.0","A3UC8KZ5O8FVX9","<p style=""font-size: 48px;"">+</p>","","","","","null","allTrialResponses","500","1","28","img_art/19.jpg","-6","Looks super chaotic","Margaret,Jenna,Megan,Rebecca,Sophia,Mariah","i think it is ugly and hate the colors,-35,100,20","love the muted colors and added sketchy lines. calming without being boring.,50,360,20","Simple, scratchy lack of negative space.,-10,200,20","interesting take on depth (reminds me of those 1000 piece puzzles),2,100,20","This looks like a child's piece. I appreciate the artistic value, but not for me.,-20,280,20","I like the watercolor and colors, do not like the deconstructed city scene feel.,0,140,20","Rebecca","interesting take on depth (reminds me of those 1000 piece puzzles),2,100,20","Jenna","love the muted colors and added sketchy lines. calming without being boring.,50,360,20","Megan","Simple, scratchy lack of negative space.,-10,200,20","0"
"9338","","survey-text","245","1181040","0.0-245.0-0.0","A3UC8KZ5O8FVX9","","","","{""Q0"":""Not a fan of the smudging""}","","","","","","","","","","","","","","","","","","","","","","",""
"1780.2999999970198","","image-slider-response","246","1182823","0.0-246.0","A3UC8KZ5O8FVX9","","","","","-26","","","","","","","","","","","","","","","","","","","","","",""
"null","","image-button-response","247","1187842","0.0-247.0","A3UC8KZ5O8FVX9","img_art/27.jpg","null","","","","","","","","","","","","","","","","","","","","","","","","",""
"1639","","image-button-response","248","1189484","0.0-248.0","A3UC8KZ5O8FVX9","img_art/27.jpg","5","","","","","","","","","","","","","","","","","","","","","","","","",""
"1240","","image-button-response","249","1190728","0.0-249.0-0.0","A3UC8KZ5O8FVX9","img_art/27.jpg","4","","","","","","","","","","","","","","","","","","","","","","","","",""
"1546","","image-button-response","250","1192278","0.0-250.0-0.0","A3UC8KZ5O8FVX9","img_art/27.jpg","3","","","","","","","","","","","","","","","","","","","","","","","","",""
"null","","html-keyboard-response","251","1192785","0.0-251.0","A3UC8KZ5O8FVX9","<p style=""font-size: 48px;"">+</p>","","","","","null","allTrialResponses","500","1","29","img_art/27.jpg","-26","Not a fan of the smudging","Maria,Jenna,Megan,Rebecca,Erika,Marissa","I generally enjoy the style, but I'm finding the green lines grating,-9,120,20","the green & white scribbles feel childlike. perhaps the quality of the photo, but the colors are gloomy.,-13,360,20","Nice back ground with childish scribble on top,-30,200,20","don't understand, the green induces confusion,1,100,20","Nice color, but too vague,-12,100,20","I am bothered by the green doodles,-20,160,20","Marissa","I am bothered by the green doodles,-20,160,20","Erika","Nice color, but too vague,-12,100,20","Rebecca","don't understand, the green induces confusion,1,100,20","0"
"21553","","survey-text","252","1214352","0.0-252.0-0.0","A3UC8KZ5O8FVX9","","","","{""Q0"":""Love the background created with the forefront being a statue""}","","","","","","","","","","","","","","","","","","","","","","",""
"3355.7000000029802","","image-slider-response","253","1217711","0.0-253.0","A3UC8KZ5O8FVX9","","","","","37","","","","","","","","","","","","","","","","","","","","","",""
"null","","image-button-response","254","1222729","0.0-254.0","A3UC8KZ5O8FVX9","img_art/25.jpg","null","","","","","","","","","","","","","","","","","","","","","","","","",""
"1346","","image-button-response","255","1224078","0.0-255.0","A3UC8KZ5O8FVX9","img_art/25.jpg","4","","","","","","","","","","","","","","","","","","","","","","","","",""
"1311","","image-button-response","256","1225394","0.0-256.0-0.0","A3UC8KZ5O8FVX9","img_art/25.jpg","5","","","","","","","","","","","","","","","","","","","","","","","","",""
"1165","","image-button-response","257","1226564","0.0-257.0-0.0","A3UC8KZ5O8FVX9","img_art/25.jpg","2","","","","","","","","","","","","","","","","","","","","","","","","",""
"null","","html-keyboard-response","258","1228072","0.0-258.0","A3UC8KZ5O8FVX9","<p style=""font-size: 48px;"">+</p>","","","","","null","allTrialResponses","1500","1","30","img_art/25.jpg","37","Love the background created with the forefront being a statue","Jacqueline,Haley,Mackenzie,Rebecca,Erika,Marissa","Not particularly interesting for me. The green color is strange mixed with this.,-11,300,20","I like the design but the brightness of the color feels almost blinding to me.,-3,220,20","Very nice color contrast and design.,40,20,20","I'm sorry but I don't uderstand this,-20,100,20","Very cryptic and ancient,36,100,20","I really like the green and the fact that it is tattered on the edges,23,160,20","Erika","Very cryptic and ancient,36,100,20","Marissa","I really like the green and the fact that it is tattered on the edges,23,160,20","Mackenzie","Very nice color contrast and design.,40,20,20","0"
"3154","","image-button-response_instructions","259","1231240","0.0-259.0","A3UC8KZ5O8FVX9","","0","instructions","","","","","","","","","","","","","","","","","","","","","","","",""
"1341","","image-button-response","260","1232593","0.0-260.0","A3UC8KZ5O8FVX9","","0","","","","","","","","","","","","","","","","","","","","","","","","",""
