"rt","url","trial_type","trial_index","time_elapsed","internal_node_id","participant_id","stimulus","button_pressed","Name","responses","response","key_press","variableName","fixationTime","condition","trial","photo","subjectRating","subjectResponse","agentsNames","agent_1_Response","agent_2_Response","agent_3_Response","agent_4_Response","agent_5_Response","agent_6_Response","kept_1_name","kept_1_response","kept_2_name","kept_2_response","kept_3_name","kept_3_response","errorCounter"
"48873","external_page_harvard.html","external-html","0","49389","0.0-0.0","A3UKAY2FGKRMVQ","","","","","","","","","","","","","","","","","","","","","","","","","","",""
"7610","","image-button-response","1","57003","0.0-1.0","A3UKAY2FGKRMVQ","","1","","","","","","","","","","","","","","","","","","","","","","","","",""
"55693","","image-button-response","2","112710","0.0-2.0-0.0","A3UKAY2FGKRMVQ","","1","phone","","","","","","","","","","","","","","","","","","","","","","","",""
"5969","","survey-text","3","118684","0.0-3.0-0.0","A3UKAY2FGKRMVQ","","","","{""Q0"":""A3UKAY2FGKRMVQ""}","","","","","","","","","","","","","","","","","","","","","","",""
"59131","","image-button-response_instructions","4","177819","0.0-4.0","A3UKAY2FGKRMVQ","","0","instructions","","","","","","","","","","","","","","","","","","","","","","","",""
"110703","","image-button-response_instructions","5","288525","0.0-5.0","A3UKAY2FGKRMVQ","img_art/ins/popularity/ins1.png","0","instructions","","","","","","","","","","","","","","","","","","","","","","","",""
"4567","","image-button-response_instructions","6","293096","0.0-6.0","A3UKAY2FGKRMVQ","img_art/ins/popularity/ins2.png","0","instructions","","","","","","","","","","","","","","","","","","","","","","","",""
"7424","","image-button-response_instructions","7","300524","0.0-7.0","A3UKAY2FGKRMVQ","img_art/ins/popularity/ins2Extreme.png","0","instructions","","","","","","","","","","","","","","","","","","","","","","","",""
"3359","","image-button-response_instructions","8","303886","0.0-8.0","A3UKAY2FGKRMVQ","img_art/ins/popularity/ins3KEEPpop.PNG","0","instructions","","","","","","","","","","","","","","","","","","","","","","","",""
"6521","","image-button-response_instructions","9","310408","0.0-9.0","A3UKAY2FGKRMVQ","img_art/ins/popularity/ins3ANamepop.PNG","0","instructions","","","","","","","","","","","","","","","","","","","","","","","",""
"1632","","image-button-response_instructions","10","312052","0.0-10.0","A3UKAY2FGKRMVQ","img_art/ins/popularity/ins3ARatingpop.png","0","instructions","","","","","","","","","","","","","","","","","","","","","","","",""
"4144","","image-button-response_instructions","11","316200","0.0-11.0","A3UKAY2FGKRMVQ","img_art/ins/popularity/ins3ATextpop.png","0","instructions","","","","","","","","","","","","","","","","","","","","","","","",""
"3227","","image-button-response_instructions","12","319431","0.0-12.0","A3UKAY2FGKRMVQ","img_art/ins/popularity/ins3ALikespop.png","0","instructions","","","","","","","","","","","","","","","","","","","","","","","",""
"4092","","image-button-response_instructions","13","323525","0.0-13.0","A3UKAY2FGKRMVQ","img_art/ins/popularity/ins3KEEPpop.PNG","0","instructions","","","","","","","","","","","","","","","","","","","","","","","",""
"3140","","image-button-response_instructions","14","326668","0.0-14.0","A3UKAY2FGKRMVQ","img_art/ins/popularity/ins3_5RED.png","0","instructions","","","","","","","","","","","","","","","","","","","","","","","",""
"2857","","image-button-response_instructions","15","329527","0.0-15.0","A3UKAY2FGKRMVQ","img_art/ins/popularity/ins3KEEPpop.PNG","0","instructions","","","","","","","","","","","","","","","","","","","","","","","",""
"2788","","image-button-response_instructions","16","332319","0.0-16.0","A3UKAY2FGKRMVQ","img_art/ins/popularity/ins4KEEPpop.PNG","0","instructions","","","","","","","","","","","","","","","","","","","","","","","",""
"3051","","image-button-response_instructions","17","335377","0.0-17.0","A3UKAY2FGKRMVQ","img_art/ins/popularity/ins5KEEPpop.PNG","0","instructions","","","","","","","","","","","","","","","","","","","","","","","",""
"5905","","image-button-response_instructions","18","341287","0.0-18.0","A3UKAY2FGKRMVQ","","0","instructions","","","","","","","","","","","","","","","","","","","","","","","",""
"7631","","survey-text","19","348961","0.0-19.0-0.0","A3UKAY2FGKRMVQ","","","","{""Q0"":""but""}","","","","","","","","","","","","","","","","","","","","","","",""
"14815","","survey-text","20","363781","0.0-20.0-0.0","A3UKAY2FGKRMVQ","","","","{""Q0"":""Looks ugly""}","","","","","","","","","","","","","","","","","","","","","","",""
"4366","","image-slider-response","21","368152","0.0-21.0","A3UKAY2FGKRMVQ","","","","","-39","","","","","","","","","","","","","","","","","","","","","",""
"null","","image-button-response","22","373160","0.0-22.0","A3UKAY2FGKRMVQ","img_art/ins/1.jpg","null","","","","","","","","","","","","","","","","","","","","","","","","",""
"3429","","image-button-response","23","376593","0.0-23.0","A3UKAY2FGKRMVQ","img_art/ins/1.jpg","1","","","","","","","","","","","","","","","","","","","","","","","","",""
"3089","","image-button-response","24","379687","0.0-24.0-0.0","A3UKAY2FGKRMVQ","img_art/ins/1.jpg","4","","","","","","","","","","","","","","","","","","","","","","","","",""
"2573","","image-button-response","25","382274","0.0-25.0-0.0","A3UKAY2FGKRMVQ","img_art/ins/1.jpg","5","","","","","","","","","","","","","","","","","","","","","","","","",""
"null","","html-keyboard-response","26","383280","0.0-26.0","A3UKAY2FGKRMVQ","<p style=""font-size: 48px;"">+</p>","","","","","null","allTrialResponses","1000","1","-2","img_art/ins/1.jpg","-39","Looks ugly","Allison,Ashley,Beth,Dora,Erika,Jen","looks like a lot of things going on in the mist,20,20,20","I just don't get why these type of art would be popular,-32,40,20","This color reminds me of poo,-46,60,20","looks like what my niece in 3rd grade did this afternoon,-50,80,20","I like the sophisticated brushwork,40,100,20","It reminds me of a candy land dream I had,36,120,20","Ashley","I just don't get why these type of art would be popular,-32,40,20","Erika","I like the sophisticated brushwork,40,100,20","Jen","It reminds me of a candy land dream I had,36,120,20","0"
"10522","","survey-text","27","393816","0.0-27.0-0.0","A3UKAY2FGKRMVQ","","","","{""Q0"":""Quite ugly""}","","","","","","","","","","","","","","","","","","","","","","",""
"3217","","image-slider-response","28","397036","0.0-28.0","A3UKAY2FGKRMVQ","","","","","-28","","","","","","","","","","","","","","","","","","","","","",""
"4487","","image-button-response","29","402152","0.0-29.0","A3UKAY2FGKRMVQ","img_art/ins/2.jpg","0","","","","","","","","","","","","","","","","","","","","","","","","",""
"443","","image-button-response","30","402603","0.0-30.0","A3UKAY2FGKRMVQ","img_art/ins/2.jpg","5","","","","","","","","","","","","","","","","","","","","","","","","",""
"764","","image-button-response","31","403375","0.0-31.0-0.0","A3UKAY2FGKRMVQ","img_art/ins/2.jpg","3","","","","","","","","","","","","","","","","","","","","","","","","",""
"1700","","image-button-response","32","405078","0.0-32.0-0.0","A3UKAY2FGKRMVQ","img_art/ins/2.jpg","0","","","","","","","","","","","","","","","","","","","","","","","","",""
"null","","html-keyboard-response","33","406080","0.0-33.0","A3UKAY2FGKRMVQ","<p style=""font-size: 48px;"">+</p>","","","","","null","allTrialResponses","1000","1","-1","img_art/ins/2.jpg","-28","Quite ugly","Kara,Ashley,Katie,Jenna,Erika,Jen","I like the blocks of color arrangements,30,160,20","Idk, it is just annoying,-32,40,20","too much color!,-28,180,20","One of my pet peevs,-48,140,20","I would never be able to compose a sophisticated pallete like this,48,100,20","It reminds me of a fireplace,36,120,20","Jen","It reminds me of a fireplace,36,120,20","Jenna","One of my pet peevs,-48,140,20","Kara","I like the blocks of color arrangements,30,160,20","0"
"8078","","survey-text","34","414169","0.0-34.0-0.0","A3UKAY2FGKRMVQ","","","","{""Q0"":""looks good""}","","","","","","","","","","","","","","","","","","","","","","",""
"17173","","image-slider-response","35","431358","0.0-35.0","A3UKAY2FGKRMVQ","","","","","19","","","","","","","","","","","","","","","","","","","","","",""
"null","","image-button-response","36","436452","0.0-36.0","A3UKAY2FGKRMVQ","img_art/ins/3.jpg","null","","","","","","","","","","","","","","","","","","","","","","","","",""
"7116","","image-button-response","37","443571","0.0-37.0","A3UKAY2FGKRMVQ","img_art/ins/3.jpg","1","","","","","","","","","","","","","","","","","","","","","","","","",""
"1112","","image-button-response","38","444691","0.0-38.0-0.0","A3UKAY2FGKRMVQ","img_art/ins/3.jpg","3","","","","","","","","","","","","","","","","","","","","","","","","",""
"571","","image-button-response","39","445269","0.0-39.0-0.0","A3UKAY2FGKRMVQ","img_art/ins/3.jpg","5","","","","","","","","","","","","","","","","","","","","","","","","",""
"null","","html-keyboard-response","40","446272","0.0-40.0","A3UKAY2FGKRMVQ","<p style=""font-size: 48px;"">+</p>","","","","","null","allTrialResponses","1000","1","0","img_art/ins/3.jpg","19","looks good","Kara,Leslie,Rose,Jenna,Mary,Jen","calming blue is very nice,36,160,20","It's an alright work,15,200,20","My daily routine, it's depressing,-20,240,20","looks like a murder room,-35,140,20","I like the overlapping of brushes,41,220,20","I can feel a rainy day from this painting,18,120,20","Leslie","It's an alright work,15,200,20","Jenna","looks like a murder room,-35,140,20","Jen","I can feel a rainy day from this painting,18,120,20","0"
"40237","","image-button-response_instructions","41","486515","0.0-41.0","A3UKAY2FGKRMVQ","","0","instructions","","","","","","","","","","","","","","","","","","","","","","","",""
"15232","","survey-likert","42","501754","0.0-42.0-0.0","A3UKAY2FGKRMVQ","","","","{""Q0"":"""",""Q1"":0,""Q2"":0}","","","","","","","","","","","","","","","","","","","","","","",""
"4350","","survey-likert","43","518123","0.0-42.1-0.1","A3UKAY2FGKRMVQ","","","","{""Q0"":"""",""Q1"":1,""Q2"":1}","","","","","","","","","","","","","","","","","","","","","","",""
"4727","","survey-likert","44","531677","0.0-42.2-0.2","A3UKAY2FGKRMVQ","","","","{""Q0"":"""",""Q1"":0,""Q2"":1}","","","","","","","","","","","","","","","","","","","","","","",""
"6202","","survey-text","45","537905","0.0-43.0-0.0","A3UKAY2FGKRMVQ","","","","{""Q0"":""rock""}","","","","","","","","","","","","","","","","","","","","","","",""
"21515","","survey-text","46","559422","0.0-44.0-0.0","A3UKAY2FGKRMVQ","","","","{""Q0"":""looks bad""}","","","","","","","","","","","","","","","","","","","","","","",""
"2128","","image-slider-response","47","561554","0.0-45.0","A3UKAY2FGKRMVQ","","","","","21","","","","","","","","","","","","","","","","","","","","","",""
"4917","","image-button-response","48","566605","0.0-46.0","A3UKAY2FGKRMVQ","img_art/22.jpg","4","","","","","","","","","","","","","","","","","","","","","","","","",""
"251","","image-button-response","49","566874","0.0-47.0","A3UKAY2FGKRMVQ","img_art/22.jpg","3","","","","","","","","","","","","","","","","","","","","","","","","",""
"528","","image-button-response","50","567404","0.0-48.0-0.0","A3UKAY2FGKRMVQ","img_art/22.jpg","3","","","","","","","","","","","","","","","","","","","","","","","","",""
"892","","image-button-response","51","572329","0.0-48.1-0.1","A3UKAY2FGKRMVQ","img_art/22.jpg","1","","","","","","","","","","","","","","","","","","","","","","","","",""
"1029","","image-button-response","52","573364","0.0-49.0-0.0","A3UKAY2FGKRMVQ","img_art/22.jpg","2","","","","","","","","","","","","","","","","","","","","","","","","",""
"null","","html-keyboard-response","53","574370","0.0-50.0","A3UKAY2FGKRMVQ","<p style=""font-size: 48px;"">+</p>","","","","","null","allTrialResponses","1000","1","1","img_art/22.jpg","21","looks bad","Brianna,Andrea,Erica,Kylie,Bailey,Angelica","Like the black key and the rainbow color theme.,31,20,20","I don't feel much of anything.,0,240,20","Picture is very relaxing,32,80,20","Climate change in a big city,35,300,20","Looks like a giant blob,-45,360,20","It's bland and ugly.,-21,280,20","Kylie","Climate change in a big city,35,300,20","Andrea","I don't feel much of anything.,0,240,20","Erica","Picture is very relaxing,32,80,20","4"
"9299","","survey-text","54","583683","0.0-51.0-0.0","A3UKAY2FGKRMVQ","","","","{""Q0"":""bad picture""}","","","","","","","","","","","","","","","","","","","","","","",""
"2539","","image-slider-response","55","586226","0.0-52.0","A3UKAY2FGKRMVQ","","","","","-17","","","","","","","","","","","","","","","","","","","","","",""
"3198","","image-button-response","56","591229","0.0-53.0","A3UKAY2FGKRMVQ","img_art/9.jpg","2","","","","","","","","","","","","","","","","","","","","","","","","",""
"949","","image-button-response","57","592179","0.0-54.0","A3UKAY2FGKRMVQ","img_art/9.jpg","1","","","","","","","","","","","","","","","","","","","","","","","","",""
"1406","","image-button-response","58","593589","0.0-55.0-0.0","A3UKAY2FGKRMVQ","img_art/9.jpg","5","","","","","","","","","","","","","","","","","","","","","","","","",""
"1967","","image-button-response","59","595565","0.0-56.0-0.0","A3UKAY2FGKRMVQ","img_art/9.jpg","0","","","","","","","","","","","","","","","","","","","","","","","","",""
"null","","html-keyboard-response","60","596717","0.0-57.0","A3UKAY2FGKRMVQ","<p style=""font-size: 48px;"">+</p>","","","","","null","allTrialResponses","1000","1","2","img_art/9.jpg","-17","bad picture","Leslie,Andrea,Erica,Kylie,Dominique,Amber","The colors are pretty, and remind me of a circus.,5,380,20","Sleeping woman in a cave. Makes me feel safe.,20,240,20","Looks very relaxing; someone laying in a meadow,13,80,20","Peaceful dreaming,40,300,20","This speaks to me like a personalities and sides and not all are nice,19,400,20","looks like sleeping beauty in a garden,10,200,20","Andrea","Sleeping woman in a cave. Makes me feel safe.,20,240,20","Amber","looks like sleeping beauty in a garden,10,200,20","Leslie","The colors are pretty, and remind me of a circus.,5,380,20","4"
"7848","","survey-text","61","604578","0.0-58.0-0.0","A3UKAY2FGKRMVQ","","","","{""Q0"":""quite bad""}","","","","","","","","","","","","","","","","","","","","","","",""
"4012","","image-slider-response","62","608593","0.0-59.0","A3UKAY2FGKRMVQ","","","","","23","","","","","","","","","","","","","","","","","","","","","",""
"3340","","image-button-response","63","613597","0.0-60.0","A3UKAY2FGKRMVQ","img_art/28.jpg","2","","","","","","","","","","","","","","","","","","","","","","","","",""
"1301","","image-button-response","64","614901","0.0-61.0","A3UKAY2FGKRMVQ","img_art/28.jpg","0","","","","","","","","","","","","","","","","","","","","","","","","",""
"1109","","image-button-response","65","616012","0.0-62.0-0.0","A3UKAY2FGKRMVQ","img_art/28.jpg","5","","","","","","","","","","","","","","","","","","","","","","","","",""
"1294","","image-button-response","66","617311","0.0-63.0-0.0","A3UKAY2FGKRMVQ","img_art/28.jpg","3","","","","","","","","","","","","","","","","","","","","","","","","",""
"null","","html-keyboard-response","67","618314","0.0-64.0","A3UKAY2FGKRMVQ","<p style=""font-size: 48px;"">+</p>","","","","","null","allTrialResponses","1000","1","3","img_art/28.jpg","23","quite bad","Leslie,Andrea,Tiffany,Kelsey,Christina,Amber","The darker colors make this unnerving.,40,380,20","It reminds me of the cantina in Star Wars.,37,240,20","It makes me feel happy, and a little anxious.,50,360,20","this one is rather disturbing,-22,240,20","very blah colors and it's not fun,-27,240,20","Colors are too dull.,-30,200,20","Leslie","The darker colors make this unnerving.,40,380,20","Amber","Colors are too dull.,-30,200,20","Kelsey","this one is rather disturbing,-22,240,20","4"
"72674","","survey-text","68","690995","0.0-65.0-0.0","A3UKAY2FGKRMVQ","","","","{""Q0"":""looks bad""}","","","","","","","","","","","","","","","","","","","","","","",""
"4134","","image-slider-response","69","695135","0.0-66.0","A3UKAY2FGKRMVQ","","","","","-12","","","","","","","","","","","","","","","","","","","","","",""
"3948","","image-button-response","70","700137","0.0-67.0","A3UKAY2FGKRMVQ","img_art/29.jpg","1","","","","","","","","","","","","","","","","","","","","","","","","",""
"955","","image-button-response","71","701094","0.0-68.0","A3UKAY2FGKRMVQ","img_art/29.jpg","4","","","","","","","","","","","","","","","","","","","","","","","","",""
"544","","image-button-response","72","701639","0.0-69.0-0.0","A3UKAY2FGKRMVQ","img_art/29.jpg","3","","","","","","","","","","","","","","","","","","","","","","","","",""
"1147","","image-button-response","73","702789","0.0-70.0-0.0","A3UKAY2FGKRMVQ","img_art/29.jpg","2","","","","","","","","","","","","","","","","","","","","","","","","",""
"null","","html-keyboard-response","74","704320","0.0-71.0","A3UKAY2FGKRMVQ","<p style=""font-size: 48px;"">+</p>","","","","","null","allTrialResponses","1500","1","4","img_art/29.jpg","-12","looks bad","Leslie,Jordan,Vanessa,Kelsey,Caitlin,Amber","I can relate to the frustration this evokes.,20,380,20","Yeah, I don't know. It's clearly a situation where art is the reject of something more,-27,20,20","I hate the red x over everything, hate the black hate how hopeless this is.,-50,380,20","dont like this one,-20,240,20","I would give up and give it a red X too.,-5,80,20","Don't like the red X across the painting.,-15,200,20","Caitlin","I would give up and give it a red X too.,-5,80,20","Kelsey","dont like this one,-20,240,20","Vanessa","I hate the red x over everything, hate the black hate how hopeless this is.,-50,380,20","4"
"8951","","survey-text","75","713293","0.0-72.0-0.0","A3UKAY2FGKRMVQ","","","","{""Q0"":""good looking""}","","","","","","","","","","","","","","","","","","","","","","",""
"2361","","image-slider-response","76","715657","0.0-73.0","A3UKAY2FGKRMVQ","","","","","44","","","","","","","","","","","","","","","","","","","","","",""
"2075","","image-button-response","77","720659","0.0-74.0","A3UKAY2FGKRMVQ","img_art/23.jpg","4","","","","","","","","","","","","","","","","","","","","","","","","",""
"674","","image-button-response","78","721338","0.0-75.0","A3UKAY2FGKRMVQ","img_art/23.jpg","3","","","","","","","","","","","","","","","","","","","","","","","","",""
"875","","image-button-response","79","722215","0.0-76.0-0.0","A3UKAY2FGKRMVQ","img_art/23.jpg","1","","","","","","","","","","","","","","","","","","","","","","","","",""
"683","","image-button-response","80","722902","0.0-77.0-0.0","A3UKAY2FGKRMVQ","img_art/23.jpg","2","","","","","","","","","","","","","","","","","","","","","","","","",""
"null","","html-keyboard-response","81","724405","0.0-78.0","A3UKAY2FGKRMVQ","<p style=""font-size: 48px;"">+</p>","","","","","null","allTrialResponses","1500","1","5","img_art/23.jpg","44","good looking","Megan,Victoria,Vanessa,Kelsey,Caitlin,Anna","Too busy with color with warrior lineup,0,200,20","enjoy the colors,23,400,20","This is ugly and weird.,-50,380,20","i think this ones okay,10,240,20","SOME thought was put into this one.,5,80,20","I love the colors and the contrast.,50,300,20","Kelsey","i think this ones okay,10,240,20","Victoria","enjoy the colors,23,400,20","Vanessa","This is ugly and weird.,-50,380,20","4"
"4928","","survey-text","82","729362","0.0-79.0-0.0","A3UKAY2FGKRMVQ","","","","{""Q0"":""sky""}","","","","","","","","","","","","","","","","","","","","","","",""
"6106","","survey-text","83","735469","0.0-80.0-0.0","A3UKAY2FGKRMVQ","","","","{""Q0"":""looks great""}","","","","","","","","","","","","","","","","","","","","","","",""
"3759","","image-slider-response","84","739230","0.0-81.0","A3UKAY2FGKRMVQ","","","","","25","","","","","","","","","","","","","","","","","","","","","",""
"4080","","image-button-response","85","744240","0.0-82.0","A3UKAY2FGKRMVQ","img_art/10.jpg","4","","","","","","","","","","","","","","","","","","","","","","","","",""
"3152","","image-button-response","86","747395","0.0-83.0","A3UKAY2FGKRMVQ","img_art/10.jpg","2","","","","","","","","","","","","","","","","","","","","","","","","",""
"1154","","image-button-response","87","748556","0.0-84.0-0.0","A3UKAY2FGKRMVQ","img_art/10.jpg","3","","","","","","","","","","","","","","","","","","","","","","","","",""
"841","","image-button-response","88","749399","0.0-85.0-0.0","A3UKAY2FGKRMVQ","img_art/10.jpg","4","","","","","","","","","","","","","","","","","","","","","","","","",""
"null","","html-keyboard-response","89","750900","0.0-86.0","A3UKAY2FGKRMVQ","<p style=""font-size: 48px;"">+</p>","","","","","null","allTrialResponses","1500","1","6","img_art/10.jpg","25","looks great","Alyssa,Victoria,Vanessa,Kelsey,Mariah,Alicia","Bleak and uninteresting,-10,160,20","absolutely beautiful piece of art,49,400,20","It's interesting and my eyes keep being drawn to different parts of the picture.,11,380,20","reminds me of a violin,9,240,20","The colors and shapes are soothing but also disconcerting.,21,140,20","It's art. (for some),7,120,20","Vanessa","It's interesting and my eyes keep being drawn to different parts of the picture.,11,380,20","Kelsey","reminds me of a violin,9,240,20","Mariah","The colors and shapes are soothing but also disconcerting.,21,140,20","4"
"10180","","survey-text","90","761085","0.0-87.0-0.0","A3UKAY2FGKRMVQ","","","","{""Q0"":""looks ugly""}","","","","","","","","","","","","","","","","","","","","","","",""
"2490","","image-slider-response","91","763580","0.0-88.0","A3UKAY2FGKRMVQ","","","","","9","","","","","","","","","","","","","","","","","","","","","",""
"3622","","image-button-response","92","768583","0.0-89.0","A3UKAY2FGKRMVQ","img_art/3.jpg","0","","","","","","","","","","","","","","","","","","","","","","","","",""
"811","","image-button-response","93","769398","0.0-90.0","A3UKAY2FGKRMVQ","img_art/3.jpg","4","","","","","","","","","","","","","","","","","","","","","","","","",""
"1268","","image-button-response","94","770671","0.0-91.0-0.0","A3UKAY2FGKRMVQ","img_art/3.jpg","2","","","","","","","","","","","","","","","","","","","","","","","","",""
"1466","","image-button-response","95","772142","0.0-92.0-0.0","A3UKAY2FGKRMVQ","img_art/3.jpg","3","","","","","","","","","","","","","","","","","","","","","","","","",""
"null","","html-keyboard-response","96","772644","0.0-93.0","A3UKAY2FGKRMVQ","<p style=""font-size: 48px;"">+</p>","","","","","null","allTrialResponses","500","1","7","img_art/3.jpg","9","looks ugly","Jasmine,Shelby,Vanessa,Kelsey,Mariah,Kaitlyn","I don't really have a strong reaction to this one,0,340,20","This makes me feel a bit disturbed,-35,240,20","It makes me think of just an angry scribble. There's no beauty to it for me.,-50,380,20","just scribbles, not pleasing,-30,240,20","The composition keeps the eye moving, the colors are satisfying.,31,140,20","Too much red; very bland,-26,80,20","Mariah","The composition keeps the eye moving, the colors are satisfying.,31,140,20","Vanessa","It makes me think of just an angry scribble. There's no beauty to it for me.,-50,380,20","Kelsey","just scribbles, not pleasing,-30,240,20","4"
"7198","","survey-text","97","779855","0.0-94.0-0.0","A3UKAY2FGKRMVQ","","","","{""Q0"":""looks great""}","","","","","","","","","","","","","","","","","","","","","","",""
"3699","","image-slider-response","98","783557","0.0-95.0","A3UKAY2FGKRMVQ","","","","","14","","","","","","","","","","","","","","","","","","","","","",""
"2873","","image-button-response","99","788561","0.0-96.0","A3UKAY2FGKRMVQ","img_art/14.jpg","2","","","","","","","","","","","","","","","","","","","","","","","","",""
"480","","image-button-response","100","789045","0.0-97.0","A3UKAY2FGKRMVQ","img_art/14.jpg","4","","","","","","","","","","","","","","","","","","","","","","","","",""
"1254","","image-button-response","101","790305","0.0-98.0-0.0","A3UKAY2FGKRMVQ","img_art/14.jpg","1","","","","","","","","","","","","","","","","","","","","","","","","",""
"1090","","image-button-response","102","791399","0.0-99.0-0.0","A3UKAY2FGKRMVQ","img_art/14.jpg","5","","","","","","","","","","","","","","","","","","","","","","","","",""
"null","","html-keyboard-response","103","792401","0.0-100.0","A3UKAY2FGKRMVQ","<p style=""font-size: 48px;"">+</p>","","","","","null","allTrialResponses","1000","1","8","img_art/14.jpg","14","looks great","Morgan,Katherine,Vanessa,Kelsey,Mariah,Emma","Angled, colored, boxy.,10,380,20","I don't like the color red,30,120,20","I don't like the colors, but I espeically don't like all the negative space.,-20,380,20","i like this one!,23,240,20","The lighting feels like spring.,20,140,20","Don't love it.,-10,60,20","Mariah","The lighting feels like spring.,20,140,20","Katherine","I don't like the color red,30,120,20","Emma","Don't love it.,-10,60,20","4"
"8571","","survey-text","104","800979","0.0-101.0-0.0","A3UKAY2FGKRMVQ","","","","{""Q0"":""ugly ""}","","","","","","","","","","","","","","","","","","","","","","",""
"9313","","survey-text","105","828524","0.0-101.1-0.1","A3UKAY2FGKRMVQ","","","","{""Q0"":""bad picture""}","","","","","","","","","","","","","","","","","","","","","","",""
"33855","","image-slider-response","106","862383","0.0-102.0","A3UKAY2FGKRMVQ","","","","","-7","","","","","","","","","","","","","","","","","","","","","",""
"null","","image-button-response","107","867393","0.0-103.0","A3UKAY2FGKRMVQ","img_art/19.jpg","null","","","","","","","","","","","","","","","","","","","","","","","","",""
"13350","","image-button-response","108","880746","0.0-104.0","A3UKAY2FGKRMVQ","img_art/19.jpg","1","","","","","","","","","","","","","","","","","","","","","","","","",""
"952","","image-button-response","109","881702","0.0-105.0-0.0","A3UKAY2FGKRMVQ","img_art/19.jpg","4","","","","","","","","","","","","","","","","","","","","","","","","",""
"1121","","image-button-response","110","882826","0.0-106.0-0.0","A3UKAY2FGKRMVQ","img_art/19.jpg","3","","","","","","","","","","","","","","","","","","","","","","","","",""
"null","","html-keyboard-response","111","883828","0.0-107.0","A3UKAY2FGKRMVQ","<p style=""font-size: 48px;"">+</p>","","","","","null","allTrialResponses","1000","1","9","img_art/19.jpg","-7","bad picture","Savannah,Katherine,Amanda,Nicole,Mariah,Emma","Watercolor abstract? Strange.,1,200,20","I dig the not being able to tell what anything is but knowing everything is supposed to be something,46,120,20","Its just a nice painting, nothing too special but nothing negative,25,180,20","Feels like something I would hang in my dining room,42,20,20","I like the watercolor and colors, do not like the deconstructed city scene feel.,0,140,20","Interesting, leaves you wondering what it is,40,60,20","Katherine","I dig the not being able to tell what anything is but knowing everything is supposed to be something,46,120,20","Mariah","I like the watercolor and colors, do not like the deconstructed city scene feel.,0,140,20","Nicole","Feels like something I would hang in my dining room,42,20,20","4"
"18762","","survey-text","112","902610","0.0-108.0-0.0","A3UKAY2FGKRMVQ","","","","{""Q0"":""looks bad""}","","","","","","","","","","","","","","","","","","","","","","",""
"2362","","image-slider-response","113","904976","0.0-109.0","A3UKAY2FGKRMVQ","","","","","-25","","","","","","","","","","","","","","","","","","","","","",""
"2858","","image-button-response","114","910115","0.0-110.0","A3UKAY2FGKRMVQ","img_art/18.jpg","0","","","","","","","","","","","","","","","","","","","","","","","","",""
"1626","","image-button-response","115","911745","0.0-111.0","A3UKAY2FGKRMVQ","img_art/18.jpg","4","","","","","","","","","","","","","","","","","","","","","","","","",""
"1085","","image-button-response","116","912837","0.0-112.0-0.0","A3UKAY2FGKRMVQ","img_art/18.jpg","2","","","","","","","","","","","","","","","","","","","","","","","","",""
"479","","image-button-response","117","913321","0.0-113.0-0.0","A3UKAY2FGKRMVQ","img_art/18.jpg","1","","","","","","","","","","","","","","","","","","","","","","","","",""
"null","","html-keyboard-response","118","914324","0.0-114.0","A3UKAY2FGKRMVQ","<p style=""font-size: 48px;"">+</p>","","","","","null","allTrialResponses","1000","1","10","img_art/18.jpg","-25","looks bad","Hailey,Katherine,Meghan,Nicole,Mariah,Melissa","i like the colors. outerspace,21,200,20","Ok this is really badass. Like a warrior come to the last battle,50,120,20","reminds me of sailors on a boat,17,220,20","There's danger in this painting and it's awesome,40,20,20","It is too busy, but the colors are pleasant.,15,140,20","creamy color, feels like organized chaos,23,240,20","Mariah","It is too busy, but the colors are pleasant.,15,140,20","Meghan","reminds me of sailors on a boat,17,220,20","Katherine","Ok this is really badass. Like a warrior come to the last battle,50,120,20","4"
"5264","","survey-text","119","919597","0.0-115.0-0.0","A3UKAY2FGKRMVQ","","","","{""Q0"":""our""}","","","","","","","","","","","","","","","","","","","","","","",""
"10757","","survey-text","120","930356","0.0-116.0-0.0","A3UKAY2FGKRMVQ","","","","{""Q0"":""perfect picture""}","","","","","","","","","","","","","","","","","","","","","","",""
"2315","","image-slider-response","121","932675","0.0-117.0","A3UKAY2FGKRMVQ","","","","","-20","","","","","","","","","","","","","","","","","","","","","",""
"4363","","image-button-response","122","937679","0.0-118.0","A3UKAY2FGKRMVQ","img_art/24.jpg","5","","","","","","","","","","","","","","","","","","","","","","","","",""
"702","","image-button-response","123","938385","0.0-119.0","A3UKAY2FGKRMVQ","img_art/24.jpg","3","","","","","","","","","","","","","","","","","","","","","","","","",""
"1159","","image-button-response","124","939560","0.0-120.0-0.0","A3UKAY2FGKRMVQ","img_art/24.jpg","2","","","","","","","","","","","","","","","","","","","","","","","","",""
"2143","","image-button-response","125","941707","0.0-121.0-0.0","A3UKAY2FGKRMVQ","img_art/24.jpg","1","","","","","","","","","","","","","","","","","","","","","","","","",""
"null","","html-keyboard-response","126","942718","0.0-122.0","A3UKAY2FGKRMVQ","<p style=""font-size: 48px;"">+</p>","","","","","null","allTrialResponses","1000","1","11","img_art/24.jpg","-20","perfect picture","Kelly,Katherine,Meghan,Jenna,Mariah,Allison","Cute; I like what the image itself & the colors.,25,220,20","The combination of nature / realism with abstract colors is unique.,39,120,20","pretty like a waterfall,22,220,20","colors are a bit cramped together. really unique take on a waterfall though.,32,360,20","It is like a really bad impressionist painting.,-40,140,20","I appreciate the earth tones. Soothing.,5,140,20","Jenna","colors are a bit cramped together. really unique take on a waterfall though.,32,360,20","Meghan","pretty like a waterfall,22,220,20","Katherine","The combination of nature / realism with abstract colors is unique.,39,120,20","4"
"6876","","survey-text","127","949605","0.0-123.0-0.0","A3UKAY2FGKRMVQ","","","","{""Q0"":""looks good""}","","","","","","","","","","","","","","","","","","","","","","",""
"58162","","image-slider-response","128","1007769","0.0-124.0","A3UKAY2FGKRMVQ","","","","","25","","","","","","","","","","","","","","","","","","","","","",""
"4008","","image-button-response","129","1012780","0.0-125.0","A3UKAY2FGKRMVQ","img_art/8.jpg","3","","","","","","","","","","","","","","","","","","","","","","","","",""
"610","","image-button-response","130","1013401","0.0-126.0","A3UKAY2FGKRMVQ","img_art/8.jpg","1","","","","","","","","","","","","","","","","","","","","","","","","",""
"1202","","image-button-response","131","1014605","0.0-127.0-0.0","A3UKAY2FGKRMVQ","img_art/8.jpg","3","","","","","","","","","","","","","","","","","","","","","","","","",""
"771","","image-button-response","132","1015383","0.0-128.0-0.0","A3UKAY2FGKRMVQ","img_art/8.jpg","5","","","","","","","","","","","","","","","","","","","","","","","","",""
"null","","html-keyboard-response","133","1015892","0.0-129.0","A3UKAY2FGKRMVQ","<p style=""font-size: 48px;"">+</p>","","","","","null","allTrialResponses","500","1","12","img_art/8.jpg","25","looks good","Maria,Katherine,Meghan,Jenna,Destiny,Danielle","not sure what to make of this - just neutral again,-1,120,20","This is really cool, I love the fragments of faces,38,120,20","the face is creepy,-49,220,20","beautiful colors & details. love the surrealism & strange angle. the faces are interesting.,50,360,20","a cute little cute with some protectors,25,360,20","Enjoy this, it looks like a rushing water pool, surrounded by mountains and buildings, hiding details such as faces.,30,340,20","Katherine","This is really cool, I love the fragments of faces,38,120,20","Jenna","beautiful colors & details. love the surrealism & strange angle. the faces are interesting.,50,360,20","Danielle","Enjoy this, it looks like a rushing water pool, surrounded by mountains and buildings, hiding details such as faces.,30,340,20","4"
"9058","","survey-text","134","1024979","0.0-130.0-0.0","A3UKAY2FGKRMVQ","","","","{""Q0"":""good one""}","","","","","","","","","","","","","","","","","","","","","","",""
"5478","","image-slider-response","135","1030459","0.0-131.0","A3UKAY2FGKRMVQ","","","","","11","","","","","","","","","","","","","","","","","","","","","",""
"3211","","image-button-response","136","1035464","0.0-132.0","A3UKAY2FGKRMVQ","img_art/6.jpg","1","","","","","","","","","","","","","","","","","","","","","","","","",""
"1240","","image-button-response","137","1036709","0.0-133.0","A3UKAY2FGKRMVQ","img_art/6.jpg","0","","","","","","","","","","","","","","","","","","","","","","","","",""
"690","","image-button-response","138","1037404","0.0-134.0-0.0","A3UKAY2FGKRMVQ","img_art/6.jpg","2","","","","","","","","","","","","","","","","","","","","","","","","",""
"516","","image-button-response","139","1037923","0.0-135.0-0.0","A3UKAY2FGKRMVQ","img_art/6.jpg","1","","","","","","","","","","","","","","","","","","","","","","","","",""
"null","","html-keyboard-response","140","1038430","0.0-136.0","A3UKAY2FGKRMVQ","<p style=""font-size: 48px;"">+</p>","","","","","null","allTrialResponses","500","1","13","img_art/6.jpg","11","good one","Autumn,Katherine,Michaela,Jenna,Rebecca,Danielle","Bird? It's a bird.,23,340,20","This could be so many different things. I saw a bird first but then it looks like a needle going into skin,34,120,20","It looks like a bird looking away,32,260,20","I like the bottom half, but not the top,-7,360,20","??????? fake floating leaf? headless bird,-28,100,20","Not a fan of anything in this,-43,340,20","Autumn","Bird? It's a bird.,23,340,20","Michaela","It looks like a bird looking away,32,260,20","Katherine","This could be so many different things. I saw a bird first but then it looks like a needle going into skin,34,120,20","4"
"6380","","survey-text","141","1044818","0.0-137.0-0.0","A3UKAY2FGKRMVQ","","","","{""Q0"":""quite bad""}","","","","","","","","","","","","","","","","","","","","","","",""
"12224","","image-slider-response","142","1057051","0.0-138.0","A3UKAY2FGKRMVQ","","","","","-16","","","","","","","","","","","","","","","","","","","","","",""
"null","","image-button-response","143","1062052","0.0-139.0","A3UKAY2FGKRMVQ","img_art/25.jpg","null","","","","","","","","","","","","","","","","","","","","","","","","",""
"59812","","image-button-response","144","1121867","0.0-140.0","A3UKAY2FGKRMVQ","img_art/25.jpg","0","","","","","","","","","","","","","","","","","","","","","","","","",""
"688","","image-button-response","145","1122558","0.0-141.0-0.0","A3UKAY2FGKRMVQ","img_art/25.jpg","2","","","","","","","","","","","","","","","","","","","","","","","","",""
"1277","","image-button-response","146","1123839","0.0-142.0-0.0","A3UKAY2FGKRMVQ","img_art/25.jpg","4","","","","","","","","","","","","","","","","","","","","","","","","",""
"null","","html-keyboard-response","147","1125343","0.0-143.0","A3UKAY2FGKRMVQ","<p style=""font-size: 48px;"">+</p>","","","","","null","allTrialResponses","1500","1","14","img_art/25.jpg","-16","quite bad","Autumn,Katherine,Michaela,Cassidy,Haley,Angela","This is too simple,-22,340,20","That's pretty awesome. I love the green and black combo, reminds me of one of those cartoon creepy movies,47,120,20","It looks like people worshipping a statue,33,260,20","Love the colors, and how it's simple yet complex,25,140,20","I like the design but the brightness of the color feels almost blinding to me.,-3,220,20","Ugly green color and don't like it at all,-30,260,20","Autumn","This is too simple,-22,340,20","Michaela","It looks like people worshipping a statue,33,260,20","Haley","I like the design but the brightness of the color feels almost blinding to me.,-3,220,20","4"
"7061","","survey-text","148","1132428","0.0-144.0-0.0","A3UKAY2FGKRMVQ","","","","{""Q0"":""good art""}","","","","","","","","","","","","","","","","","","","","","","",""
"1966","","image-slider-response","149","1134397","0.0-145.0","A3UKAY2FGKRMVQ","","","","","8","","","","","","","","","","","","","","","","","","","","","",""
"1333","","image-button-response","150","1139400","0.0-146.0","A3UKAY2FGKRMVQ","img_art/4.jpg","1","","","","","","","","","","","","","","","","","","","","","","","","",""
"937","","image-button-response","151","1140347","0.0-147.0","A3UKAY2FGKRMVQ","img_art/4.jpg","4","","","","","","","","","","","","","","","","","","","","","","","","",""
"470","","image-button-response","152","1140819","0.0-148.0-0.0","A3UKAY2FGKRMVQ","img_art/4.jpg","5","","","","","","","","","","","","","","","","","","","","","","","","",""
"1186","","image-button-response","153","1142026","0.0-149.0-0.0","A3UKAY2FGKRMVQ","img_art/4.jpg","0","","","","","","","","","","","","","","","","","","","","","","","","",""
"null","","html-keyboard-response","154","1143029","0.0-150.0","A3UKAY2FGKRMVQ","<p style=""font-size: 48px;"">+</p>","","","","","null","allTrialResponses","1000","1","15","img_art/4.jpg","8","good art","Autumn,Sabrina,Michaela,Ashley,Haley,Caroline","I don't like murky colors.,-40,340,20","Its just not giving the vibe i should be finding,-31,120,20","It reminds me of something a kid would make for their parents,13,260,20","It looks like a hand.,25,320,20","This image doesn't invoke anything in me,-9,220,20","Blah feeling, nothing,-8,100,20","Haley","This image doesn't invoke anything in me,-9,220,20","Caroline","Blah feeling, nothing,-8,100,20","Autumn","I don't like murky colors.,-40,340,20","4"
"5399","","survey-text","155","1148443","0.0-151.0-0.0","A3UKAY2FGKRMVQ","","","","{""Q0"":""course""}","","","","","","","","","","","","","","","","","","","","","","",""
"8662","","survey-text","156","1157111","0.0-152.0-0.0","A3UKAY2FGKRMVQ","","","","{""Q0"":""bad art""}","","","","","","","","","","","","","","","","","","","","","","",""
"2713","","image-slider-response","157","1159827","0.0-153.0","A3UKAY2FGKRMVQ","","","","","-9","","","","","","","","","","","","","","","","","","","","","",""
"3988","","image-button-response","158","1164831","0.0-154.0","A3UKAY2FGKRMVQ","img_art/1.jpg","0","","","","","","","","","","","","","","","","","","","","","","","","",""
"818","","image-button-response","159","1165653","0.0-155.0","A3UKAY2FGKRMVQ","img_art/1.jpg","0","","","","","","","","","","","","","","","","","","","","","","","","",""
"657","","image-button-response","160","1166320","0.0-156.0-0.0","A3UKAY2FGKRMVQ","img_art/1.jpg","2","","","","","","","","","","","","","","","","","","","","","","","","",""
"953","","image-button-response","161","1167277","0.0-157.0-0.0","A3UKAY2FGKRMVQ","img_art/1.jpg","3","","","","","","","","","","","","","","","","","","","","","","","","",""
"null","","html-keyboard-response","162","1168779","0.0-158.0","A3UKAY2FGKRMVQ","<p style=""font-size: 48px;"">+</p>","","","","","null","allTrialResponses","1500","1","16","img_art/1.jpg","-9","bad art","Autumn,Diana,Mary,Erika,Haley,Caroline","Doesn't represent anything in particular.,-47,340,20","Might be a person rowing their boat across the lake. Not sure if the background is trees or not.,12,380,20","This piece feels soft and romantic to me. I do not care for so much orange though.,3,180,20","Vague and directionless,-14,100,20","Pleasant, but a tad too monochromatic in some areas for my taste,7,220,20","Felt nothing in response to this painting,3,100,20","Autumn","Doesn't represent anything in particular.,-47,340,20","Mary","This piece feels soft and romantic to me. I do not care for so much orange though.,3,180,20","Erika","Vague and directionless,-14,100,20","4"
"9360","","survey-text","163","1178150","0.0-159.0-0.0","A3UKAY2FGKRMVQ","","","","{""Q0"":""looks bad""}","","","","","","","","","","","","","","","","","","","","","","",""
"2172","","image-slider-response","164","1180324","0.0-160.0","A3UKAY2FGKRMVQ","","","","","-11","","","","","","","","","","","","","","","","","","","","","",""
"2644","","image-button-response","165","1185331","0.0-161.0","A3UKAY2FGKRMVQ","img_art/20.jpg","1","","","","","","","","","","","","","","","","","","","","","","","","",""
"921","","image-button-response","166","1186261","0.0-162.0","A3UKAY2FGKRMVQ","img_art/20.jpg","3","","","","","","","","","","","","","","","","","","","","","","","","",""
"600","","image-button-response","167","1186864","0.0-163.0-0.0","A3UKAY2FGKRMVQ","img_art/20.jpg","1","","","","","","","","","","","","","","","","","","","","","","","","",""
"575","","image-button-response","168","1187445","0.0-164.0-0.0","A3UKAY2FGKRMVQ","img_art/20.jpg","0","","","","","","","","","","","","","","","","","","","","","","","","",""
"null","","html-keyboard-response","169","1187948","0.0-165.0","A3UKAY2FGKRMVQ","<p style=""font-size: 48px;"">+</p>","","","","","null","allTrialResponses","500","1","17","img_art/20.jpg","-11","looks bad","Autumn,Kimberly,Mary,Erika,Catherine,Kayla","It's ok. Very abstract.,18,340,20","Something bad has happened TO reality,-23,260,20","I can tell this artist has experience. I just don't care for the color combo.,7,180,20","The artist had very strong feelings, bold colors,28,100,20","Interesting. Empty place, wondering what happened, leaving what you used to know.,10,160,20","Something fell over and is burning, but it's kinda dope, you know?,14,180,20","Erika","The artist had very strong feelings, bold colors,28,100,20","Kimberly","Something bad has happened TO reality,-23,260,20","Autumn","It's ok. Very abstract.,18,340,20","4"
"7313","","survey-text","170","1195283","0.0-166.0-0.0","A3UKAY2FGKRMVQ","","","","{""Q0"":""bad art""}","","","","","","","","","","","","","","","","","","","","","","",""
"2710","","image-slider-response","171","1197996","0.0-167.0","A3UKAY2FGKRMVQ","","","","","-25","","","","","","","","","","","","","","","","","","","","","",""
"1966","","image-button-response","172","1203002","0.0-168.0","A3UKAY2FGKRMVQ","img_art/2.jpg","0","","","","","","","","","","","","","","","","","","","","","","","","",""
"1186","","image-button-response","173","1204190","0.0-169.0","A3UKAY2FGKRMVQ","img_art/2.jpg","3","","","","","","","","","","","","","","","","","","","","","","","","",""
"658","","image-button-response","174","1204861","0.0-170.0-0.0","A3UKAY2FGKRMVQ","img_art/2.jpg","5","","","","","","","","","","","","","","","","","","","","","","","","",""
"903","","image-button-response","175","1205780","0.0-171.0-0.0","A3UKAY2FGKRMVQ","img_art/2.jpg","2","","","","","","","","","","","","","","","","","","","","","","","","",""
"null","","html-keyboard-response","176","1206281","0.0-172.0","A3UKAY2FGKRMVQ","<p style=""font-size: 48px;"">+</p>","","","","","null","allTrialResponses","500","1","18","img_art/2.jpg","-25","bad art","Autumn,Kimberly,Chloe,Erika,Madeline,Crystal","7 year old painted?,-35,340,20","I like the green,13,260,20","The color choices and lines seem a bit sloppy?,-10,220,20","Indistinct and too bright,-21,100,20","I don't really like this style,-5,40,20","Looks contrived and like someone tried to hard to make it abstract,-31,300,20","Erika","Indistinct and too bright,-21,100,20","Crystal","Looks contrived and like someone tried to hard to make it abstract,-31,300,20","Chloe","The color choices and lines seem a bit sloppy?,-10,220,20","4"
"5786","","survey-text","177","1212076","0.0-173.0-0.0","A3UKAY2FGKRMVQ","","","","{""Q0"":""good art""}","","","","","","","","","","","","","","","","","","","","","","",""
"2782","","image-slider-response","178","1214862","0.0-174.0","A3UKAY2FGKRMVQ","","","","","30","","","","","","","","","","","","","","","","","","","","","",""
"1771","","image-button-response","179","1219874","0.0-175.0","A3UKAY2FGKRMVQ","img_art/13.jpg","5","","","","","","","","","","","","","","","","","","","","","","","","",""
"669","","image-button-response","180","1220545","0.0-176.0","A3UKAY2FGKRMVQ","img_art/13.jpg","0","","","","","","","","","","","","","","","","","","","","","","","","",""
"1234","","image-button-response","181","1221795","0.0-177.0-0.0","A3UKAY2FGKRMVQ","img_art/13.jpg","4","","","","","","","","","","","","","","","","","","","","","","","","",""
"377","","image-button-response","182","1222206","0.0-178.0-0.0","A3UKAY2FGKRMVQ","img_art/13.jpg","3","","","","","","","","","","","","","","","","","","","","","","","","",""
"null","","html-keyboard-response","183","1223214","0.0-179.0","A3UKAY2FGKRMVQ","<p style=""font-size: 48px;"">+</p>","","","","","null","allTrialResponses","1000","1","19","img_art/13.jpg","30","good art","Samantha,Jessica,Chloe,Erika,Sarah,Crystal","Nice colors. beautiful blue,50,140,20","The paint splatter idea is kind of overused but I like how it brings the piece together,16,400,20","Industrial Jackson Pollock knock-off,-20,220,20","Gorgeous contrast and color choice, very pleasing,50,100,20","this is an appealing mix of textures to me and the color scheme is harmonious,36,180,20","Reminiscent of Jackson Pollock and gives me a feeling of chaotic satisfaction,50,300,20","Samantha","Nice colors. beautiful blue,50,140,20","Sarah","this is an appealing mix of textures to me and the color scheme is harmonious,36,180,20","Erika","Gorgeous contrast and color choice, very pleasing,50,100,20","4"
"8009","","survey-text","184","1231231","0.0-180.0-0.0","A3UKAY2FGKRMVQ","","","","{""Q0"":""quite bad""}","","","","","","","","","","","","","","","","","","","","","","",""
"2227","","image-slider-response","185","1233461","0.0-181.0","A3UKAY2FGKRMVQ","","","","","-3","","","","","","","","","","","","","","","","","","","","","",""
"4897","","image-button-response","186","1238469","0.0-182.0","A3UKAY2FGKRMVQ","img_art/16.jpg","5","","","","","","","","","","","","","","","","","","","","","","","","",""
"942","","image-button-response","187","1239414","0.0-183.0","A3UKAY2FGKRMVQ","img_art/16.jpg","3","","","","","","","","","","","","","","","","","","","","","","","","",""
"974","","image-button-response","188","1240391","0.0-184.0-0.0","A3UKAY2FGKRMVQ","img_art/16.jpg","1","","","","","","","","","","","","","","","","","","","","","","","","",""
"572","","image-button-response","189","1240973","0.0-185.0-0.0","A3UKAY2FGKRMVQ","img_art/16.jpg","2","","","","","","","","","","","","","","","","","","","","","","","","",""
"null","","html-keyboard-response","190","1242475","0.0-186.0","A3UKAY2FGKRMVQ","<p style=""font-size: 48px;"">+</p>","","","","","null","allTrialResponses","1500","1","20","img_art/16.jpg","-3","quite bad","Samantha,Gabriela,Alexandra,Erika,Sarah,Jamie","Creepy teddybear,-50,140,20","It looks very generic, like items were pasted onto the background,-38,140,20","This is weird and creepy.,-40,60,20","Very emotional,23,100,20","i don't like the collage aspect,-25,180,20","Weird and funny,40,320,20","Erika","Very emotional,23,100,20","Gabriela","It looks very generic, like items were pasted onto the background,-38,140,20","Alexandra","This is weird and creepy.,-40,60,20","4"
"3921","","survey-text","191","1246408","0.0-187.0-0.0","A3UKAY2FGKRMVQ","","","","{""Q0"":""we""}","","","","","","","","","","","","","","","","","","","","","","",""
"29596","","survey-text","192","1276008","0.0-188.0-0.0","A3UKAY2FGKRMVQ","","","","{""Q0"":""looks bad""}","","","","","","","","","","","","","","","","","","","","","","",""
"31339","","image-slider-response","193","1307352","0.0-189.0","A3UKAY2FGKRMVQ","","","","","-16","","","","","","","","","","","","","","","","","","","","","",""
"null","","image-button-response","194","1312361","0.0-190.0","A3UKAY2FGKRMVQ","img_art/12.jpg","null","","","","","","","","","","","","","","","","","","","","","","","","",""
"1257","","image-button-response","195","1313622","0.0-191.0","A3UKAY2FGKRMVQ","img_art/12.jpg","1","","","","","","","","","","","","","","","","","","","","","","","","",""
"1665","","image-button-response","196","1315292","0.0-192.0-0.0","A3UKAY2FGKRMVQ","img_art/12.jpg","2","","","","","","","","","","","","","","","","","","","","","","","","",""
"1681","","image-button-response","197","1316976","0.0-193.0-0.0","A3UKAY2FGKRMVQ","img_art/12.jpg","4","","","","","","","","","","","","","","","","","","","","","","","","",""
"null","","html-keyboard-response","198","1318478","0.0-194.0","A3UKAY2FGKRMVQ","<p style=""font-size: 48px;"">+</p>","","","","","null","allTrialResponses","1500","1","21","img_art/12.jpg","-16","looks bad","Rachel,Gabriela,Alexandra,Erika,Monica,Kristen","I like how it's split into tiny squares, but otherwise, not very intriguing.,-18,80,20","In my opinion, this photo has an old school vibe,22,140,20","I like the pattern of this picture, but the colors could be nicer,11,60,20","I don't like it, but I appreciate the effort and technique,11,100,20","Reminds me of collages we made in elementary school. I like the contrast of the colors from top to bottom,43,360,20","stressful, upsetting,-10,280,20","Gabriela","In my opinion, this photo has an old school vibe,22,140,20","Alexandra","I like the pattern of this picture, but the colors could be nicer,11,60,20","Monica","Reminds me of collages we made in elementary school. I like the contrast of the colors from top to bottom,43,360,20","4"
"14094","","survey-text","199","1332589","0.0-195.0-0.0","A3UKAY2FGKRMVQ","","","","{""Q0"":""quite good""}","","","","","","","","","","","","","","","","","","","","","","",""
"5581","","image-slider-response","200","1338174","0.0-196.0","A3UKAY2FGKRMVQ","","","","","-10","","","","","","","","","","","","","","","","","","","","","",""
"null","","image-button-response","201","1343180","0.0-197.0","A3UKAY2FGKRMVQ","img_art/7.jpg","null","","","","","","","","","","","","","","","","","","","","","","","","",""
"3967","","image-button-response","202","1347150","0.0-198.0","A3UKAY2FGKRMVQ","img_art/7.jpg","3","","","","","","","","","","","","","","","","","","","","","","","","",""
"1159","","image-button-response","203","1348312","0.0-199.0-0.0","A3UKAY2FGKRMVQ","img_art/7.jpg","2","","","","","","","","","","","","","","","","","","","","","","","","",""
"659","","image-button-response","204","1348975","0.0-200.0-0.0","A3UKAY2FGKRMVQ","img_art/7.jpg","1","","","","","","","","","","","","","","","","","","","","","","","","",""
"null","","html-keyboard-response","205","1349478","0.0-201.0","A3UKAY2FGKRMVQ","<p style=""font-size: 48px;"">+</p>","","","","","null","allTrialResponses","500","1","22","img_art/7.jpg","-10","quite good","Molly,Gabriela,Alexandra,Mackenzie,Monica,Stephanie","Don't understand the meaning of this picture.,-30,340,20","it looks like an ant farm,12,140,20","I do not like the boring colors in this.,-20,60,20","Is simple in color and texture,11,20,20","It looks like bloody scabs on skin, I don't like it,-42,360,20","This looks muddy and stomped on. I think of destruction.,-50,300,20","Mackenzie","Is simple in color and texture,11,20,20","Alexandra","I do not like the boring colors in this.,-20,60,20","Gabriela","it looks like an ant farm,12,140,20","4"
"12014","","survey-text","206","1361503","0.0-202.0-0.0","A3UKAY2FGKRMVQ","","","","{""Q0"":""quite good""}","","","","","","","","","","","","","","","","","","","","","","",""
"5364","","image-slider-response","207","1366870","0.0-203.0","A3UKAY2FGKRMVQ","","","","","-19","","","","","","","","","","","","","","","","","","","","","",""
"null","","image-button-response","208","1371873","0.0-204.0","A3UKAY2FGKRMVQ","img_art/17.jpg","null","","","","","","","","","","","","","","","","","","","","","","","","",""
"2883","","image-button-response","209","1374759","0.0-205.0","A3UKAY2FGKRMVQ","img_art/17.jpg","4","","","","","","","","","","","","","","","","","","","","","","","","",""
"727","","image-button-response","210","1375489","0.0-206.0-0.0","A3UKAY2FGKRMVQ","img_art/17.jpg","3","","","","","","","","","","","","","","","","","","","","","","","","",""
"743","","image-button-response","211","1376235","0.0-207.0-0.0","A3UKAY2FGKRMVQ","img_art/17.jpg","2","","","","","","","","","","","","","","","","","","","","","","","","",""
"null","","html-keyboard-response","212","1377239","0.0-208.0","A3UKAY2FGKRMVQ","<p style=""font-size: 48px;"">+</p>","","","","","null","allTrialResponses","1000","1","23","img_art/17.jpg","-19","quite good","Sierra,Gabriela,Alexandra,Mackenzie,Miranda,Kaylee","the colors, the arch and the wall,15,260,20","This makes me feel inspired and happy. I love everything about this portrait,45,140,20","This is very beautiful and elegant.,42,60,20","Very fun textures,32,20,20","It seems a little dark but it is very beautiful,28,320,20","colorful tree really cool,27,200,20","Miranda","It seems a little dark but it is very beautiful,28,320,20","Mackenzie","Very fun textures,32,20,20","Alexandra","This is very beautiful and elegant.,42,60,20","4"
"7481","","survey-text","213","1384738","0.0-209.0-0.0","A3UKAY2FGKRMVQ","","","","{""Q0"":""looks bad""}","","","","","","","","","","","","","","","","","","","","","","",""
"5090","","image-slider-response","214","1389831","0.0-210.0","A3UKAY2FGKRMVQ","","","","","-12","","","","","","","","","","","","","","","","","","","","","",""
"1732","","image-button-response","215","1394837","0.0-211.0","A3UKAY2FGKRMVQ","img_art/11.jpg","1","","","","","","","","","","","","","","","","","","","","","","","","",""
"1056","","image-button-response","216","1395897","0.0-212.0","A3UKAY2FGKRMVQ","img_art/11.jpg","4","","","","","","","","","","","","","","","","","","","","","","","","",""
"1254","","image-button-response","217","1397154","0.0-213.0-0.0","A3UKAY2FGKRMVQ","img_art/11.jpg","2","","","","","","","","","","","","","","","","","","","","","","","","",""
"713","","image-button-response","218","1397873","0.0-214.0-0.0","A3UKAY2FGKRMVQ","img_art/11.jpg","1","","","","","","","","","","","","","","","","","","","","","","","","",""
"null","","html-keyboard-response","219","1398892","0.0-215.0","A3UKAY2FGKRMVQ","<p style=""font-size: 48px;"">+</p>","","","","","null","allTrialResponses","1000","1","24","img_art/11.jpg","-12","looks bad","Kaitlin,Erin,Alexandra,Mackenzie,Miranda,Jacqueline","a beautiful piece of art,33,60,20","Frank Lloyd Wright, music,24,120,20","I normally would not like this photo, but the design is nice.,21,60,20","The different textures and colors make this pleasing to look at.,30,20,20","This one is a little erie, gives me post-apocalyptic feeling,27,320,20","It's too dark and dingy.,-30,300,20","Miranda","This one is a little erie, gives me post-apocalyptic feeling,27,320,20","Alexandra","I normally would not like this photo, but the design is nice.,21,60,20","Erin","Frank Lloyd Wright, music,24,120,20","4"
"8265","","survey-text","220","1407169","0.0-216.0-0.0","A3UKAY2FGKRMVQ","","","","{""Q0"":""quite bad""}","","","","","","","","","","","","","","","","","","","","","","",""
"10833","","image-slider-response","221","1418007","0.0-217.0","A3UKAY2FGKRMVQ","","","","","-12","","","","","","","","","","","","","","","","","","","","","",""
"null","","image-button-response","222","1423439","0.0-218.0","A3UKAY2FGKRMVQ","img_art/30.jpg","null","","","","","","","","","","","","","","","","","","","","","","","","",""
"6357","","image-button-response","223","1429803","0.0-219.0","A3UKAY2FGKRMVQ","img_art/30.jpg","1","","","","","","","","","","","","","","","","","","","","","","","","",""
"800","","image-button-response","224","1430607","0.0-220.0-0.0","A3UKAY2FGKRMVQ","img_art/30.jpg","2","","","","","","","","","","","","","","","","","","","","","","","","",""
"2385","","image-button-response","225","1432995","0.0-221.0-0.0","A3UKAY2FGKRMVQ","img_art/30.jpg","4","","","","","","","","","","","","","","","","","","","","","","","","",""
"null","","html-keyboard-response","226","1433627","0.0-222.0","A3UKAY2FGKRMVQ","<p style=""font-size: 48px;"">+</p>","","","","","null","allTrialResponses","500","1","25","img_art/30.jpg","-12","quite bad","Mikayla,Erin,Alexandra,Abigail,Miranda,Emily","Very colorful! Wow!,22,300,20","Layers are interesting,22,120,20","I really love the pastel colors and the 3D design in this,43,60,20","Combination of colors arent good,-6,20,20","It looks like it was made by pre-k students.,-30,320,20","It looks like a child did it. There is nothing talented or special about it.,-16,40,20","Erin","Layers are interesting,22,120,20","Alexandra","I really love the pastel colors and the 3D design in this,43,60,20","Miranda","It looks like it was made by pre-k students.,-30,320,20","4"
"6457","","survey-text","227","1440129","0.0-223.0-0.0","A3UKAY2FGKRMVQ","","","","{""Q0"":""table""}","","","","","","","","","","","","","","","","","","","","","","",""
"28873","","survey-text","228","1469008","0.0-224.0-0.0","A3UKAY2FGKRMVQ","","","","{""Q0"":""quite good""}","","","","","","","","","","","","","","","","","","","","","","",""
"2947","","image-slider-response","229","1471959","0.0-225.0","A3UKAY2FGKRMVQ","","","","","-8","","","","","","","","","","","","","","","","","","","","","",""
"2039","","image-button-response","230","1477324","0.0-226.0","A3UKAY2FGKRMVQ","img_art/5.jpg","3","","","","","","","","","","","","","","","","","","","","","","","","",""
"1209","","image-button-response","231","1478537","0.0-227.0","A3UKAY2FGKRMVQ","img_art/5.jpg","1","","","","","","","","","","","","","","","","","","","","","","","","",""
"2308","","image-button-response","232","1480849","0.0-228.0-0.0","A3UKAY2FGKRMVQ","img_art/5.jpg","5","","","","","","","","","","","","","","","","","","","","","","","","",""
"2166","","image-button-response","233","1483018","0.0-229.0-0.0","A3UKAY2FGKRMVQ","img_art/5.jpg","3","","","","","","","","","","","","","","","","","","","","","","","","",""
"null","","html-keyboard-response","234","1483521","0.0-230.0","A3UKAY2FGKRMVQ","<p style=""font-size: 48px;"">+</p>","","","","","null","allTrialResponses","500","1","26","img_art/5.jpg","-8","quite good","Laura,Erin,Alexandra,Makayla,Miranda,Isabella","fresh and fun - bright and active,16,320,20","Flame, candle, wind,30,120,20","This looks like a twelve year old did it,-40,60,20","Bright and sunny,19,80,20","This either looks like a bell or aliens finishing the pyramids,-34,320,20","Seems clean and neat,11,280,20","Erin","Flame, candle, wind,30,120,20","Isabella","Seems clean and neat,11,280,20","Makayla","Bright and sunny,19,80,20","4"
"15495","","survey-text","235","1499031","0.0-231.0-0.0","A3UKAY2FGKRMVQ","","","","{""Q0"":""looks bad""}","","","","","","","","","","","","","","","","","","","","","","",""
"2513","","image-slider-response","236","1501546","0.0-232.0","A3UKAY2FGKRMVQ","","","","","-14","","","","","","","","","","","","","","","","","","","","","",""
"2678","","image-button-response","237","1506568","0.0-233.0","A3UKAY2FGKRMVQ","img_art/27.jpg","0","","","","","","","","","","","","","","","","","","","","","","","","",""
"3008","","image-button-response","238","1509579","0.0-234.0","A3UKAY2FGKRMVQ","img_art/27.jpg","0","","","","","","","","","","","","","","","","","","","","","","","","",""
"1308","","image-button-response","239","1510889","0.0-235.0-0.0","A3UKAY2FGKRMVQ","img_art/27.jpg","2","","","","","","","","","","","","","","","","","","","","","","","","",""
"1331","","image-button-response","240","1512224","0.0-236.0-0.0","A3UKAY2FGKRMVQ","img_art/27.jpg","4","","","","","","","","","","","","","","","","","","","","","","","","",""
"null","","html-keyboard-response","241","1513227","0.0-237.0","A3UKAY2FGKRMVQ","<p style=""font-size: 48px;"">+</p>","","","","","null","allTrialResponses","1000","1","27","img_art/27.jpg","-14","looks bad","Hannah,Erin,Breanna,Makayla,Jennifer,Isabella","Reminds me of something I'd see in a gold frame from the Eighties.,-9,240,20","Looks like someone vandalized the original piece with a marker,-36,120,20","Not too impressed with the work,6,380,20","Calming sky , relaxing,23,80,20","Somewhat boring piece,-3,380,20","Makes me feel warm inside,21,280,20","Hannah","Reminds me of something I'd see in a gold frame from the Eighties.,-9,240,20","Breanna","Not too impressed with the work,6,380,20","Jennifer","Somewhat boring piece,-3,380,20","4"
"20113","","survey-text","242","1533363","0.0-238.0-0.0","A3UKAY2FGKRMVQ","","","","{""Q0"":""quite hard""}","","","","","","","","","","","","","","","","","","","","","","",""
"12893","","image-slider-response","243","1546260","0.0-239.0","A3UKAY2FGKRMVQ","","","","","17","","","","","","","","","","","","","","","","","","","","","",""
"4511","","image-button-response","244","1551262","0.0-240.0","A3UKAY2FGKRMVQ","img_art/21.jpg","0","","","","","","","","","","","","","","","","","","","","","","","","",""
"423","","image-button-response","245","1551687","0.0-241.0","A3UKAY2FGKRMVQ","img_art/21.jpg","4","","","","","","","","","","","","","","","","","","","","","","","","",""
"419","","image-button-response","246","1552109","0.0-242.0-0.0","A3UKAY2FGKRMVQ","img_art/21.jpg","5","","","","","","","","","","","","","","","","","","","","","","","","",""
"695","","image-button-response","247","1552807","0.0-243.0-0.0","A3UKAY2FGKRMVQ","img_art/21.jpg","3","","","","","","","","","","","","","","","","","","","","","","","","",""
"null","","html-keyboard-response","248","1553831","0.0-244.0","A3UKAY2FGKRMVQ","<p style=""font-size: 48px;"">+</p>","","","","","null","allTrialResponses","1000","1","28","img_art/21.jpg","17","quite hard","Hannah,Brooke,Breanna,Cynthia,Jennifer,Margaret","Boring colors and look. Too much 1980s.,-20,240,20","Like the colors. Don't like the white dots on the right side of the painting though.,15,60,20","Can't understand what it is,-27,380,20","mythical between good and evil,16,320,20","Bland, this painting is my least favorite,-20,380,20","i like the colors and the blending,17,100,20","Jennifer","Bland, this painting is my least favorite,-20,380,20","Margaret","i like the colors and the blending,17,100,20","Cynthia","mythical between good and evil,16,320,20","4"
"4789","","survey-text","249","1558627","0.0-245.0-0.0","A3UKAY2FGKRMVQ","","","","{""Q0"":""looks bad""}","","","","","","","","","","","","","","","","","","","","","","",""
"2639","","image-slider-response","250","1561269","0.0-246.0","A3UKAY2FGKRMVQ","","","","","6","","","","","","","","","","","","","","","","","","","","","",""
"4479","","image-button-response","251","1566272","0.0-247.0","A3UKAY2FGKRMVQ","img_art/15.jpg","3","","","","","","","","","","","","","","","","","","","","","","","","",""
"363","","image-button-response","252","1566637","0.0-248.0","A3UKAY2FGKRMVQ","img_art/15.jpg","1","","","","","","","","","","","","","","","","","","","","","","","","",""
"1245","","image-button-response","253","1567884","0.0-249.0-0.0","A3UKAY2FGKRMVQ","img_art/15.jpg","5","","","","","","","","","","","","","","","","","","","","","","","","",""
"33","","image-button-response","254","1567925","0.0-250.0-0.0","A3UKAY2FGKRMVQ","img_art/15.jpg","4","","","","","","","","","","","","","","","","","","","","","","","","",""
"null","","html-keyboard-response","255","1568534","0.0-251.0","A3UKAY2FGKRMVQ","<p style=""font-size: 48px;"">+</p>","","","","","null","allTrialResponses","500","1","29","img_art/15.jpg","6","looks bad","Lindsey,Alexis,Katelyn,Cynthia,Jennifer,Margaret","Not a fan. This piece would only go with very specific decor in a modern home.,-35,400,20","Not a fan of abstract, but the black is very striking,10,100,20","Doesnt trigger much of a reaction overall,-2,100,20","interested in this transformation,20,320,20","This piece isn't particularly attractive, but it's not ugly either.,1,380,20","i like the pop of blue within all the black,8,100,20","Alexis","Not a fan of abstract, but the black is very striking,10,100,20","Margaret","i like the pop of blue within all the black,8,100,20","Jennifer","This piece isn't particularly attractive, but it's not ugly either.,1,380,20","4"
"4737","","survey-text","256","1573284","0.0-252.0-0.0","A3UKAY2FGKRMVQ","","","","{""Q0"":""looks bad""}","","","","","","","","","","","","","","","","","","","","","","",""
"4556","","image-slider-response","257","1577843","0.0-253.0","A3UKAY2FGKRMVQ","","","","","-7","","","","","","","","","","","","","","","","","","","","","",""
"4877","","image-button-response","258","1582846","0.0-254.0","A3UKAY2FGKRMVQ","img_art/26.jpg","0","","","","","","","","","","","","","","","","","","","","","","","","",""
"330","","image-button-response","259","1583179","0.0-255.0","A3UKAY2FGKRMVQ","img_art/26.jpg","2","","","","","","","","","","","","","","","","","","","","","","","","",""
"709","","image-button-response","260","1583891","0.0-256.0-0.0","A3UKAY2FGKRMVQ","img_art/26.jpg","5","","","","","","","","","","","","","","","","","","","","","","","","",""
"413","","image-button-response","261","1584307","0.0-257.0-0.0","A3UKAY2FGKRMVQ","img_art/26.jpg","3","","","","","","","","","","","","","","","","","","","","","","","","",""
"null","","html-keyboard-response","262","1584809","0.0-258.0","A3UKAY2FGKRMVQ","<p style=""font-size: 48px;"">+</p>","","","","","null","allTrialResponses","500","1","30","img_art/26.jpg","-7","looks bad","Alexandria,Alexis,Sara,Katie,Jennifer,Margaret","makes me happy and reminds me of a paris courtyard,29,80,20","Much too simple and without color for my taste,-33,100,20","I can somewhat city a city in this drawing,11,160,20","Reminds me of watercolor. Muted tones and blurry soft brush strokes. Calm to me.,1,160,20","This picture doesn't really stand out.,0,380,20","its boring and i dont like the color palette,3,100,20","Sara","I can somewhat city a city in this drawing,11,160,20","Margaret","its boring and i dont like the color palette,3,100,20","Katie","Reminds me of watercolor. Muted tones and blurry soft brush strokes. Calm to me.,1,160,20","4"
"9744","","image-button-response_instructions","263","1594566","0.0-259.0","A3UKAY2FGKRMVQ","","0","instructions","","","","","","","","","","","","","","","","","","","","","","","",""
"1431","","image-button-response","264","1596015","0.0-260.0","A3UKAY2FGKRMVQ","","0","","","","","","","","","","","","","","","","","","","","","","","","",""
