"rt","url","trial_type","trial_index","time_elapsed","internal_node_id","participant_id","stimulus","button_pressed","Name","responses","response","key_press","variableName","fixationTime","condition","trial","photo","subjectRating","subjectResponse","agentsNames","agent_1_Response","agent_2_Response","agent_3_Response","agent_4_Response","agent_5_Response","agent_6_Response","kept_1_name","kept_1_response","kept_2_name","kept_2_response","kept_3_name","kept_3_response","errorCounter"
"8514","external_page_harvard.html","external-html","0","8664","0.0-0.0","A3US4NGKXBVI48","","","","","","","","","","","","","","","","","","","","","","","","","","",""
"1189","","image-button-response","1","9855","0.0-1.0","A3US4NGKXBVI48","","0","","","","","","","","","","","","","","","","","","","","","","","","",""
"2131","","image-button-response","2","11990","0.0-2.0-0.0","A3US4NGKXBVI48","","1","phone","","","","","","","","","","","","","","","","","","","","","","","",""
"2159","","survey-text","3","14150","0.0-3.0-0.0","A3US4NGKXBVI48","","","","{""Q0"":""A3US4NGKXBVI48""}","","","","","","","","","","","","","","","","","","","","","","",""
"443819","","image-button-response_instructions","4","457971","0.0-4.0","A3US4NGKXBVI48","","0","instructions","","","","","","","","","","","","","","","","","","","","","","","",""
"17279","","image-button-response_instructions","5","475250","0.0-5.0","A3US4NGKXBVI48","img_art/ins/popularity/ins1.png","0","instructions","","","","","","","","","","","","","","","","","","","","","","","",""
"4583","","image-button-response_instructions","6","479834","0.0-6.0","A3US4NGKXBVI48","img_art/ins/popularity/ins2.png","0","instructions","","","","","","","","","","","","","","","","","","","","","","","",""
"2271","","image-button-response_instructions","7","482106","0.0-7.0","A3US4NGKXBVI48","img_art/ins/popularity/ins2Extreme.png","0","instructions","","","","","","","","","","","","","","","","","","","","","","","",""
"458346","","image-button-response_instructions","8","940453","0.0-8.0","A3US4NGKXBVI48","img_art/ins/popularity/ins3KEEPpop.PNG","0","instructions","","","","","","","","","","","","","","","","","","","","","","","",""
"7334","","image-button-response_instructions","9","947789","0.0-9.0","A3US4NGKXBVI48","img_art/ins/popularity/ins3ANamepop.PNG","0","instructions","","","","","","","","","","","","","","","","","","","","","","","",""
"2494","","image-button-response_instructions","10","950285","0.0-10.0","A3US4NGKXBVI48","img_art/ins/popularity/ins3ARatingpop.png","0","instructions","","","","","","","","","","","","","","","","","","","","","","","",""
"1902","","image-button-response_instructions","11","952189","0.0-11.0","A3US4NGKXBVI48","img_art/ins/popularity/ins3ATextpop.png","0","instructions","","","","","","","","","","","","","","","","","","","","","","","",""
"7470","","image-button-response_instructions","12","959661","0.0-12.0","A3US4NGKXBVI48","img_art/ins/popularity/ins3ALikespop.png","0","instructions","","","","","","","","","","","","","","","","","","","","","","","",""
"96630","","image-button-response_instructions","13","1056293","0.0-13.0","A3US4NGKXBVI48","img_art/ins/popularity/ins3KEEPpop.PNG","0","instructions","","","","","","","","","","","","","","","","","","","","","","","",""
"8533","","image-button-response_instructions","14","1064828","0.0-14.0","A3US4NGKXBVI48","img_art/ins/popularity/ins3_5RED.png","0","instructions","","","","","","","","","","","","","","","","","","","","","","","",""
"4934","","image-button-response_instructions","15","1069764","0.0-15.0","A3US4NGKXBVI48","img_art/ins/popularity/ins3KEEPpop.PNG","0","instructions","","","","","","","","","","","","","","","","","","","","","","","",""
"4423","","image-button-response_instructions","16","1074188","0.0-16.0","A3US4NGKXBVI48","img_art/ins/popularity/ins4KEEPpop.PNG","0","instructions","","","","","","","","","","","","","","","","","","","","","","","",""
"7591","","image-button-response_instructions","17","1081780","0.0-17.0","A3US4NGKXBVI48","img_art/ins/popularity/ins5KEEPpop.PNG","0","instructions","","","","","","","","","","","","","","","","","","","","","","","",""
"2039","","image-button-response_instructions","18","1083820","0.0-18.0","A3US4NGKXBVI48","","0","instructions","","","","","","","","","","","","","","","","","","","","","","","",""
"6606","","survey-text","19","1090452","0.0-19.0-0.0","A3US4NGKXBVI48","","","","{""Q0"":""but""}","","","","","","","","","","","","","","","","","","","","","","",""
"41973","","survey-text","20","1132427","0.0-20.0-0.0","A3US4NGKXBVI48","","","","{""Q0"":""The painting looks like a barrier of energy""}","","","","","","","","","","","","","","","","","","","","","","",""
"3549.5999999996275","","image-slider-response","21","1135979","0.0-21.0","A3US4NGKXBVI48","","","","","10","","","","","","","","","","","","","","","","","","","","","",""
"null","","image-button-response","22","1140988","0.0-22.0","A3US4NGKXBVI48","img_art/ins/1.jpg","null","","","","","","","","","","","","","","","","","","","","","","","","",""
"165116","","image-button-response","23","1306106","0.0-23.0","A3US4NGKXBVI48","img_art/ins/1.jpg","1","","","","","","","","","","","","","","","","","","","","","","","","",""
"3525","","image-button-response","24","1309634","0.0-24.0-0.0","A3US4NGKXBVI48","img_art/ins/1.jpg","4","","","","","","","","","","","","","","","","","","","","","","","","",""
"2846","","image-button-response","25","1312482","0.0-25.0-0.0","A3US4NGKXBVI48","img_art/ins/1.jpg","3","","","","","","","","","","","","","","","","","","","","","","","","",""
"null","","html-keyboard-response","26","1313984","0.0-26.0","A3US4NGKXBVI48","<p style=""font-size: 48px;"">+</p>","","","","","null","allTrialResponses","1500","1","-2","img_art/ins/1.jpg","10","The painting looks like a barrier of energy","Adam,Alex,Ben,Carl,Daniel,Jack","Seems like doodles,-20,20,20","very creative work.,36,40,20","This color reminds me of poo,-46,60,20","very calming artwork,42,80,20","It looks like a murder scene.,-48,100,20","I like the sophisticated brushwork,40,120,20","Alex","very creative work.,36,40,20","Daniel","It looks like a murder scene.,-48,100,20","Carl","very calming artwork,42,80,20","0"
"66628","","survey-text","27","1380617","0.0-27.0-0.0","A3US4NGKXBVI48","","","","{""Q0"":""Looks like a red house with black roof and towers on the sides. ""}","","","","","","","","","","","","","","","","","","","","","","",""
"2557.89999999851","","image-slider-response","28","1383177","0.0-28.0","A3US4NGKXBVI48","","","","","22","","","","","","","","","","","","","","","","","","","","","",""
"null","","image-button-response","29","1388179","0.0-29.0","A3US4NGKXBVI48","img_art/ins/2.jpg","null","","","","","","","","","","","","","","","","","","","","","","","","",""
"3348","","image-button-response","30","1391529","0.0-30.0","A3US4NGKXBVI48","img_art/ins/2.jpg","2","","","","","","","","","","","","","","","","","","","","","","","","",""
"4286","","image-button-response","31","1395817","0.0-31.0-0.0","A3US4NGKXBVI48","img_art/ins/2.jpg","3","","","","","","","","","","","","","","","","","","","","","","","","",""
"541","","image-button-response","32","1396361","0.0-32.0-0.0","A3US4NGKXBVI48","img_art/ins/2.jpg","1","","","","","","","","","","","","","","","","","","","","","","","","",""
"null","","html-keyboard-response","33","1397863","0.0-33.0","A3US4NGKXBVI48","<p style=""font-size: 48px;"">+</p>","","","","","null","allTrialResponses","1500","1","-1","img_art/ins/2.jpg","22","Looks like a red house with black roof and towers on the sides. ","James,Alex,John,Carl,Daniel,Kyle","looks too angry,-50,140,20","I like the blocks of color arrangements,30,40,20","love the texture of paint,48,160,20","I can feel the artist's passion in it,45,80,20","One of my pet peevs,-48,100,20","Idk, it is just annoying,-32,180,20","John","love the texture of paint,48,160,20","Carl","I can feel the artist's passion in it,45,80,20","Alex","I like the blocks of color arrangements,30,40,20","0"
"26557","","survey-text","34","1424424","0.0-34.0-0.0","A3US4NGKXBVI48","","","","{""Q0"":""struggle in the ice""}","","","","","","","","","","","","","","","","","","","","","","",""
"3470.0999999996275","","image-slider-response","35","1427896","0.0-35.0","A3US4NGKXBVI48","","","","","-2","","","","","","","","","","","","","","","","","","","","","",""
"null","","image-button-response","36","1432898","0.0-36.0","A3US4NGKXBVI48","img_art/ins/3.jpg","null","","","","","","","","","","","","","","","","","","","","","","","","",""
"1372","","image-button-response","37","1434273","0.0-37.0","A3US4NGKXBVI48","img_art/ins/3.jpg","4","","","","","","","","","","","","","","","","","","","","","","","","",""
"2198","","image-button-response","38","1436472","0.0-38.0-0.0","A3US4NGKXBVI48","img_art/ins/3.jpg","0","","","","","","","","","","","","","","","","","","","","","","","","",""
"2709","","image-button-response","39","1439184","0.0-39.0-0.0","A3US4NGKXBVI48","img_art/ins/3.jpg","2","","","","","","","","","","","","","","","","","","","","","","","","",""
"null","","html-keyboard-response","40","1440686","0.0-40.0","A3US4NGKXBVI48","<p style=""font-size: 48px;"">+</p>","","","","","null","allTrialResponses","1500","1","0","img_art/ins/3.jpg","-2","struggle in the ice","Mike,Alex,John,Carl,Ron,Sam","enjoy the different shades of blue,22,200,20","calming blue is very nice,36,40,20","I like the overlapping of brushes,41,160,20","It's an alright work,15,80,20","It looks depressing,-26,220,20","I can feel a rainy day from this painting,18,240,20","Ron","It looks depressing,-26,220,20","Mike","enjoy the different shades of blue,22,200,20","John","I like the overlapping of brushes,41,160,20","0"
"5454","","image-button-response_instructions","41","1446144","0.0-41.0","A3US4NGKXBVI48","","0","instructions","","","","","","","","","","","","","","","","","","","","","","","",""
"8839","","survey-likert","42","1454984","0.0-42.0-0.0","A3US4NGKXBVI48","","","","{""Q0"":"""",""Q1"":0,""Q2"":1}","","","","","","","","","","","","","","","","","","","","","","",""
"4455","","survey-text","43","1459448","0.0-43.0-0.0","A3US4NGKXBVI48","","","","{""Q0"":""rock""}","","","","","","","","","","","","","","","","","","","","","","",""
"20982","","survey-text","44","1480431","0.0-44.0-0.0","A3US4NGKXBVI48","","","","{""Q0"":""the strokes look neat and clean""}","","","","","","","","","","","","","","","","","","","","","","",""
"5454.4000000003725","","image-slider-response","45","1485888","0.0-45.0","A3US4NGKXBVI48","","","","","10","","","","","","","","","","","","","","","","","","","","","",""
"4670","","image-button-response","46","1490915","0.0-46.0","A3US4NGKXBVI48","img_art/30.jpg","0","","","","","","","","","","","","","","","","","","","","","","","","",""
"700","","image-button-response","47","1491616","0.0-47.0","A3US4NGKXBVI48","img_art/30.jpg","0","","","","","","","","","","","","","","","","","","","","","","","","",""
"910","","image-button-response","48","1492528","0.0-48.0-0.0","A3US4NGKXBVI48","img_art/30.jpg","0","","","","","","","","","","","","","","","","","","","","","","","","",""
"6223","","image-button-response","49","1503464","0.0-48.1-0.1","A3US4NGKXBVI48","img_art/30.jpg","5","","","","","","","","","","","","","","","","","","","","","","","","",""
"17485","","image-button-response","50","1520952","0.0-49.0-0.0","A3US4NGKXBVI48","img_art/30.jpg","4","","","","","","","","","","","","","","","","","","","","","","","","",""
"null","","html-keyboard-response","51","1522454","0.0-50.0","A3US4NGKXBVI48","<p style=""font-size: 48px;"">+</p>","","","","","null","allTrialResponses","1500","1","1","img_art/30.jpg","10","the strokes look neat and clean","Luke,Jake,Robert,Patrick,Brett,Dustin","the lines and colors look purposeful,18,20,20","This is just simple and ugly.,-2,360,20","My kindergarten class could do this,-50,360,20","I don't like the blended colors,-20,280,20","I can't figure this out,25,360,20","Soothing color palette, but doesn't look like anything. All I see are random brush strokes.,1,20,20","Luke","the lines and colors look purposeful,18,20,20","Dustin","Soothing color palette, but doesn't look like anything. All I see are random brush strokes.,1,20,20","Brett","I can't figure this out,25,360,20","2"
"16381","","survey-text","52","1538839","0.0-51.0-0.0","A3US4NGKXBVI48","","","","{""Q0"":""looks like a bloody head""}","","","","","","","","","","","","","","","","","","","","","","",""
"3294.0999999996275","","image-slider-response","53","1542135","0.0-52.0","A3US4NGKXBVI48","","","","","12","","","","","","","","","","","","","","","","","","","","","",""
"2567","","image-button-response","54","1547138","0.0-53.0","A3US4NGKXBVI48","img_art/3.jpg","1","","","","","","","","","","","","","","","","","","","","","","","","",""
"8604","","image-button-response","55","1555744","0.0-54.0","A3US4NGKXBVI48","img_art/3.jpg","4","","","","","","","","","","","","","","","","","","","","","","","","",""
"1078","","image-button-response","56","1556823","0.0-55.0-0.0","A3US4NGKXBVI48","img_art/3.jpg","0","","","","","","","","","","","","","","","","","","","","","","","","",""
"1550","","image-button-response","57","1558375","0.0-56.0-0.0","A3US4NGKXBVI48","img_art/3.jpg","1","","","","","","","","","","","","","","","","","","","","","","","","",""
"null","","html-keyboard-response","58","1558878","0.0-57.0","A3US4NGKXBVI48","<p style=""font-size: 48px;"">+</p>","","","","","null","allTrialResponses","500","1","2","img_art/3.jpg","12","looks like a bloody head","Luke,Shane,Brandon,Daniel,Brett,Dustin","it makes me feel really angry,-20,20,20","Too much red or blood,-28,80,20","Just scribbles. Not a fan.,-40,320,20","5 min scribble by a 3 year old,-46,320,20","Confusion and mayhem,-10,360,20","Messy. Looks like a children's drawing being passed off as expensive art. Too much red.,-50,20,20","Brett","Confusion and mayhem,-10,360,20","Luke","it makes me feel really angry,-20,20,20","Shane","Too much red or blood,-28,80,20","2"
"21300","","survey-text","59","1580183","0.0-58.0-0.0","A3US4NGKXBVI48","","","","{""Q0"":""a flower or bee end?""}","","","","","","","","","","","","","","","","","","","","","","",""
"2854.2000000011176","","image-slider-response","60","1583039","0.0-59.0","A3US4NGKXBVI48","","","","","-18","","","","","","","","","","","","","","","","","","","","","",""
"4903","","image-button-response","61","1588056","0.0-60.0","A3US4NGKXBVI48","img_art/5.jpg","0","","","","","","","","","","","","","","","","","","","","","","","","",""
"1701","","image-button-response","62","1589759","0.0-61.0","A3US4NGKXBVI48","img_art/5.jpg","0","","","","","","","","","","","","","","","","","","","","","","","","",""
"7510","","image-button-response","63","1597271","0.0-62.0-0.0","A3US4NGKXBVI48","img_art/5.jpg","4","","","","","","","","","","","","","","","","","","","","","","","","",""
"7909","","image-button-response","64","1605183","0.0-63.0-0.0","A3US4NGKXBVI48","img_art/5.jpg","3","","","","","","","","","","","","","","","","","","","","","","","","",""
"null","","html-keyboard-response","65","1606685","0.0-64.0","A3US4NGKXBVI48","<p style=""font-size: 48px;"">+</p>","","","","","null","allTrialResponses","1500","1","3","img_art/5.jpg","-18","a flower or bee end?","Luke,Shane,Cole,Victor,Brett,Jacob","no clear emotion,-16,20,20","Seems clean and neat,11,80,20","It looks like a poorly drawn pear,17,200,20","I like these colors together and the tiny splatters, but what is this?,7,340,20","It reminds me of a piece of lemon candy, which is one of my favorite flavors,20,360,20","Don't really know the point of this one.,-11,340,20","Luke","no clear emotion,-16,20,20","Brett","It reminds me of a piece of lemon candy, which is one of my favorite flavors,20,360,20","Victor","I like these colors together and the tiny splatters, but what is this?,7,340,20","2"
"20141","","survey-text","66","1626830","0.0-65.0-0.0","A3US4NGKXBVI48","","","","{""Q0"":""a tree seen from a balcony""}","","","","","","","","","","","","","","","","","","","","","","",""
"3838.0999999996275","","image-slider-response","67","1630670","0.0-66.0","A3US4NGKXBVI48","","","","","42","","","","","","","","","","","","","","","","","","","","","",""
"null","","image-button-response","68","1635674","0.0-67.0","A3US4NGKXBVI48","img_art/17.jpg","null","","","","","","","","","","","","","","","","","","","","","","","","",""
"347","","image-button-response","69","1636024","0.0-68.0","A3US4NGKXBVI48","img_art/17.jpg","3","","","","","","","","","","","","","","","","","","","","","","","","",""
"3101","","image-button-response","70","1639127","0.0-69.0-0.0","A3US4NGKXBVI48","img_art/17.jpg","4","","","","","","","","","","","","","","","","","","","","","","","","",""
"2949","","image-button-response","71","1642079","0.0-70.0-0.0","A3US4NGKXBVI48","img_art/17.jpg","2","","","","","","","","","","","","","","","","","","","","","","","","",""
"null","","html-keyboard-response","72","1643080","0.0-71.0","A3US4NGKXBVI48","<p style=""font-size: 48px;"">+</p>","","","","","null","allTrialResponses","1000","1","4","img_art/17.jpg","42","a tree seen from a balcony","Luke,Peter,Travis,Victor,Brett,Angel","it looks very intricate and colorful,50,20,20","I feel okay , it's like a tree,28,320,20","Very pretty...the colors and good and flow well.,33,260,20","cool. Sharp and blocky below, light and flowing on top. Overall pleasing to look at,32,340,20","Looks like an explosion of pretty artwork,45,360,20","Reminds me of the modern art museum in Rome. I didn't ""get"" many pieces, but had a positive cultural experience overall.,20,180,20","Victor","cool. Sharp and blocky below, light and flowing on top. Overall pleasing to look at,32,340,20","Brett","Looks like an explosion of pretty artwork,45,360,20","Travis","Very pretty...the colors and good and flow well.,33,260,20","2"
"244591","","survey-text","73","1887675","0.0-72.0-0.0","A3US4NGKXBVI48","","","","{""Q0"":""splatter paint on strips of wall paint""}","","","","","","","","","","","","","","","","","","","","","","",""
"2950.10000000149","","image-slider-response","74","1890627","0.0-73.0","A3US4NGKXBVI48","","","","","-28","","","","","","","","","","","","","","","","","","","","","",""
"null","","image-button-response","75","1895630","0.0-74.0","A3US4NGKXBVI48","img_art/13.jpg","null","","","","","","","","","","","","","","","","","","","","","","","","",""
"6372","","image-button-response","76","1902004","0.0-75.0","A3US4NGKXBVI48","img_art/13.jpg","5","","","","","","","","","","","","","","","","","","","","","","","","",""
"830","","image-button-response","77","1902836","0.0-76.0-0.0","A3US4NGKXBVI48","img_art/13.jpg","0","","","","","","","","","","","","","","","","","","","","","","","","",""
"4070","","image-button-response","78","1906908","0.0-77.0-0.0","A3US4NGKXBVI48","img_art/13.jpg","3","","","","","","","","","","","","","","","","","","","","","","","","",""
"null","","html-keyboard-response","79","1908410","0.0-78.0","A3US4NGKXBVI48","<p style=""font-size: 48px;"">+</p>","","","","","null","allTrialResponses","1500","1","5","img_art/13.jpg","-28","splatter paint on strips of wall paint","Lucas,Kevin,Travis,Victor,Brett,Alexis","Incredible, curious.,20,380,20","Debree on top of a calm pond.,18,320,20","I love the colors and the texture,37,260,20","Great color balance. I like the splatter, and how the vertical lines go from sharper to more blended.,31,340,20","Very abstract and soothing,40,360,20","It looks too common, is a bit boring,-41,140,20","Alexis","It looks too common, is a bit boring,-41,140,20","Lucas","Incredible, curious.,20,380,20","Victor","Great color balance. I like the splatter, and how the vertical lines go from sharper to more blended.,31,340,20","2"
"4128","","survey-text","80","1912547","0.0-79.0-0.0","A3US4NGKXBVI48","","","","{""Q0"":""sky""}","","","","","","","","","","","","","","","","","","","","","","",""
"16119","","survey-text","81","1928667","0.0-80.0-0.0","A3US4NGKXBVI48","","","","{""Q0"":""a snail trail ""}","","","","","","","","","","","","","","","","","","","","","","",""
"3365.9000000003725","","image-slider-response","82","1932035","0.0-81.0","A3US4NGKXBVI48","","","","","9","","","","","","","","","","","","","","","","","","","","","",""
"null","","image-button-response","83","1937043","0.0-82.0","A3US4NGKXBVI48","img_art/4.jpg","null","","","","","","","","","","","","","","","","","","","","","","","","",""
"18533","","image-button-response","84","1955579","0.0-83.0","A3US4NGKXBVI48","img_art/4.jpg","4","","","","","","","","","","","","","","","","","","","","","","","","",""
"1174","","image-button-response","85","1956756","0.0-84.0-0.0","A3US4NGKXBVI48","img_art/4.jpg","5","","","","","","","","","","","","","","","","","","","","","","","","",""
"2518","","image-button-response","86","1959275","0.0-85.0-0.0","A3US4NGKXBVI48","img_art/4.jpg","0","","","","","","","","","","","","","","","","","","","","","","","","",""
"null","","html-keyboard-response","87","1959777","0.0-86.0","A3US4NGKXBVI48","<p style=""font-size: 48px;"">+</p>","","","","","null","allTrialResponses","500","1","6","img_art/4.jpg","9","a snail trail ","Lucas,Dylan,Michael,Victor,Jorge,Alexis","Not bad at all.,20,380,20","This artwork looks like a child did it,-41,40,20","Looks like a child did it.,-42,140,20","Hate the color, and just do not get the point.,-13,340,20","creepy as it looks like fingernails,-23,180,20","The bold colors are exciting. It looks like a statue on someone's mantle.,18,140,20","Jorge","creepy as it looks like fingernails,-23,180,20","Alexis","The bold colors are exciting. It looks like a statue on someone's mantle.,18,140,20","Lucas","Not bad at all.,20,380,20","2"
"31486","","survey-text","88","1991267","0.0-87.0-0.0","A3US4NGKXBVI48","","","","{""Q0"":""an artistic view of the street in a village""}","","","","","","","","","","","","","","","","","","","","","","",""
"3422.0999999996275","","image-slider-response","89","1994691","0.0-88.0","A3US4NGKXBVI48","","","","","32","","","","","","","","","","","","","","","","","","","","","",""
"2838","","image-button-response","90","1999693","0.0-89.0","A3US4NGKXBVI48","img_art/19.jpg","0","","","","","","","","","","","","","","","","","","","","","","","","",""
"2260","","image-button-response","91","2001955","0.0-90.0","A3US4NGKXBVI48","img_art/19.jpg","0","","","","","","","","","","","","","","","","","","","","","","","","",""
"1974","","image-button-response","92","2003931","0.0-91.0-0.0","A3US4NGKXBVI48","img_art/19.jpg","1","","","","","","","","","","","","","","","","","","","","","","","","",""
"1438","","image-button-response","93","2005371","0.0-92.0-0.0","A3US4NGKXBVI48","img_art/19.jpg","3","","","","","","","","","","","","","","","","","","","","","","","","",""
"null","","html-keyboard-response","94","2005873","0.0-93.0","A3US4NGKXBVI48","<p style=""font-size: 48px;"">+</p>","","","","","null","allTrialResponses","500","1","7","img_art/19.jpg","32","an artistic view of the street in a village","Lucas,Isaiah,Chase,Bryan,Jorge,Alexis","I can see kind of beach and sea full of people and buildings.,25,380,20","I feel a little anxious and happy. I'm about to walk into a market and any number of treasures could be found,14,300,20","This is just a mess.,-30,120,20","Looks like a child's rendering of a city street but not too sure.,0,400,20","confused and emotional,-4,180,20","it looks messy and non-unique.,-9,140,20","Lucas","I can see kind of beach and sea full of people and buildings.,25,380,20","Isaiah","I feel a little anxious and happy. I'm about to walk into a market and any number of treasures could be found,14,300,20","Bryan","Looks like a child's rendering of a city street but not too sure.,0,400,20","2"
"26182","","survey-text","95","2032058","0.0-94.0-0.0","A3US4NGKXBVI48","","","","{""Q0"":""a bird on a sunset rock""}","","","","","","","","","","","","","","","","","","","","","","",""
"2910.300000000745","","image-slider-response","96","2034970","0.0-95.0","A3US4NGKXBVI48","","","","","42","","","","","","","","","","","","","","","","","","","","","",""
"4110","","image-button-response","97","2039973","0.0-96.0","A3US4NGKXBVI48","img_art/6.jpg","1","","","","","","","","","","","","","","","","","","","","","","","","",""
"140","","image-button-response","98","2040115","0.0-97.0","A3US4NGKXBVI48","img_art/6.jpg","1","","","","","","","","","","","","","","","","","","","","","","","","",""
"6694","","image-button-response","99","2046811","0.0-98.0-0.0","A3US4NGKXBVI48","img_art/6.jpg","4","","","","","","","","","","","","","","","","","","","","","","","","",""
"2614","","image-button-response","100","2049426","0.0-99.0-0.0","A3US4NGKXBVI48","img_art/6.jpg","2","","","","","","","","","","","","","","","","","","","","","","","","",""
"null","","html-keyboard-response","101","2050928","0.0-100.0","A3US4NGKXBVI48","<p style=""font-size: 48px;"">+</p>","","","","","null","allTrialResponses","1500","1","8","img_art/6.jpg","42","a bird on a sunset rock","Lucas,Isaiah,Kyle,Bryan,Kenneth,Gregory","Nothing special.,-20,380,20","The painting makes me happy. Like I'm looking at a little bird.,6,300,20","Simple and clean,11,340,20","Growth in the desert?  Don't care for it very much.,-26,400,20","Simple and pretty.,18,300,20","Tree growing in a desert. Gives me feelings of hope,5,220,20","Isaiah","The painting makes me happy. Like I'm looking at a little bird.,6,300,20","Kenneth","Simple and pretty.,18,300,20","Kyle","Simple and clean,11,340,20","2"
"25693","","survey-text","102","2076626","0.0-101.0-0.0","A3US4NGKXBVI48","","","","{""Q0"":""look like a closeup of a rock ""}","","","","","","","","","","","","","","","","","","","","","","",""
"2030.6000000014901","","image-slider-response","103","2078658","0.0-102.0","A3US4NGKXBVI48","","","","","-13","","","","","","","","","","","","","","","","","","","","","",""
"4246","","image-button-response","104","2083661","0.0-103.0","A3US4NGKXBVI48","img_art/7.jpg","3","","","","","","","","","","","","","","","","","","","","","","","","",""
"587","","image-button-response","105","2084250","0.0-104.0","A3US4NGKXBVI48","img_art/7.jpg","3","","","","","","","","","","","","","","","","","","","","","","","","",""
"7158","","image-button-response","106","2091410","0.0-105.0-0.0","A3US4NGKXBVI48","img_art/7.jpg","1","","","","","","","","","","","","","","","","","","","","","","","","",""
"2774","","image-button-response","107","2094186","0.0-106.0-0.0","A3US4NGKXBVI48","img_art/7.jpg","2","","","","","","","","","","","","","","","","","","","","","","","","",""
"null","","html-keyboard-response","108","2095188","0.0-107.0","A3US4NGKXBVI48","<p style=""font-size: 48px;"">+</p>","","","","","null","allTrialResponses","1000","1","9","img_art/7.jpg","-13","look like a closeup of a rock ","Joshua,Isaiah,Kyle,Jared,Kenneth,Nicholas","Looks almost like a photograph of nature.,11,240,20","I feel relaxed and a little nostalgic, like I'm exploring the wall of a very old building.,18,300,20","It just reminds me of dirt,-10,340,20","it looks like a dog ran through some wet cement,-22,400,20","My firs thought was ""gross""...not sure what this is and I dont think i want to know.,-19,300,20","Makes me want to feel it,19,240,20","Jared","it looks like a dog ran through some wet cement,-22,400,20","Isaiah","I feel relaxed and a little nostalgic, like I'm exploring the wall of a very old building.,18,300,20","Kyle","It just reminds me of dirt,-10,340,20","2"
"22673","","survey-text","109","2117865","0.0-108.0-0.0","A3US4NGKXBVI48","","","","{""Q0"":""a hidden figure behind many feelings""}","","","","","","","","","","","","","","","","","","","","","","",""
"1998.300000000745","","image-slider-response","110","2119865","0.0-109.0","A3US4NGKXBVI48","","","","","35","","","","","","","","","","","","","","","","","","","","","",""
"null","","image-button-response","111","2124868","0.0-110.0","A3US4NGKXBVI48","img_art/1.jpg","null","","","","","","","","","","","","","","","","","","","","","","","","",""
"1604","","image-button-response","112","2126473","0.0-111.0","A3US4NGKXBVI48","img_art/1.jpg","4","","","","","","","","","","","","","","","","","","","","","","","","",""
"654","","image-button-response","113","2127130","0.0-112.0-0.0","A3US4NGKXBVI48","img_art/1.jpg","1","","","","","","","","","","","","","","","","","","","","","","","","",""
"333","","image-button-response","114","2127465","0.0-113.0-0.0","A3US4NGKXBVI48","img_art/1.jpg","0","","","","","","","","","","","","","","","","","","","","","","","","",""
"null","","html-keyboard-response","115","2128469","0.0-114.0","A3US4NGKXBVI48","<p style=""font-size: 48px;"">+</p>","","","","","null","allTrialResponses","1000","1","10","img_art/1.jpg","35","a hidden figure behind many feelings","Alexander,Isaiah,Kyle,Jared,Blake,Jeremy","Flat colors with no flavor.,5,120,20","I feel relaxed, like I'm watching the leaves change color.,17,300,20","Too similar to some of the other pieces,-18,340,20","there isnt anything clear to look at,-2,400,20","colors that are fairly warm. its ok,8,280,20","fearful. Makes me think of fire,-10,60,20","Blake","colors that are fairly warm. its ok,8,280,20","Isaiah","I feel relaxed, like I'm watching the leaves change color.,17,300,20","Alexander","Flat colors with no flavor.,5,120,20","2"
"3069","","survey-text","116","2131546","0.0-115.0-0.0","A3US4NGKXBVI48","","","","{""Q0"":""our""}","","","","","","","","","","","","","","","","","","","","","","",""
"113997","","survey-text","117","2245544","0.0-116.0-0.0","A3US4NGKXBVI48","","","","{""Q0"":""looks like a crime scene in an art room""}","","","","","","","","","","","","","","","","","","","","","","",""
"6558.199999999255","","image-slider-response","118","2252104","0.0-117.0","A3US4NGKXBVI48","","","","","37","","","","","","","","","","","","","","","","","","","","","",""
"null","","image-button-response","119","2257109","0.0-118.0","A3US4NGKXBVI48","img_art/29.jpg","null","","","","","","","","","","","","","","","","","","","","","","","","",""
"5025","","image-button-response","120","2262137","0.0-119.0","A3US4NGKXBVI48","img_art/29.jpg","5","","","","","","","","","","","","","","","","","","","","","","","","",""
"1662","","image-button-response","121","2263801","0.0-120.0-0.0","A3US4NGKXBVI48","img_art/29.jpg","2","","","","","","","","","","","","","","","","","","","","","","","","",""
"2870","","image-button-response","122","2266673","0.0-121.0-0.0","A3US4NGKXBVI48","img_art/29.jpg","4","","","","","","","","","","","","","","","","","","","","","","","","",""
"null","","html-keyboard-response","123","2267674","0.0-122.0","A3US4NGKXBVI48","<p style=""font-size: 48px;"">+</p>","","","","","null","allTrialResponses","1000","1","11","img_art/29.jpg","37","looks like a crime scene in an art room","Alexander,Isaiah,Anthony,Gabriel,Blake,Jeffrey","Tested and failed a lot of ideas.,-20,120,20","I feel a little disgust. There is something off-putting about the smooth shapes and dark colors.,-43,300,20","Very interesting composition,41,200,20","dont like this one,-20,160,20","a hot fireplace with things to burn. warm,12,280,20","Looks like an accident more than an art to me,-26,40,20","Jeffrey","Looks like an accident more than an art to me,-26,40,20","Anthony","Very interesting composition,41,200,20","Blake","a hot fireplace with things to burn. warm,12,280,20","2"
"253047","","survey-text","124","2520726","0.0-123.0-0.0","A3US4NGKXBVI48","","","","{""Q0"":""a mouse looking down at big face cat""}","","","","","","","","","","","","","","","","","","","","","","",""
"2414.0999999996275","","image-slider-response","125","2523142","0.0-124.0","A3US4NGKXBVI48","","","","","34","","","","","","","","","","","","","","","","","","","","","",""
"null","","image-button-response","126","2528144","0.0-125.0","A3US4NGKXBVI48","img_art/28.jpg","null","","","","","","","","","","","","","","","","","","","","","","","","",""
"12156","","image-button-response","127","2540302","0.0-126.0","A3US4NGKXBVI48","img_art/28.jpg","3","","","","","","","","","","","","","","","","","","","","","","","","",""
"5782","","image-button-response","128","2546086","0.0-127.0-0.0","A3US4NGKXBVI48","img_art/28.jpg","1","","","","","","","","","","","","","","","","","","","","","","","","",""
"30","","image-button-response","129","2546118","0.0-128.0-0.0","A3US4NGKXBVI48","img_art/28.jpg","1","","","","","","","","","","","","","","","","","","","","","","","","",""
"623","","image-button-response","130","2550502","0.0-128.1-0.1","A3US4NGKXBVI48","img_art/28.jpg","4","","","","","","","","","","","","","","","","","","","","","","","","",""
"null","","html-keyboard-response","131","2552003","0.0-129.0","A3US4NGKXBVI48","<p style=""font-size: 48px;"">+</p>","","","","","null","allTrialResponses","1500","1","12","img_art/28.jpg","34","a mouse looking down at big face cat","Marcus,Juan,Anthony,Antonio,Blake,Jeffrey","This reminds me of internal organs.,-10,60,20","It's such a blah piece and way too abstract.,-50,260,20","This picture doesn't really stand out to me,1,200,20","Colors are pleasing. Made me think of two people kneeling and talking. A curious feeling.,15,220,20","an old woman in a wheelchair. sad,-35,280,20","Nothing calls my attention,15,40,20","Antonio","Colors are pleasing. Made me think of two people kneeling and talking. A curious feeling.,15,220,20","Juan","It's such a blah piece and way too abstract.,-50,260,20","Blake","an old woman in a wheelchair. sad,-35,280,20","4"
"50629","","survey-text","132","2602637","0.0-130.0-0.0","A3US4NGKXBVI48","","","","{""Q0"":""looks like blue flowers in a black forest""}","","","","","","","","","","","","","","","","","","","","","","",""
"2373.9000000003725","","image-slider-response","133","2605013","0.0-131.0","A3US4NGKXBVI48","","","","","40","","","","","","","","","","","","","","","","","","","","","",""
"null","","image-button-response","134","2610015","0.0-132.0","A3US4NGKXBVI48","img_art/15.jpg","null","","","","","","","","","","","","","","","","","","","","","","","","",""
"1772","","image-button-response","135","2611789","0.0-133.0","A3US4NGKXBVI48","img_art/15.jpg","2","","","","","","","","","","","","","","","","","","","","","","","","",""
"1526","","image-button-response","136","2613317","0.0-134.0-0.0","A3US4NGKXBVI48","img_art/15.jpg","5","","","","","","","","","","","","","","","","","","","","","","","","",""
"709","","image-button-response","137","2614029","0.0-135.0-0.0","A3US4NGKXBVI48","img_art/15.jpg","3","","","","","","","","","","","","","","","","","","","","","","","","",""
"null","","html-keyboard-response","138","2615042","0.0-136.0","A3US4NGKXBVI48","<p style=""font-size: 48px;"">+</p>","","","","","null","allTrialResponses","1000","1","13","img_art/15.jpg","40","looks like blue flowers in a black forest","Jesse,Juan,Stephen,Antonio,Blake,Charles","Doesnt trigger much of a reaction overall,-2,80,20","I don't even know what's going on here. Again, this is too abstract.,-21,260,20","I like how the black and blue clash.,14,140,20","Makes me think of a bush and flowers and spring and happy warm times,25,220,20","ugly picture and don't like it,-22,280,20","it looks like lavender,10,100,20","Stephen","I like how the black and blue clash.,14,140,20","Charles","it looks like lavender,10,100,20","Antonio","Makes me think of a bush and flowers and spring and happy warm times,25,220,20","4"
"33022","","survey-text","139","2648068","0.0-137.0-0.0","A3US4NGKXBVI48","","","","{""Q0"":""there are many items hidden in the painting""}","","","","","","","","","","","","","","","","","","","","","","",""
"2629.7999999988824","","image-slider-response","140","2650700","0.0-138.0","A3US4NGKXBVI48","","","","","41","","","","","","","","","","","","","","","","","","","","","",""
"4078","","image-button-response","141","2655703","0.0-139.0","A3US4NGKXBVI48","img_art/16.jpg","0","","","","","","","","","","","","","","","","","","","","","","","","",""
"820","","image-button-response","142","2656525","0.0-140.0","A3US4NGKXBVI48","img_art/16.jpg","2","","","","","","","","","","","","","","","","","","","","","","","","",""
"9998","","image-button-response","143","2666525","0.0-141.0-0.0","A3US4NGKXBVI48","img_art/16.jpg","1","","","","","","","","","","","","","","","","","","","","","","","","",""
"973","","image-button-response","144","2667501","0.0-142.0-0.0","A3US4NGKXBVI48","img_art/16.jpg","0","","","","","","","","","","","","","","","","","","","","","","","","",""
"null","","html-keyboard-response","145","2669002","0.0-143.0","A3US4NGKXBVI48","<p style=""font-size: 48px;"">+</p>","","","","","null","allTrialResponses","1500","1","14","img_art/16.jpg","41","there are many items hidden in the painting","Colton,Christian,Stephen,Antonio,Mason,Charles","the materials used are interesting,30,220,20","don't know how to feel, I mean I respect it but I honestly don't know about this,-12,140,20","Cute but there's a lot going on.,7,140,20","Did not like at all. I think something sinister going on in the background and the bear a diversion,-50,220,20","Don't get it. Hate it. ugly.,-44,100,20","Weird and creepy,-30,100,20","Stephen","Cute but there's a lot going on.,7,140,20","Christian","don't know how to feel, I mean I respect it but I honestly don't know about this,-12,140,20","Colton","the materials used are interesting,30,220,20","4"
"21125","","survey-text","146","2690132","0.0-144.0-0.0","A3US4NGKXBVI48","","","","{""Q0"":""a beautiful water fall in a colorful forest""}","","","","","","","","","","","","","","","","","","","","","","",""
"2638.300000000745","","image-slider-response","147","2692772","0.0-145.0","A3US4NGKXBVI48","","","","","36","","","","","","","","","","","","","","","","","","","","","",""
"null","","image-button-response","148","2697786","0.0-146.0","A3US4NGKXBVI48","img_art/24.jpg","null","","","","","","","","","","","","","","","","","","","","","","","","",""
"48855","","image-button-response","149","2746643","0.0-147.0","A3US4NGKXBVI48","img_art/24.jpg","0","","","","","","","","","","","","","","","","","","","","","","","","",""
"1637","","image-button-response","150","2748283","0.0-148.0-0.0","A3US4NGKXBVI48","img_art/24.jpg","0","","","","","","","","","","","","","","","","","","","","","","","","",""
"887","","image-button-response","151","2751955","0.0-148.1-0.1","A3US4NGKXBVI48","img_art/24.jpg","4","","","","","","","","","","","","","","","","","","","","","","","","",""
"1205","","image-button-response","152","2753163","0.0-149.0-0.0","A3US4NGKXBVI48","img_art/24.jpg","5","","","","","","","","","","","","","","","","","","","","","","","","",""
"null","","html-keyboard-response","153","2753665","0.0-150.0","A3US4NGKXBVI48","<p style=""font-size: 48px;"">+</p>","","","","","null","allTrialResponses","500","1","15","img_art/24.jpg","36","a beautiful water fall in a colorful forest","Colton,Christian,Stephen,Brian,John,Cody","reminds me of a beautiful waterfall,50,220,20","organized mess at first glance, would love to inspect this in closer proximity,39,140,20","I like how the colors mix in this one.,20,140,20","it's a nice stream, but I don't care for plain nature,-15,380,20","Beautiful.Nice use of colors and invokes feelings of serene and peace,40,120,20","Beautiful, good colors, love water,50,180,20","Colton","reminds me of a beautiful waterfall,50,220,20","John","Beautiful.Nice use of colors and invokes feelings of serene and peace,40,120,20","Cody","Beautiful, good colors, love water,50,180,20","6"
"6273","","survey-text","154","2759947","0.0-151.0-0.0","A3US4NGKXBVI48","","","","{""Q0"":""course""}","","","","","","","","","","","","","","","","","","","","","","",""
"32694","","survey-text","155","2792643","0.0-152.0-0.0","A3US4NGKXBVI48","","","","{""Q0"":""looks like a puzzle of abstract objects""}","","","","","","","","","","","","","","","","","","","","","","",""
"2278.2000000011176","","image-slider-response","156","2794922","0.0-153.0","A3US4NGKXBVI48","","","","","17","","","","","","","","","","","","","","","","","","","","","",""
"null","","image-button-response","157","2799940","0.0-154.0","A3US4NGKXBVI48","img_art/12.jpg","null","","","","","","","","","","","","","","","","","","","","","","","","",""
"893","","image-button-response","158","2800835","0.0-155.0","A3US4NGKXBVI48","img_art/12.jpg","3","","","","","","","","","","","","","","","","","","","","","","","","",""
"526","","image-button-response","159","2801363","0.0-156.0-0.0","A3US4NGKXBVI48","img_art/12.jpg","4","","","","","","","","","","","","","","","","","","","","","","","","",""
"1670","","image-button-response","160","2803035","0.0-157.0-0.0","A3US4NGKXBVI48","img_art/12.jpg","2","","","","","","","","","","","","","","","","","","","","","","","","",""
"null","","html-keyboard-response","161","2803537","0.0-158.0","A3US4NGKXBVI48","<p style=""font-size: 48px;"">+</p>","","","","","null","allTrialResponses","500","1","16","img_art/12.jpg","17","looks like a puzzle of abstract objects","Colton,Timothy,Jonathan,Ryan,John,Cody","i like the repetition,30,220,20","The shapes make me feel a bit uncomfortable,-10,240,20","I like all the squares and the colors but it feels too cluttered to me,20,140,20","The colors are beautiful and it has great composition,50,380,20","Its cool,reminiscent of Andy Warhol type of style,10,120,20","Pretty but not a huge fan of the colors,20,180,20","Ryan","The colors are beautiful and it has great composition,50,380,20","John","Its cool,reminiscent of Andy Warhol type of style,10,120,20","Jonathan","I like all the squares and the colors but it feels too cluttered to me,20,140,20","6"
"67780","","survey-text","162","2871322","0.0-159.0-0.0","A3US4NGKXBVI48","","","","{""Q0"":""silhouette of people sharing emotions ""}","","","","","","","","","","","","","","","","","","","","","","",""
"2102.2999999988824","","image-slider-response","163","2873426","0.0-160.0","A3US4NGKXBVI48","","","","","8","","","","","","","","","","","","","","","","","","","","","",""
"3638","","image-button-response","164","2878429","0.0-161.0","A3US4NGKXBVI48","img_art/23.jpg","0","","","","","","","","","","","","","","","","","","","","","","","","",""
"731","","image-button-response","165","2879162","0.0-162.0","A3US4NGKXBVI48","img_art/23.jpg","0","","","","","","","","","","","","","","","","","","","","","","","","",""
"670","","image-button-response","166","2879834","0.0-163.0-0.0","A3US4NGKXBVI48","img_art/23.jpg","1","","","","","","","","","","","","","","","","","","","","","","","","",""
"1357","","image-button-response","167","2881194","0.0-164.0-0.0","A3US4NGKXBVI48","img_art/23.jpg","2","","","","","","","","","","","","","","","","","","","","","","","","",""
"null","","html-keyboard-response","168","2881696","0.0-165.0","A3US4NGKXBVI48","<p style=""font-size: 48px;"">+</p>","","","","","null","allTrialResponses","500","1","17","img_art/23.jpg","8","silhouette of people sharing emotions ","Zachary,Tyler,Jonathan,Ryan,John,Matthew","Vivid colors and the white in the middle looks like people dancing.,31,400,20","Looks celebratory and joyful! However, the photograph does not do the original work's colors justice.,27,320,20","Those colors are awesome! And I love the strip of negative space that almost looks like a line of people,50,140,20","One of my favorites, love the colors and how the white looks like humans,50,380,20","Very bright and eye catching.The White silhouettes remind me of people celebrating.,31,120,20","A line dance, it's really strinkingly beautiful.,50,120,20","Zachary","Vivid colors and the white in the middle looks like people dancing.,31,400,20","Tyler","Looks celebratory and joyful! However, the photograph does not do the original work's colors justice.,27,320,20","Jonathan","Those colors are awesome! And I love the strip of negative space that almost looks like a line of people,50,140,20","6"
"34381","","survey-text","169","2916082","0.0-166.0-0.0","A3US4NGKXBVI48","","","","{""Q0"":""a doodle over clouds and the sun""}","","","","","","","","","","","","","","","","","","","","","","",""
"2406.199999999255","","image-slider-response","170","2918489","0.0-167.0","A3US4NGKXBVI48","","","","","-31","","","","","","","","","","","","","","","","","","","","","",""
"4998","","image-button-response","171","2923491","0.0-168.0","A3US4NGKXBVI48","img_art/27.jpg","4","","","","","","","","","","","","","","","","","","","","","","","","",""
"221","","image-button-response","172","2923714","0.0-169.0","A3US4NGKXBVI48","img_art/27.jpg","4","","","","","","","","","","","","","","","","","","","","","","","","",""
"606","","image-button-response","173","2924322","0.0-170.0-0.0","A3US4NGKXBVI48","img_art/27.jpg","5","","","","","","","","","","","","","","","","","","","","","","","","",""
"2198","","image-button-response","174","2926522","0.0-171.0-0.0","A3US4NGKXBVI48","img_art/27.jpg","1","","","","","","","","","","","","","","","","","","","","","","","","",""
"null","","html-keyboard-response","175","2927032","0.0-172.0","A3US4NGKXBVI48","<p style=""font-size: 48px;"">+</p>","","","","","null","allTrialResponses","500","1","18","img_art/27.jpg","-31","a doodle over clouds and the sun","Zachary,Tyler,Jonathan,Devon,Adrian,Elijah","Color story is boring in nature, and I feel nothing but boredom from this piece.,-20,400,20","The photographing is horribly distracting. I would feel more favorable toward the original colors/ brightness,1,320,20","Very cool colors and I like the contrast of lights and darks,30,140,20","this reminds me of simpler time,31,400,20","Looks like my niece's doodles.,-50,60,20","Not too impressed with the work,6,80,20","Adrian","Looks like my niece's doodles.,-50,60,20","Elijah","Not too impressed with the work,6,80,20","Tyler","The photographing is horribly distracting. I would feel more favorable toward the original colors/ brightness,1,320,20","6"
"20885","","survey-text","176","2947922","0.0-173.0-0.0","A3US4NGKXBVI48","","","","{""Q0"":""a lord watching over his castle from the heavens""}","","","","","","","","","","","","","","","","","","","","","","",""
"3734.2000000011176","","image-slider-response","177","2951657","0.0-174.0","A3US4NGKXBVI48","","","","","31","","","","","","","","","","","","","","","","","","","","","",""
"4550","","image-button-response","178","2956660","0.0-175.0","A3US4NGKXBVI48","img_art/8.jpg","0","","","","","","","","","","","","","","","","","","","","","","","","",""
"652","","image-button-response","179","2957314","0.0-176.0","A3US4NGKXBVI48","img_art/8.jpg","0","","","","","","","","","","","","","","","","","","","","","","","","",""
"5606","","image-button-response","180","2962922","0.0-177.0-0.0","A3US4NGKXBVI48","img_art/8.jpg","4","","","","","","","","","","","","","","","","","","","","","","","","",""
"5110","","image-button-response","181","2968034","0.0-178.0-0.0","A3US4NGKXBVI48","img_art/8.jpg","1","","","","","","","","","","","","","","","","","","","","","","","","",""
"null","","html-keyboard-response","182","2969037","0.0-179.0","A3US4NGKXBVI48","<p style=""font-size: 48px;"">+</p>","","","","","null","allTrialResponses","1000","1","19","img_art/8.jpg","31","a lord watching over his castle from the heavens","Mitchell,Tyler,Austin,Jose,Adrian,Elijah","Lost in a big city confuse as to where to go to next. No matter if you live in a mansion or homeless. Being bigger than what is going on around you,30,180,20","The composition is striking, and some of the images are quite dramatic,11,320,20","Very unique and different,31,240,20","This is really cool, I love the fragments of faces,38,200,20","Pleasant colors, lots of interest. Not sure what's going on but I like it.,20,60,20","Makes me feel nice,23,80,20","Mitchell","Lost in a big city confuse as to where to go to next. No matter if you live in a mansion or homeless. Being bigger than what is going on around you,30,180,20","Adrian","Pleasant colors, lots of interest. Not sure what's going on but I like it.,20,60,20","Tyler","The composition is striking, and some of the images are quite dramatic,11,320,20","6"
"69510","","survey-text","183","3038552","0.0-180.0-0.0","A3US4NGKXBVI48","","","","{""Q0"":""looks like a face with different features of emotions""}","","","","","","","","","","","","","","","","","","","","","","",""
"2286.300000000745","","image-slider-response","184","3040840","0.0-181.0","A3US4NGKXBVI48","","","","","12","","","","","","","","","","","","","","","","","","","","","",""
"null","","image-button-response","185","3045842","0.0-182.0","A3US4NGKXBVI48","img_art/2.jpg","null","","","","","","","","","","","","","","","","","","","","","","","","",""
"1621","","image-button-response","186","3047465","0.0-183.0","A3US4NGKXBVI48","img_art/2.jpg","3","","","","","","","","","","","","","","","","","","","","","","","","",""
"1638","","image-button-response","187","3049105","0.0-184.0-0.0","A3US4NGKXBVI48","img_art/2.jpg","5","","","","","","","","","","","","","","","","","","","","","","","","",""
"966","","image-button-response","188","3050073","0.0-185.0-0.0","A3US4NGKXBVI48","img_art/2.jpg","2","","","","","","","","","","","","","","","","","","","","","","","","",""
"null","","html-keyboard-response","189","3050574","0.0-186.0","A3US4NGKXBVI48","<p style=""font-size: 48px;"">+</p>","","","","","null","allTrialResponses","500","1","20","img_art/2.jpg","12","looks like a face with different features of emotions","Mitchell,Tyler,Alex,Paul,Adrian,Cameron","Dependence. Things relying on each other. Caring,-4,180,20","Grim and overwhelming,-6,320,20","Don't like the puke green color and also too abstact,-14,100,20","I like the blue color in the center but that's it, the green is a gross color,-3,300,20","Not a fan of the colors or the style.,-31,60,20","Ugly version of that park painting.,-31,60,20","Paul","I like the blue color in the center but that's it, the green is a gross color,-3,300,20","Cameron","Ugly version of that park painting.,-31,60,20","Alex","Don't like the puke green color and also too abstact,-14,100,20","6"
"1794","","survey-text","190","3052376","0.0-187.0-0.0","A3US4NGKXBVI48","","","","{""Q0"":""we""}","","","","","","","","","","","","","","","","","","","","","","",""
"33974","","survey-text","191","3086352","0.0-188.0-0.0","A3US4NGKXBVI48","","","","{""Q0"":""a caterpillar in a hurry through dirt""}","","","","","","","","","","","","","","","","","","","","","","",""
"2278.2000000011176","","image-slider-response","192","3088632","0.0-189.0","A3US4NGKXBVI48","","","","","34","","","","","","","","","","","","","","","","","","","","","",""
"4702","","image-button-response","193","3093635","0.0-190.0","A3US4NGKXBVI48","img_art/10.jpg","4","","","","","","","","","","","","","","","","","","","","","","","","",""
"907","","image-button-response","194","3094544","0.0-191.0","A3US4NGKXBVI48","img_art/10.jpg","1","","","","","","","","","","","","","","","","","","","","","","","","",""
"2550","","image-button-response","195","3097096","0.0-192.0-0.0","A3US4NGKXBVI48","img_art/10.jpg","0","","","","","","","","","","","","","","","","","","","","","","","","",""
"1694","","image-button-response","196","3098792","0.0-193.0-0.0","A3US4NGKXBVI48","img_art/10.jpg","0","","","","","","","","","","","","","","","","","","","","","","","","",""
"310","","image-button-response","197","3102272","0.0-193.1-0.1","A3US4NGKXBVI48","img_art/10.jpg","4","","","","","","","","","","","","","","","","","","","","","","","","",""
"null","","html-keyboard-response","198","3102773","0.0-194.0","A3US4NGKXBVI48","<p style=""font-size: 48px;"">+</p>","","","","","null","allTrialResponses","500","1","21","img_art/10.jpg","34","a caterpillar in a hurry through dirt","Andrew,William,Alex,Paul,Derek,Cameron","Makes me think of the exhilaration of a roller coaster,31,160,20","absolutely beautiful piece of art,49,380,20","This could be a guitar, or it could be a completely random shape.,-3,100,20","It doesn't look pleasing to the eye, it kind of looks like an animal but a dirty one,-38,300,20","Cute and has a vintage feel to it,45,360,20","artistic cello piece?,30,60,20","William","absolutely beautiful piece of art,49,380,20","Andrew","Makes me think of the exhilaration of a roller coaster,31,160,20","Derek","Cute and has a vintage feel to it,45,360,20","8"
"22461","","survey-text","199","3125239","0.0-195.0-0.0","A3US4NGKXBVI48","","","","{""Q0"":""keys to a emotional gateway""}","","","","","","","","","","","","","","","","","","","","","","",""
"2086.4000000003725","","image-slider-response","200","3127327","0.0-196.0","A3US4NGKXBVI48","","","","","19","","","","","","","","","","","","","","","","","","","","","",""
"2230","","image-button-response","201","3132331","0.0-197.0","A3US4NGKXBVI48","img_art/22.jpg","1","","","","","","","","","","","","","","","","","","","","","","","","",""
"675","","image-button-response","202","3133008","0.0-198.0","A3US4NGKXBVI48","img_art/22.jpg","1","","","","","","","","","","","","","","","","","","","","","","","","",""
"4022","","image-button-response","203","3137032","0.0-199.0-0.0","A3US4NGKXBVI48","img_art/22.jpg","4","","","","","","","","","","","","","","","","","","","","","","","","",""
"421","","image-button-response","204","3137456","0.0-200.0-0.0","A3US4NGKXBVI48","img_art/22.jpg","5","","","","","","","","","","","","","","","","","","","","","","","","",""
"null","","html-keyboard-response","205","3137958","0.0-201.0","A3US4NGKXBVI48","<p style=""font-size: 48px;"">+</p>","","","","","null","allTrialResponses","500","1","22","img_art/22.jpg","19","keys to a emotional gateway","Andrew,William,Nathaniel,Devin,Derek,Carlos","Doesn't make me feel anything,-4,160,20","love how the colors blend,42,380,20","Looks like a giant blob,-45,220,20","I really like the colors here,3,380,20","Really pretty. Love the colors.,30,360,20","The colors are pleasant, the shapes are inviting.,21,80,20","William","love how the colors blend,42,380,20","Derek","Really pretty. Love the colors.,30,360,20","Carlos","The colors are pleasant, the shapes are inviting.,21,80,20","8"
"27478","","survey-text","206","3165441","0.0-202.0-0.0","A3US4NGKXBVI48","","","","{""Q0"":""an epic battle with figures colored vividly""}","","","","","","","","","","","","","","","","","","","","","","",""
"2116.2999999988824","","image-slider-response","207","3167559","0.0-203.0","A3US4NGKXBVI48","","","","","41","","","","","","","","","","","","","","","","","","","","","",""
"2070","","image-button-response","208","3172562","0.0-204.0","A3US4NGKXBVI48","img_art/21.jpg","1","","","","","","","","","","","","","","","","","","","","","","","","",""
"756","","image-button-response","209","3173319","0.0-205.0","A3US4NGKXBVI48","img_art/21.jpg","0","","","","","","","","","","","","","","","","","","","","","","","","",""
"471","","image-button-response","210","3173792","0.0-206.0-0.0","A3US4NGKXBVI48","img_art/21.jpg","1","","","","","","","","","","","","","","","","","","","","","","","","",""
"1046","","image-button-response","211","3174840","0.0-207.0-0.0","A3US4NGKXBVI48","img_art/21.jpg","2","","","","","","","","","","","","","","","","","","","","","","","","",""
"null","","html-keyboard-response","212","3175341","0.0-208.0","A3US4NGKXBVI48","<p style=""font-size: 48px;"">+</p>","","","","","null","allTrialResponses","500","1","23","img_art/21.jpg","41","an epic battle with figures colored vividly","Noah,William,Aaron,Tanner,Derek,Carlos","brings up imagery of the sea and clashing, though not in a negative way,31,260,20","like the colors,30,380,20","I love the colors and the differences between the left and right sides.,22,20,20","calm, ship at sea, sunset,16,180,20","I love the colors in this painting,30,360,20","Motion, the light marks in the lower right corner are very appealing.,15,80,20","Noah","brings up imagery of the sea and clashing, though not in a negative way,31,260,20","William","like the colors,30,380,20","Aaron","I love the colors and the differences between the left and right sides.,22,20,20","8"
"26101","","survey-text","213","3201447","0.0-209.0-0.0","A3US4NGKXBVI48","","","","{""Q0"":""the colors show nature in a city setting""}","","","","","","","","","","","","","","","","","","","","","","",""
"40733.70000000112","","image-slider-response","214","3242183","0.0-210.0","A3US4NGKXBVI48","","","","","27","","","","","","","","","","","","","","","","","","","","","",""
"1910","","image-button-response","215","3247186","0.0-211.0","A3US4NGKXBVI48","img_art/26.jpg","0","","","","","","","","","","","","","","","","","","","","","","","","",""
"1395","","image-button-response","216","3248583","0.0-212.0","A3US4NGKXBVI48","img_art/26.jpg","0","","","","","","","","","","","","","","","","","","","","","","","","",""
"1678","","image-button-response","217","3250263","0.0-213.0-0.0","A3US4NGKXBVI48","img_art/26.jpg","1","","","","","","","","","","","","","","","","","","","","","","","","",""
"1990","","image-button-response","218","3252255","0.0-214.0-0.0","A3US4NGKXBVI48","img_art/26.jpg","5","","","","","","","","","","","","","","","","","","","","","","","","",""
"null","","html-keyboard-response","219","3253257","0.0-215.0","A3US4NGKXBVI48","<p style=""font-size: 48px;"">+</p>","","","","","null","allTrialResponses","1000","1","24","img_art/26.jpg","27","the colors show nature in a city setting","Noah,William,Aaron,Alejandro,Caleb,Ethan","fairly neutral, really,8,260,20","feels a tad old,30,380,20","It looks like a watercolor I did when I was 6.,-30,20,20","Do not like water colors at all,-50,80,20","Appears childish and unfinished.,-20,40,20","I can tell it's some sort of outdoor scene. It looks very amateurish.,-9,120,20","Noah","fairly neutral, really,8,260,20","William","feels a tad old,30,380,20","Ethan","I can tell it's some sort of outdoor scene. It looks very amateurish.,-9,120,20","8"
"17472","","survey-text","220","3270734","0.0-216.0-0.0","A3US4NGKXBVI48","","","","{""Q0"":""a god surrounded by worshipers ""}","","","","","","","","","","","","","","","","","","","","","","",""
"2358.0999999996275","","image-slider-response","221","3273094","0.0-217.0","A3US4NGKXBVI48","","","","","29","","","","","","","","","","","","","","","","","","","","","",""
"null","","image-button-response","222","3278096","0.0-218.0","A3US4NGKXBVI48","img_art/25.jpg","null","","","","","","","","","","","","","","","","","","","","","","","","",""
"4972","","image-button-response","223","3283071","0.0-219.0","A3US4NGKXBVI48","img_art/25.jpg","5","","","","","","","","","","","","","","","","","","","","","","","","",""
"926","","image-button-response","224","3283999","0.0-220.0-0.0","A3US4NGKXBVI48","img_art/25.jpg","3","","","","","","","","","","","","","","","","","","","","","","","","",""
"1070","","image-button-response","225","3285071","0.0-221.0-0.0","A3US4NGKXBVI48","img_art/25.jpg","0","","","","","","","","","","","","","","","","","","","","","","","","",""
"null","","html-keyboard-response","226","3286574","0.0-222.0","A3US4NGKXBVI48","<p style=""font-size: 48px;"">+</p>","","","","","null","allTrialResponses","1500","1","25","img_art/25.jpg","29","a god surrounded by worshipers ","Noah,William,Scott,Christopher,Brendan,Ethan","I find it enjoyable - mainly because it is not art I ever expected to see,16,260,20","makes me think of a scary movie,-20,380,20","reminds me of a zombie,-36,20,20","green is really cool, and the pieces in black fit together and are interesting,20,160,20","is this an ancient woman?,-16,340,20","The artist was daring to create this. Don't love the green and black combo though.,9,120,20","Ethan","The artist was daring to create this. Don't love the green and black combo though.,9,120,20","Christopher","green is really cool, and the pieces in black fit together and are interesting,20,160,20","Noah","I find it enjoyable - mainly because it is not art I ever expected to see,16,260,20","8"
"3895","","survey-text","227","3290478","0.0-223.0-0.0","A3US4NGKXBVI48","","","","{""Q0"":""table""}","","","","","","","","","","","","","","","","","","","","","","",""
"18030","","survey-text","228","3308510","0.0-224.0-0.0","A3US4NGKXBVI48","","","","{""Q0"":""a busy city in a gloomy day""}","","","","","","","","","","","","","","","","","","","","","","",""
"3510","","image-slider-response","229","3312021","0.0-225.0","A3US4NGKXBVI48","","","","","24","","","","","","","","","","","","","","","","","","","","","",""
"null","","image-button-response","230","3317031","0.0-226.0","A3US4NGKXBVI48","img_art/11.jpg","null","","","","","","","","","","","","","","","","","","","","","","","","",""
"8653","","image-button-response","231","3325686","0.0-227.0","A3US4NGKXBVI48","img_art/11.jpg","0","","","","","","","","","","","","","","","","","","","","","","","","",""
"895","","image-button-response","232","3326583","0.0-228.0-0.0","A3US4NGKXBVI48","img_art/11.jpg","2","","","","","","","","","","","","","","","","","","","","","","","","",""
"4196","","image-button-response","233","3330782","0.0-229.0-0.0","A3US4NGKXBVI48","img_art/11.jpg","3","","","","","","","","","","","","","","","","","","","","","","","","",""
"null","","html-keyboard-response","234","3332286","0.0-230.0","A3US4NGKXBVI48","<p style=""font-size: 48px;"">+</p>","","","","","null","allTrialResponses","1500","1","26","img_art/11.jpg","24","a busy city in a gloomy day","Noah,Grant,Malik,Christopher,Miguel,Ethan","I enjoy the kandinsky-like general vibe, but the grey brings me down a bit,27,260,20","This elicits no reaction in me.,0,200,20","I want to know which skyline the artist is depicting,26,40,20","i like the gray tones with black lines and bits of color,23,160,20","Good but not eye catching,14,160,20","I don't care for the color combo. The wavy lines give dimension though.,-13,120,20","Noah","I enjoy the kandinsky-like general vibe, but the grey brings me down a bit,27,260,20","Malik","I want to know which skyline the artist is depicting,26,40,20","Christopher","i like the gray tones with black lines and bits of color,23,160,20","8"
"19172","","survey-text","235","3351470","0.0-231.0-0.0","A3US4NGKXBVI48","","","","{""Q0"":""a space shuttle flying through a city""}","","","","","","","","","","","","","","","","","","","","","","",""
"7246.5","","image-slider-response","236","3358718","0.0-232.0","A3US4NGKXBVI48","","","","","27","","","","","","","","","","","","","","","","","","","","","",""
"null","","image-button-response","237","3363721","0.0-233.0","A3US4NGKXBVI48","img_art/20.jpg","null","","","","","","","","","","","","","","","","","","","","","","","","",""
"755","","image-button-response","238","3364478","0.0-234.0","A3US4NGKXBVI48","img_art/20.jpg","2","","","","","","","","","","","","","","","","","","","","","","","","",""
"644","","image-button-response","239","3365126","0.0-235.0-0.0","A3US4NGKXBVI48","img_art/20.jpg","5","","","","","","","","","","","","","","","","","","","","","","","","",""
"398","","image-button-response","240","3365526","0.0-236.0-0.0","A3US4NGKXBVI48","img_art/20.jpg","4","","","","","","","","","","","","","","","","","","","","","","","","",""
"null","","html-keyboard-response","241","3367027","0.0-237.0","A3US4NGKXBVI48","<p style=""font-size: 48px;"">+</p>","","","","","null","allTrialResponses","1500","1","27","img_art/20.jpg","27","a space shuttle flying through a city","Noah,Richard,Malik,Christopher,Justin,David","just feels generic,-18,260,20","The white blob on the left seems out of place,-34,340,20","The artist had very strong feelings, bold colors,28,40,20","i ind of like this, it's saying something but not my style,6,160,20","The colors and the scene depicted is interesting.,13,280,20","I like how the image is depicting a scene.,10,340,20","Malik","The artist had very strong feelings, bold colors,28,40,20","David","I like how the image is depicting a scene.,10,340,20","Justin","The colors and the scene depicted is interesting.,13,280,20","8"
"24377","","survey-text","242","3391414","0.0-238.0-0.0","A3US4NGKXBVI48","","","","{""Q0"":""watching a sinking ship from a beach""}","","","","","","","","","","","","","","","","","","","","","","",""
"2124.699999999255","","image-slider-response","243","3393542","0.0-239.0","A3US4NGKXBVI48","","","","","31","","","","","","","","","","","","","","","","","","","","","",""
"null","","image-button-response","244","3398544","0.0-240.0","A3US4NGKXBVI48","img_art/14.jpg","null","","","","","","","","","","","","","","","","","","","","","","","","",""
"4677","","image-button-response","245","3403222","0.0-241.0","A3US4NGKXBVI48","img_art/14.jpg","4","","","","","","","","","","","","","","","","","","","","","","","","",""
"446","","image-button-response","246","3403670","0.0-242.0-0.0","A3US4NGKXBVI48","img_art/14.jpg","3","","","","","","","","","","","","","","","","","","","","","","","","",""
"622","","image-button-response","247","3404294","0.0-243.0-0.0","A3US4NGKXBVI48","img_art/14.jpg","5","","","","","","","","","","","","","","","","","","","","","","","","",""
"null","","html-keyboard-response","248","3404806","0.0-244.0","A3US4NGKXBVI48","<p style=""font-size: 48px;"">+</p>","","","","","null","allTrialResponses","500","1","28","img_art/14.jpg","31","watching a sinking ship from a beach","Benjamin,Mark,Malik,Edward,Justin,David","Reminds me of the outdoors.,12,260,20","Cute little plant.,15,80,20","It's alright, something I'd see in a guest bedroom,10,40,20","I just really like light and wispy things,33,60,20","The colors are good and the design is intriguing.,15,280,20","I like how balanced the piece is with its symmetrical design.,20,340,20","Justin","The colors are good and the design is intriguing.,15,280,20","Edward","I just really like light and wispy things,33,60,20","David","I like how balanced the piece is with its symmetrical design.,20,340,20","8"
"33689","","survey-text","249","3438501","0.0-245.0-0.0","A3US4NGKXBVI48","","","","{""Q0"":""warriors riding into battle""}","","","","","","","","","","","","","","","","","","","","","","",""
"1670.5","","image-slider-response","250","3440174","0.0-246.0","A3US4NGKXBVI48","","","","","31","","","","","","","","","","","","","","","","","","","","","",""
"null","","image-button-response","251","3445177","0.0-247.0","A3US4NGKXBVI48","img_art/18.jpg","null","","","","","","","","","","","","","","","","","","","","","","","","",""
"7403","","image-button-response","252","3452582","0.0-248.0","A3US4NGKXBVI48","img_art/18.jpg","0","","","","","","","","","","","","","","","","","","","","","","","","",""
"3085","","image-button-response","253","3455669","0.0-249.0-0.0","A3US4NGKXBVI48","img_art/18.jpg","4","","","","","","","","","","","","","","","","","","","","","","","","",""
"509","","image-button-response","254","3456182","0.0-250.0-0.0","A3US4NGKXBVI48","img_art/18.jpg","5","","","","","","","","","","","","","","","","","","","","","","","","",""
"null","","html-keyboard-response","255","3457684","0.0-251.0","A3US4NGKXBVI48","<p style=""font-size: 48px;"">+</p>","","","","","null","allTrialResponses","1500","1","29","img_art/18.jpg","31","warriors riding into battle","Luis,Joseph,Jordan,Edward,Justin,David","I love the battle vibe in this,50,400,20","It's like a ship, but a freaky ship.,-11,220,20","Interesting and capitvating to look at,19,160,20","Reminds me of the four horsemen of the apocalypse,29,60,20","This is really interesting to look at. I like the colors and the spectral look.,27,280,20","I like how the image gives off an impression of bravery.,25,340,20","Luis","I love the battle vibe in this,50,400,20","Justin","This is really interesting to look at. I like the colors and the spectral look.,27,280,20","David","I like how the image gives off an impression of bravery.,25,340,20","8"
"39986","","survey-text","256","3497676","0.0-252.0-0.0","A3US4NGKXBVI48","","","","{""Q0"":""a peacock resting near a mushroom""}","","","","","","","","","","","","","","","","","","","","","","",""
"7197.9000000003725","","image-slider-response","257","3504876","0.0-253.0","A3US4NGKXBVI48","","","","","27","","","","","","","","","","","","","","","","","","","","","",""
"null","","image-button-response","258","3509881","0.0-254.0","A3US4NGKXBVI48","img_art/9.jpg","null","","","","","","","","","","","","","","","","","","","","","","","","",""
"650","","image-button-response","259","3510533","0.0-255.0","A3US4NGKXBVI48","img_art/9.jpg","1","","","","","","","","","","","","","","","","","","","","","","","","",""
"742","","image-button-response","260","3511277","0.0-256.0-0.0","A3US4NGKXBVI48","img_art/9.jpg","4","","","","","","","","","","","","","","","","","","","","","","","","",""
"1158","","image-button-response","261","3512436","0.0-257.0-0.0","A3US4NGKXBVI48","img_art/9.jpg","0","","","","","","","","","","","","","","","","","","","","","","","","",""
"null","","html-keyboard-response","262","3513438","0.0-258.0","A3US4NGKXBVI48","<p style=""font-size: 48px;"">+</p>","","","","","null","allTrialResponses","1000","1","30","img_art/9.jpg","27","a peacock resting near a mushroom","Luis,Logan,Trevor,Samuel,Justin,David","Calming and relaxing,42,400,20","is that sleeping beauty,33,360,20","nice colors but it looks like it's from the 80s,10,280,20","what a wild ride,11,400,20","It reminds me of an illustration for a fairy tale.,19,280,20","I like how design can be interpreted differently, I see a person sleeping or a mountainous region.,10,340,20","Logan","is that sleeping beauty,33,360,20","Justin","It reminds me of an illustration for a fairy tale.,19,280,20","Luis","Calming and relaxing,42,400,20","8"
"2240","","image-button-response_instructions","263","3515684","0.0-259.0","A3US4NGKXBVI48","","0","instructions","","","","","","","","","","","","","","","","","","","","","","","",""
"1626","","image-button-response","264","3517317","0.0-260.0","A3US4NGKXBVI48","","0","","","","","","","","","","","","","","","","","","","","","","","","",""
