"rt","url","trial_type","trial_index","time_elapsed","internal_node_id","participant_id","stimulus","button_pressed","Name","responses","response","key_press","variableName","fixationTime","condition","trial","photo","subjectRating","subjectResponse","agentsNames","agent_1_Response","agent_2_Response","agent_3_Response","agent_4_Response","agent_5_Response","agent_6_Response","kept_1_name","kept_1_response","kept_2_name","kept_2_response","kept_3_name","kept_3_response","errorCounter"
"53137","external_page_harvard.html","external-html","0","53291","0.0-0.0","A3Z014JO91RTM","","","","","","","","","","","","","","","","","","","","","","","","","","",""
"2076","","image-button-response","1","55372","0.0-1.0","A3Z014JO91RTM","","1","","","","","","","","","","","","","","","","","","","","","","","","",""
"2357","","image-button-response","2","57736","0.0-2.0-0.0","A3Z014JO91RTM","","1","phone","","","","","","","","","","","","","","","","","","","","","","","",""
"4182","","survey-text","3","61922","0.0-3.0-0.0","A3Z014JO91RTM","","","","{""Q0"":""A3Z014JO91RTM""}","","","","","","","","","","","","","","","","","","","","","","",""
"5994","","image-button-response_instructions","4","67920","0.0-4.0","A3Z014JO91RTM","","0","instructions","","","","","","","","","","","","","","","","","","","","","","","",""
"14481","","image-button-response_instructions","5","82403","0.0-5.0","A3Z014JO91RTM","img_art/ins/popularity/ins1.png","0","instructions","","","","","","","","","","","","","","","","","","","","","","","",""
"7432","","image-button-response_instructions","6","89837","0.0-6.0","A3Z014JO91RTM","img_art/ins/popularity/ins2.png","0","instructions","","","","","","","","","","","","","","","","","","","","","","","",""
"11115","","image-button-response_instructions","7","100956","0.0-7.0","A3Z014JO91RTM","img_art/ins/popularity/ins2Extreme.png","0","instructions","","","","","","","","","","","","","","","","","","","","","","","",""
"12468","","image-button-response_instructions","8","113427","0.0-8.0","A3Z014JO91RTM","img_art/ins/popularity/ins3KEEPpop.PNG","0","instructions","","","","","","","","","","","","","","","","","","","","","","","",""
"6414","","image-button-response_instructions","9","119843","0.0-9.0","A3Z014JO91RTM","img_art/ins/popularity/ins3ANamepop.PNG","0","instructions","","","","","","","","","","","","","","","","","","","","","","","",""
"4616","","image-button-response_instructions","10","124461","0.0-10.0","A3Z014JO91RTM","img_art/ins/popularity/ins3ARatingpop.png","0","instructions","","","","","","","","","","","","","","","","","","","","","","","",""
"2748","","image-button-response_instructions","11","127211","0.0-11.0","A3Z014JO91RTM","img_art/ins/popularity/ins3ATextpop.png","0","instructions","","","","","","","","","","","","","","","","","","","","","","","",""
"12465","","image-button-response_instructions","12","139678","0.0-12.0","A3Z014JO91RTM","img_art/ins/popularity/ins3ALikespop.png","0","instructions","","","","","","","","","","","","","","","","","","","","","","","",""
"73685","","image-button-response_instructions","13","213366","0.0-13.0","A3Z014JO91RTM","img_art/ins/popularity/ins3KEEPpop.PNG","0","instructions","","","","","","","","","","","","","","","","","","","","","","","",""
"13583","","image-button-response_instructions","14","226950","0.0-14.0","A3Z014JO91RTM","img_art/ins/popularity/ins3_5RED.png","0","instructions","","","","","","","","","","","","","","","","","","","","","","","",""
"7048","","image-button-response_instructions","15","234001","0.0-15.0","A3Z014JO91RTM","img_art/ins/popularity/ins3KEEPpop.PNG","0","instructions","","","","","","","","","","","","","","","","","","","","","","","",""
"10818","","image-button-response_instructions","16","244823","0.0-16.0","A3Z014JO91RTM","img_art/ins/popularity/ins4KEEPpop.PNG","0","instructions","","","","","","","","","","","","","","","","","","","","","","","",""
"3911","","image-button-response_instructions","17","248736","0.0-17.0","A3Z014JO91RTM","img_art/ins/popularity/ins5KEEPpop.PNG","0","instructions","","","","","","","","","","","","","","","","","","","","","","","",""
"2634","","image-button-response_instructions","18","251372","0.0-18.0","A3Z014JO91RTM","","0","instructions","","","","","","","","","","","","","","","","","","","","","","","",""
"8774","","survey-text","19","260174","0.0-19.0-0.0","A3Z014JO91RTM","","","","{""Q0"":""but""}","","","","","","","","","","","","","","","","","","","","","","",""
"43666","","survey-text","20","303843","0.0-20.0-0.0","A3Z014JO91RTM","","","","{""Q0"":""whimsical flowing ""}","","","","","","","","","","","","","","","","","","","","","","",""
"3626.699999988079","","image-slider-response","21","307474","0.0-21.0","A3Z014JO91RTM","","","","","6","","","","","","","","","","","","","","","","","","","","","",""
"3946","","image-button-response","22","312479","0.0-22.0","A3Z014JO91RTM","img_art/ins/1.jpg","0","","","","","","","","","","","","","","","","","","","","","","","","",""
"808","","image-button-response","23","313291","0.0-23.0","A3Z014JO91RTM","img_art/ins/1.jpg","0","","","","","","","","","","","","","","","","","","","","","","","","",""
"2046","","image-button-response","24","315342","0.0-24.0-0.0","A3Z014JO91RTM","img_art/ins/1.jpg","0","","","","","","","","","","","","","","","","","","","","","","","","",""
"9295","","image-button-response","25","330010","0.0-24.1-0.1","A3Z014JO91RTM","img_art/ins/1.jpg","3","","","","","","","","","","","","","","","","","","","","","","","","",""
"7829","","image-button-response","26","337845","0.0-25.0-0.0","A3Z014JO91RTM","img_art/ins/1.jpg","5","","","","","","","","","","","","","","","","","","","","","","","","",""
"null","","html-keyboard-response","27","338854","0.0-26.0","A3Z014JO91RTM","<p style=""font-size: 48px;"">+</p>","","","","","null","allTrialResponses","1000","1","-2","img_art/ins/1.jpg","6","whimsical flowing ","Allison,Ashley,Beth,Dora,Erika,Jen","looks like a lot of things going on in the mist,20,20,20","I just don't get why these type of art would be popular,-32,40,20","This color reminds me of poo,-46,60,20","looks like what my niece in 3rd grade did this afternoon,-50,80,20","I like the sophisticated brushwork,40,100,20","It reminds me of a candy land dream I had,36,120,20","Allison","looks like a lot of things going on in the mist,20,20,20","Dora","looks like what my niece in 3rd grade did this afternoon,-50,80,20","Jen","It reminds me of a candy land dream I had,36,120,20","2"
"5969","","survey-text","28","344831","0.0-27.0-0.0","A3Z014JO91RTM","","","","{""Q0"":""angry dark""}","","","","","","","","","","","","","","","","","","","","","","",""
"2608.800000011921","","image-slider-response","29","347443","0.0-28.0","A3Z014JO91RTM","","","","","-26","","","","","","","","","","","","","","","","","","","","","",""
"null","","image-button-response","30","352451","0.0-29.0","A3Z014JO91RTM","img_art/ins/2.jpg","null","","","","","","","","","","","","","","","","","","","","","","","","",""
"2258","","image-button-response","31","354712","0.0-30.0","A3Z014JO91RTM","img_art/ins/2.jpg","5","","","","","","","","","","","","","","","","","","","","","","","","",""
"3064","","image-button-response","32","357779","0.0-31.0-0.0","A3Z014JO91RTM","img_art/ins/2.jpg","3","","","","","","","","","","","","","","","","","","","","","","","","",""
"6163","","image-button-response","33","363946","0.0-32.0-0.0","A3Z014JO91RTM","img_art/ins/2.jpg","1","","","","","","","","","","","","","","","","","","","","","","","","",""
"null","","html-keyboard-response","34","364450","0.0-33.0","A3Z014JO91RTM","<p style=""font-size: 48px;"">+</p>","","","","","null","allTrialResponses","500","1","-1","img_art/ins/2.jpg","-26","angry dark","Allison,Jenna,Katie,Dora,Kara,Jen","I don't have strong feelings about this,10,20,20","One of my pet peevs,-48,140,20","too much color!,-28,180,20","looks too angry,-50,80,20","I like the blocks of color arrangements,30,160,20","It reminds me of a fireplace,36,120,20","Jen","It reminds me of a fireplace,36,120,20","Dora","looks too angry,-50,80,20","Jenna","One of my pet peevs,-48,140,20","2"
"4821","","survey-text","35","369279","0.0-34.0-0.0","A3Z014JO91RTM","","","","{""Q0"":""sad cold""}","","","","","","","","","","","","","","","","","","","","","","",""
"4480.5","","image-slider-response","36","373763","0.0-35.0","A3Z014JO91RTM","","","","","6","","","","","","","","","","","","","","","","","","","","","",""
"null","","image-button-response","37","378768","0.0-36.0","A3Z014JO91RTM","img_art/ins/3.jpg","null","","","","","","","","","","","","","","","","","","","","","","","","",""
"3025","","image-button-response","38","381798","0.0-37.0","A3Z014JO91RTM","img_art/ins/3.jpg","2","","","","","","","","","","","","","","","","","","","","","","","","",""
"4747","","image-button-response","39","386549","0.0-38.0-0.0","A3Z014JO91RTM","img_art/ins/3.jpg","5","","","","","","","","","","","","","","","","","","","","","","","","",""
"1746","","image-button-response","40","388298","0.0-39.0-0.0","A3Z014JO91RTM","img_art/ins/3.jpg","0","","","","","","","","","","","","","","","","","","","","","","","","",""
"null","","html-keyboard-response","41","389301","0.0-40.0","A3Z014JO91RTM","<p style=""font-size: 48px;"">+</p>","","","","","null","allTrialResponses","1000","1","0","img_art/ins/3.jpg","6","sad cold","Leslie,Jenna,Rose,Dora,Mary,Jen","It's an alright work,15,200,20","looks like a murder room,-35,140,20","My daily routine, it's depressing,-20,240,20","My worst nightmare,-42,80,20","I like the overlapping of brushes,41,220,20","I can feel a rainy day from this painting,18,120,20","Rose","My daily routine, it's depressing,-20,240,20","Jen","I can feel a rainy day from this painting,18,120,20","Leslie","It's an alright work,15,200,20","2"
"76416","","image-button-response_instructions","42","465724","0.0-41.0","A3Z014JO91RTM","","0","instructions","","","","","","","","","","","","","","","","","","","","","","","",""
"10047","","survey-likert","43","475773","0.0-42.0-0.0","A3Z014JO91RTM","","","","{""Q0"":"""",""Q1"":0,""Q2"":1}","","","","","","","","","","","","","","","","","","","","","","",""
"27262","","survey-text","44","503043","0.0-43.0-0.0","A3Z014JO91RTM","","","","{""Q0"":""rock""}","","","","","","","","","","","","","","","","","","","","","","",""
"11547","","survey-text","45","514593","0.0-44.0-0.0","A3Z014JO91RTM","","","","{""Q0"":""confusing and unorganized""}","","","","","","","","","","","","","","","","","","","","","","",""
"3113.599999964237","","image-slider-response","46","517710","0.0-45.0","A3Z014JO91RTM","","","","","-27","","","","","","","","","","","","","","","","","","","","","",""
"3273","","image-button-response","47","522740","0.0-46.0","A3Z014JO91RTM","img_art/1.jpg","0","","","","","","","","","","","","","","","","","","","","","","","","",""
"1068","","image-button-response","48","523811","0.0-47.0","A3Z014JO91RTM","img_art/1.jpg","0","","","","","","","","","","","","","","","","","","","","","","","","",""
"13014","","image-button-response","49","536829","0.0-48.0-0.0","A3Z014JO91RTM","img_art/1.jpg","1","","","","","","","","","","","","","","","","","","","","","","","","",""
"1479","","image-button-response","50","538312","0.0-49.0-0.0","A3Z014JO91RTM","img_art/1.jpg","0","","","","","","","","","","","","","","","","","","","","","","","","",""
"5614","","image-button-response","51","546213","0.0-49.1-0.1","A3Z014JO91RTM","img_art/1.jpg","2","","","","","","","","","","","","","","","","","","","","","","","","",""
"null","","html-keyboard-response","52","546716","0.0-50.0","A3Z014JO91RTM","<p style=""font-size: 48px;"">+</p>","","","","","null","allTrialResponses","500","1","1","img_art/1.jpg","-27","confusing and unorganized","Michelle,Hailey,Alexis,Marissa,Diana,Cassidy","Random paint does not make art,-5,280,20","colors that are fairly warm. its ok,8,200,20","Taco Bell wallpaper. Doesn't really make me feel anything,3,100,20","It is beautiful, I really enjoy the colors,32,160,20","Might be a person rowing their boat across the lake. Not sure if the background is trees or not.,12,380,20","I like the colors and layers,25,140,20","Michelle","Random paint does not make art,-5,280,20","Hailey","colors that are fairly warm. its ok,8,200,20","Alexis","Taco Bell wallpaper. Doesn't really make me feel anything,3,100,20","4"
"10836","","survey-text","53","557562","0.0-51.0-0.0","A3Z014JO91RTM","","","","{""Q0"":""angry and intense""}","","","","","","","","","","","","","","","","","","","","","","",""
"4332.900000035763","","image-slider-response","54","561897","0.0-52.0","A3Z014JO91RTM","","","","","-27","","","","","","","","","","","","","","","","","","","","","",""
"3797","","image-button-response","55","566901","0.0-53.0","A3Z014JO91RTM","img_art/30.jpg","0","","","","","","","","","","","","","","","","","","","","","","","","",""
"826","","image-button-response","56","567731","0.0-54.0","A3Z014JO91RTM","img_art/30.jpg","0","","","","","","","","","","","","","","","","","","","","","","","","",""
"3081","","image-button-response","57","570815","0.0-55.0-0.0","A3Z014JO91RTM","img_art/30.jpg","1","","","","","","","","","","","","","","","","","","","","","","","","",""
"1614","","image-button-response","58","572432","0.0-56.0-0.0","A3Z014JO91RTM","img_art/30.jpg","2","","","","","","","","","","","","","","","","","","","","","","","","",""
"null","","html-keyboard-response","59","572935","0.0-57.0","A3Z014JO91RTM","<p style=""font-size: 48px;"">+</p>","","","","","null","allTrialResponses","500","1","2","img_art/30.jpg","-27","angry and intense","Michelle,Hailey,Alexis,Danielle,Erin,Vanessa","Don't like it at all, looks like a someone smeared paint with their fingers,-25,280,20","snakes in the grass, I don't like it,-17,200,20","Too abstract, looks like something I could paint,-50,100,20","It's okay. It should either have stuck to the grey-blue, or added more red. Seems unorganized (maybe that's the point?),-9,340,20","Layers are interesting,22,120,20","I like the red against the blue, but otherwise, it's not really my taste,4,380,20","Michelle","Don't like it at all, looks like a someone smeared paint with their fingers,-25,280,20","Hailey","snakes in the grass, I don't like it,-17,200,20","Alexis","Too abstract, looks like something I could paint,-50,100,20","4"
"10074","","survey-text","60","583016","0.0-58.0-0.0","A3Z014JO91RTM","","","","{""Q0"":""light and simple""}","","","","","","","","","","","","","","","","","","","","","","",""
"2429.900000035763","","image-slider-response","61","585449","0.0-59.0","A3Z014JO91RTM","","","","","4","","","","","","","","","","","","","","","","","","","","","",""
"3647","","image-button-response","62","590458","0.0-60.0","A3Z014JO91RTM","img_art/26.jpg","0","","","","","","","","","","","","","","","","","","","","","","","","",""
"806","","image-button-response","63","591267","0.0-61.0","A3Z014JO91RTM","img_art/26.jpg","0","","","","","","","","","","","","","","","","","","","","","","","","",""
"5147","","image-button-response","64","596418","0.0-62.0-0.0","A3Z014JO91RTM","img_art/26.jpg","5","","","","","","","","","","","","","","","","","","","","","","","","",""
"2895","","image-button-response","65","599318","0.0-63.0-0.0","A3Z014JO91RTM","img_art/26.jpg","3","","","","","","","","","","","","","","","","","","","","","","","","",""
"null","","html-keyboard-response","66","600320","0.0-64.0","A3Z014JO91RTM","<p style=""font-size: 48px;"">+</p>","","","","","null","allTrialResponses","1000","1","3","img_art/26.jpg","4","light and simple","Michelle,Hailey,Alexis,Victoria,Alyssa,Jamie","I can make out a street view and I am a fan of watercolors but still too boring,15,280,20","bedroom in the outdoors. warm,9,200,20","Much too simple and without color for my taste,-33,100,20","feels a tad old,30,400,20","Its pretty.And a nice use of water colors.,25,160,20","Street corner on a sunny day,5,320,20","Michelle","I can make out a street view and I am a fan of watercolors but still too boring,15,280,20","Jamie","Street corner on a sunny day,5,320,20","Victoria","feels a tad old,30,400,20","4"
"11141","","survey-text","67","611468","0.0-65.0-0.0","A3Z014JO91RTM","","","","{""Q0"":""too many blocks ""}","","","","","","","","","","","","","","","","","","","","","","",""
"3280.300000011921","","image-slider-response","68","614752","0.0-66.0","A3Z014JO91RTM","","","","","-21","","","","","","","","","","","","","","","","","","","","","",""
"null","","image-button-response","69","619756","0.0-67.0","A3Z014JO91RTM","img_art/12.jpg","null","","","","","","","","","","","","","","","","","","","","","","","","",""
"811","","image-button-response","70","620569","0.0-68.0","A3Z014JO91RTM","img_art/12.jpg","0","","","","","","","","","","","","","","","","","","","","","","","","",""
"7315","","image-button-response","71","627888","0.0-69.0-0.0","A3Z014JO91RTM","img_art/12.jpg","3","","","","","","","","","","","","","","","","","","","","","","","","",""
"2061","","image-button-response","72","629954","0.0-70.0-0.0","A3Z014JO91RTM","img_art/12.jpg","1","","","","","","","","","","","","","","","","","","","","","","","","",""
"null","","html-keyboard-response","73","630961","0.0-71.0","A3Z014JO91RTM","<p style=""font-size: 48px;"">+</p>","","","","","null","allTrialResponses","1000","1","4","img_art/12.jpg","-21","too many blocks ","Michelle,Sarah,Kaitlyn,Victoria,Caitlin,Jamie","eww hate everything about this, looks like it belongs in a dentist's office,-14,280,20","i think it's a good piece but it doesn't appeal to me,-18,180,20","The shapes present in the picture make it very interesting,17,80,20","to contemporary for me,3,400,20","Just wish it was more colorful.,20,80,20","Black and white contrast with color looks nice,15,320,20","Michelle","eww hate everything about this, looks like it belongs in a dentist's office,-14,280,20","Victoria","to contemporary for me,3,400,20","Sarah","i think it's a good piece but it doesn't appeal to me,-18,180,20","4"
"13888","","survey-text","74","644856","0.0-72.0-0.0","A3Z014JO91RTM","","","","{""Q0"":""weird and odd""}","","","","","","","","","","","","","","","","","","","","","","",""
"4212.800000011921","","image-slider-response","75","649072","0.0-73.0","A3Z014JO91RTM","","","","","-22","","","","","","","","","","","","","","","","","","","","","",""
"1796","","image-button-response","76","654080","0.0-74.0","A3Z014JO91RTM","img_art/22.jpg","1","","","","","","","","","","","","","","","","","","","","","","","","",""
"1073","","image-button-response","77","655156","0.0-75.0","A3Z014JO91RTM","img_art/22.jpg","1","","","","","","","","","","","","","","","","","","","","","","","","",""
"714","","image-button-response","78","655872","0.0-76.0-0.0","A3Z014JO91RTM","img_art/22.jpg","0","","","","","","","","","","","","","","","","","","","","","","","","",""
"12565","","image-button-response","79","668441","0.0-77.0-0.0","A3Z014JO91RTM","img_art/22.jpg","2","","","","","","","","","","","","","","","","","","","","","","","","",""
"null","","html-keyboard-response","80","668944","0.0-78.0","A3Z014JO91RTM","<p style=""font-size: 48px;"">+</p>","","","","","null","allTrialResponses","500","1","5","img_art/22.jpg","-22","weird and odd","Michelle,Sarah,Erika,Victoria,Brooke,Erica","Not a huge fan of the blocks, also very abstract, I have no idea what it is,8,280,20","boring, too many red and yellow tones for my taste,-15,180,20","Beautiful forms, using color to define shape,14,100,20","love how the colors blend,42,400,20","Like this one, like a sunset,30,60,20","Picture is very relaxing,32,80,20","Sarah","boring, too many red and yellow tones for my taste,-15,180,20","Michelle","Not a huge fan of the blocks, also very abstract, I have no idea what it is,8,280,20","Erika","Beautiful forms, using color to define shape,14,100,20","4"
"5250","","survey-text","81","674208","0.0-79.0-0.0","A3Z014JO91RTM","","","","{""Q0"":""sky""}","","","","","","","","","","","","","","","","","","","","","","",""
"6097","","survey-text","82","680308","0.0-80.0-0.0","A3Z014JO91RTM","","","","{""Q0"":""evil""}","","","","","","","","","","","","","","","","","","","","","","",""
"7050","","survey-text","83","689694","0.0-80.1-0.1","A3Z014JO91RTM","","","","{""Q0"":""looks evil and angry""}","","","","","","","","","","","","","","","","","","","","","","",""
"4030.400000035763","","image-slider-response","84","693728","0.0-81.0","A3Z014JO91RTM","","","","","-18","","","","","","","","","","","","","","","","","","","","","",""
"null","","image-button-response","85","698736","0.0-82.0","A3Z014JO91RTM","img_art/23.jpg","null","","","","","","","","","","","","","","","","","","","","","","","","",""
"1422","","image-button-response","86","700162","0.0-83.0","A3Z014JO91RTM","img_art/23.jpg","2","","","","","","","","","","","","","","","","","","","","","","","","",""
"4013","","image-button-response","87","704179","0.0-84.0-0.0","A3Z014JO91RTM","img_art/23.jpg","5","","","","","","","","","","","","","","","","","","","","","","","","",""
"4928","","image-button-response","88","709111","0.0-85.0-0.0","A3Z014JO91RTM","img_art/23.jpg","0","","","","","","","","","","","","","","","","","","","","","","","","",""
"null","","html-keyboard-response","89","709614","0.0-86.0","A3Z014JO91RTM","<p style=""font-size: 48px;"">+</p>","","","","","null","allTrialResponses","500","1","6","img_art/23.jpg","-18","looks evil and angry","Michelle,Sarah,Erika,Isabella,Rebecca,Angela","This is nice, the colorful background is fun and the white looks like dancing figures,5,280,20","it's not uninteresting, but i'm not responding to it,-7,180,20","Very intense and unique,3,100,20","Love the line in the middle separating the two dark sides,50,280,20","love the contrast (was this painted by a left-handed artist?),7,100,20","Like the background colors and the energy, but the white bits ruin it for me,-7,260,20","Erika","Very intense and unique,3,100,20","Angela","Like the background colors and the energy, but the white bits ruin it for me,-7,260,20","Michelle","This is nice, the colorful background is fun and the white looks like dancing figures,5,280,20","4"
"10577","","survey-text","90","720197","0.0-87.0-0.0","A3Z014JO91RTM","","","","{""Q0"":""gloomy city street""}","","","","","","","","","","","","","","","","","","","","","","",""
"2327.7999999523163","","image-slider-response","91","722528","0.0-88.0","A3Z014JO91RTM","","","","","-8","","","","","","","","","","","","","","","","","","","","","",""
"4947","","image-button-response","92","727537","0.0-89.0","A3Z014JO91RTM","img_art/11.jpg","4","","","","","","","","","","","","","","","","","","","","","","","","",""
"1205","","image-button-response","93","728745","0.0-90.0","A3Z014JO91RTM","img_art/11.jpg","4","","","","","","","","","","","","","","","","","","","","","","","","",""
"7783","","image-button-response","94","736530","0.0-91.0-0.0","A3Z014JO91RTM","img_art/11.jpg","2","","","","","","","","","","","","","","","","","","","","","","","","",""
"1410","","image-button-response","95","737947","0.0-92.0-0.0","A3Z014JO91RTM","img_art/11.jpg","1","","","","","","","","","","","","","","","","","","","","","","","","",""
"null","","html-keyboard-response","96","738451","0.0-93.0","A3Z014JO91RTM","<p style=""font-size: 48px;"">+</p>","","","","","null","allTrialResponses","500","1","7","img_art/11.jpg","-8","gloomy city street","Michelle,Cynthia,Erika,Emily,Makayla,Angela","I think this is a city but I'm not sure, very abstract,18,280,20","Sad but hopeful,43,320,20","I want to know which skyline the artist is depicting,26,100,20","It's kind of cool and I see it looks clean.,22,40,20","Smoggy, oily, industrial. Don't like,1,80,20","I like this one very much, especially the shades of gray.,30,260,20","Makayla","Smoggy, oily, industrial. Don't like,1,80,20","Erika","I want to know which skyline the artist is depicting,26,100,20","Cynthia","Sad but hopeful,43,320,20","4"
"22356","","survey-text","97","760815","0.0-94.0-0.0","A3Z014JO91RTM","","","","{""Q0"":""close up of dirt""}","","","","","","","","","","","","","","","","","","","","","","",""
"2613.800000011921","","image-slider-response","98","763432","0.0-95.0","A3Z014JO91RTM","","","","","-36","","","","","","","","","","","","","","","","","","","","","",""
"null","","image-button-response","99","768437","0.0-96.0","A3Z014JO91RTM","img_art/7.jpg","null","","","","","","","","","","","","","","","","","","","","","","","","",""
"1714","","image-button-response","100","770153","0.0-97.0","A3Z014JO91RTM","img_art/7.jpg","0","","","","","","","","","","","","","","","","","","","","","","","","",""
"7947","","image-button-response","101","778103","0.0-98.0-0.0","A3Z014JO91RTM","img_art/7.jpg","4","","","","","","","","","","","","","","","","","","","","","","","","",""
"12752","","image-button-response","102","790859","0.0-99.0-0.0","A3Z014JO91RTM","img_art/7.jpg","1","","","","","","","","","","","","","","","","","","","","","","","","",""
"null","","html-keyboard-response","103","791861","0.0-100.0","A3Z014JO91RTM","<p style=""font-size: 48px;"">+</p>","","","","","null","allTrialResponses","1000","1","8","img_art/7.jpg","-36","close up of dirt","Julia,Cynthia,Erika,Tiffany,Makayla,Allison","I would like this more if I could pretend it was the moon.,-26,40,20","time and change,1,320,20","Detail oriented, like cracked paint wall,15,100,20","I feel relaxed and a little nostalgic, like I'm exploring the wall of a very old building.,18,360,20","It's just like sand from the beach,2,80,20","I like the earth tones here,5,140,20","Julia","I would like this more if I could pretend it was the moon.,-26,40,20","Makayla","It's just like sand from the beach,2,80,20","Cynthia","time and change,1,320,20","4"
"14469","","survey-text","104","806337","0.0-101.0-0.0","A3Z014JO91RTM","","","","{""Q0"":""interesting and confusing""}","","","","","","","","","","","","","","","","","","","","","","",""
"2880.699999988079","","image-slider-response","105","809220","0.0-102.0","A3Z014JO91RTM","","","","","6","","","","","","","","","","","","","","","","","","","","","",""
"1614","","image-button-response","106","814222","0.0-103.0","A3Z014JO91RTM","img_art/15.jpg","1","","","","","","","","","","","","","","","","","","","","","","","","",""
"811","","image-button-response","107","815038","0.0-104.0","A3Z014JO91RTM","img_art/15.jpg","1","","","","","","","","","","","","","","","","","","","","","","","","",""
"4728","","image-button-response","108","819770","0.0-105.0-0.0","A3Z014JO91RTM","img_art/15.jpg","5","","","","","","","","","","","","","","","","","","","","","","","","",""
"3279","","image-button-response","109","823054","0.0-106.0-0.0","A3Z014JO91RTM","img_art/15.jpg","4","","","","","","","","","","","","","","","","","","","","","","","","",""
"null","","html-keyboard-response","110","824061","0.0-107.0","A3Z014JO91RTM","<p style=""font-size: 48px;"">+</p>","","","","","null","allTrialResponses","1000","1","9","img_art/15.jpg","6","interesting and confusing","Julia,Cynthia,Nicole,Kylie,Makayla,Courtney","This is simply too ""old-school"",-27,40,20","interested in this transformation,20,320,20","Very cool, i want it in my living room,50,20,20","I don't know how I feel about this,31,300,20","It's just dots. Doesn't bring any positive or negative feelings,2,80,20","Weird fuzzball bush.,22,280,20","Cynthia","interested in this transformation,20,320,20","Courtney","Weird fuzzball bush.,22,280,20","Makayla","It's just dots. Doesn't bring any positive or negative feelings,2,80,20","4"
"14584","","survey-text","111","838654","0.0-108.0-0.0","A3Z014JO91RTM","","","","{""Q0"":""too simple and easy""}","","","","","","","","","","","","","","","","","","","","","","",""
"3029.899999976158","","image-slider-response","112","841687","0.0-109.0","A3Z014JO91RTM","","","","","-26","","","","","","","","","","","","","","","","","","","","","",""
"2730","","image-button-response","113","846691","0.0-110.0","A3Z014JO91RTM","img_art/5.jpg","0","","","","","","","","","","","","","","","","","","","","","","","","",""
"577","","image-button-response","114","847271","0.0-111.0","A3Z014JO91RTM","img_art/5.jpg","0","","","","","","","","","","","","","","","","","","","","","","","","",""
"632","","image-button-response","115","847906","0.0-112.0-0.0","A3Z014JO91RTM","img_art/5.jpg","1","","","","","","","","","","","","","","","","","","","","","","","","",""
"777","","image-button-response","116","848688","0.0-113.0-0.0","A3Z014JO91RTM","img_art/5.jpg","2","","","","","","","","","","","","","","","","","","","","","","","","",""
"null","","html-keyboard-response","117","850195","0.0-114.0","A3Z014JO91RTM","<p style=""font-size: 48px;"">+</p>","","","","","null","allTrialResponses","1500","1","10","img_art/5.jpg","-26","too simple and easy","Chloe,Cynthia,Kristen,Alexandra,Makayla,Courtney","Black stripe looks violent,-31,220,20","boring and unsure,-25,320,20","sharp, painful yet playful,-5,280,20","This looks like a twelve year old did it,-40,60,20","Bright and sunny,19,80,20","A rabbits head.,4,280,20","Chloe","Black stripe looks violent,-31,220,20","Cynthia","boring and unsure,-25,320,20","Kristen","sharp, painful yet playful,-5,280,20","4"
"3581","","survey-text","118","853788","0.0-115.0-0.0","A3Z014JO91RTM","","","","{""Q0"":""our""}","","","","","","","","","","","","","","","","","","","","","","",""
"13215","","survey-text","119","867005","0.0-116.0-0.0","A3Z014JO91RTM","","","","{""Q0"":""looks angry and bloody""}","","","","","","","","","","","","","","","","","","","","","","",""
"3482.699999988079","","image-slider-response","120","870491","0.0-117.0","A3Z014JO91RTM","","","","","-42","","","","","","","","","","","","","","","","","","","","","",""
"3679","","image-button-response","121","875498","0.0-118.0","A3Z014JO91RTM","img_art/3.jpg","0","","","","","","","","","","","","","","","","","","","","","","","","",""
"971","","image-button-response","122","876473","0.0-119.0","A3Z014JO91RTM","img_art/3.jpg","0","","","","","","","","","","","","","","","","","","","","","","","","",""
"1114","","image-button-response","123","877590","0.0-120.0-0.0","A3Z014JO91RTM","img_art/3.jpg","2","","","","","","","","","","","","","","","","","","","","","","","","",""
"2097","","image-button-response","124","879690","0.0-121.0-0.0","A3Z014JO91RTM","img_art/3.jpg","4","","","","","","","","","","","","","","","","","","","","","","","","",""
"null","","html-keyboard-response","125","881197","0.0-122.0","A3Z014JO91RTM","<p style=""font-size: 48px;"">+</p>","","","","","null","allTrialResponses","1500","1","11","img_art/3.jpg","-42","looks angry and bloody","Chloe,Cynthia,Kristen,Laura,Jacqueline,Alicia","Powerful lines but seems incomplete,-10,220,20","This makes me feel vulnerable,-32,320,20","anger, blood, death,-24,280,20","wild scribbling, freedom, expression,40,320,20","Looks like a bloody head with teeth.,-16,300,20","scribbles in red. 2 minute piece.,-30,120,20","Chloe","Powerful lines but seems incomplete,-10,220,20","Kristen","anger, blood, death,-24,280,20","Jacqueline","Looks like a bloody head with teeth.,-16,300,20","4"
"12585","","survey-text","126","893791","0.0-123.0-0.0","A3Z014JO91RTM","","","","{""Q0"":""childlike and simple""}","","","","","","","","","","","","","","","","","","","","","","",""
"4148.300000011921","","image-slider-response","127","897942","0.0-124.0","A3Z014JO91RTM","","","","","2","","","","","","","","","","","","","","","","","","","","","",""
"null","","image-button-response","128","902947","0.0-125.0","A3Z014JO91RTM","img_art/19.jpg","null","","","","","","","","","","","","","","","","","","","","","","","","",""
"592","","image-button-response","129","903543","0.0-126.0","A3Z014JO91RTM","img_art/19.jpg","2","","","","","","","","","","","","","","","","","","","","","","","","",""
"1429","","image-button-response","130","904976","0.0-127.0-0.0","A3Z014JO91RTM","img_art/19.jpg","5","","","","","","","","","","","","","","","","","","","","","","","","",""
"1229","","image-button-response","131","906209","0.0-128.0-0.0","A3Z014JO91RTM","img_art/19.jpg","4","","","","","","","","","","","","","","","","","","","","","","","","",""
"null","","html-keyboard-response","132","907712","0.0-129.0","A3Z014JO91RTM","<p style=""font-size: 48px;"">+</p>","","","","","null","allTrialResponses","1500","1","12","img_art/19.jpg","2","childlike and simple","Chloe,Anna,Kristen,Autumn,Jacqueline,Olivia","The use of space isn't my favorite.,-20,220,20","I like the shapes.,22,300,20","city, stress of urbanism, slightly panicked,2,280,20","Messy and kid like.,-36,340,20","This is just a mess.,-30,300,20","city life energy,8,40,20","Kristen","city, stress of urbanism, slightly panicked,2,280,20","Olivia","city life energy,8,40,20","Jacqueline","This is just a mess.,-30,300,20","4"
"10824","","survey-text","133","918543","0.0-130.0-0.0","A3Z014JO91RTM","","","","{""Q0"":""water on a window""}","","","","","","","","","","","","","","","","","","","","","","",""
"5046.699999988079","","image-slider-response","134","923593","0.0-131.0","A3Z014JO91RTM","","","","","28","","","","","","","","","","","","","","","","","","","","","",""
"4363","","image-button-response","135","928602","0.0-132.0","A3Z014JO91RTM","img_art/13.jpg","4","","","","","","","","","","","","","","","","","","","","","","","","",""
"1306","","image-button-response","136","929911","0.0-133.0","A3Z014JO91RTM","img_art/13.jpg","4","","","","","","","","","","","","","","","","","","","","","","","","",""
"1198","","image-button-response","137","931112","0.0-134.0-0.0","A3Z014JO91RTM","img_art/13.jpg","2","","","","","","","","","","","","","","","","","","","","","","","","",""
"1394","","image-button-response","138","932511","0.0-135.0-0.0","A3Z014JO91RTM","img_art/13.jpg","1","","","","","","","","","","","","","","","","","","","","","","","","",""
"null","","html-keyboard-response","139","933517","0.0-136.0","A3Z014JO91RTM","<p style=""font-size: 48px;"">+</p>","","","","","null","allTrialResponses","1000","1","13","img_art/13.jpg","28","water on a window","Sierra,Katelyn,Kristen,Kathryn,Jacqueline,Olivia","the blues are soothing but the splatters are too much,-3,260,20","Really like this. Its like looking out a window into a beautiful storm,39,100,20","happy, serenity,30,280,20","Reminds me of depression anxiety, but negativity is dampened by motion. It's trying to release itself through expression.,-10,140,20","Seems a little cold but I like the neuron looking splatters.,10,300,20","eighties here we come,7,40,20","Jacqueline","Seems a little cold but I like the neuron looking splatters.,10,300,20","Kristen","happy, serenity,30,280,20","Katelyn","Really like this. Its like looking out a window into a beautiful storm,39,100,20","4"
"17170","","survey-text","140","950696","0.0-137.0-0.0","A3Z014JO91RTM","","","","{""Q0"":""childs painting with weird colors""}","","","","","","","","","","","","","","","","","","","","","","",""
"4012.2999999523163","","image-slider-response","141","954713","0.0-138.0","A3Z014JO91RTM","","","","","-40","","","","","","","","","","","","","","","","","","","","","",""
"4947","","image-button-response","142","959722","0.0-139.0","A3Z014JO91RTM","img_art/2.jpg","1","","","","","","","","","","","","","","","","","","","","","","","","",""
"806","","image-button-response","143","960530","0.0-140.0","A3Z014JO91RTM","img_art/2.jpg","0","","","","","","","","","","","","","","","","","","","","","","","","",""
"730","","image-button-response","144","961263","0.0-141.0-0.0","A3Z014JO91RTM","img_art/2.jpg","1","","","","","","","","","","","","","","","","","","","","","","","","",""
"1496","","image-button-response","145","962764","0.0-142.0-0.0","A3Z014JO91RTM","img_art/2.jpg","4","","","","","","","","","","","","","","","","","","","","","","","","",""
"null","","html-keyboard-response","146","964271","0.0-143.0","A3Z014JO91RTM","<p style=""font-size: 48px;"">+</p>","","","","","null","allTrialResponses","1500","1","14","img_art/2.jpg","-40","childs painting with weird colors","Cassandra,Katelyn,Kristen,Alexa,Jacqueline,Morgan","I didn't like this it looked like a kindergardner painted it and the green was out of place.,-46,120,20","Looks childish and i dont like the texture,-25,100,20","smilely face, soulful,11,280,20","Not my favorite but I can see this being hung in a art museum,25,40,20","A bit ugly with the greens.,-20,300,20","Old, dull, messy.,-10,380,20","Cassandra","I didn't like this it looked like a kindergardner painted it and the green was out of place.,-46,120,20","Katelyn","Looks childish and i dont like the texture,-25,100,20","Jacqueline","A bit ugly with the greens.,-20,300,20","4"
"15551","","survey-text","147","979831","0.0-144.0-0.0","A3Z014JO91RTM","","","","{""Q0"":""tree growing in a city beautiful""}","","","","","","","","","","","","","","","","","","","","","","",""
"4031.2000000476837","","image-slider-response","148","983865","0.0-145.0","A3Z014JO91RTM","","","","","31","","","","","","","","","","","","","","","","","","","","","",""
"4917","","image-button-response","149","988871","0.0-146.0","A3Z014JO91RTM","img_art/17.jpg","3","","","","","","","","","","","","","","","","","","","","","","","","",""
"862","","image-button-response","150","989736","0.0-147.0","A3Z014JO91RTM","img_art/17.jpg","3","","","","","","","","","","","","","","","","","","","","","","","","",""
"1594","","image-button-response","151","991334","0.0-148.0-0.0","A3Z014JO91RTM","img_art/17.jpg","5","","","","","","","","","","","","","","","","","","","","","","","","",""
"2294","","image-button-response","152","993632","0.0-149.0-0.0","A3Z014JO91RTM","img_art/17.jpg","2","","","","","","","","","","","","","","","","","","","","","","","","",""
"null","","html-keyboard-response","153","994637","0.0-150.0","A3Z014JO91RTM","<p style=""font-size: 48px;"">+</p>","","","","","null","allTrialResponses","1000","1","15","img_art/17.jpg","31","tree growing in a city beautiful","Cassandra,Katelyn,Rachel,Amy,Jacqueline,Kelly","Very pretty...the colors and good and flow well.,33,120,20","Doesnt completely turn me off but wouldnt look twice,-3,100,20","Reminds me of a beautiful tree growing in a courtyard. I like the light and airy technique used.,34,80,20","peaceful. contemplative. balanced. old,10,220,20","It's okay, I just don't see much too it.,7,300,20","I really like this, especially the tree.,23,220,20","Amy","peaceful. contemplative. balanced. old,10,220,20","Kelly","I really like this, especially the tree.,23,220,20","Rachel","Reminds me of a beautiful tree growing in a courtyard. I like the light and airy technique used.,34,80,20","4"
"11819","","survey-text","154","1006470","0.0-151.0-0.0","A3Z014JO91RTM","","","","{""Q0"":""course""}","","","","","","","","","","","","","","","","","","","","","","",""
"10962","","survey-text","155","1017434","0.0-152.0-0.0","A3Z014JO91RTM","","","","{""Q0"":""sad traffic accident""}","","","","","","","","","","","","","","","","","","","","","","",""
"2396.800000011921","","image-slider-response","156","1019834","0.0-153.0","A3Z014JO91RTM","","","","","-32","","","","","","","","","","","","","","","","","","","","","",""
"2247","","image-button-response","157","1024839","0.0-154.0","A3Z014JO91RTM","img_art/20.jpg","0","","","","","","","","","","","","","","","","","","","","","","","","",""
"409","","image-button-response","158","1025252","0.0-155.0","A3Z014JO91RTM","img_art/20.jpg","2","","","","","","","","","","","","","","","","","","","","","","","","",""
"680","","image-button-response","159","1025935","0.0-156.0-0.0","A3Z014JO91RTM","img_art/20.jpg","0","","","","","","","","","","","","","","","","","","","","","","","","",""
"5763","","image-button-response","160","1031703","0.0-157.0-0.0","A3Z014JO91RTM","img_art/20.jpg","4","","","","","","","","","","","","","","","","","","","","","","","","",""
"null","","html-keyboard-response","161","1032710","0.0-158.0","A3Z014JO91RTM","<p style=""font-size: 48px;"">+</p>","","","","","null","allTrialResponses","1000","1","16","img_art/20.jpg","-32","sad traffic accident","Caroline,Margaret,Rachel,Amy,Leah,Kelly","Makes me feel weary,21,100,20","It seems to be a neutral cool toned art piece. Gives me alamo/desert vibes,2,100,20","While interesting in technique.. It looks like a blurry car wreck. Does not evoke great emotions.,-20,80,20","Elements that are more defined are incongruous to the soft and melting nature of this painting,5,220,20","A sad past town, pollution, guess I like happier scenes,-30,360,20","I want to like this more, but i wish it was more detailed. It's hard for me to see what it is.,5,220,20","Rachel","While interesting in technique.. It looks like a blurry car wreck. Does not evoke great emotions.,-20,80,20","Caroline","Makes me feel weary,21,100,20","Leah","A sad past town, pollution, guess I like happier scenes,-30,360,20","4"
"13501","","survey-text","162","1046220","0.0-159.0-0.0","A3Z014JO91RTM","","","","{""Q0"":""death is eminent""}","","","","","","","","","","","","","","","","","","","","","","",""
"3647","","image-slider-response","163","1049870","0.0-160.0","A3Z014JO91RTM","","","","","-50","","","","","","","","","","","","","","","","","","","","","",""
"3630","","image-button-response","164","1054876","0.0-161.0","A3Z014JO91RTM","img_art/25.jpg","0","","","","","","","","","","","","","","","","","","","","","","","","",""
"1042","","image-button-response","165","1055921","0.0-162.0","A3Z014JO91RTM","img_art/25.jpg","0","","","","","","","","","","","","","","","","","","","","","","","","",""
"4448","","image-button-response","166","1060372","0.0-163.0-0.0","A3Z014JO91RTM","img_art/25.jpg","2","","","","","","","","","","","","","","","","","","","","","","","","",""
"5963","","image-button-response","167","1066339","0.0-164.0-0.0","A3Z014JO91RTM","img_art/25.jpg","1","","","","","","","","","","","","","","","","","","","","","","","","",""
"null","","html-keyboard-response","168","1067342","0.0-165.0","A3Z014JO91RTM","<p style=""font-size: 48px;"">+</p>","","","","","null","allTrialResponses","1000","1","17","img_art/25.jpg","-50","death is eminent","Caroline,Brittany,Rachel,Savannah,Leah,Christina","Makes me think of Baphomet, As above so below and is scary,-50,100,20","It's a rather intriguing design,12,40,20","I like the green color, but the combination of green and a person with a long neck reminds me of aliens,-27,80,20","Very cool color, very clear message!,50,200,20","I really like it, very simple, very tribal,38,360,20","nice colors and it looks like a native work,32,240,20","Caroline","Makes me think of Baphomet, As above so below and is scary,-50,100,20","Rachel","I like the green color, but the combination of green and a person with a long neck reminds me of aliens,-27,80,20","Brittany","It's a rather intriguing design,12,40,20","4"
"14857","","survey-text","169","1082206","0.0-166.0-0.0","A3Z014JO91RTM","","","","{""Q0"":""tree growing in spring very pretty""}","","","","","","","","","","","","","","","","","","","","","","",""
"2113.600000023842","","image-slider-response","170","1084323","0.0-167.0","A3Z014JO91RTM","","","","","10","","","","","","","","","","","","","","","","","","","","","",""
"3213","","image-button-response","171","1089327","0.0-168.0","A3Z014JO91RTM","img_art/14.jpg","3","","","","","","","","","","","","","","","","","","","","","","","","",""
"961","","image-button-response","172","1090291","0.0-169.0","A3Z014JO91RTM","img_art/14.jpg","3","","","","","","","","","","","","","","","","","","","","","","","","",""
"2730","","image-button-response","173","1093024","0.0-170.0-0.0","A3Z014JO91RTM","img_art/14.jpg","5","","","","","","","","","","","","","","","","","","","","","","","","",""
"2030","","image-button-response","174","1095058","0.0-171.0-0.0","A3Z014JO91RTM","img_art/14.jpg","1","","","","","","","","","","","","","","","","","","","","","","","","",""
"null","","html-keyboard-response","175","1096563","0.0-172.0","A3Z014JO91RTM","<p style=""font-size: 48px;"">+</p>","","","","","null","allTrialResponses","1500","1","18","img_art/14.jpg","10","tree growing in spring very pretty","Caroline,Brittany,Rachel,Amanda,Meghan,Kimberly","Makes me think of trees and spring. A good feeling,26,100,20","The colors are good and the design is intriguing.,15,40,20","Did not evoke much feeling except confusion. I am not sure what to make of this one.,-20,80,20","Gorgeous use of water color,50,180,20","its okay nothing special,11,220,20","In some ways it looks natural, but I'm just not feeling it,0,260,20","Amanda","Gorgeous use of water color,50,180,20","Kimberly","In some ways it looks natural, but I'm just not feeling it,0,260,20","Brittany","The colors are good and the design is intriguing.,15,40,20","4"
"19487","","survey-text","176","1116059","0.0-173.0-0.0","A3Z014JO91RTM","","","","{""Q0"":""front line of a war""}","","","","","","","","","","","","","","","","","","","","","","",""
"5464.199999988079","","image-slider-response","177","1121526","0.0-174.0","A3Z014JO91RTM","","","","","-41","","","","","","","","","","","","","","","","","","","","","",""
"1713","","image-button-response","178","1126532","0.0-175.0","A3Z014JO91RTM","img_art/18.jpg","2","","","","","","","","","","","","","","","","","","","","","","","","",""
"174","","image-button-response","179","1126710","0.0-176.0","A3Z014JO91RTM","img_art/18.jpg","2","","","","","","","","","","","","","","","","","","","","","","","","",""
"3563","","image-button-response","180","1130278","0.0-177.0-0.0","A3Z014JO91RTM","img_art/18.jpg","3","","","","","","","","","","","","","","","","","","","","","","","","",""
"1429","","image-button-response","181","1131711","0.0-178.0-0.0","A3Z014JO91RTM","img_art/18.jpg","4","","","","","","","","","","","","","","","","","","","","","","","","",""
"null","","html-keyboard-response","182","1132215","0.0-179.0","A3Z014JO91RTM","<p style=""font-size: 48px;"">+</p>","","","","","null","allTrialResponses","500","1","19","img_art/18.jpg","-41","front line of a war","Chelsea,Brittany,Sara,Amanda,Mikayla,Kimberly","I like the detail but I wouldn't hang this up on my wall.,14,180,20","This is really interesting to look at. I like the colors and the spectral look.,27,40,20","Too abstract and swirly,-21,160,20","Too political, not my cup of tea,-50,180,20","Kinda boring. Not my favorite,-34,300,20","I enjoy the detailed line work in this one,21,260,20","Sara","Too abstract and swirly,-21,160,20","Amanda","Too political, not my cup of tea,-50,180,20","Mikayla","Kinda boring. Not my favorite,-34,300,20","4"
"102463","","survey-text","183","1234686","0.0-180.0-0.0","A3Z014JO91RTM","","","","{""Q0"":""scary and horrible""}","","","","","","","","","","","","","","","","","","","","","","",""
"2196.600000023842","","image-slider-response","184","1236885","0.0-181.0","A3Z014JO91RTM","","","","","-39","","","","","","","","","","","","","","","","","","","","","",""
"null","","image-button-response","185","1241891","0.0-182.0","A3Z014JO91RTM","img_art/4.jpg","null","","","","","","","","","","","","","","","","","","","","","","","","",""
"1242","","image-button-response","186","1243137","0.0-183.0","A3Z014JO91RTM","img_art/4.jpg","3","","","","","","","","","","","","","","","","","","","","","","","","",""
"1513","","image-button-response","187","1244653","0.0-184.0-0.0","A3Z014JO91RTM","img_art/4.jpg","4","","","","","","","","","","","","","","","","","","","","","","","","",""
"3597","","image-button-response","188","1248254","0.0-185.0-0.0","A3Z014JO91RTM","img_art/4.jpg","2","","","","","","","","","","","","","","","","","","","","","","","","",""
"null","","html-keyboard-response","189","1249757","0.0-186.0","A3Z014JO91RTM","<p style=""font-size: 48px;"">+</p>","","","","","null","allTrialResponses","1500","1","20","img_art/4.jpg","-39","scary and horrible","Jennifer,Kayla,Sara,Amanda,Mikayla,Monica","Ugly and bland compared to the other pieces.,-33,380,20","It's okay, I guess. Nothing much either way.,5,180,20","Random swirls again,-30,160,20","Looks like an abstract version of the Scream painting,-50,180,20","Not very interesting to look at.,-34,300,20","The dark yellow color makes me think of mustard, which I dislike,-27,360,20","Amanda","Looks like an abstract version of the Scream painting,-50,180,20","Mikayla","Not very interesting to look at.,-34,300,20","Sara","Random swirls again,-30,160,20","4"
"2782","","survey-text","190","1252554","0.0-187.0-0.0","A3Z014JO91RTM","","","","{""Q0"":""we""}","","","","","","","","","","","","","","","","","","","","","","",""
"25598","","survey-text","191","1278155","0.0-188.0-0.0","A3Z014JO91RTM","","","","{""Q0"":""elementary and simple""}","","","","","","","","","","","","","","","","","","","","","","",""
"2431.800000011921","","image-slider-response","192","1280590","0.0-189.0","A3Z014JO91RTM","","","","","-21","","","","","","","","","","","","","","","","","","","","","",""
"3047","","image-button-response","193","1285594","0.0-190.0","A3Z014JO91RTM","img_art/27.jpg","2","","","","","","","","","","","","","","","","","","","","","","","","",""
"527","","image-button-response","194","1286124","0.0-191.0","A3Z014JO91RTM","img_art/27.jpg","2","","","","","","","","","","","","","","","","","","","","","","","","",""
"1250","","image-button-response","195","1287377","0.0-192.0-0.0","A3Z014JO91RTM","img_art/27.jpg","1","","","","","","","","","","","","","","","","","","","","","","","","",""
"1811","","image-button-response","196","1289192","0.0-193.0-0.0","A3Z014JO91RTM","img_art/27.jpg","0","","","","","","","","","","","","","","","","","","","","","","","","",""
"null","","html-keyboard-response","197","1290701","0.0-194.0","A3Z014JO91RTM","<p style=""font-size: 48px;"">+</p>","","","","","null","allTrialResponses","1500","1","21","img_art/27.jpg","-21","elementary and simple","Molly,Mackenzie,Sara,Amanda,Mikayla,Shelby","No clue what to say.,0,340,20","The color palette isn't my taste,-24,20,20","Not cohesive design,-31,160,20","I love the childish aspect to it,37,180,20","It kinda reminds me of sushi.,16,300,20","The colors in this one are wonderful,20,240,20","Sara","Not cohesive design,-31,160,20","Mackenzie","The color palette isn't my taste,-24,20,20","Molly","No clue what to say.,0,340,20","4"
"12983","","survey-text","198","1303693","0.0-195.0-0.0","A3Z014JO91RTM","","","","{""Q0"":""weary. storm brewing""}","","","","","","","","","","","","","","","","","","","","","","",""
"2395.699999988079","","image-slider-response","199","1306093","0.0-196.0","A3Z014JO91RTM","","","","","-10","","","","","","","","","","","","","","","","","","","","","",""
"4547","","image-button-response","200","1311099","0.0-197.0","A3Z014JO91RTM","img_art/21.jpg","0","","","","","","","","","","","","","","","","","","","","","","","","",""
"307","","image-button-response","201","1311409","0.0-198.0","A3Z014JO91RTM","img_art/21.jpg","0","","","","","","","","","","","","","","","","","","","","","","","","",""
"882","","image-button-response","202","1312297","0.0-199.0-0.0","A3Z014JO91RTM","img_art/21.jpg","2","","","","","","","","","","","","","","","","","","","","","","","","",""
"3043","","image-button-response","203","1315343","0.0-200.0-0.0","A3Z014JO91RTM","img_art/21.jpg","3","","","","","","","","","","","","","","","","","","","","","","","","",""
"null","","html-keyboard-response","204","1315847","0.0-201.0","A3Z014JO91RTM","<p style=""font-size: 48px;"">+</p>","","","","","null","allTrialResponses","500","1","22","img_art/21.jpg","-10","weary. storm brewing","Molly,Mackenzie,Sara,Miranda,Paige,Andrea","Looks like a war. Many things happening on the painting, really enjoy it.,30,340,20","The shapes and colors are very interesting to look at.,41,20,20","It looks confusing,-21,160,20","This looks very interesting because something is happening but I can't tell what.,28,320,20","the picture is boring,1,60,20","It feels like a day at sea but the pink is slightly jarring and holding my eye.,26,240,20","Molly","Looks like a war. Many things happening on the painting, really enjoy it.,30,340,20","Sara","It looks confusing,-21,160,20","Miranda","This looks very interesting because something is happening but I can't tell what.,28,320,20","4"
"14290","","survey-text","205","1330145","0.0-202.0-0.0","A3Z014JO91RTM","","","","{""Q0"":""instrumental confusing design""}","","","","","","","","","","","","","","","","","","","","","","",""
"3465.5","","image-slider-response","206","1333613","0.0-203.0","A3Z014JO91RTM","","","","","-2","","","","","","","","","","","","","","","","","","","","","",""
"4247","","image-button-response","207","1338619","0.0-204.0","A3Z014JO91RTM","img_art/10.jpg","2","","","","","","","","","","","","","","","","","","","","","","","","",""
"1789","","image-button-response","208","1340411","0.0-205.0","A3Z014JO91RTM","img_art/10.jpg","2","","","","","","","","","","","","","","","","","","","","","","","","",""
"11797","","image-button-response","209","1352212","0.0-206.0-0.0","A3Z014JO91RTM","img_art/10.jpg","3","","","","","","","","","","","","","","","","","","","","","","","","",""
"2312","","image-button-response","210","1354529","0.0-207.0-0.0","A3Z014JO91RTM","img_art/10.jpg","3","","","","","","","","","","","","","","","","","","","","","","","","",""
"878","","image-button-response","211","1360113","0.0-207.1-0.1","A3Z014JO91RTM","img_art/10.jpg","0","","","","","","","","","","","","","","","","","","","","","","","","",""
"null","","html-keyboard-response","212","1361616","0.0-208.0","A3Z014JO91RTM","<p style=""font-size: 48px;"">+</p>","","","","","null","allTrialResponses","1500","1","23","img_art/10.jpg","-2","instrumental confusing design","Molly,Katherine,Sara,Miranda,Melissa,Sabrina","For me, it looks like a giant ship on the sea and it's astonishing.,30,340,20","This is pretty rad. The outline looks like a music staff,15,120,20","I don't like the colors,-20,160,20","It reminds me of how my dog has to run all over the place just to poop in one specific location.,-20,320,20","shapes are appealing/relationship between the beige square and the black lines,24,240,20","I love the dark and edgy nature of this,50,120,20","Sara","I don't like the colors,-20,160,20","Miranda","It reminds me of how my dog has to run all over the place just to poop in one specific location.,-20,320,20","Molly","For me, it looks like a giant ship on the sea and it's astonishing.,30,340,20","6"
"11637","","survey-text","213","1373264","0.0-209.0-0.0","A3Z014JO91RTM","","","","{""Q0"":""turmoil and hopelessness""}","","","","","","","","","","","","","","","","","","","","","","",""
"4917","","image-slider-response","214","1378184","0.0-210.0","A3Z014JO91RTM","","","","","-9","","","","","","","","","","","","","","","","","","","","","",""
"null","","image-button-response","215","1383192","0.0-211.0","A3Z014JO91RTM","img_art/8.jpg","null","","","","","","","","","","","","","","","","","","","","","","","","",""
"2621","","image-button-response","216","1385816","0.0-212.0","A3Z014JO91RTM","img_art/8.jpg","1","","","","","","","","","","","","","","","","","","","","","","","","",""
"9750","","image-button-response","217","1395569","0.0-213.0-0.0","A3Z014JO91RTM","img_art/8.jpg","4","","","","","","","","","","","","","","","","","","","","","","","","",""
"1396","","image-button-response","218","1396970","0.0-214.0-0.0","A3Z014JO91RTM","img_art/8.jpg","3","","","","","","","","","","","","","","","","","","","","","","","","",""
"null","","html-keyboard-response","219","1397472","0.0-215.0","A3Z014JO91RTM","<p style=""font-size: 48px;"">+</p>","","","","","null","allTrialResponses","500","1","24","img_art/8.jpg","-9","turmoil and hopelessness","Molly,Angelica,Sara,Miranda,Mary,Claire","Different styles make this picture outstanding.,20,340,20","It's a poor rendition of an MC Escher inspired piece.,-25,280,20","Very interesting use of blocks,21,160,20","I like this, the longer I look at in the more details I see.,41,320,20","Very inspiring piece. I love how it's at angle. It gives it character.,23,180,20","looks like an aerial view, very pretty,32,260,20","Angelica","It's a poor rendition of an MC Escher inspired piece.,-25,280,20","Mary","Very inspiring piece. I love how it's at angle. It gives it character.,23,180,20","Miranda","I like this, the longer I look at in the more details I see.,41,320,20","6"
"15952","","survey-text","220","1413433","0.0-216.0-0.0","A3Z014JO91RTM","","","","{""Q0"":""confusing and intriguing ""}","","","","","","","","","","","","","","","","","","","","","","",""
"2947","","image-slider-response","221","1416383","0.0-217.0","A3Z014JO91RTM","","","","","6","","","","","","","","","","","","","","","","","","","","","",""
"null","","image-button-response","222","1421387","0.0-218.0","A3Z014JO91RTM","img_art/9.jpg","null","","","","","","","","","","","","","","","","","","","","","","","","",""
"28081","","image-button-response","223","1449471","0.0-219.0","A3Z014JO91RTM","img_art/9.jpg","1","","","","","","","","","","","","","","","","","","","","","","","","",""
"2263","","image-button-response","224","1451738","0.0-220.0-0.0","A3Z014JO91RTM","img_art/9.jpg","2","","","","","","","","","","","","","","","","","","","","","","","","",""
"3747","","image-button-response","225","1455489","0.0-221.0-0.0","A3Z014JO91RTM","img_art/9.jpg","5","","","","","","","","","","","","","","","","","","","","","","","","",""
"null","","html-keyboard-response","226","1455992","0.0-222.0","A3Z014JO91RTM","<p style=""font-size: 48px;"">+</p>","","","","","null","allTrialResponses","500","1","25","img_art/9.jpg","6","confusing and intriguing ","Leslie,Angelica,Destiny,Miranda,Mary,Gabriela","The colors are pretty, and remind me of a circus.,5,380,20","The colors and image is ugly.,-7,280,20","is that sleeping beauty,33,360,20","It looks like someone gave a kid a coloring book page but the colors are soothing and look put together and elegant,27,320,20","How neat is this piece?  I love the angry expressive lines. Emotion is captured in it.,26,180,20","This photo make me feel peaceful. It looks like a woman sleeping in a garden,42,140,20","Angelica","The colors and image is ugly.,-7,280,20","Destiny","is that sleeping beauty,33,360,20","Gabriela","This photo make me feel peaceful. It looks like a woman sleeping in a garden,42,140,20","6"
"3651","","survey-text","227","1459659","0.0-223.0-0.0","A3Z014JO91RTM","","","","{""Q0"":""table""}","","","","","","","","","","","","","","","","","","","","","","",""
"12897","","survey-text","228","1472557","0.0-224.0-0.0","A3Z014JO91RTM","","","","{""Q0"":""leftover and sloppy""}","","","","","","","","","","","","","","","","","","","","","","",""
"2464.2999999523163","","image-slider-response","229","1475024","0.0-225.0","A3Z014JO91RTM","","","","","-42","","","","","","","","","","","","","","","","","","","","","",""
"3613","","image-button-response","230","1480032","0.0-226.0","A3Z014JO91RTM","img_art/29.jpg","1","","","","","","","","","","","","","","","","","","","","","","","","",""
"904","","image-button-response","231","1480939","0.0-227.0","A3Z014JO91RTM","img_art/29.jpg","1","","","","","","","","","","","","","","","","","","","","","","","","",""
"614","","image-button-response","232","1481556","0.0-228.0-0.0","A3Z014JO91RTM","img_art/29.jpg","0","","","","","","","","","","","","","","","","","","","","","","","","",""
"2196","","image-button-response","233","1483756","0.0-229.0-0.0","A3Z014JO91RTM","img_art/29.jpg","2","","","","","","","","","","","","","","","","","","","","","","","","",""
"null","","html-keyboard-response","234","1485263","0.0-230.0","A3Z014JO91RTM","<p style=""font-size: 48px;"">+</p>","","","","","null","allTrialResponses","1500","1","26","img_art/29.jpg","-42","leftover and sloppy","Madison,Angelica,Destiny,Grace,Dominique,Gabriela","Well if the artist themself is crossing it out, why should I pay any mind?,-30,60,20","This is very gross and odd looking.,-8,280,20","is this supposed to be edgy,-21,360,20","Doesn't do much for me. I like some of the colors but not much else.,-10,180,20","Another great work of art and very conversational piece,33,400,20","I like that it looks like a scene from perhaps a failed painted project,10,140,20","Angelica","This is very gross and odd looking.,-8,280,20","Madison","Well if the artist themself is crossing it out, why should I pay any mind?,-30,60,20","Destiny","is this supposed to be edgy,-21,360,20","6"
"9251","","survey-text","235","1494526","0.0-231.0-0.0","A3Z014JO91RTM","","","","{""Q0"":""unfinished and simple""}","","","","","","","","","","","","","","","","","","","","","","",""
"3397.800000011921","","image-slider-response","236","1497927","0.0-232.0","A3Z014JO91RTM","","","","","-4","","","","","","","","","","","","","","","","","","","","","",""
"4093","","image-button-response","237","1502932","0.0-233.0","A3Z014JO91RTM","img_art/6.jpg","0","","","","","","","","","","","","","","","","","","","","","","","","",""
"390","","image-button-response","238","1503325","0.0-234.0","A3Z014JO91RTM","img_art/6.jpg","0","","","","","","","","","","","","","","","","","","","","","","","","",""
"697","","image-button-response","239","1504025","0.0-235.0-0.0","A3Z014JO91RTM","img_art/6.jpg","1","","","","","","","","","","","","","","","","","","","","","","","","",""
"1446","","image-button-response","240","1505475","0.0-236.0-0.0","A3Z014JO91RTM","img_art/6.jpg","2","","","","","","","","","","","","","","","","","","","","","","","","",""
"null","","html-keyboard-response","241","1505978","0.0-237.0","A3Z014JO91RTM","<p style=""font-size: 48px;"">+</p>","","","","","null","allTrialResponses","500","1","27","img_art/6.jpg","-4","unfinished and simple","Madison,Angelica,Destiny,Jasmine,Stephanie,Kelsey","Is this the villain from Despicable Me?,29,60,20","It feels sad but it's nice to look at.,4,280,20","boring. don't really like birds,1,360,20","Simple and clean,11,340,20","Nevermore!  A black raven sitting on a pumpkin. Halloween,-35,300,20","its like a jalapeno,-28,240,20","Madison","Is this the villain from Despicable Me?,29,60,20","Angelica","It feels sad but it's nice to look at.,4,280,20","Destiny","boring. don't really like birds,1,360,20","6"
"16854","","survey-text","242","1522842","0.0-238.0-0.0","A3Z014JO91RTM","","","","{""Q0"":""I love the water effect""}","","","","","","","","","","","","","","","","","","","","","","",""
"4113.800000011921","","image-slider-response","243","1526959","0.0-239.0","A3Z014JO91RTM","","","","","16","","","","","","","","","","","","","","","","","","","","","",""
"4132","","image-button-response","244","1531963","0.0-240.0","A3Z014JO91RTM","img_art/24.jpg","4","","","","","","","","","","","","","","","","","","","","","","","","",""
"377","","image-button-response","245","1532344","0.0-241.0","A3Z014JO91RTM","img_art/24.jpg","4","","","","","","","","","","","","","","","","","","","","","","","","",""
"630","","image-button-response","246","1532977","0.0-242.0-0.0","A3Z014JO91RTM","img_art/24.jpg","3","","","","","","","","","","","","","","","","","","","","","","","","",""
"1149","","image-button-response","247","1534131","0.0-243.0-0.0","A3Z014JO91RTM","img_art/24.jpg","5","","","","","","","","","","","","","","","","","","","","","","","","",""
"null","","html-keyboard-response","248","1534635","0.0-244.0","A3Z014JO91RTM","<p style=""font-size: 48px;"">+</p>","","","","","null","allTrialResponses","500","1","28","img_art/24.jpg","16","I love the water effect","Madison,Angelica,Destiny,Ashley,Amber,Lindsey","Exceedingly garish,-19,60,20","This looks ugly and simple, as if done by a young person.,-2,280,20","brick wall waterfall girl you think you got it all,50,360,20","NOt quite Bob Ross, but still good.,30,320,20","peaceful and calm yet joyous.,50,200,20","I like the colors and see a stream in a wooded setting. Makes me feel calm and cheerful.,27,400,20","Amber","peaceful and calm yet joyous.,50,200,20","Ashley","NOt quite Bob Ross, but still good.,30,320,20","Lindsey","I like the colors and see a stream in a wooded setting. Makes me feel calm and cheerful.,27,400,20","6"
"9864","","survey-text","249","1544511","0.0-245.0-0.0","A3Z014JO91RTM","","","","{""Q0"":""terrifying and unsettling""}","","","","","","","","","","","","","","","","","","","","","","",""
"3113.699999988079","","image-slider-response","250","1547627","0.0-246.0","A3Z014JO91RTM","","","","","-41","","","","","","","","","","","","","","","","","","","","","",""
"4932","","image-button-response","251","1552633","0.0-247.0","A3Z014JO91RTM","img_art/16.jpg","1","","","","","","","","","","","","","","","","","","","","","","","","",""
"509","","image-button-response","252","1553145","0.0-248.0","A3Z014JO91RTM","img_art/16.jpg","0","","","","","","","","","","","","","","","","","","","","","","","","",""
"547","","image-button-response","253","1553695","0.0-249.0-0.0","A3Z014JO91RTM","img_art/16.jpg","1","","","","","","","","","","","","","","","","","","","","","","","","",""
"5264","","image-button-response","254","1558963","0.0-250.0-0.0","A3Z014JO91RTM","img_art/16.jpg","5","","","","","","","","","","","","","","","","","","","","","","","","",""
"null","","html-keyboard-response","255","1559971","0.0-251.0","A3Z014JO91RTM","<p style=""font-size: 48px;"">+</p>","","","","","null","allTrialResponses","1000","1","29","img_art/16.jpg","-41","terrifying and unsettling","Breanna,Madeline,Jenna,Ashley,Amber,Lindsey","The bear is terrifying,-50,380,20","That bear looks unfitting!,-8,40,20","very bizarre and confusing, but that feels purposeful, so i don't completely hate it.,-25,360,20","A lot fo these could abstract or childrens work.,23,320,20","Don't like the teddy bear. It takes away from the painting.,-39,200,20","It's depressing. Probably achieved its goal. But I wouldn't want it hanging in my home.,-31,400,20","Breanna","The bear is terrifying,-50,380,20","Madeline","That bear looks unfitting!,-8,40,20","Lindsey","It's depressing. Probably achieved its goal. But I wouldn't want it hanging in my home.,-31,400,20","6"
"20319","","survey-text","256","1580299","0.0-252.0-0.0","A3Z014JO91RTM","","","","{""Q0"":""dark and sad""}","","","","","","","","","","","","","","","","","","","","","","",""
"3597.900000035763","","image-slider-response","257","1583900","0.0-253.0","A3Z014JO91RTM","","","","","-4","","","","","","","","","","","","","","","","","","","","","",""
"4113","","image-button-response","258","1588904","0.0-254.0","A3Z014JO91RTM","img_art/28.jpg","0","","","","","","","","","","","","","","","","","","","","","","","","",""
"1092","","image-button-response","259","1589999","0.0-255.0","A3Z014JO91RTM","img_art/28.jpg","0","","","","","","","","","","","","","","","","","","","","","","","","",""
"1668","","image-button-response","260","1591670","0.0-256.0-0.0","A3Z014JO91RTM","img_art/28.jpg","1","","","","","","","","","","","","","","","","","","","","","","","","",""
"1961","","image-button-response","261","1593634","0.0-257.0-0.0","A3Z014JO91RTM","img_art/28.jpg","2","","","","","","","","","","","","","","","","","","","","","","","","",""
"null","","html-keyboard-response","262","1594137","0.0-258.0","A3Z014JO91RTM","<p style=""font-size: 48px;"">+</p>","","","","","null","allTrialResponses","500","1","30","img_art/28.jpg","-4","dark and sad","Breanna,Madeline,Mariah,Cheyenne,Michaela,Lindsey","The colors are depressing,-5,380,20","It is a bit drab,-10,40,20","Colors are pleasing, shapes are vaguely unpleasant. Kidneys at a smoky bar.,5,140,20","Good use of shapes.,7,200,20","Salvador Dali called and he thinks this looks pretty good,27,260,20","Not a fan of the drab colors but it looks a little bit interesting.,-7,400,20","Breanna","The colors are depressing,-5,380,20","Madeline","It is a bit drab,-10,40,20","Mariah","Colors are pleasing, shapes are vaguely unpleasant. Kidneys at a smoky bar.,5,140,20","6"
"5868","","image-button-response_instructions","263","1600017","0.0-259.0","A3Z014JO91RTM","","0","instructions","","","","","","","","","","","","","","","","","","","","","","","",""
"1411","","image-button-response","264","1601434","0.0-260.0","A3Z014JO91RTM","","0","","","","","","","","","","","","","","","","","","","","","","","","",""
