"rt","url","trial_type","trial_index","time_elapsed","internal_node_id","participant_id","stimulus","button_pressed","Name","responses","response","key_press","variableName","fixationTime","condition","trial","photo","subjectRating","subjectResponse","agentsNames","agent_1_Response","agent_2_Response","agent_3_Response","agent_4_Response","agent_5_Response","agent_6_Response","kept_1_name","kept_1_response","kept_2_name","kept_2_response","kept_3_name","kept_3_response","errorCounter"
"33606","external_page_harvard.html","external-html","0","33682","0.0-0.0","A4BDXOXC4D8FX","","","","","","","","","","","","","","","","","","","","","","","","","","",""
"1375","","image-button-response","1","35060","0.0-1.0","A4BDXOXC4D8FX","","1","","","","","","","","","","","","","","","","","","","","","","","","",""
"1930","","image-button-response","2","36998","0.0-2.0-0.0","A4BDXOXC4D8FX","","1","phone","","","","","","","","","","","","","","","","","","","","","","","",""
"7729","","survey-text","3","44730","0.0-3.0-0.0","A4BDXOXC4D8FX","","","","{""Q0"":""A4BDXOXC4D8FX""}","","","","","","","","","","","","","","","","","","","","","","",""
"7312","","image-button-response_instructions","4","52045","0.0-4.0","A4BDXOXC4D8FX","","0","instructions","","","","","","","","","","","","","","","","","","","","","","","",""
"16422","","image-button-response_instructions","5","68469","0.0-5.0","A4BDXOXC4D8FX","img_art/ins/popularity/ins1.png","0","instructions","","","","","","","","","","","","","","","","","","","","","","","",""
"6596","","image-button-response_instructions","6","75067","0.0-6.0","A4BDXOXC4D8FX","img_art/ins/popularity/ins2.png","0","instructions","","","","","","","","","","","","","","","","","","","","","","","",""
"9449","","image-button-response_instructions","7","84519","0.0-7.0","A4BDXOXC4D8FX","img_art/ins/popularity/ins2Extreme.png","0","instructions","","","","","","","","","","","","","","","","","","","","","","","",""
"22191","","image-button-response_instructions","8","106712","0.0-8.0","A4BDXOXC4D8FX","img_art/ins/popularity/ins3KEEPpop.PNG","0","instructions","","","","","","","","","","","","","","","","","","","","","","","",""
"5225","","image-button-response_instructions","9","111939","0.0-9.0","A4BDXOXC4D8FX","img_art/ins/popularity/ins3ANamepop.PNG","0","instructions","","","","","","","","","","","","","","","","","","","","","","","",""
"3070","","image-button-response_instructions","10","115010","0.0-10.0","A4BDXOXC4D8FX","img_art/ins/popularity/ins3ARatingpop.png","0","instructions","","","","","","","","","","","","","","","","","","","","","","","",""
"2763","","image-button-response_instructions","11","117774","0.0-11.0","A4BDXOXC4D8FX","img_art/ins/popularity/ins3ATextpop.png","0","instructions","","","","","","","","","","","","","","","","","","","","","","","",""
"7497","","image-button-response_instructions","12","125273","0.0-12.0","A4BDXOXC4D8FX","img_art/ins/popularity/ins3ALikespop.png","0","instructions","","","","","","","","","","","","","","","","","","","","","","","",""
"26858","","image-button-response_instructions","13","152133","0.0-13.0","A4BDXOXC4D8FX","img_art/ins/popularity/ins3KEEPpop.PNG","0","instructions","","","","","","","","","","","","","","","","","","","","","","","",""
"19978","","image-button-response_instructions","14","172113","0.0-14.0","A4BDXOXC4D8FX","img_art/ins/popularity/ins3_5RED.png","0","instructions","","","","","","","","","","","","","","","","","","","","","","","",""
"10258","","image-button-response_instructions","15","182372","0.0-15.0","A4BDXOXC4D8FX","img_art/ins/popularity/ins3KEEPpop.PNG","0","instructions","","","","","","","","","","","","","","","","","","","","","","","",""
"12706","","image-button-response_instructions","16","195079","0.0-16.0","A4BDXOXC4D8FX","img_art/ins/popularity/ins4KEEPpop.PNG","0","instructions","","","","","","","","","","","","","","","","","","","","","","","",""
"8984","","image-button-response_instructions","17","204065","0.0-17.0","A4BDXOXC4D8FX","img_art/ins/popularity/ins5KEEPpop.PNG","0","instructions","","","","","","","","","","","","","","","","","","","","","","","",""
"1197","","image-button-response_instructions","18","205265","0.0-18.0","A4BDXOXC4D8FX","","0","instructions","","","","","","","","","","","","","","","","","","","","","","","",""
"12243","","survey-text","19","217560","0.0-19.0-0.0","A4BDXOXC4D8FX","","","","{""Q0"":""but""}","","","","","","","","","","","","","","","","","","","","","","",""
"9424","","survey-text","20","226986","0.0-20.0-0.0","A4BDXOXC4D8FX","","","","{""Q0"":""I think it's very pretty.""}","","","","","","","","","","","","","","","","","","","","","","",""
"3351.7999992370605","","image-slider-response","21","230343","0.0-21.0","A4BDXOXC4D8FX","","","","","50","","","","","","","","","","","","","","","","","","","","","",""
"null","","image-button-response","22","235352","0.0-22.0","A4BDXOXC4D8FX","img_art/ins/1.jpg","null","","","","","","","","","","","","","","","","","","","","","","","","",""
"4167","","image-button-response","23","239522","0.0-23.0","A4BDXOXC4D8FX","img_art/ins/1.jpg","5","","","","","","","","","","","","","","","","","","","","","","","","",""
"5224","","image-button-response","24","244750","0.0-24.0-0.0","A4BDXOXC4D8FX","img_art/ins/1.jpg","3","","","","","","","","","","","","","","","","","","","","","","","","",""
"5898","","image-button-response","25","250653","0.0-25.0-0.0","A4BDXOXC4D8FX","img_art/ins/1.jpg","0","","","","","","","","","","","","","","","","","","","","","","","","",""
"null","","html-keyboard-response","26","251160","0.0-26.0","A4BDXOXC4D8FX","<p style=""font-size: 48px;"">+</p>","","","","","null","allTrialResponses","500","1","-2","img_art/ins/1.jpg","50","I think it's very pretty.","Allison,Ashley,Beth,Dora,Erika,Jen","looks like a lot of things going on in the mist,20,20,20","I just don't get why these type of art would be popular,-32,40,20","This color reminds me of poo,-46,60,20","looks like what my niece in 3rd grade did this afternoon,-50,80,20","I like the sophisticated brushwork,40,100,20","It reminds me of a candy land dream I had,36,120,20","Jen","It reminds me of a candy land dream I had,36,120,20","Dora","looks like what my niece in 3rd grade did this afternoon,-50,80,20","Allison","looks like a lot of things going on in the mist,20,20,20","0"
"12835","","survey-text","27","264004","0.0-27.0-0.0","A4BDXOXC4D8FX","","","","{""Q0"":""Looks like something an old lady would buy.""}","","","","","","","","","","","","","","","","","","","","","","",""
"5589.099999427795","","image-slider-response","28","269597","0.0-28.0","A4BDXOXC4D8FX","","","","","-46","","","","","","","","","","","","","","","","","","","","","",""
"null","","image-button-response","29","274602","0.0-29.0","A4BDXOXC4D8FX","img_art/ins/2.jpg","null","","","","","","","","","","","","","","","","","","","","","","","","",""
"3795","","image-button-response","30","278400","0.0-30.0","A4BDXOXC4D8FX","img_art/ins/2.jpg","3","","","","","","","","","","","","","","","","","","","","","","","","",""
"2313","","image-button-response","31","280717","0.0-31.0-0.0","A4BDXOXC4D8FX","img_art/ins/2.jpg","0","","","","","","","","","","","","","","","","","","","","","","","","",""
"4791","","image-button-response","32","285512","0.0-32.0-0.0","A4BDXOXC4D8FX","img_art/ins/2.jpg","4","","","","","","","","","","","","","","","","","","","","","","","","",""
"null","","html-keyboard-response","33","286019","0.0-33.0","A4BDXOXC4D8FX","<p style=""font-size: 48px;"">+</p>","","","","","null","allTrialResponses","500","1","-1","img_art/ins/2.jpg","-46","Looks like something an old lady would buy.","Allison,Jenna,Katie,Dora,Kara,Jen","I don't have strong feelings about this,10,20,20","One of my pet peevs,-48,140,20","too much color!,-28,180,20","looks too angry,-50,80,20","I like the blocks of color arrangements,30,160,20","It reminds me of a fireplace,36,120,20","Dora","looks too angry,-50,80,20","Allison","I don't have strong feelings about this,10,20,20","Kara","I like the blocks of color arrangements,30,160,20","0"
"9826","","survey-text","34","295853","0.0-34.0-0.0","A4BDXOXC4D8FX","","","","{""Q0"":""This would look good in a boys room.""}","","","","","","","","","","","","","","","","","","","","","","",""
"4198.699999809265","","image-slider-response","35","300055","0.0-35.0","A4BDXOXC4D8FX","","","","","-28","","","","","","","","","","","","","","","","","","","","","",""
"3950","","image-button-response","36","305060","0.0-36.0","A4BDXOXC4D8FX","img_art/ins/3.jpg","0","","","","","","","","","","","","","","","","","","","","","","","","",""
"2424","","image-button-response","37","307489","0.0-37.0","A4BDXOXC4D8FX","img_art/ins/3.jpg","3","","","","","","","","","","","","","","","","","","","","","","","","",""
"4471","","image-button-response","38","311964","0.0-38.0-0.0","A4BDXOXC4D8FX","img_art/ins/3.jpg","4","","","","","","","","","","","","","","","","","","","","","","","","",""
"1790","","image-button-response","39","313757","0.0-39.0-0.0","A4BDXOXC4D8FX","img_art/ins/3.jpg","5","","","","","","","","","","","","","","","","","","","","","","","","",""
"null","","html-keyboard-response","40","315277","0.0-40.0","A4BDXOXC4D8FX","<p style=""font-size: 48px;"">+</p>","","","","","null","allTrialResponses","1500","1","0","img_art/ins/3.jpg","-28","This would look good in a boys room.","Allison,Leslie,Mary,Dora,Kara,Rose","enjoy the different shades of blue,22,20,20","It's an alright work,15,200,20","I like the overlapping of brushes,41,220,20","My worst nightmare,-42,80,20","calming blue is very nice,36,160,20","My daily routine, it's depressing,-20,240,20","Dora","My worst nightmare,-42,80,20","Kara","calming blue is very nice,36,160,20","Rose","My daily routine, it's depressing,-20,240,20","0"
"9307","","image-button-response_instructions","41","324591","0.0-41.0","A4BDXOXC4D8FX","","0","instructions","","","","","","","","","","","","","","","","","","","","","","","",""
"19357","","survey-likert","42","343952","0.0-42.0-0.0","A4BDXOXC4D8FX","","","","{""Q0"":"""",""Q1"":0,""Q2"":1}","","","","","","","","","","","","","","","","","","","","","","",""
"3246","","survey-text","43","347208","0.0-43.0-0.0","A4BDXOXC4D8FX","","","","{""Q0"":""rock""}","","","","","","","","","","","","","","","","","","","","","","",""
"7747","","survey-text","44","354960","0.0-44.0-0.0","A4BDXOXC4D8FX","","","","{""Q0"":""This is too busy.""}","","","","","","","","","","","","","","","","","","","","","","",""
"3732.9000005722046","","image-slider-response","45","358702","0.0-45.0","A4BDXOXC4D8FX","","","","","-45","","","","","","","","","","","","","","","","","","","","","",""
"4375","","image-button-response","46","363766","0.0-46.0","A4BDXOXC4D8FX","img_art/8.jpg","0","","","","","","","","","","","","","","","","","","","","","","","","",""
"868","","image-button-response","47","364638","0.0-47.0","A4BDXOXC4D8FX","img_art/8.jpg","0","","","","","","","","","","","","","","","","","","","","","","","","",""
"4358","","image-button-response","48","368999","0.0-48.0-0.0","A4BDXOXC4D8FX","img_art/8.jpg","2","","","","","","","","","","","","","","","","","","","","","","","","",""
"6012","","image-button-response","49","375015","0.0-49.0-0.0","A4BDXOXC4D8FX","img_art/8.jpg","3","","","","","","","","","","","","","","","","","","","","","","","","",""
"null","","html-keyboard-response","50","376532","0.0-50.0","A4BDXOXC4D8FX","<p style=""font-size: 48px;"">+</p>","","","","","null","allTrialResponses","1500","1","1","img_art/8.jpg","-45","This is too busy.","Courtney,Erin,Jasmine,Brianna,Sierra,Jennifer","Now that one is wild. Looks like maybe mother nature isnt happy.,28,280,20","Lots of depth, faces, city, arch,3,120,20","Not too bad despite the chaos.,16,340,20","It's very odd and I don't really like it,-30,20,20","i love the colors, the church and the face,42,260,20","Not my favorite but has an interesting concept,32,380,20","Courtney","Now that one is wild. Looks like maybe mother nature isnt happy.,28,280,20","Jasmine","Not too bad despite the chaos.,16,340,20","Brianna","It's very odd and I don't really like it,-30,20,20","0"
"13338","","survey-text","51","389879","0.0-51.0-0.0","A4BDXOXC4D8FX","","","","{""Q0"":""This looks like a disaster.""}","","","","","","","","","","","","","","","","","","","","","","",""
"2986","","image-slider-response","52","392870","0.0-52.0","A4BDXOXC4D8FX","","","","","-50","","","","","","","","","","","","","","","","","","","","","",""
"null","","image-button-response","53","397887","0.0-53.0","A4BDXOXC4D8FX","img_art/3.jpg","null","","","","","","","","","","","","","","","","","","","","","","","","",""
"460","","image-button-response","54","398349","0.0-54.0","A4BDXOXC4D8FX","img_art/3.jpg","0","","","","","","","","","","","","","","","","","","","","","","","","",""
"3514","","image-button-response","55","401866","0.0-55.0-0.0","A4BDXOXC4D8FX","img_art/3.jpg","4","","","","","","","","","","","","","","","","","","","","","","","","",""
"5819","","image-button-response","56","407688","0.0-56.0-0.0","A4BDXOXC4D8FX","img_art/3.jpg","5","","","","","","","","","","","","","","","","","","","","","","","","",""
"null","","html-keyboard-response","57","409200","0.0-57.0","A4BDXOXC4D8FX","<p style=""font-size: 48px;"">+</p>","","","","","null","allTrialResponses","1500","1","2","img_art/3.jpg","-50","This looks like a disaster.","Courtney,Sydney,Jasmine,Brianna,Andrea,Destiny","That just looks like a mess..,-18,280,20","This piece makes me think it has a backstory or a reason which I like.,5,320,20","I don't really have a strong reaction to this one,0,340,20","It's very plain,-20,20,20","I don't feel anything, it seems childish.,-25,240,20","im just getting more agitated and less appreciative of art. I have absolutely no scale to base on,-34,360,20","Courtney","That just looks like a mess..,-18,280,20","Andrea","I don't feel anything, it seems childish.,-25,240,20","Destiny","im just getting more agitated and less appreciative of art. I have absolutely no scale to base on,-34,360,20","0"
"12864","","survey-text","58","422072","0.0-58.0-0.0","A4BDXOXC4D8FX","","","","{""Q0"":""This looks like art by a child.""}","","","","","","","","","","","","","","","","","","","","","","",""
"7367.699999809265","","image-slider-response","59","429447","0.0-59.0","A4BDXOXC4D8FX","","","","","-50","","","","","","","","","","","","","","","","","","","","","",""
"4232","","image-button-response","60","434453","0.0-60.0","A4BDXOXC4D8FX","img_art/26.jpg","2","","","","","","","","","","","","","","","","","","","","","","","","",""
"2469","","image-button-response","61","436925","0.0-61.0","A4BDXOXC4D8FX","img_art/26.jpg","4","","","","","","","","","","","","","","","","","","","","","","","","",""
"1297","","image-button-response","62","438225","0.0-62.0-0.0","A4BDXOXC4D8FX","img_art/26.jpg","3","","","","","","","","","","","","","","","","","","","","","","","","",""
"3080","","image-button-response","63","441308","0.0-63.0-0.0","A4BDXOXC4D8FX","img_art/26.jpg","2","","","","","","","","","","","","","","","","","","","","","","","","",""
"null","","html-keyboard-response","64","442840","0.0-64.0","A4BDXOXC4D8FX","<p style=""font-size: 48px;"">+</p>","","","","","null","allTrialResponses","1500","1","3","img_art/26.jpg","-50","This looks like art by a child.","Courtney,Lauren,Molly,Maria,Andrea,Destiny","Some trees in front of a house.,2,280,20","The piece doesn't really invoke anything for me.,0,340,20","Nothing to say.,0,340,20","fairly neutral, really,8,120,20","I get the feeling of a small old world street.,24,240,20","I really love pastels and they're just being dimmed down too much here,-3,360,20","Andrea","I get the feeling of a small old world street.,24,240,20","Maria","fairly neutral, really,8,120,20","Molly","Nothing to say.,0,340,20","0"
"3299","","survey-text","65","446146","0.0-65.0-0.0","A4BDXOXC4D8FX","","","","{""Q0"":""""}","","","","","","","","","","","","","","","","","","","","","","",""
"8710","","survey-text","66","457621","0.0-65.1-0.1","A4BDXOXC4D8FX","","","","{""Q0"":""The colors are just okay nothing special.""}","","","","","","","","","","","","","","","","","","","","","","",""
"2908.1000003814697","","image-slider-response","67","460533","0.0-66.0","A4BDXOXC4D8FX","","","","","-42","","","","","","","","","","","","","","","","","","","","","",""
"null","","image-button-response","68","465550","0.0-67.0","A4BDXOXC4D8FX","img_art/1.jpg","null","","","","","","","","","","","","","","","","","","","","","","","","",""
"2114","","image-button-response","69","467667","0.0-68.0","A4BDXOXC4D8FX","img_art/1.jpg","3","","","","","","","","","","","","","","","","","","","","","","","","",""
"2052","","image-button-response","70","469722","0.0-69.0-0.0","A4BDXOXC4D8FX","img_art/1.jpg","4","","","","","","","","","","","","","","","","","","","","","","","","",""
"3283","","image-button-response","71","473009","0.0-70.0-0.0","A4BDXOXC4D8FX","img_art/1.jpg","5","","","","","","","","","","","","","","","","","","","","","","","","",""
"null","","html-keyboard-response","72","474023","0.0-71.0","A4BDXOXC4D8FX","<p style=""font-size: 48px;"">+</p>","","","","","null","allTrialResponses","1000","1","4","img_art/1.jpg","-42","The colors are just okay nothing special.","Kelly,Crystal,Molly,Maria,Andrea,Michaela","I love colorful photos and I like this one a lot.,25,220,20","Interesting color scheme but to bled to me,11,300,20","The colors match and create a nice artistic disorder.,20,340,20","the bright colours evoke the 90s, and not their best part,-10,120,20","It just doesn't speak to me.,0,240,20","That one piece in the middle gives it depth and it's really neat,21,260,20","Maria","the bright colours evoke the 90s, and not their best part,-10,120,20","Andrea","It just doesn't speak to me.,0,240,20","Michaela","That one piece in the middle gives it depth and it's really neat,21,260,20","0"
"19114","","survey-text","73","493147","0.0-72.0-0.0","A4BDXOXC4D8FX","","","","{""Q0"":""This looks like a confusing piece of art.""}","","","","","","","","","","","","","","","","","","","","","","",""
"2883.5999994277954","","image-slider-response","74","496034","0.0-73.0","A4BDXOXC4D8FX","","","","","-43","","","","","","","","","","","","","","","","","","","","","",""
"2886","","image-button-response","75","501043","0.0-74.0","A4BDXOXC4D8FX","img_art/11.jpg","1","","","","","","","","","","","","","","","","","","","","","","","","",""
"3071","","image-button-response","76","504117","0.0-75.0","A4BDXOXC4D8FX","img_art/11.jpg","4","","","","","","","","","","","","","","","","","","","","","","","","",""
"5098","","image-button-response","77","509220","0.0-76.0-0.0","A4BDXOXC4D8FX","img_art/11.jpg","5","","","","","","","","","","","","","","","","","","","","","","","","",""
"2258","","image-button-response","78","511480","0.0-77.0-0.0","A4BDXOXC4D8FX","img_art/11.jpg","0","","","","","","","","","","","","","","","","","","","","","","","","",""
"null","","html-keyboard-response","79","511983","0.0-78.0","A4BDXOXC4D8FX","<p style=""font-size: 48px;"">+</p>","","","","","null","allTrialResponses","500","1","5","img_art/11.jpg","-43","This looks like a confusing piece of art.","Savannah,Rebecca,Michelle,Maria,Andrea,Michaela","Not quite as abstract as I'd like- It's clearly a dingy city.,-18,200,20","to me, perfect reflection of the modern commute,32,100,20","I think this is a city but I'm not sure, very abstract,18,280,20","I enjoy the kandinsky-like general vibe, but the grey brings me down a bit,27,120,20","My initial thought was roller coasters but I see ship masts on a cloudy day too.,35,240,20","Reminds me of a city and how chaotic it can be,22,260,20","Andrea","My initial thought was roller coasters but I see ship masts on a cloudy day too.,35,240,20","Michaela","Reminds me of a city and how chaotic it can be,22,260,20","Savannah","Not quite as abstract as I'd like- It's clearly a dingy city.,-18,200,20","0"
"6167","","survey-text","80","518171","0.0-79.0-0.0","A4BDXOXC4D8FX","","","","{""Q0"":""sky""}","","","","","","","","","","","","","","","","","","","","","","",""
"21068","","survey-text","81","539244","0.0-80.0-0.0","A4BDXOXC4D8FX","","","","{""Q0"":""Can't tell if this was thrown together or made by a professional.""}","","","","","","","","","","","","","","","","","","","","","","",""
"2821","","image-slider-response","82","542074","0.0-81.0","A4BDXOXC4D8FX","","","","","-44","","","","","","","","","","","","","","","","","","","","","",""
"null","","image-button-response","83","547080","0.0-82.0","A4BDXOXC4D8FX","img_art/10.jpg","null","","","","","","","","","","","","","","","","","","","","","","","","",""
"2035","","image-button-response","84","549118","0.0-83.0","A4BDXOXC4D8FX","img_art/10.jpg","5","","","","","","","","","","","","","","","","","","","","","","","","",""
"4244","","image-button-response","85","553365","0.0-84.0-0.0","A4BDXOXC4D8FX","img_art/10.jpg","2","","","","","","","","","","","","","","","","","","","","","","","","",""
"3387","","image-button-response","86","556754","0.0-85.0-0.0","A4BDXOXC4D8FX","img_art/10.jpg","0","","","","","","","","","","","","","","","","","","","","","","","","",""
"null","","html-keyboard-response","87","558262","0.0-86.0","A4BDXOXC4D8FX","<p style=""font-size: 48px;"">+</p>","","","","","null","allTrialResponses","1500","1","6","img_art/10.jpg","-44","Can't tell if this was thrown together or made by a professional.","Savannah,Mariah,Stephanie,Nicole,Andrea,Michaela","This is a scribble of a mad man. Appears low effort.,-33,200,20","The colors and shapes are soothing but also disconcerting.,21,140,20","The black color is depressing.,-50,300,20","Too much negative space makes it feel unfinished,-25,20,20","Kraken, and I love it.,39,240,20","It looks like it's sinking but it could also be a view from above,40,260,20","Michaela","It looks like it's sinking but it could also be a view from above,40,260,20","Stephanie","The black color is depressing.,-50,300,20","Savannah","This is a scribble of a mad man. Appears low effort.,-33,200,20","0"
"11270","","survey-text","88","569541","0.0-87.0-0.0","A4BDXOXC4D8FX","","","","{""Q0"":""The colors are very unflattering.""}","","","","","","","","","","","","","","","","","","","","","","",""
"3970.8999996185303","","image-slider-response","89","573515","0.0-88.0","A4BDXOXC4D8FX","","","","","-50","","","","","","","","","","","","","","","","","","","","","",""
"null","","image-button-response","90","578518","0.0-89.0","A4BDXOXC4D8FX","img_art/2.jpg","null","","","","","","","","","","","","","","","","","","","","","","","","",""
"610","","image-button-response","91","579131","0.0-90.0","A4BDXOXC4D8FX","img_art/2.jpg","4","","","","","","","","","","","","","","","","","","","","","","","","",""
"6094","","image-button-response","92","585227","0.0-91.0-0.0","A4BDXOXC4D8FX","img_art/2.jpg","0","","","","","","","","","","","","","","","","","","","","","","","","",""
"4060","","image-button-response","93","589291","0.0-92.0-0.0","A4BDXOXC4D8FX","img_art/2.jpg","3","","","","","","","","","","","","","","","","","","","","","","","","",""
"null","","html-keyboard-response","94","590295","0.0-93.0","A4BDXOXC4D8FX","<p style=""font-size: 48px;"">+</p>","","","","","null","allTrialResponses","1000","1","7","img_art/2.jpg","-50","The colors are very unflattering.","Savannah,Amber,Stephanie,Hannah,Alexis,Michaela","Very gross colors. What were they thinking?,-47,200,20","bright and happy,20,200,20","The colors are what I like. It looks like a smiling face too.,32,300,20","Looks like child's art.,-19,240,20","Do not like this type of abstract work,-50,100,20","My immediate reaction was it looked like a class but then I saw a smile in the middle,11,260,20","Alexis","Do not like this type of abstract work,-50,100,20","Savannah","Very gross colors. What were they thinking?,-47,200,20","Hannah","Looks like child's art.,-19,240,20","0"
"17309","","survey-text","95","607612","0.0-94.0-0.0","A4BDXOXC4D8FX","","","","{""Q0"":""This looks terrible and child like.""}","","","","","","","","","","","","","","","","","","","","","","",""
"6207.200000762939","","image-slider-response","96","613823","0.0-95.0","A4BDXOXC4D8FX","","","","","-50","","","","","","","","","","","","","","","","","","","","","",""
"3069","","image-button-response","97","618837","0.0-96.0","A4BDXOXC4D8FX","img_art/4.jpg","4","","","","","","","","","","","","","","","","","","","","","","","","",""
"1855","","image-button-response","98","620696","0.0-97.0","A4BDXOXC4D8FX","img_art/4.jpg","3","","","","","","","","","","","","","","","","","","","","","","","","",""
"2633","","image-button-response","99","623332","0.0-98.0-0.0","A4BDXOXC4D8FX","img_art/4.jpg","0","","","","","","","","","","","","","","","","","","","","","","","","",""
"2942","","image-button-response","100","626278","0.0-99.0-0.0","A4BDXOXC4D8FX","img_art/4.jpg","1","","","","","","","","","","","","","","","","","","","","","","","","",""
"null","","html-keyboard-response","101","627793","0.0-100.0","A4BDXOXC4D8FX","<p style=""font-size: 48px;"">+</p>","","","","","null","allTrialResponses","1500","1","8","img_art/4.jpg","-50","This looks terrible and child like.","Savannah,Alexandra,Jamie,Hannah,Alexis,Amanda","Colors are horrendous, look like bodily fluids have been smeared.,-50,200,20","This artwork looks like a child did it,-41,60,20","Mustard yellow doesn't do it for me,-25,320,20","looks very rudimentary and too simple.,-14,240,20","Really don't like this. Kindergarten art, sorry.,-50,100,20","Looks like an abstract version of the Scream painting,-50,180,20","Hannah","looks very rudimentary and too simple.,-14,240,20","Savannah","Colors are horrendous, look like bodily fluids have been smeared.,-50,200,20","Alexandra","This artwork looks like a child did it,-41,60,20","0"
"10007","","survey-text","102","637809","0.0-101.0-0.0","A4BDXOXC4D8FX","","","","{""Q0"":""The colors are very beautiful.""}","","","","","","","","","","","","","","","","","","","","","","",""
"3279.800000190735","","image-slider-response","103","641096","0.0-102.0","A4BDXOXC4D8FX","","","","","49","","","","","","","","","","","","","","","","","","","","","",""
"3411","","image-button-response","104","646114","0.0-103.0","A4BDXOXC4D8FX","img_art/21.jpg","2","","","","","","","","","","","","","","","","","","","","","","","","",""
"3871","","image-button-response","105","649991","0.0-104.0","A4BDXOXC4D8FX","img_art/21.jpg","4","","","","","","","","","","","","","","","","","","","","","","","","",""
"4547","","image-button-response","106","654542","0.0-105.0-0.0","A4BDXOXC4D8FX","img_art/21.jpg","0","","","","","","","","","","","","","","","","","","","","","","","","",""
"2202","","image-button-response","107","656747","0.0-106.0-0.0","A4BDXOXC4D8FX","img_art/21.jpg","2","","","","","","","","","","","","","","","","","","","","","","","","",""
"null","","html-keyboard-response","108","657765","0.0-107.0","A4BDXOXC4D8FX","<p style=""font-size: 48px;"">+</p>","","","","","null","allTrialResponses","1000","1","9","img_art/21.jpg","49","The colors are very beautiful.","Savannah,Alexandra,Erika,Hannah,Abigail,Alicia","Almost appears like the background of an old renaissance painting.,40,200,20","This one is nice, it reminds me of the sky,42,60,20","Indistinct, but beautiful hues,10,100,20","Boring colors and look. Too much 1980s.,-20,240,20","Beautiful colors, remind me of my yoga studio,50,20,20","Don't know why I like it, cant describe, maybe many landscapes?,47,120,20","Abigail","Beautiful colors, remind me of my yoga studio,50,20,20","Savannah","Almost appears like the background of an old renaissance painting.,40,200,20","Erika","Indistinct, but beautiful hues,10,100,20","0"
"18414","","survey-text","109","676188","0.0-108.0-0.0","A4BDXOXC4D8FX","","","","{""Q0"":""This is pretty cool even though I'm not sure what it is.""}","","","","","","","","","","","","","","","","","","","","","","",""
"3796.699999809265","","image-slider-response","110","679989","0.0-109.0","A4BDXOXC4D8FX","","","","","41","","","","","","","","","","","","","","","","","","","","","",""
"null","","image-button-response","111","684998","0.0-110.0","A4BDXOXC4D8FX","img_art/6.jpg","null","","","","","","","","","","","","","","","","","","","","","","","","",""
"2204","","image-button-response","112","687205","0.0-111.0","A4BDXOXC4D8FX","img_art/6.jpg","1","","","","","","","","","","","","","","","","","","","","","","","","",""
"511","","image-button-response","113","687720","0.0-112.0-0.0","A4BDXOXC4D8FX","img_art/6.jpg","2","","","","","","","","","","","","","","","","","","","","","","","","",""
"4024","","image-button-response","114","691748","0.0-113.0-0.0","A4BDXOXC4D8FX","img_art/6.jpg","4","","","","","","","","","","","","","","","","","","","","","","","","",""
"null","","html-keyboard-response","115","692761","0.0-114.0","A4BDXOXC4D8FX","<p style=""font-size: 48px;"">+</p>","","","","","null","allTrialResponses","1000","1","10","img_art/6.jpg","41","This is pretty cool even though I'm not sure what it is.","Savannah,Allison,Erika,Alexandria,Abigail,Morgan","Despite how simple it is, this piece has clear meaning.,34,200,20","Simple desert scene.,5,140,20","Lonesome in nature,13,100,20","i like it but it is very neutral,9,80,20","This picture is weird,-6,20,20","Desert that's too simple.,-15,380,20","Allison","Simple desert scene.,5,140,20","Erika","Lonesome in nature,13,100,20","Abigail","This picture is weird,-6,20,20","0"
"3859","","survey-text","116","696636","0.0-115.0-0.0","A4BDXOXC4D8FX","","","","{""Q0"":""our""}","","","","","","","","","","","","","","","","","","","","","","",""
"16114","","survey-text","117","712752","0.0-116.0-0.0","A4BDXOXC4D8FX","","","","{""Q0"":""This looks like a child painted it.""}","","","","","","","","","","","","","","","","","","","","","","",""
"3239","","image-slider-response","118","715995","0.0-117.0","A4BDXOXC4D8FX","","","","","-42","","","","","","","","","","","","","","","","","","","","","",""
"null","","image-button-response","119","721013","0.0-118.0","A4BDXOXC4D8FX","img_art/30.jpg","null","","","","","","","","","","","","","","","","","","","","","","","","",""
"3175","","image-button-response","120","724191","0.0-119.0","A4BDXOXC4D8FX","img_art/30.jpg","3","","","","","","","","","","","","","","","","","","","","","","","","",""
"1255","","image-button-response","121","725448","0.0-120.0-0.0","A4BDXOXC4D8FX","img_art/30.jpg","4","","","","","","","","","","","","","","","","","","","","","","","","",""
"1972","","image-button-response","122","727424","0.0-121.0-0.0","A4BDXOXC4D8FX","img_art/30.jpg","5","","","","","","","","","","","","","","","","","","","","","","","","",""
"null","","html-keyboard-response","123","728435","0.0-122.0","A4BDXOXC4D8FX","<p style=""font-size: 48px;"">+</p>","","","","","null","allTrialResponses","1000","1","11","img_art/30.jpg","-42","This looks like a child painted it.","Catherine,Allison,Erika,Emily,Abigail,Mikayla","connection, Everything is connected even in contrast.,42,160,20","Dislike the contrast here.,-5,140,20","I can't parse any intention or emotion,-17,100,20","It looks like a child did it. There is nothing talented or special about it.,-16,40,20","Combination of colors arent good,-6,20,20","Very colorful! Wow!,22,300,20","Emily","It looks like a child did it. There is nothing talented or special about it.,-16,40,20","Abigail","Combination of colors arent good,-6,20,20","Mikayla","Very colorful! Wow!,22,300,20","0"
"11249","","survey-text","124","739695","0.0-123.0-0.0","A4BDXOXC4D8FX","","","","{""Q0"":""This is different and creepy.""}","","","","","","","","","","","","","","","","","","","","","","",""
"4436.800000190735","","image-slider-response","125","744135","0.0-124.0","A4BDXOXC4D8FX","","","","","44","","","","","","","","","","","","","","","","","","","","","",""
"1653","","image-button-response","126","749142","0.0-125.0","A4BDXOXC4D8FX","img_art/16.jpg","1","","","","","","","","","","","","","","","","","","","","","","","","",""
"2582","","image-button-response","127","751727","0.0-126.0","A4BDXOXC4D8FX","img_art/16.jpg","3","","","","","","","","","","","","","","","","","","","","","","","","",""
"2064","","image-button-response","128","753793","0.0-127.0-0.0","A4BDXOXC4D8FX","img_art/16.jpg","4","","","","","","","","","","","","","","","","","","","","","","","","",""
"1607","","image-button-response","129","755403","0.0-128.0-0.0","A4BDXOXC4D8FX","img_art/16.jpg","5","","","","","","","","","","","","","","","","","","","","","","","","",""
"null","","html-keyboard-response","130","756914","0.0-129.0","A4BDXOXC4D8FX","<p style=""font-size: 48px;"">+</p>","","","","","null","allTrialResponses","1500","1","12","img_art/16.jpg","44","This is different and creepy.","Dominique,Emma,Paige,Emily,Abigail,Mikayla","Toys toys toys. Happy playful free spirit,30,400,20","Kind of creepyyyyyy,-41,60,20","very disturbed seening a gun in the same picture as a teddy bear,-50,60,20","Looks like a kid did itt and ti looks disturbing.,-45,40,20","The bear makes me very uncomfortable,-50,20,20","The teddy bear is scary as hell.,-44,300,20","Emily","Looks like a kid did itt and ti looks disturbing.,-45,40,20","Abigail","The bear makes me very uncomfortable,-50,20,20","Mikayla","The teddy bear is scary as hell.,-44,300,20","0"
"16129","","survey-text","131","773052","0.0-130.0-0.0","A4BDXOXC4D8FX","","","","{""Q0"":""This looks cheap and not good.""}","","","","","","","","","","","","","","","","","","","","","","",""
"2988","","image-slider-response","132","776043","0.0-131.0","A4BDXOXC4D8FX","","","","","-50","","","","","","","","","","","","","","","","","","","","","",""
"3855","","image-button-response","133","781058","0.0-132.0","A4BDXOXC4D8FX","img_art/25.jpg","2","","","","","","","","","","","","","","","","","","","","","","","","",""
"3453","","image-button-response","134","784514","0.0-133.0","A4BDXOXC4D8FX","img_art/25.jpg","4","","","","","","","","","","","","","","","","","","","","","","","","",""
"1593","","image-button-response","135","786111","0.0-134.0-0.0","A4BDXOXC4D8FX","img_art/25.jpg","3","","","","","","","","","","","","","","","","","","","","","","","","",""
"3763","","image-button-response","136","789878","0.0-135.0-0.0","A4BDXOXC4D8FX","img_art/25.jpg","5","","","","","","","","","","","","","","","","","","","","","","","","",""
"null","","html-keyboard-response","137","790387","0.0-136.0","A4BDXOXC4D8FX","<p style=""font-size: 48px;"">+</p>","","","","","null","allTrialResponses","500","1","13","img_art/25.jpg","-50","This looks cheap and not good.","Amy,Shannon,Madison,Emily,Abigail,Mikayla","The limited palette make this figure mysterious and interpret-able.,20,220,20","I like the way the persons clothes look, there could be more color though.,10,220,20","Meh. Hardly abstract, though.,-40,60,20","Low skill not impressed.,-14,40,20","This is creepy and I dont like it,-28,20,20","I LOVE fhe scary skeleton.,28,300,20","Abigail","This is creepy and I dont like it,-28,20,20","Emily","Low skill not impressed.,-14,40,20","Mikayla","I LOVE fhe scary skeleton.,28,300,20","0"
"10066","","survey-text","138","800462","0.0-137.0-0.0","A4BDXOXC4D8FX","","","","{""Q0"":""This is very boring and basic.""}","","","","","","","","","","","","","","","","","","","","","","",""
"3251.699999809265","","image-slider-response","139","803716","0.0-138.0","A4BDXOXC4D8FX","","","","","-50","","","","","","","","","","","","","","","","","","","","","",""
"2452","","image-button-response","140","808731","0.0-139.0","A4BDXOXC4D8FX","img_art/12.jpg","2","","","","","","","","","","","","","","","","","","","","","","","","",""
"2755","","image-button-response","141","811489","0.0-140.0","A4BDXOXC4D8FX","img_art/12.jpg","4","","","","","","","","","","","","","","","","","","","","","","","","",""
"1379","","image-button-response","142","812872","0.0-141.0-0.0","A4BDXOXC4D8FX","img_art/12.jpg","5","","","","","","","","","","","","","","","","","","","","","","","","",""
"1594","","image-button-response","143","814470","0.0-142.0-0.0","A4BDXOXC4D8FX","img_art/12.jpg","3","","","","","","","","","","","","","","","","","","","","","","","","",""
"null","","html-keyboard-response","144","815980","0.0-143.0","A4BDXOXC4D8FX","<p style=""font-size: 48px;"">+</p>","","","","","null","allTrialResponses","1500","1","14","img_art/12.jpg","-50","This is very boring and basic.","Julia,Victoria,Jordan,Emily,Abigail,Mikayla","this is pretty, but I wouldn't hang it on my wall.,15,40,20","to contemporary for me,3,400,20","not my kind of thing,1,20,20","Not quite my style but there more of a pattern and it is interesting to look at.,15,40,20","Made me uncomfortable, reminded me of the 90s,-9,20,20","A little bit boring.,-24,300,20","Abigail","Made me uncomfortable, reminded me of the 90s,-9,20,20","Mikayla","A little bit boring.,-24,300,20","Emily","Not quite my style but there more of a pattern and it is interesting to look at.,15,40,20","0"
"13354","","survey-text","145","829343","0.0-144.0-0.0","A4BDXOXC4D8FX","","","","{""Q0"":""I don't like these colors together.""}","","","","","","","","","","","","","","","","","","","","","","",""
"3534","","image-slider-response","146","832882","0.0-145.0","A4BDXOXC4D8FX","","","","","-50","","","","","","","","","","","","","","","","","","","","","",""
"3090","","image-button-response","147","837895","0.0-146.0","A4BDXOXC4D8FX","img_art/22.jpg","4","","","","","","","","","","","","","","","","","","","","","","","","",""
"2108","","image-button-response","148","840006","0.0-147.0","A4BDXOXC4D8FX","img_art/22.jpg","2","","","","","","","","","","","","","","","","","","","","","","","","",""
"5614","","image-button-response","149","845623","0.0-148.0-0.0","A4BDXOXC4D8FX","img_art/22.jpg","0","","","","","","","","","","","","","","","","","","","","","","","","",""
"898","","image-button-response","150","846524","0.0-149.0-0.0","A4BDXOXC4D8FX","img_art/22.jpg","3","","","","","","","","","","","","","","","","","","","","","","","","",""
"null","","html-keyboard-response","151","847534","0.0-150.0","A4BDXOXC4D8FX","<p style=""font-size: 48px;"">+</p>","","","","","null","allTrialResponses","1000","1","15","img_art/22.jpg","-50","I don't like these colors together.","Cynthia,Gabrielle,Miranda,Emily,Abigail,Mikayla","A key to the unknown,15,320,20","another OK work, mostly because of the blend of colors,12,160,20","Its very warm, it reminds of someone not liking their painting so they destoryed it,26,320,20","There is some flow and organization.,10,40,20","The colors are too dark, too much red,2,20,20","So colorful i love it!,22,300,20","Miranda","Its very warm, it reminds of someone not liking their painting so they destoryed it,26,320,20","Cynthia","A key to the unknown,15,320,20","Emily","There is some flow and organization.,10,40,20","0"
"4422","","survey-text","152","851970","0.0-151.0-0.0","A4BDXOXC4D8FX","","","","{""Q0"":""course""}","","","","","","","","","","","","","","","","","","","","","","",""
"29416","","survey-text","153","881389","0.0-152.0-0.0","A4BDXOXC4D8FX","","","","{""Q0"":""This looks like a carnival threw up.""}","","","","","","","","","","","","","","","","","","","","","","",""
"3489.5999994277954","","image-slider-response","154","884882","0.0-153.0","A4BDXOXC4D8FX","","","","","-50","","","","","","","","","","","","","","","","","","","","","",""
"null","","image-button-response","155","889895","0.0-154.0","A4BDXOXC4D8FX","img_art/9.jpg","null","","","","","","","","","","","","","","","","","","","","","","","","",""
"3479","","image-button-response","156","893375","0.0-155.0","A4BDXOXC4D8FX","img_art/9.jpg","2","","","","","","","","","","","","","","","","","","","","","","","","",""
"8869","","image-button-response","157","902247","0.0-156.0-0.0","A4BDXOXC4D8FX","img_art/9.jpg","5","","","","","","","","","","","","","","","","","","","","","","","","",""
"2461","","image-button-response","158","904712","0.0-157.0-0.0","A4BDXOXC4D8FX","img_art/9.jpg","3","","","","","","","","","","","","","","","","","","","","","","","","",""
"null","","html-keyboard-response","159","905739","0.0-158.0","A4BDXOXC4D8FX","<p style=""font-size: 48px;"">+</p>","","","","","null","allTrialResponses","1000","1","16","img_art/9.jpg","-50","This looks like a carnival threw up.","Cynthia,Kayla,Miranda,Emily,Jenna,Megan","curious and unsure,12,320,20","It's nice. Peaceful. Calming.,11,180,20","It looks like someone gave a kid a coloring book page but the colors are soothing and look put together and elegant,27,320,20","Looks like a young child drew it.,-45,40,20","gorgeous colors, love the little details,42,360,20","A troubled painter was influenced by anger and mad at the woman in the middle, color not bad,-32,200,20","Miranda","It looks like someone gave a kid a coloring book page but the colors are soothing and look put together and elegant,27,320,20","Megan","A troubled painter was influenced by anger and mad at the woman in the middle, color not bad,-32,200,20","Emily","Looks like a young child drew it.,-45,40,20","0"
"25562","","survey-text","160","931311","0.0-159.0-0.0","A4BDXOXC4D8FX","","","","{""Q0"":""This looks like a white dog laying in the yard.""}","","","","","","","","","","","","","","","","","","","","","","",""
"6400.60000038147","","image-slider-response","161","937715","0.0-160.0","A4BDXOXC4D8FX","","","","","6","","","","","","","","","","","","","","","","","","","","","",""
"null","","image-button-response","162","942734","0.0-161.0","A4BDXOXC4D8FX","img_art/24.jpg","null","","","","","","","","","","","","","","","","","","","","","","","","",""
"6657","","image-button-response","163","949394","0.0-162.0","A4BDXOXC4D8FX","img_art/24.jpg","3","","","","","","","","","","","","","","","","","","","","","","","","",""
"1938","","image-button-response","164","951335","0.0-163.0-0.0","A4BDXOXC4D8FX","img_art/24.jpg","0","","","","","","","","","","","","","","","","","","","","","","","","",""
"1160","","image-button-response","165","952498","0.0-164.0-0.0","A4BDXOXC4D8FX","img_art/24.jpg","1","","","","","","","","","","","","","","","","","","","","","","","","",""
"null","","html-keyboard-response","166","953010","0.0-165.0","A4BDXOXC4D8FX","<p style=""font-size: 48px;"">+</p>","","","","","null","allTrialResponses","500","1","17","img_art/24.jpg","6","This looks like a white dog laying in the yard.","Alyssa,Breanna,Miranda,Emily,Bailey,Megan","Beautiful.Nice use of colors and invokes feelings of serene and peace,40,160,20","Like it, nice attention to details,31,380,20","I find the colors work really well. It's very pretty but I have no idea as what it is.,34,320,20","It's not super high uality  but there is some skill and talent in it I see.,15,40,20","Feels surreal, in a way, and vibrant,37,360,20","Classic palette lacks real world 3d construction,19,200,20","Emily","It's not super high uality  but there is some skill and talent in it I see.,15,40,20","Alyssa","Beautiful.Nice use of colors and invokes feelings of serene and peace,40,160,20","Breanna","Like it, nice attention to details,31,380,20","0"
"12006","","survey-text","167","965023","0.0-166.0-0.0","A4BDXOXC4D8FX","","","","{""Q0"":""This looks like a person visiting a new city.""}","","","","","","","","","","","","","","","","","","","","","","",""
"3157","","image-slider-response","168","968183","0.0-167.0","A4BDXOXC4D8FX","","","","","-29","","","","","","","","","","","","","","","","","","","","","",""
"null","","image-button-response","169","973201","0.0-168.0","A4BDXOXC4D8FX","img_art/19.jpg","null","","","","","","","","","","","","","","","","","","","","","","","","",""
"139","","image-button-response","170","973342","0.0-169.0","A4BDXOXC4D8FX","img_art/19.jpg","5","","","","","","","","","","","","","","","","","","","","","","","","",""
"1699","","image-button-response","171","975044","0.0-170.0-0.0","A4BDXOXC4D8FX","img_art/19.jpg","3","","","","","","","","","","","","","","","","","","","","","","","","",""
"4655","","image-button-response","172","979702","0.0-171.0-0.0","A4BDXOXC4D8FX","img_art/19.jpg","2","","","","","","","","","","","","","","","","","","","","","","","","",""
"null","","html-keyboard-response","173","981216","0.0-172.0","A4BDXOXC4D8FX","<p style=""font-size: 48px;"">+</p>","","","","","null","allTrialResponses","1500","1","18","img_art/19.jpg","-29","This looks like a person visiting a new city.","Alyssa,Breanna,Katherine,Emily,Mary,Sophia","There's alot of elements to it bordering on clutter and chaotic,-20,160,20","The details are amazing,36,380,20","I dig the not being able to tell what anything is but knowing everything is supposed to be something,46,120,20","Loks like an amature did it, Not pleasing.,-45,40,20","I interpret an outdoor scene. It's good because it makes me want to look longer.,22,180,20","This looks like a child's piece. I appreciate the artistic value, but not for me.,-20,280,20","Sophia","This looks like a child's piece. I appreciate the artistic value, but not for me.,-20,280,20","Emily","Loks like an amature did it, Not pleasing.,-45,40,20","Katherine","I dig the not being able to tell what anything is but knowing everything is supposed to be something,46,120,20","0"
"18498","","survey-text","174","999724","0.0-173.0-0.0","A4BDXOXC4D8FX","","","","{""Q0"":""I like these colors but I don't like the painting.""}","","","","","","","","","","","","","","","","","","","","","","",""
"3991.699999809265","","image-slider-response","175","1003719","0.0-174.0","A4BDXOXC4D8FX","","","","","-40","","","","","","","","","","","","","","","","","","","","","",""
"null","","image-button-response","176","1008750","0.0-175.0","A4BDXOXC4D8FX","img_art/5.jpg","null","","","","","","","","","","","","","","","","","","","","","","","","",""
"4235","","image-button-response","177","1012988","0.0-176.0","A4BDXOXC4D8FX","img_art/5.jpg","4","","","","","","","","","","","","","","","","","","","","","","","","",""
"1915","","image-button-response","178","1014907","0.0-177.0-0.0","A4BDXOXC4D8FX","img_art/5.jpg","3","","","","","","","","","","","","","","","","","","","","","","","","",""
"3238","","image-button-response","179","1018149","0.0-178.0-0.0","A4BDXOXC4D8FX","img_art/5.jpg","5","","","","","","","","","","","","","","","","","","","","","","","","",""
"null","","html-keyboard-response","180","1018652","0.0-179.0","A4BDXOXC4D8FX","<p style=""font-size: 48px;"">+</p>","","","","","null","allTrialResponses","500","1","19","img_art/5.jpg","-40","I like these colors but I don't like the painting.","Kimberly,Vanessa,Katherine,Emily,Lindsey,Sophia","It feels positive and kind of uplifting,24,260,20","The yellow is garish and the picture doesn't look liked anything.,-49,380,20","Don't love don't hate,8,120,20","Complete garbage. Looks like a kid drew it.,-50,40,20","Black bit reminds me of a giant splinter. Yellow bit reminds me of urine. I hate it.,-50,400,20","Looks like a tied up trash bag.,-10,280,20","Lindsey","Black bit reminds me of a giant splinter. Yellow bit reminds me of urine. I hate it.,-50,400,20","Emily","Complete garbage. Looks like a kid drew it.,-50,40,20","Sophia","Looks like a tied up trash bag.,-10,280,20","0"
"9909","","survey-text","181","1028571","0.0-180.0-0.0","A4BDXOXC4D8FX","","","","{""Q0"":""The colors are very ugly.""}","","","","","","","","","","","","","","","","","","","","","","",""
"4951.199999809265","","image-slider-response","182","1033525","0.0-181.0","A4BDXOXC4D8FX","","","","","-50","","","","","","","","","","","","","","","","","","","","","",""
"null","","image-button-response","183","1038544","0.0-182.0","A4BDXOXC4D8FX","img_art/20.jpg","null","","","","","","","","","","","","","","","","","","","","","","","","",""
"1133","","image-button-response","184","1039679","0.0-183.0","A4BDXOXC4D8FX","img_art/20.jpg","2","","","","","","","","","","","","","","","","","","","","","","","","",""
"4346","","image-button-response","185","1044028","0.0-184.0-0.0","A4BDXOXC4D8FX","img_art/20.jpg","3","","","","","","","","","","","","","","","","","","","","","","","","",""
"7967","","image-button-response","186","1051999","0.0-185.0-0.0","A4BDXOXC4D8FX","img_art/20.jpg","5","","","","","","","","","","","","","","","","","","","","","","","","",""
"null","","html-keyboard-response","187","1053013","0.0-186.0","A4BDXOXC4D8FX","<p style=""font-size: 48px;"">+</p>","","","","","null","allTrialResponses","1000","1","20","img_art/20.jpg","-50","The colors are very ugly.","Haley,Brittany,Rachel,Emily,Lindsey,Sophia","I really enjoy the contrast of colors (blue/red/orange),30,220,20","The colors and the scene depicted is interesting.,13,40,20","While interesting in technique.. It looks like a blurry car wreck. Does not evoke great emotions.,-20,80,20","Brings about an emotion response of dspair. Loose lines but yet has a cohesion.,8,40,20","Not sure what it is. The colors are pleasant; makes me want to figure it out. An animal skull in the desert?,10,400,20","A truck rolled over?  I do like the pictures and the technique though.,25,280,20","Rachel","While interesting in technique.. It looks like a blurry car wreck. Does not evoke great emotions.,-20,80,20","Emily","Brings about an emotion response of dspair. Loose lines but yet has a cohesion.,8,40,20","Sophia","A truck rolled over?  I do like the pictures and the technique though.,25,280,20","0"
"3503","","survey-text","188","1056541","0.0-187.0-0.0","A4BDXOXC4D8FX","","","","{""Q0"":""we""}","","","","","","","","","","","","","","","","","","","","","","",""
"22098","","survey-text","189","1078642","0.0-188.0-0.0","A4BDXOXC4D8FX","","","","{""Q0"":""This looks like a mess to me.""}","","","","","","","","","","","","","","","","","","","","","","",""
"3568.199999809265","","image-slider-response","190","1082214","0.0-189.0","A4BDXOXC4D8FX","","","","","-50","","","","","","","","","","","","","","","","","","","","","",""
"3787","","image-button-response","191","1087220","0.0-190.0","A4BDXOXC4D8FX","img_art/15.jpg","1","","","","","","","","","","","","","","","","","","","","","","","","",""
"950","","image-button-response","192","1088174","0.0-191.0","A4BDXOXC4D8FX","img_art/15.jpg","4","","","","","","","","","","","","","","","","","","","","","","","","",""
"2702","","image-button-response","193","1090879","0.0-192.0-0.0","A4BDXOXC4D8FX","img_art/15.jpg","0","","","","","","","","","","","","","","","","","","","","","","","","",""
"12281","","image-button-response","194","1103163","0.0-193.0-0.0","A4BDXOXC4D8FX","img_art/15.jpg","5","","","","","","","","","","","","","","","","","","","","","","","","",""
"null","","html-keyboard-response","195","1104177","0.0-194.0","A4BDXOXC4D8FX","<p style=""font-size: 48px;"">+</p>","","","","","null","allTrialResponses","1000","1","21","img_art/15.jpg","-50","This looks like a mess to me.","Katie,Jessica,Rachel,Emily,Samantha,Sophia","Too much black. I see weeds or dead/dying flowers.,-40,160,20","I think it's trying to execute a cool idea, but unfortunately it doesn't appeal,5,400,20","Reminds me of blue birds in a tree at night. I love nature.,40,80,20","Looks incomplete.,-19,40,20","Not interesting enough. Boring,-37,140,20","I feel like there's ski jumping going on here.,2,280,20","Samantha","Not interesting enough. Boring,-37,140,20","Katie","Too much black. I see weeds or dead/dying flowers.,-40,160,20","Sophia","I feel like there's ski jumping going on here.,2,280,20","0"
"11440","","survey-text","196","1115627","0.0-195.0-0.0","A4BDXOXC4D8FX","","","","{""Q0"":""This looks sophisticated.""}","","","","","","","","","","","","","","","","","","","","","","",""
"4793.800000190735","","image-slider-response","197","1120425","0.0-196.0","A4BDXOXC4D8FX","","","","","4","","","","","","","","","","","","","","","","","","","","","",""
"null","","image-button-response","198","1125444","0.0-197.0","A4BDXOXC4D8FX","img_art/17.jpg","null","","","","","","","","","","","","","","","","","","","","","","","","",""
"3309","","image-button-response","199","1128756","0.0-198.0","A4BDXOXC4D8FX","img_art/17.jpg","2","","","","","","","","","","","","","","","","","","","","","","","","",""
"4437","","image-button-response","200","1133196","0.0-199.0-0.0","A4BDXOXC4D8FX","img_art/17.jpg","3","","","","","","","","","","","","","","","","","","","","","","","","",""
"4859","","image-button-response","201","1138058","0.0-200.0-0.0","A4BDXOXC4D8FX","img_art/17.jpg","0","","","","","","","","","","","","","","","","","","","","","","","","",""
"null","","html-keyboard-response","202","1138565","0.0-201.0","A4BDXOXC4D8FX","<p style=""font-size: 48px;"">+</p>","","","","","null","allTrialResponses","500","1","22","img_art/17.jpg","4","This looks sophisticated.","Katie,Laura,Katelyn,Claire,Samantha,Sophia","Is it a tree/plant of some sort?  Or, I see hair?  I don't get it. But, the colors are pleasing to me.,1,160,20","home - reminds me of fond memories of the Barnes Museum courtyard (looks just like it),30,320,20","Doesnt completely turn me off but wouldnt look twice,-3,100,20","its whimsical and light,50,260,20","Nice colors, shapes, flow,31,140,20","It kind of pulls you in to float away with it.,9,280,20","Katelyn","Doesnt completely turn me off but wouldnt look twice,-3,100,20","Claire","its whimsical and light,50,260,20","Katie","Is it a tree/plant of some sort?  Or, I see hair?  I don't get it. But, the colors are pleasing to me.,1,160,20","0"
"10133","","survey-text","203","1148710","0.0-202.0-0.0","A4BDXOXC4D8FX","","","","{""Q0"":""I hate everything about this.""}","","","","","","","","","","","","","","","","","","","","","","",""
"3090.199999809265","","image-slider-response","204","1151803","0.0-203.0","A4BDXOXC4D8FX","","","","","-50","","","","","","","","","","","","","","","","","","","","","",""
"null","","image-button-response","205","1156816","0.0-204.0","A4BDXOXC4D8FX","img_art/13.jpg","null","","","","","","","","","","","","","","","","","","","","","","","","",""
"579","","image-button-response","206","1157398","0.0-205.0","A4BDXOXC4D8FX","img_art/13.jpg","3","","","","","","","","","","","","","","","","","","","","","","","","",""
"1275","","image-button-response","207","1158675","0.0-206.0-0.0","A4BDXOXC4D8FX","img_art/13.jpg","0","","","","","","","","","","","","","","","","","","","","","","","","",""
"6127","","image-button-response","208","1164805","0.0-207.0-0.0","A4BDXOXC4D8FX","img_art/13.jpg","5","","","","","","","","","","","","","","","","","","","","","","","","",""
"null","","html-keyboard-response","209","1166314","0.0-208.0","A4BDXOXC4D8FX","<p style=""font-size: 48px;"">+</p>","","","","","null","allTrialResponses","1500","1","23","img_art/13.jpg","-50","I hate everything about this.","Katie,Autumn,Katelyn,Claire,Danielle,Caroline","Cool and calming colors. I like splatter art.,10,160,20","Nice color abstractions.,21,340,20","Really like this. Its like looking out a window into a beautiful storm,39,100,20","love the colors and splatters,44,260,20","While it is a bit basic and doesn't speak to me much, I like the feeling it gives,40,340,20","Pretty but didnt cause a reaction,33,100,20","Claire","love the colors and splatters,44,260,20","Katie","Cool and calming colors. I like splatter art.,10,160,20","Caroline","Pretty but didnt cause a reaction,33,100,20","0"
"10138","","survey-text","210","1176462","0.0-209.0-0.0","A4BDXOXC4D8FX","","","","{""Q0"":""This is very boring.""}","","","","","","","","","","","","","","","","","","","","","","",""
"3488.300000190735","","image-slider-response","211","1179955","0.0-210.0","A4BDXOXC4D8FX","","","","","-50","","","","","","","","","","","","","","","","","","","","","",""
"2041","","image-button-response","212","1184974","0.0-211.0","A4BDXOXC4D8FX","img_art/7.jpg","1","","","","","","","","","","","","","","","","","","","","","","","","",""
"936","","image-button-response","213","1185913","0.0-212.0","A4BDXOXC4D8FX","img_art/7.jpg","0","","","","","","","","","","","","","","","","","","","","","","","","",""
"2305","","image-button-response","214","1188220","0.0-213.0-0.0","A4BDXOXC4D8FX","img_art/7.jpg","3","","","","","","","","","","","","","","","","","","","","","","","","",""
"2348","","image-button-response","215","1190573","0.0-214.0-0.0","A4BDXOXC4D8FX","img_art/7.jpg","5","","","","","","","","","","","","","","","","","","","","","","","","",""
"null","","html-keyboard-response","216","1191589","0.0-215.0","A4BDXOXC4D8FX","<p style=""font-size: 48px;"">+</p>","","","","","null","allTrialResponses","1000","1","24","img_art/7.jpg","-50","This is very boring.","Katie,Hailey,Kristen,Claire,Cheyenne,Caroline","I see dryness, which is sad. Dirt, sand, the dessert. Barren dry lifeless,-30,160,20","hot desert with big rocks.,-19,200,20","sand, beach, tranquil,10,280,20","reminds me of a cave wall,-21,260,20","Nice realistic feel but nothing stands out.,4,200,20","Looks like dirt on the ground. Makes me feel unclean,-37,100,20","Katie","I see dryness, which is sad. Dirt, sand, the dessert. Barren dry lifeless,-30,160,20","Claire","reminds me of a cave wall,-21,260,20","Caroline","Looks like dirt on the ground. Makes me feel unclean,-37,100,20","0"
"8459","","survey-text","217","1200058","0.0-216.0-0.0","A4BDXOXC4D8FX","","","","{""Q0"":""This looks messy.""}","","","","","","","","","","","","","","","","","","","","","","",""
"4254.199999809265","","image-slider-response","218","1204316","0.0-217.0","A4BDXOXC4D8FX","","","","","-50","","","","","","","","","","","","","","","","","","","","","",""
"null","","image-button-response","219","1209334","0.0-218.0","A4BDXOXC4D8FX","img_art/23.jpg","null","","","","","","","","","","","","","","","","","","","","","","","","",""
"3486","","image-button-response","220","1212822","0.0-219.0","A4BDXOXC4D8FX","img_art/23.jpg","2","","","","","","","","","","","","","","","","","","","","","","","","",""
"4357","","image-button-response","221","1217182","0.0-220.0-0.0","A4BDXOXC4D8FX","img_art/23.jpg","0","","","","","","","","","","","","","","","","","","","","","","","","",""
"500","","image-button-response","222","1217685","0.0-221.0-0.0","A4BDXOXC4D8FX","img_art/23.jpg","1","","","","","","","","","","","","","","","","","","","","","","","","",""
"null","","html-keyboard-response","223","1218195","0.0-222.0","A4BDXOXC4D8FX","<p style=""font-size: 48px;"">+</p>","","","","","null","allTrialResponses","500","1","25","img_art/23.jpg","-50","This looks messy.","Katie,Kelsey,Diana,Claire,Brooke,Caroline","I don't get it! the white in the middle of the speckled rainbow is confusing.,-10,160,20","i think this ones okay,10,240,20","I thought this art was exciting and it reminded me of dancing people.,12,380,20","the pattern is pleasing to the eye,28,260,20","looks like those paper chain things.,0,60,20","Like the colors and made me feel happy,23,100,20","Diana","I thought this art was exciting and it reminded me of dancing people.,12,380,20","Katie","I don't get it! the white in the middle of the speckled rainbow is confusing.,-10,160,20","Kelsey","i think this ones okay,10,240,20","0"
"5422","","survey-text","224","1223644","0.0-223.0-0.0","A4BDXOXC4D8FX","","","","{""Q0"":""table""}","","","","","","","","","","","","","","","","","","","","","","",""
"7098","","survey-text","225","1230744","0.0-224.0-0.0","A4BDXOXC4D8FX","","","","{""Q0"":""This is pretty cute.""}","","","","","","","","","","","","","","","","","","","","","","",""
"3603.8999996185303","","image-slider-response","226","1234353","0.0-225.0","A4BDXOXC4D8FX","","","","","34","","","","","","","","","","","","","","","","","","","","","",""
"1503","","image-button-response","227","1239367","0.0-226.0","A4BDXOXC4D8FX","img_art/14.jpg","1","","","","","","","","","","","","","","","","","","","","","","","","",""
"3568","","image-button-response","228","1242938","0.0-227.0","A4BDXOXC4D8FX","img_art/14.jpg","4","","","","","","","","","","","","","","","","","","","","","","","","",""
"4552","","image-button-response","229","1247493","0.0-228.0-0.0","A4BDXOXC4D8FX","img_art/14.jpg","2","","","","","","","","","","","","","","","","","","","","","","","","",""
"1456","","image-button-response","230","1248953","0.0-229.0-0.0","A4BDXOXC4D8FX","img_art/14.jpg","1","","","","","","","","","","","","","","","","","","","","","","","","",""
"null","","html-keyboard-response","231","1250465","0.0-230.0","A4BDXOXC4D8FX","<p style=""font-size: 48px;"">+</p>","","","","","null","allTrialResponses","1500","1","26","img_art/14.jpg","34","This is pretty cute.","Katie,Kelsey,Diana,Natalie,Monica,Grace","It represents growth. I see a plant/tree growing out of the ground. I like the rainbow of color in the painting.,31,160,20","i like this one!,23,240,20","This piece feels inviting. It's like opening up the pages of your favorite book for the first time.,26,380,20","my reaction is that the picture is wierd,-14,400,20","Just don't like it, maybe it's the bleeding colors on the left of the tree-looking thing in the center or the faded background,-10,360,20","Like some of the colors but not much else.,1,180,20","Monica","Just don't like it, maybe it's the bleeding colors on the left of the tree-looking thing in the center or the faded background,-10,360,20","Diana","This piece feels inviting. It's like opening up the pages of your favorite book for the first time.,26,380,20","Kelsey","i like this one!,23,240,20","0"
"20189","","survey-text","232","1270665","0.0-231.0-0.0","A4BDXOXC4D8FX","","","","{""Q0"":""This may have a cat and mouse in it but not sure.""}","","","","","","","","","","","","","","","","","","","","","","",""
"6869","","image-slider-response","233","1277537","0.0-232.0","A4BDXOXC4D8FX","","","","","17","","","","","","","","","","","","","","","","","","","","","",""
"1778","","image-button-response","234","1282543","0.0-233.0","A4BDXOXC4D8FX","img_art/28.jpg","1","","","","","","","","","","","","","","","","","","","","","","","","",""
"1294","","image-button-response","235","1283839","0.0-234.0","A4BDXOXC4D8FX","img_art/28.jpg","2","","","","","","","","","","","","","","","","","","","","","","","","",""
"4975","","image-button-response","236","1288817","0.0-235.0-0.0","A4BDXOXC4D8FX","img_art/28.jpg","3","","","","","","","","","","","","","","","","","","","","","","","","",""
"1240","","image-button-response","237","1290060","0.0-236.0-0.0","A4BDXOXC4D8FX","img_art/28.jpg","1","","","","","","","","","","","","","","","","","","","","","","","","",""
"null","","html-keyboard-response","238","1290571","0.0-237.0","A4BDXOXC4D8FX","<p style=""font-size: 48px;"">+</p>","","","","","null","allTrialResponses","500","1","27","img_art/28.jpg","17","This may have a cat and mouse in it but not sure.","Meghan,Kelsey,Diana,Heather,Monica,Leah","I don't like the color choice,-30,220,20","this one is rather disturbing,-22,240,20","I think this piece is interesting. I love the faces drawn into it.,29,380,20","not sure what i feel but it makes me feel uncomfortable,1,260,20","The dark colors make it look dirty and the shapes make me uncomfortable,-50,360,20","Too me it's a mish mash, true abstract,-37,360,20","Diana","I think this piece is interesting. I love the faces drawn into it.,29,380,20","Heather","not sure what i feel but it makes me feel uncomfortable,1,260,20","Kelsey","this one is rather disturbing,-22,240,20","0"
"18211","","survey-text","239","1308794","0.0-238.0-0.0","A4BDXOXC4D8FX","","","","{""Q0"":""There might be a guy on a horse in this but not sure.""}","","","","","","","","","","","","","","","","","","","","","","",""
"3318.800000190735","","image-slider-response","240","1312117","0.0-239.0","A4BDXOXC4D8FX","","","","","6","","","","","","","","","","","","","","","","","","","","","",""
"3329","","image-button-response","241","1317126","0.0-240.0","A4BDXOXC4D8FX","img_art/18.jpg","4","","","","","","","","","","","","","","","","","","","","","","","","",""
"820","","image-button-response","242","1317950","0.0-241.0","A4BDXOXC4D8FX","img_art/18.jpg","3","","","","","","","","","","","","","","","","","","","","","","","","",""
"5224","","image-button-response","243","1323177","0.0-242.0-0.0","A4BDXOXC4D8FX","img_art/18.jpg","2","","","","","","","","","","","","","","","","","","","","","","","","",""
"2476","","image-button-response","244","1325657","0.0-243.0-0.0","A4BDXOXC4D8FX","img_art/18.jpg","4","","","","","","","","","","","","","","","","","","","","","","","","",""
"null","","html-keyboard-response","245","1327165","0.0-244.0","A4BDXOXC4D8FX","<p style=""font-size: 48px;"">+</p>","","","","","null","allTrialResponses","1500","1","28","img_art/18.jpg","6","There might be a guy on a horse in this but not sure.","Chloe,Kelsey,Diana,Heather,Gabriela,Christina","Evocative but cheesy.,-20,220,20","its messy, it seems angry,-21,240,20","This painting reminds me of the 4 horsemen of the apocalypse. It feels haunting.,31,380,20","i like the colors in the picture and can make out my own images,42,260,20","It's possibly of a mermaid luring in a ship,15,140,20","it looks dreary and not uplifting,-10,240,20","Heather","i like the colors in the picture and can make out my own images,42,260,20","Diana","This painting reminds me of the 4 horsemen of the apocalypse. It feels haunting.,31,380,20","Gabriela","It's possibly of a mermaid luring in a ship,15,140,20","0"
"12347","","survey-text","246","1339524","0.0-245.0-0.0","A4BDXOXC4D8FX","","","","{""Q0"":""This looks confusing.""}","","","","","","","","","","","","","","","","","","","","","","",""
"2714.6000003814697","","image-slider-response","247","1342242","0.0-246.0","A4BDXOXC4D8FX","","","","","-50","","","","","","","","","","","","","","","","","","","","","",""
"null","","image-button-response","248","1347266","0.0-247.0","A4BDXOXC4D8FX","img_art/27.jpg","null","","","","","","","","","","","","","","","","","","","","","","","","",""
"4186","","image-button-response","249","1351454","0.0-248.0","A4BDXOXC4D8FX","img_art/27.jpg","2","","","","","","","","","","","","","","","","","","","","","","","","",""
"2085","","image-button-response","250","1353543","0.0-249.0-0.0","A4BDXOXC4D8FX","img_art/27.jpg","0","","","","","","","","","","","","","","","","","","","","","","","","",""
"3947","","image-button-response","251","1357493","0.0-250.0-0.0","A4BDXOXC4D8FX","img_art/27.jpg","5","","","","","","","","","","","","","","","","","","","","","","","","",""
"null","","html-keyboard-response","252","1358499","0.0-251.0","A4BDXOXC4D8FX","<p style=""font-size: 48px;"">+</p>","","","","","null","allTrialResponses","1000","1","29","img_art/27.jpg","-50","This looks confusing.","Angela,Kaitlyn,Diana,Heather,Gabriela,Kaylee","It's okay. Not really interesting to me.,-10,260,20","The variation of orange is nice,9,80,20","I don't care for the green scribbles; not sure what they are. But I adore the colors in the background.,24,380,20","looks like a garden in between two storms.,33,260,20","I like hoe it looks like a fall day in a city,45,140,20","nice firestorm on desert,23,200,20","Diana","I don't care for the green scribbles; not sure what they are. But I adore the colors in the background.,24,380,20","Angela","It's okay. Not really interesting to me.,-10,260,20","Kaylee","nice firestorm on desert,23,200,20","0"
"12018","","survey-text","253","1370529","0.0-252.0-0.0","A4BDXOXC4D8FX","","","","{""Q0"":""This is pretty cool.""}","","","","","","","","","","","","","","","","","","","","","","",""
"2691.800000190735","","image-slider-response","254","1373224","0.0-253.0","A4BDXOXC4D8FX","","","","","25","","","","","","","","","","","","","","","","","","","","","",""
"3546","","image-button-response","255","1378230","0.0-254.0","A4BDXOXC4D8FX","img_art/29.jpg","4","","","","","","","","","","","","","","","","","","","","","","","","",""
"1885","","image-button-response","256","1380119","0.0-255.0","A4BDXOXC4D8FX","img_art/29.jpg","3","","","","","","","","","","","","","","","","","","","","","","","","",""
"4106","","image-button-response","257","1384228","0.0-256.0-0.0","A4BDXOXC4D8FX","img_art/29.jpg","2","","","","","","","","","","","","","","","","","","","","","","","","",""
"2189","","image-button-response","258","1386421","0.0-257.0-0.0","A4BDXOXC4D8FX","img_art/29.jpg","5","","","","","","","","","","","","","","","","","","","","","","","","",""
"null","","html-keyboard-response","259","1387941","0.0-258.0","A4BDXOXC4D8FX","<p style=""font-size: 48px;"">+</p>","","","","","null","allTrialResponses","1500","1","30","img_art/29.jpg","25","This is pretty cool.","Angela,Taylor,Diana,Kathryn,Alexa,Kaylee","I would like this piece better without the red X across it,-10,260,20","It seems like there's anger in the painting.,-20,340,20","I rated it lower because it looked like a crime scene. It didn't make me feel good.,-44,380,20","This piece feels gross. Makes me think of pollution/litter strewn across a dirty street.,-20,140,20","Very wild and I like it,20,40,20","it looks like a prison,-33,200,20","Kathryn","This piece feels gross. Makes me think of pollution/litter strewn across a dirty street.,-20,140,20","Diana","I rated it lower because it looked like a crime scene. It didn't make me feel good.,-44,380,20","Kaylee","it looks like a prison,-33,200,20","0"
"3502","","image-button-response_instructions","260","1391455","0.0-259.0","A4BDXOXC4D8FX","","0","instructions","","","","","","","","","","","","","","","","","","","","","","","",""
"1474","","image-button-response","261","1392939","0.0-260.0","A4BDXOXC4D8FX","","0","","","","","","","","","","","","","","","","","","","","","","","","",""
