"rt","url","trial_type","trial_index","time_elapsed","internal_node_id","participant_id","stimulus","button_pressed","Name","responses","response","key_press","variableName","fixationTime","condition","trial","photo","subjectRating","subjectResponse","agentsNames","agent_1_Response","agent_2_Response","agent_3_Response","agent_4_Response","agent_5_Response","agent_6_Response","kept_1_name","kept_1_response","kept_2_name","kept_2_response","kept_3_name","kept_3_response","errorCounter"
"38623","external_page_harvard.html","external-html","0","38699","0.0-0.0","A56TWAXG8WGWM","","","","","","","","","","","","","","","","","","","","","","","","","","",""
"2049","","image-button-response","1","40750","0.0-1.0","A56TWAXG8WGWM","","1","","","","","","","","","","","","","","","","","","","","","","","","",""
"2488","","image-button-response","2","43246","0.0-2.0-0.0","A56TWAXG8WGWM","","1","phone","","","","","","","","","","","","","","","","","","","","","","","",""
"3978","","survey-text","3","47225","0.0-3.0-0.0","A56TWAXG8WGWM","","","","{""Q0"":""A56TWAXG8WGWM""}","","","","","","","","","","","","","","","","","","","","","","",""
"8215","","image-button-response_instructions","4","55443","0.0-4.0","A56TWAXG8WGWM","","0","instructions","","","","","","","","","","","","","","","","","","","","","","","",""
"14282","","image-button-response_instructions","5","69727","0.0-5.0","A56TWAXG8WGWM","img_art/ins/popularity/ins1.png","0","instructions","","","","","","","","","","","","","","","","","","","","","","","",""
"6295","","image-button-response_instructions","6","76024","0.0-6.0","A56TWAXG8WGWM","img_art/ins/popularity/ins2.png","0","instructions","","","","","","","","","","","","","","","","","","","","","","","",""
"5093","","image-button-response_instructions","7","81119","0.0-7.0","A56TWAXG8WGWM","img_art/ins/popularity/ins2Extreme.png","0","instructions","","","","","","","","","","","","","","","","","","","","","","","",""
"17468","","image-button-response_instructions","8","98588","0.0-8.0","A56TWAXG8WGWM","img_art/ins/popularity/ins3KEEPpop.PNG","0","instructions","","","","","","","","","","","","","","","","","","","","","","","",""
"3983","","image-button-response_instructions","9","102572","0.0-9.0","A56TWAXG8WGWM","img_art/ins/popularity/ins3ANamepop.PNG","0","instructions","","","","","","","","","","","","","","","","","","","","","","","",""
"4024","","image-button-response_instructions","10","106599","0.0-10.0","A56TWAXG8WGWM","img_art/ins/popularity/ins3ARatingpop.png","0","instructions","","","","","","","","","","","","","","","","","","","","","","","",""
"3799","","image-button-response_instructions","11","110400","0.0-11.0","A56TWAXG8WGWM","img_art/ins/popularity/ins3ATextpop.png","0","instructions","","","","","","","","","","","","","","","","","","","","","","","",""
"10626","","image-button-response_instructions","12","121027","0.0-12.0","A56TWAXG8WGWM","img_art/ins/popularity/ins3ALikespop.png","0","instructions","","","","","","","","","","","","","","","","","","","","","","","",""
"16035","","image-button-response_instructions","13","137063","0.0-13.0","A56TWAXG8WGWM","img_art/ins/popularity/ins3KEEPpop.PNG","0","instructions","","","","","","","","","","","","","","","","","","","","","","","",""
"8587","","image-button-response_instructions","14","145651","0.0-14.0","A56TWAXG8WGWM","img_art/ins/popularity/ins3_5RED.png","0","instructions","","","","","","","","","","","","","","","","","","","","","","","",""
"20768","","image-button-response_instructions","15","166421","0.0-15.0","A56TWAXG8WGWM","img_art/ins/popularity/ins3KEEPpop.PNG","0","instructions","","","","","","","","","","","","","","","","","","","","","","","",""
"14466","","image-button-response_instructions","16","180890","0.0-16.0","A56TWAXG8WGWM","img_art/ins/popularity/ins4KEEPpop.PNG","0","instructions","","","","","","","","","","","","","","","","","","","","","","","",""
"3812","","image-button-response_instructions","17","184704","0.0-17.0","A56TWAXG8WGWM","img_art/ins/popularity/ins5KEEPpop.PNG","0","instructions","","","","","","","","","","","","","","","","","","","","","","","",""
"2094","","image-button-response_instructions","18","186801","0.0-18.0","A56TWAXG8WGWM","","0","instructions","","","","","","","","","","","","","","","","","","","","","","","",""
"12322","","survey-text","19","199152","0.0-19.0-0.0","A56TWAXG8WGWM","","","","{""Q0"":""but""}","","","","","","","","","","","","","","","","","","","","","","",""
"29495","","survey-text","20","228649","0.0-20.0-0.0","A56TWAXG8WGWM","","","","{""Q0"":""It looks like a kid that just did different color brush strokes""}","","","","","","","","","","","","","","","","","","","","","","",""
"4602.600000008941","","image-slider-response","21","233255","0.0-21.0","A56TWAXG8WGWM","","","","","-23","","","","","","","","","","","","","","","","","","","","","",""
"null","","image-button-response","22","238260","0.0-22.0","A56TWAXG8WGWM","img_art/ins/1.jpg","null","","","","","","","","","","","","","","","","","","","","","","","","",""
"5649","","image-button-response","23","243912","0.0-23.0","A56TWAXG8WGWM","img_art/ins/1.jpg","1","","","","","","","","","","","","","","","","","","","","","","","","",""
"1533","","image-button-response","24","245448","0.0-24.0-0.0","A56TWAXG8WGWM","img_art/ins/1.jpg","3","","","","","","","","","","","","","","","","","","","","","","","","",""
"4698","","image-button-response","25","250150","0.0-25.0-0.0","A56TWAXG8WGWM","img_art/ins/1.jpg","0","","","","","","","","","","","","","","","","","","","","","","","","",""
"null","","html-keyboard-response","26","251658","0.0-26.0","A56TWAXG8WGWM","<p style=""font-size: 48px;"">+</p>","","","","","null","allTrialResponses","1500","1","-2","img_art/ins/1.jpg","-23","It looks like a kid that just did different color brush strokes","Allison,Ashley,Beth,Dora,Erika,Jen","looks like a lot of things going on in the mist,20,20,20","I just don't get why these type of art would be popular,-32,40,20","This color reminds me of poo,-46,60,20","looks like what my niece in 3rd grade did this afternoon,-50,80,20","I like the sophisticated brushwork,40,100,20","It reminds me of a candy land dream I had,36,120,20","Ashley","I just don't get why these type of art would be popular,-32,40,20","Dora","looks like what my niece in 3rd grade did this afternoon,-50,80,20","Allison","looks like a lot of things going on in the mist,20,20,20","0"
"22114","","survey-text","27","273780","0.0-27.0-0.0","A56TWAXG8WGWM","","","","{""Q0"":""A mixture of color which does not portray anything""}","","","","","","","","","","","","","","","","","","","","","","",""
"3140.1000000089407","","image-slider-response","28","276922","0.0-28.0","A56TWAXG8WGWM","","","","","-37","","","","","","","","","","","","","","","","","","","","","",""
"4788","","image-button-response","29","281926","0.0-29.0","A56TWAXG8WGWM","img_art/ins/2.jpg","0","","","","","","","","","","","","","","","","","","","","","","","","",""
"795","","image-button-response","30","282723","0.0-30.0","A56TWAXG8WGWM","img_art/ins/2.jpg","0","","","","","","","","","","","","","","","","","","","","","","","","",""
"2807","","image-button-response","31","285533","0.0-31.0-0.0","A56TWAXG8WGWM","img_art/ins/2.jpg","1","","","","","","","","","","","","","","","","","","","","","","","","",""
"5252","","image-button-response","32","290788","0.0-32.0-0.0","A56TWAXG8WGWM","img_art/ins/2.jpg","5","","","","","","","","","","","","","","","","","","","","","","","","",""
"null","","html-keyboard-response","33","292292","0.0-33.0","A56TWAXG8WGWM","<p style=""font-size: 48px;"">+</p>","","","","","null","allTrialResponses","1500","1","-1","img_art/ins/2.jpg","-37","A mixture of color which does not portray anything","Allison,Ashley,Jenna,Dora,Kara,Katie","I don't have strong feelings about this,10,20,20","Idk, it is just annoying,-32,40,20","One of my pet peevs,-48,140,20","looks too angry,-50,80,20","I like the blocks of color arrangements,30,160,20","too much color!,-28,180,20","Allison","I don't have strong feelings about this,10,20,20","Ashley","Idk, it is just annoying,-32,40,20","Katie","too much color!,-28,180,20","0"
"20729","","survey-text","34","313029","0.0-34.0-0.0","A56TWAXG8WGWM","","","","{""Q0"":""I am not into these kind of art""}","","","","","","","","","","","","","","","","","","","","","","",""
"3658.2000000029802","","image-slider-response","35","316689","0.0-35.0","A56TWAXG8WGWM","","","","","-50","","","","","","","","","","","","","","","","","","","","","",""
"2776","","image-button-response","36","321697","0.0-36.0","A56TWAXG8WGWM","img_art/ins/3.jpg","1","","","","","","","","","","","","","","","","","","","","","","","","",""
"4218","","image-button-response","37","325918","0.0-37.0","A56TWAXG8WGWM","img_art/ins/3.jpg","5","","","","","","","","","","","","","","","","","","","","","","","","",""
"1532","","image-button-response","38","327454","0.0-38.0-0.0","A56TWAXG8WGWM","img_art/ins/3.jpg","0","","","","","","","","","","","","","","","","","","","","","","","","",""
"1103","","image-button-response","39","328560","0.0-39.0-0.0","A56TWAXG8WGWM","img_art/ins/3.jpg","1","","","","","","","","","","","","","","","","","","","","","","","","",""
"null","","html-keyboard-response","40","329063","0.0-40.0","A56TWAXG8WGWM","<p style=""font-size: 48px;"">+</p>","","","","","null","allTrialResponses","500","1","0","img_art/ins/3.jpg","-50","I am not into these kind of art","Allison,Ashley,Rose,Leslie,Mary,Katie","enjoy the different shades of blue,22,20,20","It looks like a playground for bats,-36,40,20","My daily routine, it's depressing,-20,240,20","It's an alright work,15,200,20","I like the overlapping of brushes,41,220,20","It looks depressing,-26,180,20","Katie","It looks depressing,-26,180,20","Allison","enjoy the different shades of blue,22,20,20","Ashley","It looks like a playground for bats,-36,40,20","0"
"6376","","image-button-response_instructions","41","335448","0.0-41.0","A56TWAXG8WGWM","","0","instructions","","","","","","","","","","","","","","","","","","","","","","","",""
"17126","","survey-likert","42","352578","0.0-42.0-0.0","A56TWAXG8WGWM","","","","{""Q0"":"""",""Q1"":0,""Q2"":1}","","","","","","","","","","","","","","","","","","","","","","",""
"4230","","survey-text","43","356816","0.0-43.0-0.0","A56TWAXG8WGWM","","","","{""Q0"":""rock""}","","","","","","","","","","","","","","","","","","","","","","",""
"29700","","survey-text","44","386518","0.0-44.0-0.0","A56TWAXG8WGWM","","","","{""Q0"":""A couple of paint color squirted on the canvas""}","","","","","","","","","","","","","","","","","","","","","","",""
"3441.2000000029802","","image-slider-response","45","389961","0.0-45.0","A56TWAXG8WGWM","","","","","-48","","","","","","","","","","","","","","","","","","","","","",""
"null","","image-button-response","46","394986","0.0-46.0","A56TWAXG8WGWM","img_art/13.jpg","null","","","","","","","","","","","","","","","","","","","","","","","","",""
"5240","","image-button-response","47","400229","0.0-47.0","A56TWAXG8WGWM","img_art/13.jpg","4","","","","","","","","","","","","","","","","","","","","","","","","",""
"4554","","image-button-response","48","404786","0.0-48.0-0.0","A56TWAXG8WGWM","img_art/13.jpg","1","","","","","","","","","","","","","","","","","","","","","","","","",""
"2085","","image-button-response","49","406875","0.0-49.0-0.0","A56TWAXG8WGWM","img_art/13.jpg","3","","","","","","","","","","","","","","","","","","","","","","","","",""
"null","","html-keyboard-response","50","408379","0.0-50.0","A56TWAXG8WGWM","<p style=""font-size: 48px;"">+</p>","","","","","null","allTrialResponses","1500","1","1","img_art/13.jpg","-48","A couple of paint color squirted on the canvas","Amanda,Angelica,Elizabeth,Kimberly,Crystal,Cassandra","Feels calm and could be placed in anyones house,43,180,20","It's too violent looking and there's too much contrast between the white/black.,-21,280,20","Love the splash of colors,50,20,20","It's like a pattern on a bus seat,10,260,20","Reminiscent of Jackson Pollock and gives me a feeling of chaotic satisfaction,50,300,20","I love the colors and the texture,37,120,20","Crystal","Reminiscent of Jackson Pollock and gives me a feeling of chaotic satisfaction,50,300,20","Angelica","It's too violent looking and there's too much contrast between the white/black.,-21,280,20","Kimberly","It's like a pattern on a bus seat,10,260,20","0"
"24528","","survey-text","51","432913","0.0-51.0-0.0","A56TWAXG8WGWM","","","","{""Q0"":""Looks like a modern art however very hard to derive something out of it.""}","","","","","","","","","","","","","","","","","","","","","","",""
"3385.1000000089407","","image-slider-response","52","436300","0.0-52.0","A56TWAXG8WGWM","","","","","-11","","","","","","","","","","","","","","","","","","","","","",""
"3746","","image-button-response","53","441305","0.0-53.0","A56TWAXG8WGWM","img_art/2.jpg","1","","","","","","","","","","","","","","","","","","","","","","","","",""
"3548","","image-button-response","54","444856","0.0-54.0","A56TWAXG8WGWM","img_art/2.jpg","4","","","","","","","","","","","","","","","","","","","","","","","","",""
"2005","","image-button-response","55","446864","0.0-55.0-0.0","A56TWAXG8WGWM","img_art/2.jpg","2","","","","","","","","","","","","","","","","","","","","","","","","",""
"1111","","image-button-response","56","447979","0.0-56.0-0.0","A56TWAXG8WGWM","img_art/2.jpg","1","","","","","","","","","","","","","","","","","","","","","","","","",""
"null","","html-keyboard-response","57","448985","0.0-57.0","A56TWAXG8WGWM","<p style=""font-size: 48px;"">+</p>","","","","","null","allTrialResponses","1000","1","2","img_art/2.jpg","-11","Looks like a modern art however very hard to derive something out of it.","Gabrielle,Angelica,Angela,Kimberly,Crystal,Shannon","doctor's office art work, nice colors and not offensive,23,160,20","These colors are ugly.,-40,280,20","Only like the blues and teals in this. The rest is unappealing.,-15,260,20","I like the green,13,260,20","Looks contrived and like someone tried to hard to make it abstract,-31,300,20","I like this picture a little because the colors make it look a little vibrant.,10,220,20","Crystal","Looks contrived and like someone tried to hard to make it abstract,-31,300,20","Angela","Only like the blues and teals in this. The rest is unappealing.,-15,260,20","Angelica","These colors are ugly.,-40,280,20","0"
"21593","","survey-text","58","470587","0.0-58.0-0.0","A56TWAXG8WGWM","","","","{""Q0"":""Scribbled by a kindergardner""}","","","","","","","","","","","","","","","","","","","","","","",""
"4643.4000000059605","","image-slider-response","59","475233","0.0-59.0","A56TWAXG8WGWM","","","","","-50","","","","","","","","","","","","","","","","","","","","","",""
"4298","","image-button-response","60","480237","0.0-60.0","A56TWAXG8WGWM","img_art/3.jpg","0","","","","","","","","","","","","","","","","","","","","","","","","",""
"909","","image-button-response","61","481149","0.0-61.0","A56TWAXG8WGWM","img_art/3.jpg","3","","","","","","","","","","","","","","","","","","","","","","","","",""
"2150","","image-button-response","62","483303","0.0-62.0-0.0","A56TWAXG8WGWM","img_art/3.jpg","5","","","","","","","","","","","","","","","","","","","","","","","","",""
"2709","","image-button-response","63","486016","0.0-63.0-0.0","A56TWAXG8WGWM","img_art/3.jpg","1","","","","","","","","","","","","","","","","","","","","","","","","",""
"null","","html-keyboard-response","64","486520","0.0-64.0","A56TWAXG8WGWM","<p style=""font-size: 48px;"">+</p>","","","","","null","allTrialResponses","500","1","3","img_art/3.jpg","-50","Scribbled by a kindergardner","Isabella,Angelica,Angela,Cheyenne,Crystal,Brooke","Too much red or blood,-28,280,20","This is angry and childish looking.,-49,280,20","Like the colors and energy of this work.,10,260,20","Don't see what the purpose is.,-31,200,20","I like the abstract flowing lines. It lacks hard rigid marks and flow nicely into a piece of calamity.,32,300,20","kid scribbled on the wall again,-35,60,20","Cheyenne","Don't see what the purpose is.,-31,200,20","Brooke","kid scribbled on the wall again,-35,60,20","Angelica","This is angry and childish looking.,-49,280,20","0"
"31734","","survey-text","65","518263","0.0-65.0-0.0","A56TWAXG8WGWM","","","","{""Q0"":""A twisted knot""}","","","","","","","","","","","","","","","","","","","","","","",""
"3433.6000000089407","","image-slider-response","66","521699","0.0-66.0","A56TWAXG8WGWM","","","","","-50","","","","","","","","","","","","","","","","","","","","","",""
"null","","image-button-response","67","526704","0.0-67.0","A56TWAXG8WGWM","img_art/4.jpg","null","","","","","","","","","","","","","","","","","","","","","","","","",""
"2658","","image-button-response","68","529365","0.0-68.0","A56TWAXG8WGWM","img_art/4.jpg","3","","","","","","","","","","","","","","","","","","","","","","","","",""
"2023","","image-button-response","69","531393","0.0-69.0-0.0","A56TWAXG8WGWM","img_art/4.jpg","5","","","","","","","","","","","","","","","","","","","","","","","","",""
"1074","","image-button-response","70","532471","0.0-70.0-0.0","A56TWAXG8WGWM","img_art/4.jpg","4","","","","","","","","","","","","","","","","","","","","","","","","",""
"null","","html-keyboard-response","71","532973","0.0-71.0","A56TWAXG8WGWM","<p style=""font-size: 48px;"">+</p>","","","","","null","allTrialResponses","500","1","4","img_art/4.jpg","-50","A twisted knot","Andrea,Angelica,Brittany,Cheyenne,Miranda,Brooke","I think it speaks to familial closeness but the tonality is offputting to me.,-10,240,20","This is ugly in color and in terms of the shape on it.,-32,280,20","Rather boring design and colors.,-21,40,20","Just doesn't look nice.,-40,200,20","I just don't understand this one at all, I do not like it,-43,320,20","Looks like the roomba got into dog poop,-30,60,20","Cheyenne","Just doesn't look nice.,-40,200,20","Brooke","Looks like the roomba got into dog poop,-30,60,20","Miranda","I just don't understand this one at all, I do not like it,-43,320,20","0"
"24806","","survey-text","72","557789","0.0-72.0-0.0","A56TWAXG8WGWM","","","","{""Q0"":""Very vibrant and loved it. It is like a stream passing through ""}","","","","","","","","","","","","","","","","","","","","","","",""
"5040.5","","image-slider-response","73","562831","0.0-73.0","A56TWAXG8WGWM","","","","","41","","","","","","","","","","","","","","","","","","","","","",""
"4996","","image-button-response","74","567836","0.0-74.0","A56TWAXG8WGWM","img_art/24.jpg","3","","","","","","","","","","","","","","","","","","","","","","","","",""
"2599","","image-button-response","75","570438","0.0-75.0","A56TWAXG8WGWM","img_art/24.jpg","4","","","","","","","","","","","","","","","","","","","","","","","","",""
"1766","","image-button-response","76","572208","0.0-76.0-0.0","A56TWAXG8WGWM","img_art/24.jpg","5","","","","","","","","","","","","","","","","","","","","","","","","",""
"879","","image-button-response","77","573091","0.0-77.0-0.0","A56TWAXG8WGWM","img_art/24.jpg","5","","","","","","","","","","","","","","","","","","","","","","","","",""
"927","","image-button-response","78","580680","0.0-77.1-0.1","A56TWAXG8WGWM","img_art/24.jpg","0","","","","","","","","","","","","","","","","","","","","","","","","",""
"null","","html-keyboard-response","79","581183","0.0-78.0","A56TWAXG8WGWM","<p style=""font-size: 48px;"">+</p>","","","","","null","allTrialResponses","500","1","5","img_art/24.jpg","41","Very vibrant and loved it. It is like a stream passing through ","Abigail,Shelby,Kylie,Cheyenne,Miranda,Brooke","Beautiful waterfall I like waterfalls,39,20,20","Earthy wonderful, love everything about it,50,240,20","Forest waterfall,40,300,20","I like how the colors mix in this one.,20,200,20","I find the colors work really well. It's very pretty but I have no idea as what it is.,34,320,20","Mountain stream pineapple texture?,30,60,20","Miranda","I find the colors work really well. It's very pretty but I have no idea as what it is.,34,320,20","Brooke","Mountain stream pineapple texture?,30,60,20","Abigail","Beautiful waterfall I like waterfalls,39,20,20","2"
"4048","","survey-text","80","585247","0.0-79.0-0.0","A56TWAXG8WGWM","","","","{""Q0"":""sky""}","","","","","","","","","","","","","","","","","","","","","","",""
"12415","","survey-text","81","597664","0.0-80.0-0.0","A56TWAXG8WGWM","","","","{""Q0"":""Monster mouth ""}","","","","","","","","","","","","","","","","","","","","","","",""
"27932.10000000894","","image-slider-response","82","625601","0.0-81.0","A56TWAXG8WGWM","","","","","-17","","","","","","","","","","","","","","","","","","","","","",""
"4594","","image-button-response","83","630607","0.0-82.0","A56TWAXG8WGWM","img_art/9.jpg","5","","","","","","","","","","","","","","","","","","","","","","","","",""
"1030","","image-button-response","84","631639","0.0-83.0","A56TWAXG8WGWM","img_art/9.jpg","2","","","","","","","","","","","","","","","","","","","","","","","","",""
"3315","","image-button-response","85","634957","0.0-84.0-0.0","A56TWAXG8WGWM","img_art/9.jpg","1","","","","","","","","","","","","","","","","","","","","","","","","",""
"922","","image-button-response","86","635883","0.0-85.0-0.0","A56TWAXG8WGWM","img_art/9.jpg","0","","","","","","","","","","","","","","","","","","","","","","","","",""
"null","","html-keyboard-response","87","636386","0.0-86.0","A56TWAXG8WGWM","<p style=""font-size: 48px;"">+</p>","","","","","null","allTrialResponses","500","1","6","img_art/9.jpg","-17","Monster mouth ","Abigail,Kelly,Kristen,Diana,Miranda,Brooke","Reminds me of a cave in a scary movie,-21,20,20","It looks like a child drew it.,-28,220,20","sleep, calm, safe,12,280,20","I think it's sleeping beauty but I'm not sure. I didn't care for this piece.,-30,380,20","It looks like someone gave a kid a coloring book page but the colors are soothing and look put together and elegant,27,320,20","Dark fantasy seaside cave carnival? Fun.,15,60,20","Kristen","sleep, calm, safe,12,280,20","Kelly","It looks like a child drew it.,-28,220,20","Abigail","Reminds me of a cave in a scary movie,-21,20,20","2"
"8103","","survey-text","88","644501","0.0-87.0-0.0","A56TWAXG8WGWM","","","","{""Q0"":""Very creative""}","","","","","","","","","","","","","","","","","","","","","","",""
"3368.5999999940395","","image-slider-response","89","647871","0.0-88.0","A56TWAXG8WGWM","","","","","32","","","","","","","","","","","","","","","","","","","","","",""
"4218","","image-button-response","90","652876","0.0-89.0","A56TWAXG8WGWM","img_art/12.jpg","3","","","","","","","","","","","","","","","","","","","","","","","","",""
"321","","image-button-response","91","653200","0.0-90.0","A56TWAXG8WGWM","img_art/12.jpg","0","","","","","","","","","","","","","","","","","","","","","","","","",""
"1127","","image-button-response","92","654330","0.0-91.0-0.0","A56TWAXG8WGWM","img_art/12.jpg","2","","","","","","","","","","","","","","","","","","","","","","","","",""
"1074","","image-button-response","93","655408","0.0-92.0-0.0","A56TWAXG8WGWM","img_art/12.jpg","5","","","","","","","","","","","","","","","","","","","","","","","","",""
"null","","html-keyboard-response","94","656910","0.0-93.0","A56TWAXG8WGWM","<p style=""font-size: 48px;"">+</p>","","","","","null","allTrialResponses","1500","1","7","img_art/12.jpg","32","Very creative","Abigail,Kelly,Kristen,Mariah,Leah,Jacqueline","Made me uncomfortable, reminded me of the 90s,-9,20,20","It's pretty, I find it interesting to look at.,10,220,20","stressful, upsetting,-10,280,20","It is very bland and the colors are not cohesive.,-20,140,20","Looks like a puzzle I want to put together, but not hang in my den,2,360,20","It's not particularly interesting or ugly.,-7,300,20","Abigail","Made me uncomfortable, reminded me of the 90s,-9,20,20","Kristen","stressful, upsetting,-10,280,20","Jacqueline","It's not particularly interesting or ugly.,-7,300,20","2"
"32301","","survey-text","95","689221","0.0-94.0-0.0","A56TWAXG8WGWM","","","","{""Q0"":""A googles which landed on the bed of the ocean and fishes passing through""}","","","","","","","","","","","","","","","","","","","","","","",""
"5953.899999991059","","image-slider-response","96","695177","0.0-95.0","A56TWAXG8WGWM","","","","","-8","","","","","","","","","","","","","","","","","","","","","",""
"4281","","image-button-response","97","700182","0.0-96.0","A56TWAXG8WGWM","img_art/10.jpg","5","","","","","","","","","","","","","","","","","","","","","","","","",""
"1035","","image-button-response","98","701220","0.0-97.0","A56TWAXG8WGWM","img_art/10.jpg","4","","","","","","","","","","","","","","","","","","","","","","","","",""
"902","","image-button-response","99","702126","0.0-98.0-0.0","A56TWAXG8WGWM","img_art/10.jpg","3","","","","","","","","","","","","","","","","","","","","","","","","",""
"1130","","image-button-response","100","703260","0.0-99.0-0.0","A56TWAXG8WGWM","img_art/10.jpg","0","","","","","","","","","","","","","","","","","","","","","","","","",""
"null","","html-keyboard-response","101","704263","0.0-100.0","A56TWAXG8WGWM","<p style=""font-size: 48px;"">+</p>","","","","","null","allTrialResponses","1000","1","8","img_art/10.jpg","-8","A googles which landed on the bed of the ocean and fishes passing through","Abigail,Alyssa,Kristen,Sierra,Claire,Jacqueline","Looks gross and messy,-39,20,20","Bleak and uninteresting,-10,160,20","music, serenity, love,33,280,20","it just doesnt appeal to me.,-10,260,20","it looks very musical,24,260,20","Seems more harmonic with the strokes and colors.,31,300,20","Claire","it looks very musical,24,260,20","Sierra","it just doesnt appeal to me.,-10,260,20","Abigail","Looks gross and messy,-39,20,20","2"
"14560","","survey-text","102","718833","0.0-101.0-0.0","A56TWAXG8WGWM","","","","{""Q0"":""Stroked of few alphabets""}","","","","","","","","","","","","","","","","","","","","","","",""
"3520.7000000029802","","image-slider-response","103","722356","0.0-102.0","A56TWAXG8WGWM","","","","","-39","","","","","","","","","","","","","","","","","","","","","",""
"4651","","image-button-response","104","727362","0.0-103.0","A56TWAXG8WGWM","img_art/30.jpg","5","","","","","","","","","","","","","","","","","","","","","","","","",""
"679","","image-button-response","105","728045","0.0-104.0","A56TWAXG8WGWM","img_art/30.jpg","2","","","","","","","","","","","","","","","","","","","","","","","","",""
"943","","image-button-response","106","728991","0.0-105.0-0.0","A56TWAXG8WGWM","img_art/30.jpg","1","","","","","","","","","","","","","","","","","","","","","","","","",""
"1339","","image-button-response","107","730334","0.0-106.0-0.0","A56TWAXG8WGWM","img_art/30.jpg","4","","","","","","","","","","","","","","","","","","","","","","","","",""
"null","","html-keyboard-response","108","731338","0.0-107.0","A56TWAXG8WGWM","<p style=""font-size: 48px;"">+</p>","","","","","null","allTrialResponses","1000","1","9","img_art/30.jpg","-39","Stroked of few alphabets","Abigail,Rachel,Chloe,Sierra,Claire,Alexa","Combination of colors arent good,-6,20,20","I like this one because I am a mom and it reminds me of a child finger-painting.,20,80,20","Muddy, sloppy, unprofessional,-44,220,20","i dont like how the colors are mixed,-6,260,20","too segmented, looks sloppy,-37,260,20","Looks quite basic but the colors are nice and there is a wildness about it that I love,0,40,20","Chloe","Muddy, sloppy, unprofessional,-44,220,20","Rachel","I like this one because I am a mom and it reminds me of a child finger-painting.,20,80,20","Claire","too segmented, looks sloppy,-37,260,20","2"
"22685","","survey-text","109","754034","0.0-108.0-0.0","A56TWAXG8WGWM","","","","{""Q0"":""Love the colors however could not understand the drawing""}","","","","","","","","","","","","","","","","","","","","","","",""
"4298.9000000059605","","image-slider-response","110","758335","0.0-109.0","A56TWAXG8WGWM","","","","","-8","","","","","","","","","","","","","","","","","","","","","",""
"3389","","image-button-response","111","763340","0.0-110.0","A56TWAXG8WGWM","img_art/1.jpg","4","","","","","","","","","","","","","","","","","","","","","","","","",""
"199","","image-button-response","112","763542","0.0-111.0","A56TWAXG8WGWM","img_art/1.jpg","2","","","","","","","","","","","","","","","","","","","","","","","","",""
"717","","image-button-response","113","764263","0.0-112.0-0.0","A56TWAXG8WGWM","img_art/1.jpg","1","","","","","","","","","","","","","","","","","","","","","","","","",""
"743","","image-button-response","114","765009","0.0-113.0-0.0","A56TWAXG8WGWM","img_art/1.jpg","0","","","","","","","","","","","","","","","","","","","","","","","","",""
"null","","html-keyboard-response","115","766512","0.0-114.0","A56TWAXG8WGWM","<p style=""font-size: 48px;"">+</p>","","","","","null","allTrialResponses","1500","1","10","img_art/1.jpg","-8","Love the colors however could not understand the drawing","Margaret,Rachel,Chloe,Michelle,Claire,Sophia","basic reminds me of something a school would have on the wall,-7,100,20","While I like the colors, I find nothing interesting or thought provoking about it.,10,80,20","Powerful colors.,31,220,20","Random paint does not make art,-5,280,20","the colors are nice,8,260,20","This is a great piece that has a lot more going on the longer you look at it. I like it!,30,280,20","Chloe","Powerful colors.,31,220,20","Rachel","While I like the colors, I find nothing interesting or thought provoking about it.,10,80,20","Margaret","basic reminds me of something a school would have on the wall,-7,100,20","2"
"4685","","survey-text","116","771214","0.0-115.0-0.0","A56TWAXG8WGWM","","","","{""Q0"":""our""}","","","","","","","","","","","","","","","","","","","","","","",""
"19078","","survey-text","117","790293","0.0-116.0-0.0","A56TWAXG8WGWM","","","","{""Q0"":""Blotch of black and blue paint""}","","","","","","","","","","","","","","","","","","","","","","",""
"3048.2999999970198","","image-slider-response","118","793344","0.0-117.0","A56TWAXG8WGWM","","","","","-46","","","","","","","","","","","","","","","","","","","","","",""
"4274","","image-button-response","119","798352","0.0-118.0","A56TWAXG8WGWM","img_art/15.jpg","2","","","","","","","","","","","","","","","","","","","","","","","","",""
"174","","image-button-response","120","798529","0.0-119.0","A56TWAXG8WGWM","img_art/15.jpg","2","","","","","","","","","","","","","","","","","","","","","","","","",""
"2342","","image-button-response","121","800874","0.0-120.0-0.0","A56TWAXG8WGWM","img_art/15.jpg","4","","","","","","","","","","","","","","","","","","","","","","","","",""
"846","","image-button-response","122","801724","0.0-121.0-0.0","A56TWAXG8WGWM","img_art/15.jpg","5","","","","","","","","","","","","","","","","","","","","","","","","",""
"null","","html-keyboard-response","123","803229","0.0-122.0","A56TWAXG8WGWM","<p style=""font-size: 48px;"">+</p>","","","","","null","allTrialResponses","1500","1","11","img_art/15.jpg","-46","Blotch of black and blue paint","Margaret,Rachel,Chloe,Kelsey,Briana,Jamie","i like the pop of blue within all the black,8,100,20","Reminds me of blue birds in a tree at night. I love nature.,40,80,20","Like the composition and lines,26,220,20","i kinda like this one but wouldnt buy it for myself,17,240,20","It reminds me of when you look up into a tree,21,400,20","Black and blue is my favorite color combination,35,320,20","Chloe","Like the composition and lines,26,220,20","Briana","It reminds me of when you look up into a tree,21,400,20","Jamie","Black and blue is my favorite color combination,35,320,20","2"
"26584","","survey-text","124","829825","0.0-123.0-0.0","A56TWAXG8WGWM","","","","{""Q0"":""People are performing in the midst of the world""}","","","","","","","","","","","","","","","","","","","","","","",""
"2936.7000000029802","","image-slider-response","125","832764","0.0-124.0","A56TWAXG8WGWM","","","","","39","","","","","","","","","","","","","","","","","","","","","",""
"null","","image-button-response","126","837770","0.0-125.0","A56TWAXG8WGWM","img_art/23.jpg","null","","","","","","","","","","","","","","","","","","","","","","","","",""
"1605","","image-button-response","127","839377","0.0-126.0","A56TWAXG8WGWM","img_art/23.jpg","4","","","","","","","","","","","","","","","","","","","","","","","","",""
"7196","","image-button-response","128","846576","0.0-127.0-0.0","A56TWAXG8WGWM","img_art/23.jpg","0","","","","","","","","","","","","","","","","","","","","","","","","",""
"1151","","image-button-response","129","847730","0.0-128.0-0.0","A56TWAXG8WGWM","img_art/23.jpg","5","","","","","","","","","","","","","","","","","","","","","","","","",""
"null","","html-keyboard-response","130","848233","0.0-129.0","A56TWAXG8WGWM","<p style=""font-size: 48px;"">+</p>","","","","","null","allTrialResponses","500","1","12","img_art/23.jpg","39","People are performing in the midst of the world","Cynthia,Sarah,Chloe,Vanessa,Briana,Jamie","puzzled with curiosity,31,320,20","it's not uninteresting, but i'm not responding to it,-7,180,20","Poster shop camp.,-40,220,20","This is ugly and weird.,-50,380,20","White in the middle look like people dancing naked,19,400,20","Reminds me of outer space and the stars,30,320,20","Briana","White in the middle look like people dancing naked,19,400,20","Cynthia","puzzled with curiosity,31,320,20","Jamie","Reminds me of outer space and the stars,30,320,20","2"
"54501","","survey-text","131","902746","0.0-130.0-0.0","A56TWAXG8WGWM","","","","{""Q0"":""A cute teddybear and a man on the side""}","","","","","","","","","","","","","","","","","","","","","","",""
"10031.5","","image-slider-response","132","912780","0.0-131.0","A56TWAXG8WGWM","","","","","21","","","","","","","","","","","","","","","","","","","","","",""
"2075","","image-button-response","133","917788","0.0-132.0","A56TWAXG8WGWM","img_art/16.jpg","4","","","","","","","","","","","","","","","","","","","","","","","","",""
"109","","image-button-response","134","917900","0.0-133.0","A56TWAXG8WGWM","img_art/16.jpg","1","","","","","","","","","","","","","","","","","","","","","","","","",""
"4426","","image-button-response","135","922329","0.0-134.0-0.0","A56TWAXG8WGWM","img_art/16.jpg","3","","","","","","","","","","","","","","","","","","","","","","","","",""
"3527","","image-button-response","136","925860","0.0-135.0-0.0","A56TWAXG8WGWM","img_art/16.jpg","0","","","","","","","","","","","","","","","","","","","","","","","","",""
"null","","html-keyboard-response","137","926862","0.0-136.0","A56TWAXG8WGWM","<p style=""font-size: 48px;"">+</p>","","","","","null","allTrialResponses","1000","1","13","img_art/16.jpg","21","A cute teddybear and a man on the side","Cynthia,Grace,Natalie,Maria,Briana,Jamie","Dreamy and chaotic,-9,320,20","Something terrible happened. Either the figure on the right is the victim or another shredded toy.,-49,180,20","my reaction is that the picture is creepy,-19,400,20","feel a little creeped out,-20,120,20","Weird mixed media piece,-50,400,20","Weird and funny,40,320,20","Grace","Something terrible happened. Either the figure on the right is the victim or another shredded toy.,-49,180,20","Maria","feel a little creeped out,-20,120,20","Cynthia","Dreamy and chaotic,-9,320,20","2"
"14446","","survey-text","138","941322","0.0-137.0-0.0","A56TWAXG8WGWM","","","","{""Q0"":""Aww wonderful piece of art""}","","","","","","","","","","","","","","","","","","","","","","",""
"3058.6000000089407","","image-slider-response","139","944383","0.0-138.0","A56TWAXG8WGWM","","","","","44","","","","","","","","","","","","","","","","","","","","","",""
"3229","","image-button-response","140","949392","0.0-139.0","A56TWAXG8WGWM","img_art/8.jpg","1","","","","","","","","","","","","","","","","","","","","","","","","",""
"963","","image-button-response","141","950358","0.0-140.0","A56TWAXG8WGWM","img_art/8.jpg","4","","","","","","","","","","","","","","","","","","","","","","","","",""
"1118","","image-button-response","142","951480","0.0-141.0-0.0","A56TWAXG8WGWM","img_art/8.jpg","5","","","","","","","","","","","","","","","","","","","","","","","","",""
"1555","","image-button-response","143","953039","0.0-142.0-0.0","A56TWAXG8WGWM","img_art/8.jpg","2","","","","","","","","","","","","","","","","","","","","","","","","",""
"null","","html-keyboard-response","144","953542","0.0-143.0","A56TWAXG8WGWM","<p style=""font-size: 48px;"">+</p>","","","","","null","allTrialResponses","500","1","14","img_art/8.jpg","44","Aww wonderful piece of art","Cynthia,Grace,Hailey,Maria,Destiny,Kaitlin","New power in the community,22,320,20","Like the colors & the imagery - old city, native peoples maybe.,20,180,20","cold city controlled by evil gods,-17,200,20","not sure what to make of this - just neutral again,-1,120,20","a cute little cute with some protectors,25,360,20","wow - the colors were very well mixed,12,60,20","Destiny","a cute little cute with some protectors,25,360,20","Kaitlin","wow - the colors were very well mixed,12,60,20","Hailey","cold city controlled by evil gods,-17,200,20","2"
"17945","","survey-text","145","971500","0.0-144.0-0.0","A56TWAXG8WGWM","","","","{""Q0"":""marks on a another planet""}","","","","","","","","","","","","","","","","","","","","","","",""
"3777","","image-slider-response","146","975279","0.0-145.0","A56TWAXG8WGWM","","","","","-39","","","","","","","","","","","","","","","","","","","","","",""
"4187","","image-button-response","147","980283","0.0-146.0","A56TWAXG8WGWM","img_art/7.jpg","3","","","","","","","","","","","","","","","","","","","","","","","","",""
"311","","image-button-response","148","980599","0.0-147.0","A56TWAXG8WGWM","img_art/7.jpg","4","","","","","","","","","","","","","","","","","","","","","","","","",""
"1007","","image-button-response","149","981609","0.0-148.0-0.0","A56TWAXG8WGWM","img_art/7.jpg","3","","","","","","","","","","","","","","","","","","","","","","","","",""
"1493","","image-button-response","150","983105","0.0-149.0-0.0","A56TWAXG8WGWM","img_art/7.jpg","5","","","","","","","","","","","","","","","","","","","","","","","","",""
"null","","html-keyboard-response","151","984111","0.0-150.0","A56TWAXG8WGWM","<p style=""font-size: 48px;"">+</p>","","","","","null","allTrialResponses","1000","1","15","img_art/7.jpg","-39","marks on a another planet","Samantha,Victoria,Hailey,Heather,Destiny,Kaitlin","Makes me want to feel it,19,140,20","looks like a photograph,-4,400,20","hot desert with big rocks.,-19,200,20","i dont like it. it looks like rocks,-40,260,20","mars also crunchy leaves maybe a beehive,32,360,20","I'm not too sure about this one,-10,60,20","Destiny","mars also crunchy leaves maybe a beehive,32,360,20","Heather","i dont like it. it looks like rocks,-40,260,20","Kaitlin","I'm not too sure about this one,-10,60,20","2"
"5316","","survey-text","152","989450","0.0-151.0-0.0","A56TWAXG8WGWM","","","","{""Q0"":""course""}","","","","","","","","","","","","","","","","","","","","","","",""
"26590","","survey-text","153","1016042","0.0-152.0-0.0","A56TWAXG8WGWM","","","","{""Q0"":""Spilled and scribbled""}","","","","","","","","","","","","","","","","","","","","","","",""
"4853.100000008941","","image-slider-response","154","1020897","0.0-153.0","A56TWAXG8WGWM","","","","","-34","","","","","","","","","","","","","","","","","","","","","",""
"4784","","image-button-response","155","1025904","0.0-154.0","A56TWAXG8WGWM","img_art/29.jpg","0","","","","","","","","","","","","","","","","","","","","","","","","",""
"1149","","image-button-response","156","1027056","0.0-155.0","A56TWAXG8WGWM","img_art/29.jpg","4","","","","","","","","","","","","","","","","","","","","","","","","",""
"3239","","image-button-response","157","1030298","0.0-156.0-0.0","A56TWAXG8WGWM","img_art/29.jpg","3","","","","","","","","","","","","","","","","","","","","","","","","",""
"1966","","image-button-response","158","1032267","0.0-157.0-0.0","A56TWAXG8WGWM","img_art/29.jpg","2","","","","","","","","","","","","","","","","","","","","","","","","",""
"null","","html-keyboard-response","159","1033769","0.0-158.0","A56TWAXG8WGWM","<p style=""font-size: 48px;"">+</p>","","","","","null","allTrialResponses","1500","1","16","img_art/29.jpg","-34","Spilled and scribbled","Erin,Erika,Madison,Heather,Destiny,Kaitlin","Red X is scary, like the bricks,7,120,20","Feels like an abandoned dream,13,100,20","Well if the artist themself is crossing it out, why should I pay any mind?,-30,60,20","i dont know how it makes me feel.,1,260,20","is this supposed to be edgy,-21,360,20","seems fun, looks like a battle zone,22,60,20","Destiny","is this supposed to be edgy,-21,360,20","Heather","i dont know how it makes me feel.,1,260,20","Madison","Well if the artist themself is crossing it out, why should I pay any mind?,-30,60,20","2"
"40257","","survey-text","160","1074041","0.0-159.0-0.0","A56TWAXG8WGWM","","","","{""Q0"":""Looks like nature but not up to the mark""}","","","","","","","","","","","","","","","","","","","","","","",""
"2621.2999999970198","","image-slider-response","161","1076665","0.0-160.0","A56TWAXG8WGWM","","","","","-25","","","","","","","","","","","","","","","","","","","","","",""
"2059","","image-button-response","162","1081668","0.0-161.0","A56TWAXG8WGWM","img_art/21.jpg","1","","","","","","","","","","","","","","","","","","","","","","","","",""
"2181","","image-button-response","163","1083852","0.0-162.0","A56TWAXG8WGWM","img_art/21.jpg","5","","","","","","","","","","","","","","","","","","","","","","","","",""
"1235","","image-button-response","164","1085090","0.0-163.0-0.0","A56TWAXG8WGWM","img_art/21.jpg","1","","","","","","","","","","","","","","","","","","","","","","","","",""
"1352","","image-button-response","165","1086444","0.0-164.0-0.0","A56TWAXG8WGWM","img_art/21.jpg","0","","","","","","","","","","","","","","","","","","","","","","","","",""
"null","","html-keyboard-response","166","1086947","0.0-165.0","A56TWAXG8WGWM","<p style=""font-size: 48px;"">+</p>","","","","","null","allTrialResponses","500","1","17","img_art/21.jpg","-25","Looks like nature but not up to the mark","Molly,Breanna,Madison,Heather,Destiny,Mikayla","Looks like a war. Many things happening on the painting, really enjoy it.,30,340,20","Can't understand what it is,-27,380,20","War! But then, what? And then, what of it? Intention seems incomplete, or not fully committed to.,-19,60,20","The color spectrum is just beautiful.,32,260,20","Pink is my favorite, against blue it looks like sunset. Seems like a boat burning down, so don't absolutely love it,23,360,20","Nothing exciting in this one.,-36,300,20","Mikayla","Nothing exciting in this one.,-36,300,20","Breanna","Can't understand what it is,-27,380,20","Molly","Looks like a war. Many things happening on the painting, really enjoy it.,30,340,20","2"
"63129","","survey-text","167","1150092","0.0-166.0-0.0","A56TWAXG8WGWM","","","","{""Q0"":""A chaotic house""}","","","","","","","","","","","","","","","","","","","","","","",""
"2623.9000000059605","","image-slider-response","168","1152718","0.0-167.0","A56TWAXG8WGWM","","","","","-30","","","","","","","","","","","","","","","","","","","","","",""
"4276","","image-button-response","169","1157722","0.0-168.0","A56TWAXG8WGWM","img_art/20.jpg","3","","","","","","","","","","","","","","","","","","","","","","","","",""
"193","","image-button-response","170","1157918","0.0-169.0","A56TWAXG8WGWM","img_art/20.jpg","0","","","","","","","","","","","","","","","","","","","","","","","","",""
"1428","","image-button-response","171","1159349","0.0-170.0-0.0","A56TWAXG8WGWM","img_art/20.jpg","1","","","","","","","","","","","","","","","","","","","","","","","","",""
"2170","","image-button-response","172","1161522","0.0-171.0-0.0","A56TWAXG8WGWM","img_art/20.jpg","2","","","","","","","","","","","","","","","","","","","","","","","","",""
"null","","html-keyboard-response","173","1162024","0.0-172.0","A56TWAXG8WGWM","<p style=""font-size: 48px;"">+</p>","","","","","null","allTrialResponses","500","1","18","img_art/20.jpg","-30","A chaotic house","Molly,Breanna,Katie,Alexandra,Alexis,Mikayla","Phenomenal painting of building.,25,340,20","Makes me feel impressed,9,380,20","I don't like it. Dark sky and black figures. White objects remind me of bones.,-30,160,20","The white blob looks like a face and it's creepy,-30,60,20","I like the proportion of the car to the desert city, but too abstract for me,15,100,20","Kinda freaks me out.,-40,300,20","Molly","Phenomenal painting of building.,25,340,20","Breanna","Makes me feel impressed,9,380,20","Katie","I don't like it. Dark sky and black figures. White objects remind me of bones.,-30,160,20","2"
"15504","","survey-text","174","1177545","0.0-173.0-0.0","A56TWAXG8WGWM","","","","{""Q0"":""A woman with a bold raised hand""}","","","","","","","","","","","","","","","","","","","","","","",""
"3047.2999999970198","","image-slider-response","175","1180595","0.0-174.0","A56TWAXG8WGWM","","","","","44","","","","","","","","","","","","","","","","","","","","","",""
"4051","","image-button-response","176","1185598","0.0-175.0","A56TWAXG8WGWM","img_art/25.jpg","3","","","","","","","","","","","","","","","","","","","","","","","","",""
"380","","image-button-response","177","1185980","0.0-176.0","A56TWAXG8WGWM","img_art/25.jpg","4","","","","","","","","","","","","","","","","","","","","","","","","",""
"1363","","image-button-response","178","1187347","0.0-177.0-0.0","A56TWAXG8WGWM","img_art/25.jpg","5","","","","","","","","","","","","","","","","","","","","","","","","",""
"2177","","image-button-response","179","1189527","0.0-178.0-0.0","A56TWAXG8WGWM","img_art/25.jpg","2","","","","","","","","","","","","","","","","","","","","","","","","",""
"null","","html-keyboard-response","180","1191032","0.0-179.0","A56TWAXG8WGWM","<p style=""font-size: 48px;"">+</p>","","","","","null","allTrialResponses","1500","1","19","img_art/25.jpg","44","A woman with a bold raised hand","Molly,Breanna,Katie,Emma,Paige,Catherine","Well-designed, interesting.,30,340,20","Makes me feel intrigued,13,380,20","Reminds me of ancient civilization art. I like the aqua color; soothing to me.,1,160,20","Like the colors and the figure,30,60,20","reminds me of ancient history which makes me happy,40,60,20","culture, tradition. Village people with an honored elder.,40,160,20","Paige","reminds me of ancient history which makes me happy,40,60,20","Catherine","culture, tradition. Village people with an honored elder.,40,160,20","Katie","Reminds me of ancient civilization art. I like the aqua color; soothing to me.,1,160,20","2"
"11605","","survey-text","181","1202652","0.0-180.0-0.0","A56TWAXG8WGWM","","","","{""Q0"":""A bird on the edge""}","","","","","","","","","","","","","","","","","","","","","","",""
"6410.79999999702","","image-slider-response","182","1209066","0.0-181.0","A56TWAXG8WGWM","","","","","5","","","","","","","","","","","","","","","","","","","","","",""
"null","","image-button-response","183","1214072","0.0-182.0","A56TWAXG8WGWM","img_art/6.jpg","null","","","","","","","","","","","","","","","","","","","","","","","","",""
"1098","","image-button-response","184","1215172","0.0-183.0","A56TWAXG8WGWM","img_art/6.jpg","1","","","","","","","","","","","","","","","","","","","","","","","","",""
"1175","","image-button-response","185","1216350","0.0-184.0-0.0","A56TWAXG8WGWM","img_art/6.jpg","4","","","","","","","","","","","","","","","","","","","","","","","","",""
"789","","image-button-response","186","1217143","0.0-185.0-0.0","A56TWAXG8WGWM","img_art/6.jpg","5","","","","","","","","","","","","","","","","","","","","","","","","",""
"null","","html-keyboard-response","187","1218148","0.0-186.0","A56TWAXG8WGWM","<p style=""font-size: 48px;"">+</p>","","","","","null","allTrialResponses","1000","1","20","img_art/6.jpg","5","A bird on the edge","Caroline,Amber,Katie,Christina,Paige,Catherine","Lonely and kinda sad,-25,100,20","Something very simplistic about it. The colors mesh well.,10,200,20","I like the warmth of the orange. But, I feel like it's a partial view. I'm frustrated I can't see the entirety.,-20,160,20","i like the simplicity of the tree and the colors,50,240,20","Kind of boring. I don't care for many abstracts,1,60,20","Looking, searching at the same time being content.,30,160,20","Amber","Something very simplistic about it. The colors mesh well.,10,200,20","Paige","Kind of boring. I don't care for many abstracts,1,60,20","Catherine","Looking, searching at the same time being content.,30,160,20","2"
"3031","","survey-text","188","1221204","0.0-187.0-0.0","A56TWAXG8WGWM","","","","{""Q0"":""we""}","","","","","","","","","","","","","","","","","","","","","","",""
"17794","","survey-text","189","1239000","0.0-188.0-0.0","A56TWAXG8WGWM","","","","{""Q0"":""Paint squirted on the paper""}","","","","","","","","","","","","","","","","","","","","","","",""
"2494.9000000059605","","image-slider-response","190","1241496","0.0-189.0","A56TWAXG8WGWM","","","","","-38","","","","","","","","","","","","","","","","","","","","","",""
"4828","","image-button-response","191","1246500","0.0-190.0","A56TWAXG8WGWM","img_art/14.jpg","0","","","","","","","","","","","","","","","","","","","","","","","","",""
"1027","","image-button-response","192","1247530","0.0-191.0","A56TWAXG8WGWM","img_art/14.jpg","3","","","","","","","","","","","","","","","","","","","","","","","","",""
"1045","","image-button-response","193","1248577","0.0-192.0-0.0","A56TWAXG8WGWM","img_art/14.jpg","1","","","","","","","","","","","","","","","","","","","","","","","","",""
"767","","image-button-response","194","1249347","0.0-193.0-0.0","A56TWAXG8WGWM","img_art/14.jpg","2","","","","","","","","","","","","","","","","","","","","","","","","",""
"null","","html-keyboard-response","195","1249849","0.0-194.0","A56TWAXG8WGWM","<p style=""font-size: 48px;"">+</p>","","","","","null","allTrialResponses","500","1","21","img_art/14.jpg","-38","Paint squirted on the paper","Cassidy,Amber,Michaela,Tiffany,Paige,Catherine","Meh. Pleasant to look at. Colors are nice,6,140,20","Reminds me of the outdoors.,12,200,20","I just really like light and wispy things,33,260,20","I feel uncomfortable looking at this painting, it is a mess that needs to be cleaned up.,-16,360,20","It didn't really do anything to excite me.,21,60,20","Tornado, nature. trees falling and displaced creatures. Love the colors though.,1,160,20","Tiffany","I feel uncomfortable looking at this painting, it is a mess that needs to be cleaned up.,-16,360,20","Amber","Reminds me of the outdoors.,12,200,20","Michaela","I just really like light and wispy things,33,260,20","2"
"13468","","survey-text","196","1263334","0.0-195.0-0.0","A56TWAXG8WGWM","","","","{""Q0"":""Person on the horse""}","","","","","","","","","","","","","","","","","","","","","","",""
"7468.4000000059605","","image-slider-response","197","1270804","0.0-196.0","A56TWAXG8WGWM","","","","","4","","","","","","","","","","","","","","","","","","","","","",""
"4188","","image-button-response","198","1275810","0.0-197.0","A56TWAXG8WGWM","img_art/18.jpg","4","","","","","","","","","","","","","","","","","","","","","","","","",""
"121","","image-button-response","199","1275934","0.0-198.0","A56TWAXG8WGWM","img_art/18.jpg","5","","","","","","","","","","","","","","","","","","","","","","","","",""
"1736","","image-button-response","200","1277673","0.0-199.0-0.0","A56TWAXG8WGWM","img_art/18.jpg","0","","","","","","","","","","","","","","","","","","","","","","","","",""
"918","","image-button-response","201","1278595","0.0-200.0-0.0","A56TWAXG8WGWM","img_art/18.jpg","1","","","","","","","","","","","","","","","","","","","","","","","","",""
"null","","html-keyboard-response","202","1279601","0.0-201.0","A56TWAXG8WGWM","<p style=""font-size: 48px;"">+</p>","","","","","null","allTrialResponses","1000","1","22","img_art/18.jpg","4","Person on the horse","Rebecca,Amber,Michaela,Tiffany,Savannah,Jennifer","reminds me of the little prince, with the color scheme and all,16,100,20","ugly and lots of movement,-6,200,20","Reminds me of the four horsemen of the apocalypse,29,260,20","I'm mildly disgusted by the colors, and can't piece together the story the figures are trying to tell.,-10,360,20","Accents make this piece.,21,200,20","I have no strong feelings about this image,1,380,20","Jennifer","I have no strong feelings about this image,1,380,20","Rebecca","reminds me of the little prince, with the color scheme and all,16,100,20","Amber","ugly and lots of movement,-6,200,20","2"
"78816","","survey-text","203","1358432","0.0-202.0-0.0","A56TWAXG8WGWM","","","","{""Q0"":""colors that are crawling like nature""}","","","","","","","","","","","","","","","","","","","","","","",""
"3204.7000000029802","","image-slider-response","204","1361639","0.0-203.0","A56TWAXG8WGWM","","","","","-37","","","","","","","","","","","","","","","","","","","","","",""
"4787","","image-button-response","205","1366644","0.0-204.0","A56TWAXG8WGWM","img_art/17.jpg","2","","","","","","","","","","","","","","","","","","","","","","","","",""
"590","","image-button-response","206","1367236","0.0-205.0","A56TWAXG8WGWM","img_art/17.jpg","1","","","","","","","","","","","","","","","","","","","","","","","","",""
"1713","","image-button-response","207","1368952","0.0-206.0-0.0","A56TWAXG8WGWM","img_art/17.jpg","0","","","","","","","","","","","","","","","","","","","","","","","","",""
"1295","","image-button-response","208","1370250","0.0-207.0-0.0","A56TWAXG8WGWM","img_art/17.jpg","3","","","","","","","","","","","","","","","","","","","","","","","","",""
"null","","html-keyboard-response","209","1371253","0.0-208.0","A56TWAXG8WGWM","<p style=""font-size: 48px;"">+</p>","","","","","null","allTrialResponses","1000","1","23","img_art/17.jpg","-37","colors that are crawling like nature","Rebecca,Amber,Nicole,Leslie,Jenna,Jennifer","tree sprouting out of a box (house) the invasion of nature?,39,100,20","Don't really like pastels.,-10,200,20","Feels nostalgic somehow,31,20,20","This makes me feel trapped.,5,380,20","stunning. makes me feel happy, hopeful, serene, and a little wistful.,50,360,20","Very elegant, this design reminds me of trees,31,380,20","Amber","Don't really like pastels.,-10,200,20","Rebecca","tree sprouting out of a box (house) the invasion of nature?,39,100,20","Leslie","This makes me feel trapped.,5,380,20","2"
"8535","","survey-text","210","1379804","0.0-209.0-0.0","A56TWAXG8WGWM","","","","{""Q0"":""Looks like a volcano""}","","","","","","","","","","","","","","","","","","","","","","",""
"2959.0999999940395","","image-slider-response","211","1382766","0.0-210.0","A56TWAXG8WGWM","","","","","-40","","","","","","","","","","","","","","","","","","","","","",""
"4412","","image-button-response","212","1387772","0.0-211.0","A56TWAXG8WGWM","img_art/5.jpg","1","","","","","","","","","","","","","","","","","","","","","","","","",""
"320","","image-button-response","213","1388095","0.0-212.0","A56TWAXG8WGWM","img_art/5.jpg","0","","","","","","","","","","","","","","","","","","","","","","","","",""
"710","","image-button-response","214","1388808","0.0-213.0-0.0","A56TWAXG8WGWM","img_art/5.jpg","1","","","","","","","","","","","","","","","","","","","","","","","","",""
"1064","","image-button-response","215","1389874","0.0-214.0-0.0","A56TWAXG8WGWM","img_art/5.jpg","2","","","","","","","","","","","","","","","","","","","","","","","","",""
"null","","html-keyboard-response","216","1391379","0.0-215.0","A56TWAXG8WGWM","<p style=""font-size: 48px;"">+</p>","","","","","null","allTrialResponses","1500","1","24","img_art/5.jpg","-40","Looks like a volcano","Rebecca,Amber,Jordan,Leslie,Makayla,Alexandria","sorry not my style,-37,100,20","Missing something,-5,200,20","I dont really get anything from this,-25,20,20","This elicits no reaction in me.,0,380,20","Bright and sunny,19,80,20","no clear emotion,-16,80,20","Rebecca","sorry not my style,-37,100,20","Amber","Missing something,-5,200,20","Jordan","I dont really get anything from this,-25,20,20","2"
"9022","","survey-text","217","1400417","0.0-216.0-0.0","A56TWAXG8WGWM","","","","{""Q0"":""A town ""}","","","","","","","","","","","","","","","","","","","","","","",""
"3120","","image-slider-response","218","1403539","0.0-217.0","A56TWAXG8WGWM","","","","","10","","","","","","","","","","","","","","","","","","","","","",""
"4724","","image-button-response","219","1408544","0.0-218.0","A56TWAXG8WGWM","img_art/19.jpg","2","","","","","","","","","","","","","","","","","","","","","","","","",""
"709","","image-button-response","220","1409257","0.0-219.0","A56TWAXG8WGWM","img_art/19.jpg","5","","","","","","","","","","","","","","","","","","","","","","","","",""
"885","","image-button-response","221","1410146","0.0-220.0-0.0","A56TWAXG8WGWM","img_art/19.jpg","4","","","","","","","","","","","","","","","","","","","","","","","","",""
"1304","","image-button-response","222","1411454","0.0-221.0-0.0","A56TWAXG8WGWM","img_art/19.jpg","1","","","","","","","","","","","","","","","","","","","","","","","","",""
"null","","html-keyboard-response","223","1412458","0.0-222.0","A56TWAXG8WGWM","<p style=""font-size: 48px;"">+</p>","","","","","null","allTrialResponses","1000","1","25","img_art/19.jpg","10","A town ","Rebecca,Amber,Jordan,Sydney,Ashley,Amy","interesting take on depth (reminds me of those 1000 piece puzzles),2,100,20","Reminds me of a busy village.,16,200,20","I like it, I see someone walking his dog in the early morning time,23,20,20","I like the color and the mix of sketches along with paint.,30,320,20","someone at the beach maybe?,27,320,20","Though provoking. Adventurous.,10,220,20","Amy","Though provoking. Adventurous.,10,220,20","Ashley","someone at the beach maybe?,27,320,20","Amber","Reminds me of a busy village.,16,200,20","2"
"3556","","survey-text","224","1416042","0.0-223.0-0.0","A56TWAXG8WGWM","","","","{""Q0"":""table""}","","","","","","","","","","","","","","","","","","","","","","",""
"9291","","survey-text","225","1425335","0.0-224.0-0.0","A56TWAXG8WGWM","","","","{""Q0"":""roadways""}","","","","","","","","","","","","","","","","","","","","","","",""
"3505.0999999940395","","image-slider-response","226","1428842","0.0-225.0","A56TWAXG8WGWM","","","","","39","","","","","","","","","","","","","","","","","","","","","",""
"4003","","image-button-response","227","1433850","0.0-226.0","A56TWAXG8WGWM","img_art/11.jpg","3","","","","","","","","","","","","","","","","","","","","","","","","",""
"783","","image-button-response","228","1434636","0.0-227.0","A56TWAXG8WGWM","img_art/11.jpg","5","","","","","","","","","","","","","","","","","","","","","","","","",""
"1089","","image-button-response","229","1435730","0.0-228.0-0.0","A56TWAXG8WGWM","img_art/11.jpg","2","","","","","","","","","","","","","","","","","","","","","","","","",""
"1311","","image-button-response","230","1437045","0.0-229.0-0.0","A56TWAXG8WGWM","img_art/11.jpg","2","","","","","","","","","","","","","","","","","","","","","","","","",""
"855","","image-button-response","231","1442035","0.0-229.1-0.1","A56TWAXG8WGWM","img_art/11.jpg","4","","","","","","","","","","","","","","","","","","","","","","","","",""
"null","","html-keyboard-response","232","1443039","0.0-230.0","A56TWAXG8WGWM","<p style=""font-size: 48px;"">+</p>","","","","","null","allTrialResponses","1000","1","26","img_art/11.jpg","39","roadways","Laura,Amber,Autumn,Julia,Ashley,Amy","i think of beatnik music and dark piano lounges,25,320,20","Look like it's in constant movement.,10,200,20","Good but not eye catching,14,340,20","this looks like a beautiful rainy day in a hellish urban mountain city,14,40,20","Dark but bright, city but ocean, musical scales.,50,320,20","Simple and complex. Hopeful yet dark. I love this,35,220,20","Amy","Simple and complex. Hopeful yet dark. I love this,35,220,20","Autumn","Good but not eye catching,14,340,20","Ashley","Dark but bright, city but ocean, musical scales.,50,320,20","4"
"14692","","survey-text","233","1457749","0.0-231.0-0.0","A56TWAXG8WGWM","","","","{""Q0"":""A look from the apartment""}","","","","","","","","","","","","","","","","","","","","","","",""
"4572.20000000298","","image-slider-response","234","1462323","0.0-232.0","A56TWAXG8WGWM","","","","","-19","","","","","","","","","","","","","","","","","","","","","",""
"4435","","image-button-response","235","1467328","0.0-233.0","A56TWAXG8WGWM","img_art/26.jpg","0","","","","","","","","","","","","","","","","","","","","","","","","",""
"159","","image-button-response","236","1467490","0.0-234.0","A56TWAXG8WGWM","img_art/26.jpg","1","","","","","","","","","","","","","","","","","","","","","","","","",""
"839","","image-button-response","237","1468332","0.0-235.0-0.0","A56TWAXG8WGWM","img_art/26.jpg","2","","","","","","","","","","","","","","","","","","","","","","","","",""
"966","","image-button-response","238","1469302","0.0-236.0-0.0","A56TWAXG8WGWM","img_art/26.jpg","5","","","","","","","","","","","","","","","","","","","","","","","","",""
"null","","html-keyboard-response","239","1470306","0.0-237.0","A56TWAXG8WGWM","<p style=""font-size: 48px;"">+</p>","","","","","null","allTrialResponses","1000","1","27","img_art/26.jpg","-19","A look from the apartment","Alicia,Chelsea,Autumn,Emily,Ashley,Amy","I like the simple watercolor colors, makes my mind work, thumbs up.,27,120,20","I wish it were more pastel but I think it is relaxing to look at.,30,180,20","Murky, messy, kid like.,-45,340,20","Not much skil went into this one either.,-41,40,20","Telented watercolor artist or second grader.,18,320,20","The feeling that I am looking at the world through a dingy filter makes this unpleasant for me.,-20,220,20","Chelsea","I wish it were more pastel but I think it is relaxing to look at.,30,180,20","Autumn","Murky, messy, kid like.,-45,340,20","Amy","The feeling that I am looking at the world through a dingy filter makes this unpleasant for me.,-20,220,20","4"
"17399","","survey-text","240","1487724","0.0-238.0-0.0","A56TWAXG8WGWM","","","","{""Q0"":""Something is holding it strong""}","","","","","","","","","","","","","","","","","","","","","","",""
"2926.2999999970198","","image-slider-response","241","1490652","0.0-239.0","A56TWAXG8WGWM","","","","","4","","","","","","","","","","","","","","","","","","","","","",""
"3863","","image-button-response","242","1495658","0.0-240.0","A56TWAXG8WGWM","img_art/22.jpg","3","","","","","","","","","","","","","","","","","","","","","","","","",""
"1590","","image-button-response","243","1497250","0.0-241.0","A56TWAXG8WGWM","img_art/22.jpg","5","","","","","","","","","","","","","","","","","","","","","","","","",""
"1007","","image-button-response","244","1498260","0.0-242.0-0.0","A56TWAXG8WGWM","img_art/22.jpg","1","","","","","","","","","","","","","","","","","","","","","","","","",""
"758","","image-button-response","245","1499022","0.0-243.0-0.0","A56TWAXG8WGWM","img_art/22.jpg","2","","","","","","","","","","","","","","","","","","","","","","","","",""
"null","","html-keyboard-response","246","1499524","0.0-244.0","A56TWAXG8WGWM","<p style=""font-size: 48px;"">+</p>","","","","","null","allTrialResponses","500","1","28","img_art/22.jpg","4","Something is holding it strong","Kathryn,Chelsea,Autumn,Taylor,Haley,Amy","This piece gives off a cool vibe. Reminds me of being out in the city at night.,20,140,20","The colors clash, and I don't know what is happening.,-23,180,20","Same az the last one?,-49,340,20","Doesn't make me feel anything,-4,340,20","Beautiful. I love the color contrast and gradients.,50,220,20","I appreciate the shapes but the abundance of primary colors make it seem garrish.,-10,220,20","Amy","I appreciate the shapes but the abundance of primary colors make it seem garrish.,-10,220,20","Chelsea","The colors clash, and I don't know what is happening.,-23,180,20","Autumn","Same az the last one?,-49,340,20","4"
"22600","","survey-text","247","1522143","0.0-245.0-0.0","A56TWAXG8WGWM","","","","{""Q0"":""Conversation happening between two people""}","","","","","","","","","","","","","","","","","","","","","","",""
"4381.20000000298","","image-slider-response","248","1526526","0.0-246.0","A56TWAXG8WGWM","","","","","12","","","","","","","","","","","","","","","","","","","","","",""
"3769","","image-button-response","249","1531533","0.0-247.0","A56TWAXG8WGWM","img_art/28.jpg","5","","","","","","","","","","","","","","","","","","","","","","","","",""
"142","","image-button-response","250","1531678","0.0-248.0","A56TWAXG8WGWM","img_art/28.jpg","0","","","","","","","","","","","","","","","","","","","","","","","","",""
"811","","image-button-response","251","1532492","0.0-249.0-0.0","A56TWAXG8WGWM","img_art/28.jpg","1","","","","","","","","","","","","","","","","","","","","","","","","",""
"911","","image-button-response","252","1533406","0.0-250.0-0.0","A56TWAXG8WGWM","img_art/28.jpg","2","","","","","","","","","","","","","","","","","","","","","","","","",""
"null","","html-keyboard-response","253","1534912","0.0-251.0","A56TWAXG8WGWM","<p style=""font-size: 48px;"">+</p>","","","","","null","allTrialResponses","1500","1","29","img_art/28.jpg","12","Conversation happening between two people","Lindsey,Chelsea,Autumn,Gabriela,Courtney,Amy","Not a fan of the drab colors but it looks a little bit interesting.,-7,400,20","It is too messy.,-38,180,20","Looks yucky and poor.,-33,340,20","The brown and green colors used look dull and unappealing,-30,140,20","Looks like some guys in s band playing at a busy park.,18,280,20","Contemplative and a little dark. The muted colors and subject create a sense of mystery.,15,220,20","Lindsey","Not a fan of the drab colors but it looks a little bit interesting.,-7,400,20","Chelsea","It is too messy.,-38,180,20","Autumn","Looks yucky and poor.,-33,340,20","4"
"107487","","survey-text","254","1642418","0.0-252.0-0.0","A56TWAXG8WGWM","","","","{""Q0"":""blotching of colors""}","","","","","","","","","","","","","","","","","","","","","","",""
"2434.8999999910593","","image-slider-response","255","1644855","0.0-253.0","A56TWAXG8WGWM","","","","","-10","","","","","","","","","","","","","","","","","","","","","",""
"3947","","image-button-response","256","1649859","0.0-254.0","A56TWAXG8WGWM","img_art/27.jpg","4","","","","","","","","","","","","","","","","","","","","","","","","",""
"190","","image-button-response","257","1650052","0.0-255.0","A56TWAXG8WGWM","img_art/27.jpg","2","","","","","","","","","","","","","","","","","","","","","","","","",""
"863","","image-button-response","258","1650918","0.0-256.0-0.0","A56TWAXG8WGWM","img_art/27.jpg","0","","","","","","","","","","","","","","","","","","","","","","","","",""
"702","","image-button-response","259","1651623","0.0-257.0-0.0","A56TWAXG8WGWM","img_art/27.jpg","1","","","","","","","","","","","","","","","","","","","","","","","","",""
"null","","html-keyboard-response","260","1652125","0.0-258.0","A56TWAXG8WGWM","<p style=""font-size: 48px;"">+</p>","","","","","null","allTrialResponses","500","1","30","img_art/27.jpg","-10","blotching of colors","Lindsey,Chelsea,Autumn,Lauren,Mary,Mackenzie","Looks like my niece's doodles.,-50,400,20","The green lines look like a child drew over a painting.,-36,180,20","Adult contemporary painting with child.,-33,340,20","Not a fan of the green; gives off the impression that someone else drew on it.,-20,340,20","I like the layer upon layer of different mediums used here.,21,180,20","The color palette isn't my taste,-24,20,20","Autumn","Adult contemporary painting with child.,-33,340,20","Lindsey","Looks like my niece's doodles.,-50,400,20","Chelsea","The green lines look like a child drew over a painting.,-36,180,20","4"
"3390","","image-button-response_instructions","261","1655535","0.0-259.0","A56TWAXG8WGWM","","0","instructions","","","","","","","","","","","","","","","","","","","","","","","",""
"1449","","image-button-response","262","1657002","0.0-260.0","A56TWAXG8WGWM","","0","","","","","","","","","","","","","","","","","","","","","","","","",""
