"rt","url","trial_type","trial_index","time_elapsed","internal_node_id","participant_id","stimulus","button_pressed","Name","responses","response","key_press","variableName","fixationTime","condition","trial","photo","subjectRating","subjectResponse","agentsNames","agent_1_Response","agent_2_Response","agent_3_Response","agent_4_Response","agent_5_Response","agent_6_Response","kept_1_name","kept_1_response","kept_2_name","kept_2_response","kept_3_name","kept_3_response","errorCounter"
"13137","external_page_harvard.html","external-html","0","13212","0.0-0.0","A5Q2CMQMYG1IK","","","","","","","","","","","","","","","","","","","","","","","","","","",""
"2017","","image-button-response","1","15231","0.0-1.0","A5Q2CMQMYG1IK","","1","","","","","","","","","","","","","","","","","","","","","","","","",""
"1188","","image-button-response","2","16425","0.0-2.0-0.0","A5Q2CMQMYG1IK","","1","phone","","","","","","","","","","","","","","","","","","","","","","","",""
"6720","","survey-text","3","23148","0.0-3.0-0.0","A5Q2CMQMYG1IK","","","","{""Q0"":""A5Q2CMQMYG1IK""}","","","","","","","","","","","","","","","","","","","","","","",""
"4959","","image-button-response_instructions","4","28110","0.0-4.0","A5Q2CMQMYG1IK","","0","instructions","","","","","","","","","","","","","","","","","","","","","","","",""
"17003","","image-button-response_instructions","5","45115","0.0-5.0","A5Q2CMQMYG1IK","img_art/ins/popularity/ins1.png","0","instructions","","","","","","","","","","","","","","","","","","","","","","","",""
"5761","","image-button-response_instructions","6","50878","0.0-6.0","A5Q2CMQMYG1IK","img_art/ins/popularity/ins2.png","0","instructions","","","","","","","","","","","","","","","","","","","","","","","",""
"2420","","image-button-response_instructions","7","53300","0.0-7.0","A5Q2CMQMYG1IK","img_art/ins/popularity/ins2Extreme.png","0","instructions","","","","","","","","","","","","","","","","","","","","","","","",""
"4150","","image-button-response_instructions","8","57451","0.0-8.0","A5Q2CMQMYG1IK","img_art/ins/popularity/ins3KEEPpop.PNG","0","instructions","","","","","","","","","","","","","","","","","","","","","","","",""
"2120","","image-button-response_instructions","9","59573","0.0-9.0","A5Q2CMQMYG1IK","img_art/ins/popularity/ins3ANamepop.PNG","0","instructions","","","","","","","","","","","","","","","","","","","","","","","",""
"2941","","image-button-response_instructions","10","62515","0.0-10.0","A5Q2CMQMYG1IK","img_art/ins/popularity/ins3ARatingpop.png","0","instructions","","","","","","","","","","","","","","","","","","","","","","","",""
"5432","","image-button-response_instructions","11","67948","0.0-11.0","A5Q2CMQMYG1IK","img_art/ins/popularity/ins3ATextpop.png","0","instructions","","","","","","","","","","","","","","","","","","","","","","","",""
"7251","","image-button-response_instructions","12","75200","0.0-12.0","A5Q2CMQMYG1IK","img_art/ins/popularity/ins3ALikespop.png","0","instructions","","","","","","","","","","","","","","","","","","","","","","","",""
"5740","","image-button-response_instructions","13","80941","0.0-13.0","A5Q2CMQMYG1IK","img_art/ins/popularity/ins3KEEPpop.PNG","0","instructions","","","","","","","","","","","","","","","","","","","","","","","",""
"3422","","image-button-response_instructions","14","84364","0.0-14.0","A5Q2CMQMYG1IK","img_art/ins/popularity/ins3_5RED.png","0","instructions","","","","","","","","","","","","","","","","","","","","","","","",""
"2601","","image-button-response_instructions","15","86966","0.0-15.0","A5Q2CMQMYG1IK","img_art/ins/popularity/ins3KEEPpop.PNG","0","instructions","","","","","","","","","","","","","","","","","","","","","","","",""
"2951","","image-button-response_instructions","16","89918","0.0-16.0","A5Q2CMQMYG1IK","img_art/ins/popularity/ins4KEEPpop.PNG","0","instructions","","","","","","","","","","","","","","","","","","","","","","","",""
"2381","","image-button-response_instructions","17","92300","0.0-17.0","A5Q2CMQMYG1IK","img_art/ins/popularity/ins5KEEPpop.PNG","0","instructions","","","","","","","","","","","","","","","","","","","","","","","",""
"1661","","image-button-response_instructions","18","93962","0.0-18.0","A5Q2CMQMYG1IK","","0","instructions","","","","","","","","","","","","","","","","","","","","","","","",""
"7002","","survey-text","19","100995","0.0-19.0-0.0","A5Q2CMQMYG1IK","","","","{""Q0"":""but""}","","","","","","","","","","","","","","","","","","","","","","",""
"48093","","survey-text","20","149091","0.0-20.0-0.0","A5Q2CMQMYG1IK","","","","{""Q0"":""A sense of confusion""}","","","","","","","","","","","","","","","","","","","","","","",""
"7050.799999999814","","image-slider-response","21","156145","0.0-21.0","A5Q2CMQMYG1IK","","","","","50","","","","","","","","","","","","","","","","","","","","","",""
"null","","image-button-response","22","161162","0.0-22.0","A5Q2CMQMYG1IK","img_art/ins/1.jpg","null","","","","","","","","","","","","","","","","","","","","","","","","",""
"15662","","image-button-response","23","176827","0.0-23.0","A5Q2CMQMYG1IK","img_art/ins/1.jpg","4","","","","","","","","","","","","","","","","","","","","","","","","",""
"4669","","image-button-response","24","181500","0.0-24.0-0.0","A5Q2CMQMYG1IK","img_art/ins/1.jpg","5","","","","","","","","","","","","","","","","","","","","","","","","",""
"9338","","image-button-response","25","190841","0.0-25.0-0.0","A5Q2CMQMYG1IK","img_art/ins/1.jpg","0","","","","","","","","","","","","","","","","","","","","","","","","",""
"null","","html-keyboard-response","26","191847","0.0-26.0","A5Q2CMQMYG1IK","<p style=""font-size: 48px;"">+</p>","","","","","null","allTrialResponses","1000","1","-2","img_art/ins/1.jpg","50","A sense of confusion","Allison,Ashley,Beth,Dora,Erika,Jen","looks like a lot of things going on in the mist,20,20,20","I just don't get why these type of art would be popular,-32,40,20","This color reminds me of poo,-46,60,20","looks like what my niece in 3rd grade did this afternoon,-50,80,20","I like the sophisticated brushwork,40,100,20","It reminds me of a candy land dream I had,36,120,20","Erika","I like the sophisticated brushwork,40,100,20","Jen","It reminds me of a candy land dream I had,36,120,20","Allison","looks like a lot of things going on in the mist,20,20,20","0"
"35191","","survey-text","27","227045","0.0-27.0-0.0","A5Q2CMQMYG1IK","","","","{""Q0"":""I picture a wall that will lead to another world.""}","","","","","","","","","","","","","","","","","","","","","","",""
"4062.600000000093","","image-slider-response","28","231110","0.0-28.0","A5Q2CMQMYG1IK","","","","","50","","","","","","","","","","","","","","","","","","","","","",""
"3089","","image-button-response","29","236126","0.0-29.0","A5Q2CMQMYG1IK","img_art/ins/2.jpg","1","","","","","","","","","","","","","","","","","","","","","","","","",""
"4373","","image-button-response","30","240503","0.0-30.0","A5Q2CMQMYG1IK","img_art/ins/2.jpg","1","","","","","","","","","","","","","","","","","","","","","","","","",""
"4069","","image-button-response","31","244575","0.0-31.0-0.0","A5Q2CMQMYG1IK","img_art/ins/2.jpg","4","","","","","","","","","","","","","","","","","","","","","","","","",""
"2449","","image-button-response","32","247027","0.0-32.0-0.0","A5Q2CMQMYG1IK","img_art/ins/2.jpg","3","","","","","","","","","","","","","","","","","","","","","","","","",""
"null","","html-keyboard-response","33","248030","0.0-33.0","A5Q2CMQMYG1IK","<p style=""font-size: 48px;"">+</p>","","","","","null","allTrialResponses","1000","1","-1","img_art/ins/2.jpg","50","I picture a wall that will lead to another world.","Allison,Kara,Katie,Jenna,Erika,Jen","I don't have strong feelings about this,10,20,20","I like the blocks of color arrangements,30,160,20","too much color!,-28,180,20","One of my pet peevs,-48,140,20","I would never be able to compose a sophisticated pallete like this,48,100,20","It reminds me of a fireplace,36,120,20","Kara","I like the blocks of color arrangements,30,160,20","Erika","I would never be able to compose a sophisticated pallete like this,48,100,20","Jenna","One of my pet peevs,-48,140,20","0"
"40852","","survey-text","34","288891","0.0-34.0-0.0","A5Q2CMQMYG1IK","","","","{""Q0"":""I feel like i'm up in the sky with birds when I see this. ""}","","","","","","","","","","","","","","","","","","","","","","",""
"3560.899999999907","","image-slider-response","35","292454","0.0-35.0","A5Q2CMQMYG1IK","","","","","50","","","","","","","","","","","","","","","","","","","","","",""
"2450","","image-button-response","36","297462","0.0-36.0","A5Q2CMQMYG1IK","img_art/ins/3.jpg","4","","","","","","","","","","","","","","","","","","","","","","","","",""
"824","","image-button-response","37","298289","0.0-37.0","A5Q2CMQMYG1IK","img_art/ins/3.jpg","0","","","","","","","","","","","","","","","","","","","","","","","","",""
"1839","","image-button-response","38","300131","0.0-38.0-0.0","A5Q2CMQMYG1IK","img_art/ins/3.jpg","1","","","","","","","","","","","","","","","","","","","","","","","","",""
"3460","","image-button-response","39","303594","0.0-39.0-0.0","A5Q2CMQMYG1IK","img_art/ins/3.jpg","4","","","","","","","","","","","","","","","","","","","","","","","","",""
"null","","html-keyboard-response","40","304099","0.0-40.0","A5Q2CMQMYG1IK","<p style=""font-size: 48px;"">+</p>","","","","","null","allTrialResponses","500","1","0","img_art/ins/3.jpg","50","I feel like i'm up in the sky with birds when I see this. ","Mary,Kara,Leslie,Jenna,Erika,Rose","I like the overlapping of brushes,41,220,20","calming blue is very nice,36,160,20","It's an alright work,15,200,20","looks like a murder room,-35,140,20","I feel connected to the artist,40,100,20","My daily routine, it's depressing,-20,240,20","Mary","I like the overlapping of brushes,41,220,20","Kara","calming blue is very nice,36,160,20","Erika","I feel connected to the artist,40,100,20","0"
"7727","","image-button-response_instructions","41","311834","0.0-41.0","A5Q2CMQMYG1IK","","0","instructions","","","","","","","","","","","","","","","","","","","","","","","",""
"18801","","survey-likert","42","330637","0.0-42.0-0.0","A5Q2CMQMYG1IK","","","","{""Q0"":"""",""Q1"":0,""Q2"":1}","","","","","","","","","","","","","","","","","","","","","","",""
"4989","","survey-text","43","335631","0.0-43.0-0.0","A5Q2CMQMYG1IK","","","","{""Q0"":""rock""}","","","","","","","","","","","","","","","","","","","","","","",""
"47082","","survey-text","44","382716","0.0-44.0-0.0","A5Q2CMQMYG1IK","","","","{""Q0"":""Very beautiful work of color blending and a sense of fantasy in the forest.""}","","","","","","","","","","","","","","","","","","","","","","",""
"4252","","image-slider-response","45","386970","0.0-45.0","A5Q2CMQMYG1IK","","","","","50","","","","","","","","","","","","","","","","","","","","","",""
"4809","","image-button-response","46","392006","0.0-46.0","A5Q2CMQMYG1IK","img_art/24.jpg","0","","","","","","","","","","","","","","","","","","","","","","","","",""
"4878","","image-button-response","47","396887","0.0-47.0","A5Q2CMQMYG1IK","img_art/24.jpg","4","","","","","","","","","","","","","","","","","","","","","","","","",""
"1890","","image-button-response","48","398780","0.0-48.0-0.0","A5Q2CMQMYG1IK","img_art/24.jpg","5","","","","","","","","","","","","","","","","","","","","","","","","",""
"2718","","image-button-response","49","401501","0.0-49.0-0.0","A5Q2CMQMYG1IK","img_art/24.jpg","0","","","","","","","","","","","","","","","","","","","","","","","","",""
"null","","html-keyboard-response","50","402011","0.0-50.0","A5Q2CMQMYG1IK","<p style=""font-size: 48px;"">+</p>","","","","","null","allTrialResponses","500","1","1","img_art/24.jpg","50","Very beautiful work of color blending and a sense of fantasy in the forest.","Mackenzie,Madeline,Dominique,Morgan,Rachel,Amanda","I like the vivid colors and different textures,32,20,20","colors are good but the style is iffy,12,40,20","Spending a day in nature,21,400,20","Water through the fruit.,15,380,20","Looks like a beautiful stream rolling through terrain of rocks and flowers.,43,80,20","Beautiful,  peaceful,50,180,20","Rachel","Looks like a beautiful stream rolling through terrain of rocks and flowers.,43,80,20","Amanda","Beautiful,  peaceful,50,180,20","Mackenzie","I like the vivid colors and different textures,32,20,20","0"
"84656","","survey-text","51","486674","0.0-51.0-0.0","A5Q2CMQMYG1IK","","","","{""Q0"":""Feel like I am viewing a city that has been tore down through the years. The blending is done beautifully. ""}","","","","","","","","","","","","","","","","","","","","","","",""
"3373.100000000093","","image-slider-response","52","490050","0.0-52.0","A5Q2CMQMYG1IK","","","","","50","","","","","","","","","","","","","","","","","","","","","",""
"null","","image-button-response","53","495062","0.0-53.0","A5Q2CMQMYG1IK","img_art/20.jpg","null","","","","","","","","","","","","","","","","","","","","","","","","",""
"9057","","image-button-response","54","504122","0.0-54.0","A5Q2CMQMYG1IK","img_art/20.jpg","2","","","","","","","","","","","","","","","","","","","","","","","","",""
"8089","","image-button-response","55","512213","0.0-55.0-0.0","A5Q2CMQMYG1IK","img_art/20.jpg","3","","","","","","","","","","","","","","","","","","","","","","","","",""
"6758","","image-button-response","56","518975","0.0-56.0-0.0","A5Q2CMQMYG1IK","img_art/20.jpg","1","","","","","","","","","","","","","","","","","","","","","","","","",""
"null","","html-keyboard-response","57","519978","0.0-57.0","A5Q2CMQMYG1IK","<p style=""font-size: 48px;"">+</p>","","","","","null","allTrialResponses","1000","1","2","img_art/20.jpg","50","Feel like I am viewing a city that has been tore down through the years. The blending is done beautifully. ","Mackenzie,Jacqueline,Emily,Cheyenne,Rachel,Amanda","Shapes are fun to interpret,21,20,20","Looks like a refinery dumping shit into the water.,-40,300,20","Brings about an emotion response of dspair. Loose lines but yet has a cohesion.,8,40,20","Liked the background,15,200,20","While interesting in technique.. It looks like a blurry car wreck. Does not evoke great emotions.,-20,80,20","Too negative looks like a car and plane crash,-50,180,20","Emily","Brings about an emotion response of dspair. Loose lines but yet has a cohesion.,8,40,20","Cheyenne","Liked the background,15,200,20","Jacqueline","Looks like a refinery dumping shit into the water.,-40,300,20","0"
"53227","","survey-text","58","573210","0.0-58.0-0.0","A5Q2CMQMYG1IK","","","","{""Q0"":""I feel like I'm in a room that has two trees within i. Feels peaceful. ""}","","","","","","","","","","","","","","","","","","","","","","",""
"2961.0999999996275","","image-slider-response","59","576174","0.0-59.0","A5Q2CMQMYG1IK","","","","","50","","","","","","","","","","","","","","","","","","","","","",""
"null","","image-button-response","60","581176","0.0-60.0","A5Q2CMQMYG1IK","img_art/26.jpg","null","","","","","","","","","","","","","","","","","","","","","","","","",""
"23838","","image-button-response","61","605017","0.0-61.0","A5Q2CMQMYG1IK","img_art/26.jpg","5","","","","","","","","","","","","","","","","","","","","","","","","",""
"4738","","image-button-response","62","609758","0.0-62.0-0.0","A5Q2CMQMYG1IK","img_art/26.jpg","3","","","","","","","","","","","","","","","","","","","","","","","","",""
"9249","","image-button-response","63","619010","0.0-63.0-0.0","A5Q2CMQMYG1IK","img_art/26.jpg","4","","","","","","","","","","","","","","","","","","","","","","","","",""
"null","","html-keyboard-response","64","620522","0.0-64.0","A5Q2CMQMYG1IK","<p style=""font-size: 48px;"">+</p>","","","","","null","allTrialResponses","1500","1","3","img_art/26.jpg","50","I feel like I'm in a room that has two trees within i. Feels peaceful. ","Mary,Jacqueline,Emily,Cheyenne,Mariah,Kylie","I can tell it's some sort of outdoor scene. It looks very amateurish.,-9,180,20","I don't really see the point in this painting.,-16,300,20","Not much skil went into this one either.,-41,40,20","No strong reaction but the color scheme is nice,10,200,20","Pleasant but bland.,10,140,20","Picturesque little town,45,300,20","Kylie","Picturesque little town,45,300,20","Cheyenne","No strong reaction but the color scheme is nice,10,200,20","Mariah","Pleasant but bland.,10,140,20","0"
"23495","","survey-text","65","644024","0.0-65.0-0.0","A5Q2CMQMYG1IK","","","","{""Q0"":""I feel autumn in this painting. My favorite season. ""}","","","","","","","","","","","","","","","","","","","","","","",""
"3473","","image-slider-response","66","647499","0.0-66.0","A5Q2CMQMYG1IK","","","","","50","","","","","","","","","","","","","","","","","","","","","",""
"3351","","image-button-response","67","652503","0.0-67.0","A5Q2CMQMYG1IK","img_art/1.jpg","1","","","","","","","","","","","","","","","","","","","","","","","","",""
"888","","image-button-response","68","653394","0.0-68.0","A5Q2CMQMYG1IK","img_art/1.jpg","1","","","","","","","","","","","","","","","","","","","","","","","","",""
"13760","","image-button-response","69","667157","0.0-69.0-0.0","A5Q2CMQMYG1IK","img_art/1.jpg","2","","","","","","","","","","","","","","","","","","","","","","","","",""
"9278","","image-button-response","70","676439","0.0-70.0-0.0","A5Q2CMQMYG1IK","img_art/1.jpg","5","","","","","","","","","","","","","","","","","","","","","","","","",""
"null","","html-keyboard-response","71","676945","0.0-71.0","A5Q2CMQMYG1IK","<p style=""font-size: 48px;"">+</p>","","","","","null","allTrialResponses","500","1","4","img_art/1.jpg","50","I feel autumn in this painting. My favorite season. ","Erika,Brooke,Bailey,Cheyenne,Mariah,Kylie","Vague and directionless,-14,100,20","It's okay, colors remind me of autumn.,10,60,20","A bit of a smokey mess, but it does have an air of mystery I like,7,360,20","Nothing really going on but good color choices.,-3,200,20","Colors are pleasant, but feels incredibly generic.,9,140,20","I don't know how I feel about this,1,300,20","Brooke","It's okay, colors remind me of autumn.,10,60,20","Bailey","A bit of a smokey mess, but it does have an air of mystery I like,7,360,20","Kylie","I don't know how I feel about this,1,300,20","0"
"50638","","survey-text","72","727592","0.0-72.0-0.0","A5Q2CMQMYG1IK","","","","{""Q0"":""I feel like I am in a dessert and I come across a huge mothman. Feels adventuress.""}","","","","","","","","","","","","","","","","","","","","","","",""
"3652.600000000093","","image-slider-response","73","731247","0.0-73.0","A5Q2CMQMYG1IK","","","","","50","","","","","","","","","","","","","","","","","","","","","",""
"null","","image-button-response","74","736254","0.0-74.0","A5Q2CMQMYG1IK","img_art/6.jpg","null","","","","","","","","","","","","","","","","","","","","","","","","",""
"7902","","image-button-response","75","744159","0.0-75.0","A5Q2CMQMYG1IK","img_art/6.jpg","2","","","","","","","","","","","","","","","","","","","","","","","","",""
"7930","","image-button-response","76","752091","0.0-76.0-0.0","A5Q2CMQMYG1IK","img_art/6.jpg","3","","","","","","","","","","","","","","","","","","","","","","","","",""
"4216","","image-button-response","77","756312","0.0-77.0-0.0","A5Q2CMQMYG1IK","img_art/6.jpg","1","","","","","","","","","","","","","","","","","","","","","","","","",""
"null","","html-keyboard-response","78","757818","0.0-78.0","A5Q2CMQMYG1IK","<p style=""font-size: 48px;"">+</p>","","","","","null","allTrialResponses","1500","1","5","img_art/6.jpg","50","I feel like I am in a dessert and I come across a huge mothman. Feels adventuress.","Caroline,Brooke,Bailey,Alyssa,Kaylee,Kylie","Lonely and kinda sad,-25,100,20","Kind of neat, but then that's a weird looking bird. too weird.,0,60,20","Not my favorite, but I like the empty vibe and the imagination it invokes. A skinny girl with long legs, perhaps, looking over a cliff,9,360,20","It makes me stop and think about what the artist is trying to say.It creates a feeling of solitude and tranqulity,30,160,20","just an another tree on a desert?,9,200,20","Reminds me of feeling incomplete,1,300,20","Bailey","Not my favorite, but I like the empty vibe and the imagination it invokes. A skinny girl with long legs, perhaps, looking over a cliff,9,360,20","Alyssa","It makes me stop and think about what the artist is trying to say.It creates a feeling of solitude and tranqulity,30,160,20","Brooke","Kind of neat, but then that's a weird looking bird. too weird.,0,60,20","0"
"5309","","survey-text","79","763140","0.0-79.0-0.0","A5Q2CMQMYG1IK","","","","{""Q0"":""sky""}","","","","","","","","","","","","","","","","","","","","","","",""
"36709","","survey-text","80","799852","0.0-80.0-0.0","A5Q2CMQMYG1IK","","","","{""Q0"":""I do not know how to feel about this one. It is a mixture""}","","","","","","","","","","","","","","","","","","","","","","",""
"3531.5","","image-slider-response","81","803386","0.0-81.0","A5Q2CMQMYG1IK","","","","","9","","","","","","","","","","","","","","","","","","","","","",""
"null","","image-button-response","82","808392","0.0-82.0","A5Q2CMQMYG1IK","img_art/14.jpg","null","","","","","","","","","","","","","","","","","","","","","","","","",""
"713","","image-button-response","83","809109","0.0-83.0","A5Q2CMQMYG1IK","img_art/14.jpg","2","","","","","","","","","","","","","","","","","","","","","","","","",""
"9310","","image-button-response","84","818421","0.0-84.0-0.0","A5Q2CMQMYG1IK","img_art/14.jpg","4","","","","","","","","","","","","","","","","","","","","","","","","",""
"5798","","image-button-response","85","824222","0.0-85.0-0.0","A5Q2CMQMYG1IK","img_art/14.jpg","3","","","","","","","","","","","","","","","","","","","","","","","","",""
"null","","html-keyboard-response","86","825240","0.0-86.0","A5Q2CMQMYG1IK","<p style=""font-size: 48px;"">+</p>","","","","","null","allTrialResponses","1000","1","6","img_art/14.jpg","9","I do not know how to feel about this one. It is a mixture","Sophia,Brooke,Bailey,Alyssa,Haley,Brittany","I don't know why, but this piece makes me happy.,20,280,20","cotton candy skies. pretty.,35,60,20","Not quite the style I'd like, but it does have a certain air of emptiness.,12,360,20","Beautiful tree,the use of water colors makes it soothing to look at,37,160,20","I like the colors in the background, but not the bottom/center. It almost looks sloppy.,-20,220,20","The colors are good and the design is intriguing.,15,40,20","Bailey","Not quite the style I'd like, but it does have a certain air of emptiness.,12,360,20","Haley","I like the colors in the background, but not the bottom/center. It almost looks sloppy.,-20,220,20","Alyssa","Beautiful tree,the use of water colors makes it soothing to look at,37,160,20","0"
"33579","","survey-text","87","858825","0.0-87.0-0.0","A5Q2CMQMYG1IK","","","","{""Q0"":""I feel a sense of Silent Hill vibes. Mysterious, but intriguing for me to explore. ""}","","","","","","","","","","","","","","","","","","","","","","",""
"2304.5999999996275","","image-slider-response","88","861132","0.0-88.0","A5Q2CMQMYG1IK","","","","","50","","","","","","","","","","","","","","","","","","","","","",""
"3228","","image-button-response","89","866136","0.0-89.0","A5Q2CMQMYG1IK","img_art/11.jpg","2","","","","","","","","","","","","","","","","","","","","","","","","",""
"644","","image-button-response","90","866783","0.0-90.0","A5Q2CMQMYG1IK","img_art/11.jpg","2","","","","","","","","","","","","","","","","","","","","","","","","",""
"1552","","image-button-response","91","868337","0.0-91.0-0.0","A5Q2CMQMYG1IK","img_art/11.jpg","1","","","","","","","","","","","","","","","","","","","","","","","","",""
"5660","","image-button-response","92","873999","0.0-92.0-0.0","A5Q2CMQMYG1IK","img_art/11.jpg","4","","","","","","","","","","","","","","","","","","","","","","","","",""
"null","","html-keyboard-response","93","875015","0.0-93.0","A5Q2CMQMYG1IK","<p style=""font-size: 48px;"">+</p>","","","","","null","allTrialResponses","1000","1","7","img_art/11.jpg","50","I feel a sense of Silent Hill vibes. Mysterious, but intriguing for me to explore. ","Victoria,Paige,Bailey,Alyssa,Haley,Briana","reminds me of a rainy day in the city,32,400,20","gave me a sense of gloom,-21,60,20","Kind of bizzare in that I can imagine ships or something from it.,11,360,20","Its interesting.,20,160,20","Lovely. I could look at this for a really long time. I love the details and the composition.,40,220,20","Grays arent my thing,-25,400,20","Bailey","Kind of bizzare in that I can imagine ships or something from it.,11,360,20","Paige","gave me a sense of gloom,-21,60,20","Haley","Lovely. I could look at this for a really long time. I love the details and the composition.,40,220,20","0"
"17597","","survey-text","94","892622","0.0-94.0-0.0","A5Q2CMQMYG1IK","","","","{""Q0"":""Do not really like this one.""}","","","","","","","","","","","","","","","","","","","","","","",""
"2812.399999999907","","image-slider-response","95","895436","0.0-95.0","A5Q2CMQMYG1IK","","","","","-50","","","","","","","","","","","","","","","","","","","","","",""
"null","","image-button-response","96","900443","0.0-96.0","A5Q2CMQMYG1IK","img_art/30.jpg","null","","","","","","","","","","","","","","","","","","","","","","","","",""
"4063","","image-button-response","97","904509","0.0-97.0","A5Q2CMQMYG1IK","img_art/30.jpg","2","","","","","","","","","","","","","","","","","","","","","","","","",""
"3639","","image-button-response","98","908150","0.0-98.0-0.0","A5Q2CMQMYG1IK","img_art/30.jpg","5","","","","","","","","","","","","","","","","","","","","","","","","",""
"6369","","image-button-response","99","914522","0.0-99.0-0.0","A5Q2CMQMYG1IK","img_art/30.jpg","0","","","","","","","","","","","","","","","","","","","","","","","","",""
"null","","html-keyboard-response","100","916039","0.0-100.0","A5Q2CMQMYG1IK","<p style=""font-size: 48px;"">+</p>","","","","","null","allTrialResponses","1500","1","8","img_art/30.jpg","-50","Do not really like this one.","Caitlin,Paige,Bailey,Alexandria,Haley,Andrea","My kid drew this same picture at daycare!!!,5,80,20","Happy. Makes me think of childhood finger painting,49,60,20","No my favorite, but I do like the long strokes of color,11,360,20","the lines and colors look purposeful,18,80,20","I like the colors,18,220,20","It feels like graffiti and the dark colors do nothing for the mood.,-5,240,20","Bailey","No my favorite, but I do like the long strokes of color,11,360,20","Andrea","It feels like graffiti and the dark colors do nothing for the mood.,-5,240,20","Caitlin","My kid drew this same picture at daycare!!!,5,80,20","0"
"76777","","survey-text","101","992823","0.0-101.0-0.0","A5Q2CMQMYG1IK","","","","{""Q0"":""I love this!!!!! I see a knight on a horse ready to go into war and a possible ghost or person behind him from afar. This is so Game of Thrones!!!""}","","","","","","","","","","","","","","","","","","","","","","",""
"2310.7999999998137","","image-slider-response","102","995136","0.0-102.0","A5Q2CMQMYG1IK","","","","","50","","","","","","","","","","","","","","","","","","","","","",""
"null","","image-button-response","103","1000147","0.0-103.0","A5Q2CMQMYG1IK","img_art/18.jpg","null","","","","","","","","","","","","","","","","","","","","","","","","",""
"5649","","image-button-response","104","1005799","0.0-104.0","A5Q2CMQMYG1IK","img_art/18.jpg","4","","","","","","","","","","","","","","","","","","","","","","","","",""
"6248","","image-button-response","105","1012051","0.0-105.0-0.0","A5Q2CMQMYG1IK","img_art/18.jpg","5","","","","","","","","","","","","","","","","","","","","","","","","",""
"2600","","image-button-response","106","1014654","0.0-106.0-0.0","A5Q2CMQMYG1IK","img_art/18.jpg","0","","","","","","","","","","","","","","","","","","","","","","","","",""
"null","","html-keyboard-response","107","1015668","0.0-107.0","A5Q2CMQMYG1IK","<p style=""font-size: 48px;"">+</p>","","","","","null","allTrialResponses","1000","1","9","img_art/18.jpg","50","I love this!!!!! I see a knight on a horse ready to go into war and a possible ghost or person behind him from afar. This is so Game of Thrones!!!","Caitlin,Cassandra,Bailey,Makayla,Cynthia,Andrea","Bad guys are after the good guy.,-10,80,20","I don't know...kind of a dissatified feeling inside.,-6,120,20","Looks like a jumbled mess. I prefer a clearer picture,-18,360,20","I'm not partial to the design, unsettling,2,80,20","Imaginative, makes me feel creative.,42,320,20","I see an artistic representation of the riding of last of the four horseman. Its stunning.,45,240,20","Cynthia","Imaginative, makes me feel creative.,42,320,20","Andrea","I see an artistic representation of the riding of last of the four horseman. Its stunning.,45,240,20","Caitlin","Bad guys are after the good guy.,-10,80,20","0"
"48970","","survey-text","108","1064645","0.0-108.0-0.0","A5Q2CMQMYG1IK","","","","{""Q0"":""I feel a sense of peace in an empty japanese room with a tree within it. ""}","","","","","","","","","","","","","","","","","","","","","","",""
"2573.5","","image-slider-response","109","1067221","0.0-109.0","A5Q2CMQMYG1IK","","","","","50","","","","","","","","","","","","","","","","","","","","","",""
"null","","image-button-response","110","1072227","0.0-110.0","A5Q2CMQMYG1IK","img_art/17.jpg","null","","","","","","","","","","","","","","","","","","","","","","","","",""
"1403","","image-button-response","111","1073634","0.0-111.0","A5Q2CMQMYG1IK","img_art/17.jpg","2","","","","","","","","","","","","","","","","","","","","","","","","",""
"5780","","image-button-response","112","1079416","0.0-112.0-0.0","A5Q2CMQMYG1IK","img_art/17.jpg","4","","","","","","","","","","","","","","","","","","","","","","","","",""
"2680","","image-button-response","113","1082099","0.0-113.0-0.0","A5Q2CMQMYG1IK","img_art/17.jpg","3","","","","","","","","","","","","","","","","","","","","","","","","",""
"null","","html-keyboard-response","114","1083101","0.0-114.0","A5Q2CMQMYG1IK","<p style=""font-size: 48px;"">+</p>","","","","","null","allTrialResponses","1000","1","10","img_art/17.jpg","50","I feel a sense of peace in an empty japanese room with a tree within it. ","Caitlin,Katelyn,Elizabeth,Nicole,Cynthia,Andrea","Somewhat should trim the tree branches at the shopping mall.,10,80,20","Doesnt completely turn me off but wouldnt look twice,-3,100,20","Has a unique vibe to it,50,20,20","Feels nostalgic somehow,31,20,20","battle between nature and man,31,320,20","A coming storm but I think I would appreciate it more with more contrast.,-12,240,20","Elizabeth","Has a unique vibe to it,50,20,20","Cynthia","battle between nature and man,31,320,20","Nicole","Feels nostalgic somehow,31,20,20","0"
"4000","","survey-text","115","1087113","0.0-115.0-0.0","A5Q2CMQMYG1IK","","","","{""Q0"":""our""}","","","","","","","","","","","","","","","","","","","","","","",""
"50326","","survey-text","116","1137441","0.0-116.0-0.0","A5Q2CMQMYG1IK","","","","{""Q0"":""Feel like I completed an art piece and this is how messy my studio was left. ""}","","","","","","","","","","","","","","","","","","","","","","",""
"2810.600000000559","","image-slider-response","117","1140254","0.0-117.0","A5Q2CMQMYG1IK","","","","","50","","","","","","","","","","","","","","","","","","","","","",""
"2170","","image-button-response","118","1145261","0.0-118.0","A5Q2CMQMYG1IK","img_art/29.jpg","2","","","","","","","","","","","","","","","","","","","","","","","","",""
"1264","","image-button-response","119","1146528","0.0-119.0","A5Q2CMQMYG1IK","img_art/29.jpg","1","","","","","","","","","","","","","","","","","","","","","","","","",""
"3450","","image-button-response","120","1149980","0.0-120.0-0.0","A5Q2CMQMYG1IK","img_art/29.jpg","4","","","","","","","","","","","","","","","","","","","","","","","","",""
"3580","","image-button-response","121","1153561","0.0-121.0-0.0","A5Q2CMQMYG1IK","img_art/29.jpg","3","","","","","","","","","","","","","","","","","","","","","","","","",""
"null","","html-keyboard-response","122","1154067","0.0-122.0","A5Q2CMQMYG1IK","<p style=""font-size: 48px;"">+</p>","","","","","null","allTrialResponses","500","1","11","img_art/29.jpg","50","Feel like I completed an art piece and this is how messy my studio was left. ","Lindsey,Jasmine,Elizabeth,Nicole,Cynthia,Brianna","Again, ugly colors and I'm not a fan of abstract. This looks like the view into a garbage dump.,-50,400,20","I like the usage of blacks and greys in this,8,340,20","Has a haunting feel to it,22,20,20","This one feels scary in a good way,30,20,20","makes me feel busy and unorganized,4,320,20","It has a red X on there, and x's mean bad in my perspective,-29,20,20","Jasmine","I like the usage of blacks and greys in this,8,340,20","Cynthia","makes me feel busy and unorganized,4,320,20","Nicole","This one feels scary in a good way,30,20,20","0"
"40751","","survey-text","123","1194827","0.0-123.0-0.0","A5Q2CMQMYG1IK","","","","{""Q0"":""I feel like a lot of tribal people are overlooking their God. Reminds me of Greece.""}","","","","","","","","","","","","","","","","","","","","","","",""
"3130.9000000003725","","image-slider-response","124","1197960","0.0-124.0","A5Q2CMQMYG1IK","","","","","50","","","","","","","","","","","","","","","","","","","","","",""
"3781","","image-button-response","125","1202970","0.0-125.0","A5Q2CMQMYG1IK","img_art/25.jpg","2","","","","","","","","","","","","","","","","","","","","","","","","",""
"963","","image-button-response","126","1203936","0.0-126.0","A5Q2CMQMYG1IK","img_art/25.jpg","2","","","","","","","","","","","","","","","","","","","","","","","","",""
"2770","","image-button-response","127","1206708","0.0-127.0-0.0","A5Q2CMQMYG1IK","img_art/25.jpg","4","","","","","","","","","","","","","","","","","","","","","","","","",""
"3259","","image-button-response","128","1209970","0.0-128.0-0.0","A5Q2CMQMYG1IK","img_art/25.jpg","0","","","","","","","","","","","","","","","","","","","","","","","","",""
"null","","html-keyboard-response","129","1210978","0.0-129.0","A5Q2CMQMYG1IK","<p style=""font-size: 48px;"">+</p>","","","","","null","allTrialResponses","1000","1","12","img_art/25.jpg","50","I feel like a lot of tribal people are overlooking their God. Reminds me of Greece.","Kaitlyn,Jasmine,Cassidy,Nicole,Cynthia,Tiffany","Love the simplicity and lines,20,80,20","I liked it as it seems unique in a way,21,340,20","Love the colors, and how it's simple yet complex,25,140,20","This painting is cool but it gives off an evil vibe,-10,20,20","Somewhat feel protected by a messenger,33,320,20","I feel little to no emotion looking at this painting.,0,360,20","Cassidy","Love the colors, and how it's simple yet complex,25,140,20","Cynthia","Somewhat feel protected by a messenger,33,320,20","Kaitlyn","Love the simplicity and lines,20,80,20","0"
"1103610","","survey-text","130","2314596","0.0-130.0-0.0","A5Q2CMQMYG1IK","","","","{""Q0"":""Looks like an artists piece got ruined by their child drawing on it. ""}","","","","","","","","","","","","","","","","","","","","","","",""
"2750.5","","image-slider-response","131","2317349","0.0-131.0","A5Q2CMQMYG1IK","","","","","-50","","","","","","","","","","","","","","","","","","","","","",""
"2861","","image-button-response","132","2322355","0.0-132.0","A5Q2CMQMYG1IK","img_art/27.jpg","2","","","","","","","","","","","","","","","","","","","","","","","","",""
"706","","image-button-response","133","2323065","0.0-133.0","A5Q2CMQMYG1IK","img_art/27.jpg","2","","","","","","","","","","","","","","","","","","","","","","","","",""
"8868","","image-button-response","134","2331935","0.0-134.0-0.0","A5Q2CMQMYG1IK","img_art/27.jpg","4","","","","","","","","","","","","","","","","","","","","","","","","",""
"2328","","image-button-response","135","2334268","0.0-135.0-0.0","A5Q2CMQMYG1IK","img_art/27.jpg","5","","","","","","","","","","","","","","","","","","","","","","","","",""
"null","","html-keyboard-response","136","2335274","0.0-136.0","A5Q2CMQMYG1IK","<p style=""font-size: 48px;"">+</p>","","","","","null","allTrialResponses","1000","1","13","img_art/27.jpg","-50","Looks like an artists piece got ruined by their child drawing on it. ","Kaitlyn,Autumn,Cassidy,Sydney,Cynthia,Emma","The variation of orange is nice,9,80,20","Adult contemporary painting with child.,-33,340,20","doesn't look like any effort was put into this piece.,-19,140,20","This piece reminds me of a summer day.,30,320,20","dirty and misunderstood,-47,320,20","Not sure how I feel about this. Messy, even for art. But good colors.,0,60,20","Cassidy","doesn't look like any effort was put into this piece.,-19,140,20","Cynthia","dirty and misunderstood,-47,320,20","Emma","Not sure how I feel about this. Messy, even for art. But good colors.,0,60,20","0"
"50536","","survey-text","137","2385818","0.0-137.0-0.0","A5Q2CMQMYG1IK","","","","{""Q0"":""I see water with reflection coming off of it. I see the sun half into the water with the horizon behind it. ""}","","","","","","","","","","","","","","","","","","","","","","",""
"2940.0999999996275","","image-slider-response","138","2388760","0.0-138.0","A5Q2CMQMYG1IK","","","","","50","","","","","","","","","","","","","","","","","","","","","",""
"3019","","image-button-response","139","2393767","0.0-139.0","A5Q2CMQMYG1IK","img_art/22.jpg","2","","","","","","","","","","","","","","","","","","","","","","","","",""
"595","","image-button-response","140","2394365","0.0-140.0","A5Q2CMQMYG1IK","img_art/22.jpg","2","","","","","","","","","","","","","","","","","","","","","","","","",""
"9509","","image-button-response","141","2403877","0.0-141.0-0.0","A5Q2CMQMYG1IK","img_art/22.jpg","1","","","","","","","","","","","","","","","","","","","","","","","","",""
"3299","","image-button-response","142","2407179","0.0-142.0-0.0","A5Q2CMQMYG1IK","img_art/22.jpg","0","","","","","","","","","","","","","","","","","","","","","","","","",""
"null","","html-keyboard-response","143","2407680","0.0-143.0","A5Q2CMQMYG1IK","<p style=""font-size: 48px;"">+</p>","","","","","null","allTrialResponses","500","1","14","img_art/22.jpg","50","I see water with reflection coming off of it. I see the sun half into the water with the horizon behind it. ","Angela,Kimberly,Cassidy,Molly,Cynthia,Emma","Like the colors. I enjoy looking at this one.,15,260,20","I like the key near the sphere in the center,19,260,20","I don't really know why, I just like looking at it,10,140,20","Unfortunately, I can't see anything special in this painting.,-20,340,20","A key to the unknown,15,320,20","Love the use of color,50,60,20","Cassidy","I don't really know why, I just like looking at it,10,140,20","Kimberly","I like the key near the sphere in the center,19,260,20","Angela","Like the colors. I enjoy looking at this one.,15,260,20","0"
"43105","","survey-text","144","2450793","0.0-144.0-0.0","A5Q2CMQMYG1IK","","","","{""Q0"":""I see music in this.""}","","","","","","","","","","","","","","","","","","","","","","",""
"4331.200000000186","","image-slider-response","145","2455128","0.0-145.0","A5Q2CMQMYG1IK","","","","","29","","","","","","","","","","","","","","","","","","","","","",""
"null","","image-button-response","146","2460136","0.0-146.0","A5Q2CMQMYG1IK","img_art/10.jpg","null","","","","","","","","","","","","","","","","","","","","","","","","",""
"5779","","image-button-response","147","2465919","0.0-147.0","A5Q2CMQMYG1IK","img_art/10.jpg","3","","","","","","","","","","","","","","","","","","","","","","","","",""
"6540","","image-button-response","148","2472462","0.0-148.0-0.0","A5Q2CMQMYG1IK","img_art/10.jpg","4","","","","","","","","","","","","","","","","","","","","","","","","",""
"5178","","image-button-response","149","2477643","0.0-149.0-0.0","A5Q2CMQMYG1IK","img_art/10.jpg","0","","","","","","","","","","","","","","","","","","","","","","","","",""
"null","","html-keyboard-response","150","2479145","0.0-150.0","A5Q2CMQMYG1IK","<p style=""font-size: 48px;"">+</p>","","","","","null","allTrialResponses","1500","1","15","img_art/10.jpg","29","I see music in this.","Angela,Kimberly,Cassidy,Margaret,Kaitlin,Angelica","This makes me think of a city, specifically London.,20,260,20","Also too all over the place, I don't see any pattern or anything that's supposed to stand out,-19,260,20","Looks like someone just smeared some paint and called it good. Do not like.,-6,140,20","I think this was going to be a guitar but then the artist got mad and gave up,-4,100,20","awww... this looks very nice,32,60,20","This is odd and ugly.,-9,280,20","Margaret","I think this was going to be a guitar but then the artist got mad and gave up,-4,100,20","Kaitlin","awww... this looks very nice,32,60,20","Angela","This makes me think of a city, specifically London.,20,260,20","0"
"9363","","survey-text","151","2488526","0.0-151.0-0.0","A5Q2CMQMYG1IK","","","","{""Q0"":""course""}","","","","","","","","","","","","","","","","","","","","","","",""
"14814","","survey-text","152","2503342","0.0-152.0-0.0","A5Q2CMQMYG1IK","","","","{""Q0"":""Do not like. No effort.""}","","","","","","","","","","","","","","","","","","","","","","",""
"4442.699999999255","","image-slider-response","153","2507787","0.0-153.0","A5Q2CMQMYG1IK","","","","","-50","","","","","","","","","","","","","","","","","","","","","",""
"null","","image-button-response","154","2512802","0.0-154.0","A5Q2CMQMYG1IK","img_art/3.jpg","null","","","","","","","","","","","","","","","","","","","","","","","","",""
"4504","","image-button-response","155","2517308","0.0-155.0","A5Q2CMQMYG1IK","img_art/3.jpg","1","","","","","","","","","","","","","","","","","","","","","","","","",""
"1859","","image-button-response","156","2519171","0.0-156.0-0.0","A5Q2CMQMYG1IK","img_art/3.jpg","2","","","","","","","","","","","","","","","","","","","","","","","","",""
"3840","","image-button-response","157","2523013","0.0-157.0-0.0","A5Q2CMQMYG1IK","img_art/3.jpg","5","","","","","","","","","","","","","","","","","","","","","","","","",""
"null","","html-keyboard-response","158","2524528","0.0-158.0","A5Q2CMQMYG1IK","<p style=""font-size: 48px;"">+</p>","","","","","null","allTrialResponses","1500","1","16","img_art/3.jpg","-50","Do not like. No effort.","Angela,Michaela,Kathryn,Margaret,Kaitlin,Kelsey","Like the colors and energy of this work.,10,260,20","It looks like someone took a red sharpie and just scribbled angrily,-20,260,20","This gives me a negative feeling, like someone trying to scratch out their flaws. I see low self-esteem.,-20,140,20","seems distressing. a blood scene,-3,100,20","good choice of color,12,60,20","just scribbles, not pleasing,-30,240,20","Michaela","It looks like someone took a red sharpie and just scribbled angrily,-20,260,20","Kathryn","This gives me a negative feeling, like someone trying to scratch out their flaws. I see low self-esteem.,-20,140,20","Kelsey","just scribbles, not pleasing,-30,240,20","0"
"50679","","survey-text","159","2575217","0.0-159.0-0.0","A5Q2CMQMYG1IK","","","","{""Q0"":""Very beautiful. I feel like I am in my neighborhood strolling through.""}","","","","","","","","","","","","","","","","","","","","","","",""
"14842","","image-slider-response","160","2590062","0.0-160.0","A5Q2CMQMYG1IK","","","","","50","","","","","","","","","","","","","","","","","","","","","",""
"4788","","image-button-response","161","2595082","0.0-161.0","A5Q2CMQMYG1IK","img_art/19.jpg","2","","","","","","","","","","","","","","","","","","","","","","","","",""
"859","","image-button-response","162","2595945","0.0-162.0","A5Q2CMQMYG1IK","img_art/19.jpg","2","","","","","","","","","","","","","","","","","","","","","","","","",""
"5010","","image-button-response","163","2600957","0.0-163.0-0.0","A5Q2CMQMYG1IK","img_art/19.jpg","3","","","","","","","","","","","","","","","","","","","","","","","","",""
"4489","","image-button-response","164","2605448","0.0-164.0-0.0","A5Q2CMQMYG1IK","img_art/19.jpg","4","","","","","","","","","","","","","","","","","","","","","","","","",""
"null","","html-keyboard-response","165","2606450","0.0-165.0","A5Q2CMQMYG1IK","<p style=""font-size: 48px;"">+</p>","","","","","null","allTrialResponses","1000","1","17","img_art/19.jpg","50","Very beautiful. I feel like I am in my neighborhood strolling through.","Miranda,Michaela,Kathryn,Amy,Taylor,Kelsey","It looks cool but at the time looks like it was done by a talented 5 year old.,13,320,20","It's ok but it's nothing I would hang on my wall,11,260,20","This one feels pretty neutral. Like a window into someone's life, one person in a bustling metropolis.,0,140,20","Though provoking. Adventurous.,10,220,20","It reminds me of sitting at a cafe on the side of a river.,45,340,20","not sure if i like it or not,1,240,20","Kathryn","This one feels pretty neutral. Like a window into someone's life, one person in a bustling metropolis.,0,140,20","Amy","Though provoking. Adventurous.,10,220,20","Taylor","It reminds me of sitting at a cafe on the side of a river.,45,340,20","0"
"44274","","survey-text","166","2650732","0.0-166.0-0.0","A5Q2CMQMYG1IK","","","","{""Q0"":""Very dreamy like. Very imaginative. Feels like I am asleep dreaming of multiple things. ""}","","","","","","","","","","","","","","","","","","","","","","",""
"3652.7000000001863","","image-slider-response","167","2654387","0.0-167.0","A5Q2CMQMYG1IK","","","","","50","","","","","","","","","","","","","","","","","","","","","",""
"null","","image-button-response","168","2659393","0.0-168.0","A5Q2CMQMYG1IK","img_art/8.jpg","null","","","","","","","","","","","","","","","","","","","","","","","","",""
"4303","","image-button-response","169","2663700","0.0-169.0","A5Q2CMQMYG1IK","img_art/8.jpg","4","","","","","","","","","","","","","","","","","","","","","","","","",""
"3479","","image-button-response","170","2667181","0.0-170.0-0.0","A5Q2CMQMYG1IK","img_art/8.jpg","3","","","","","","","","","","","","","","","","","","","","","","","","",""
"5399","","image-button-response","171","2672583","0.0-171.0-0.0","A5Q2CMQMYG1IK","img_art/8.jpg","2","","","","","","","","","","","","","","","","","","","","","","","","",""
"null","","html-keyboard-response","172","2673588","0.0-172.0","A5Q2CMQMYG1IK","<p style=""font-size: 48px;"">+</p>","","","","","null","allTrialResponses","1000","1","18","img_art/8.jpg","50","Very dreamy like. Very imaginative. Feels like I am asleep dreaming of multiple things. ","Maria,Julia,Kathryn,Amy,Taylor,Natalie","not sure what to make of this - just neutral again,-1,120,20","it's a little too classical for my tastes,-25,40,20","The angle makes it kind of disorienting but I enjoy the fantastical colors and imagery. It's like a dream.,10,140,20","The definition and the colors give make this painting accessible and thought provoking.,30,220,20","Looks like it would be an interesting place to live,35,340,20","looks nice, like the details,25,400,20","Taylor","Looks like it would be an interesting place to live,35,340,20","Amy","The definition and the colors give make this painting accessible and thought provoking.,30,220,20","Kathryn","The angle makes it kind of disorienting but I enjoy the fantastical colors and imagery. It's like a dream.,10,140,20","0"
"41320","","survey-text","173","2714919","0.0-173.0-0.0","A5Q2CMQMYG1IK","","","","{""Q0"":""I feel peaceful looking at this. Feel reborn. I visualize a womb.""}","","","","","","","","","","","","","","","","","","","","","","",""
"2451.2000000001863","","image-slider-response","174","2717372","0.0-174.0","A5Q2CMQMYG1IK","","","","","50","","","","","","","","","","","","","","","","","","","","","",""
"null","","image-button-response","175","2722388","0.0-175.0","A5Q2CMQMYG1IK","img_art/9.jpg","null","","","","","","","","","","","","","","","","","","","","","","","","",""
"5384","","image-button-response","176","2727776","0.0-176.0","A5Q2CMQMYG1IK","img_art/9.jpg","2","","","","","","","","","","","","","","","","","","","","","","","","",""
"7008","","image-button-response","177","2734787","0.0-177.0-0.0","A5Q2CMQMYG1IK","img_art/9.jpg","1","","","","","","","","","","","","","","","","","","","","","","","","",""
"12619","","image-button-response","178","2747409","0.0-178.0-0.0","A5Q2CMQMYG1IK","img_art/9.jpg","5","","","","","","","","","","","","","","","","","","","","","","","","",""
"null","","html-keyboard-response","179","2748411","0.0-179.0","A5Q2CMQMYG1IK","<p style=""font-size: 48px;"">+</p>","","","","","null","allTrialResponses","1000","1","19","img_art/9.jpg","50","I feel peaceful looking at this. Feel reborn. I visualize a womb.","Christina,Heather,Kathryn,Amy,Taylor,Ashley","nice colors but it looks like it's from the 80s,10,240,20","a mother in bed surrounded by emotions,1,260,20","This feels dreamy. Like I'm seeing inside someone's head while they're sleeping.,20,140,20","The busyness and harsh nature of the lines in this painting  mute my emotional response.,-10,220,20","The peacock theme gives me negative connotations of my ex-sister-in-law,-10,340,20","Similar to the tohers, but not as clear.,11,320,20","Kathryn","This feels dreamy. Like I'm seeing inside someone's head while they're sleeping.,20,140,20","Heather","a mother in bed surrounded by emotions,1,260,20","Ashley","Similar to the tohers, but not as clear.,11,320,20","0"
"45219","","survey-text","180","2793642","0.0-180.0-0.0","A5Q2CMQMYG1IK","","","","{""Q0"":""I visualize a barber shop, but from the old days. Love it. ""}","","","","","","","","","","","","","","","","","","","","","","",""
"3480.7000000001863","","image-slider-response","181","2797126","0.0-181.0","A5Q2CMQMYG1IK","","","","","50","","","","","","","","","","","","","","","","","","","","","",""
"null","","image-button-response","182","2802145","0.0-182.0","A5Q2CMQMYG1IK","img_art/28.jpg","null","","","","","","","","","","","","","","","","","","","","","","","","",""
"5461","","image-button-response","183","2807609","0.0-183.0","A5Q2CMQMYG1IK","img_art/28.jpg","4","","","","","","","","","","","","","","","","","","","","","","","","",""
"1339","","image-button-response","184","2808952","0.0-184.0-0.0","A5Q2CMQMYG1IK","img_art/28.jpg","4","","","","","","","","","","","","","","","","","","","","","","","","",""
"3991","","image-button-response","185","2818409","0.0-184.1-0.1","A5Q2CMQMYG1IK","img_art/28.jpg","5","","","","","","","","","","","","","","","","","","","","","","","","",""
"12980","","image-button-response","186","2831391","0.0-185.0-0.0","A5Q2CMQMYG1IK","img_art/28.jpg","3","","","","","","","","","","","","","","","","","","","","","","","","",""
"null","","html-keyboard-response","187","2831898","0.0-186.0","A5Q2CMQMYG1IK","<p style=""font-size: 48px;"">+</p>","","","","","null","allTrialResponses","500","1","20","img_art/28.jpg","50","I visualize a barber shop, but from the old days. Love it. ","Erica,Heather,Kathryn,Kayla,Rebecca,Ashley","Nothing calls my attention,15,80,20","not sure what i feel but it makes me feel uncomfortable,1,260,20","My immediate reaction was to think of smog. It recalls choking on dirty air.,-20,140,20","Don't love it, don't hate it. It's just there.,1,180,20","the color scheme is very well matched but i just didn't like it,-6,100,20","Normally don't react well to abstract art, but it looks almost like something's there.,28,320,20","Rebecca","the color scheme is very well matched but i just didn't like it,-6,100,20","Ashley","Normally don't react well to abstract art, but it looks almost like something's there.,28,320,20","Kayla","Don't love it, don't hate it. It's just there.,1,180,20","2"
"3846","","survey-text","188","2835765","0.0-187.0-0.0","A5Q2CMQMYG1IK","","","","{""Q0"":""we""}","","","","","","","","","","","","","","","","","","","","","","",""
"30752","","survey-text","189","2866519","0.0-188.0-0.0","A5Q2CMQMYG1IK","","","","{""Q0"":""I feel like the beach. I see sand and feels peaceful. ""}","","","","","","","","","","","","","","","","","","","","","","",""
"2581","","image-slider-response","190","2869102","0.0-189.0","A5Q2CMQMYG1IK","","","","","50","","","","","","","","","","","","","","","","","","","","","",""
"2960","","image-button-response","191","2874112","0.0-190.0","A5Q2CMQMYG1IK","img_art/7.jpg","2","","","","","","","","","","","","","","","","","","","","","","","","",""
"1851","","image-button-response","192","2875966","0.0-191.0","A5Q2CMQMYG1IK","img_art/7.jpg","1","","","","","","","","","","","","","","","","","","","","","","","","",""
"11850","","image-button-response","193","2887818","0.0-192.0-0.0","A5Q2CMQMYG1IK","img_art/7.jpg","2","","","","","","","","","","","","","","","","","","","","","","","","",""
"4740","","image-button-response","194","2892562","0.0-193.0-0.0","A5Q2CMQMYG1IK","img_art/7.jpg","4","","","","","","","","","","","","","","","","","","","","","","","","",""
"null","","html-keyboard-response","195","2893064","0.0-194.0","A5Q2CMQMYG1IK","<p style=""font-size: 48px;"">+</p>","","","","","null","allTrialResponses","500","1","21","img_art/7.jpg","50","I feel like the beach. I see sand and feels peaceful. ","Alexa,Madison,Hannah,Kayla,Rebecca,Ashley","Not a fan of the pattern or colors,-40,40,20","Is this a painting, really? Very compelling if so, the texture work is incredible.,15,60,20","Looks almost like a photograph of nature.,11,240,20","Dinosaur bones. Death.,-14,180,20","would love to take a closer look at the texture,15,100,20","landscape of amrs, yawn.,-25,320,20","Madison","Is this a painting, really? Very compelling if so, the texture work is incredible.,15,60,20","Hannah","Looks almost like a photograph of nature.,11,240,20","Rebecca","would love to take a closer look at the texture,15,100,20","2"
"50139","","survey-text","196","2943215","0.0-195.0-0.0","A5Q2CMQMYG1IK","","","","{""Q0"":""I see the ocean, a cliff, and the sky with an opening of light. Love it. ""}","","","","","","","","","","","","","","","","","","","","","","",""
"2570.899999999441","","image-slider-response","197","2945787","0.0-196.0","A5Q2CMQMYG1IK","","","","","50","","","","","","","","","","","","","","","","","","","","","",""
"null","","image-button-response","198","2950790","0.0-197.0","A5Q2CMQMYG1IK","img_art/21.jpg","null","","","","","","","","","","","","","","","","","","","","","","","","",""
"2187","","image-button-response","199","2952980","0.0-198.0","A5Q2CMQMYG1IK","img_art/21.jpg","0","","","","","","","","","","","","","","","","","","","","","","","","",""
"5111","","image-button-response","200","2958093","0.0-199.0-0.0","A5Q2CMQMYG1IK","img_art/21.jpg","5","","","","","","","","","","","","","","","","","","","","","","","","",""
"3520","","image-button-response","201","2961615","0.0-200.0-0.0","A5Q2CMQMYG1IK","img_art/21.jpg","3","","","","","","","","","","","","","","","","","","","","","","","","",""
"null","","html-keyboard-response","202","2963123","0.0-201.0","A5Q2CMQMYG1IK","<p style=""font-size: 48px;"">+</p>","","","","","null","allTrialResponses","1500","1","22","img_art/21.jpg","50","I see the ocean, a cliff, and the sky with an opening of light. Love it. ","Crystal,Madison,Hannah,Alexandra,Rebecca,Gabriela","Feels like a clash between land and sea,31,300,20","War! But then, what? And then, what of it? Intention seems incomplete, or not fully committed to.,-19,60,20","Boring colors and look. Too much 1980s.,-20,240,20","This one is nice, it reminds me of the sky,42,60,20","stormy with gold lining,0,100,20","It makes me feel mellow or ""chill"". It makes me have a positive and calm mood,42,140,20","Crystal","Feels like a clash between land and sea,31,300,20","Gabriela","It makes me feel mellow or ""chill"". It makes me have a positive and calm mood,42,140,20","Alexandra","This one is nice, it reminds me of the sky,42,60,20","2"
"52824","","survey-text","203","3015959","0.0-202.0-0.0","A5Q2CMQMYG1IK","","","","{""Q0"":""I actually like this pattern. I see palm trees. This painting feels tropical.""}","","","","","","","","","","","","","","","","","","","","","","",""
"2801.2999999998137","","image-slider-response","204","3018762","0.0-203.0","A5Q2CMQMYG1IK","","","","","50","","","","","","","","","","","","","","","","","","","","","",""
"2989","","image-button-response","205","3023765","0.0-204.0","A5Q2CMQMYG1IK","img_art/12.jpg","0","","","","","","","","","","","","","","","","","","","","","","","","",""
"18878","","image-button-response","206","3042647","0.0-205.0","A5Q2CMQMYG1IK","img_art/12.jpg","0","","","","","","","","","","","","","","","","","","","","","","","","",""
"1898","","image-button-response","207","3044548","0.0-206.0-0.0","A5Q2CMQMYG1IK","img_art/12.jpg","0","","","","","","","","","","","","","","","","","","","","","","","","",""
"1271","","image-button-response","208","3049714","0.0-206.1-0.1","A5Q2CMQMYG1IK","img_art/12.jpg","3","","","","","","","","","","","","","","","","","","","","","","","","",""
"2270","","image-button-response","209","3051987","0.0-207.0-0.0","A5Q2CMQMYG1IK","img_art/12.jpg","4","","","","","","","","","","","","","","","","","","","","","","","","",""
"null","","html-keyboard-response","210","3052992","0.0-208.0","A5Q2CMQMYG1IK","<p style=""font-size: 48px;"">+</p>","","","","","null","allTrialResponses","1000","1","23","img_art/12.jpg","50","I actually like this pattern. I see palm trees. This painting feels tropical.","Crystal,Michelle,Shannon,Alexandra,Marissa,Gabriela","I like the sectioned nature of the squares and curves. Not my favorite but still a good one.,27,300,20","eww hate everything about this, looks like it belongs in a dentist's office,-14,280,20","This image doesn't have anything going on. The top half is really ugly, I kind of like the bottom a little.,-20,220,20","I like the pattern of this picture, but the colors could be nicer,11,60,20","It reminds me of the documentary Paris is Burning, though I'm not sure why,11,160,20","In my opinion, this photo has an old school vibe,22,140,20","Crystal","I like the sectioned nature of the squares and curves. Not my favorite but still a good one.,27,300,20","Alexandra","I like the pattern of this picture, but the colors could be nicer,11,60,20","Marissa","It reminds me of the documentary Paris is Burning, though I'm not sure why,11,160,20","4"
"31546","","survey-text","211","3084550","0.0-209.0-0.0","A5Q2CMQMYG1IK","","","","{""Q0"":""Do not like this. Makes me feel nothing. ""}","","","","","","","","","","","","","","","","","","","","","","",""
"3303.0999999996275","","image-slider-response","212","3087855","0.0-210.0","A5Q2CMQMYG1IK","","","","","-50","","","","","","","","","","","","","","","","","","","","","",""
"null","","image-button-response","213","3092861","0.0-211.0","A5Q2CMQMYG1IK","img_art/4.jpg","null","","","","","","","","","","","","","","","","","","","","","","","","",""
"5653","","image-button-response","214","3098517","0.0-212.0","A5Q2CMQMYG1IK","img_art/4.jpg","1","","","","","","","","","","","","","","","","","","","","","","","","",""
"5029","","image-button-response","215","3103548","0.0-213.0-0.0","A5Q2CMQMYG1IK","img_art/4.jpg","0","","","","","","","","","","","","","","","","","","","","","","","","",""
"2469","","image-button-response","216","3106020","0.0-214.0-0.0","A5Q2CMQMYG1IK","img_art/4.jpg","3","","","","","","","","","","","","","","","","","","","","","","","","",""
"null","","html-keyboard-response","217","3106522","0.0-215.0","A5Q2CMQMYG1IK","<p style=""font-size: 48px;"">+</p>","","","","","null","allTrialResponses","500","1","24","img_art/4.jpg","-50","Do not like this. Makes me feel nothing. ","Crystal,Breanna,Courtney,Alexandra,Marissa,Leslie","Looks like finger nails from the Guinness world record book.,-30,300,20","Looks like a hand, not very impressed,-22,380,20","A leaning trophy,-9,280,20","This artwork looks like a child did it,-41,60,20","I'm disappointed that such a simple piece, with very little effort spent, could be grouped with other detailed pieces,-31,160,20","This elicits no reaction in me.,0,380,20","Breanna","Looks like a hand, not very impressed,-22,380,20","Crystal","Looks like finger nails from the Guinness world record book.,-30,300,20","Alexandra","This artwork looks like a child did it,-41,60,20","4"
"16051","","survey-text","218","3122585","0.0-216.0-0.0","A5Q2CMQMYG1IK","","","","{""Q0"":""Not impressed""}","","","","","","","","","","","","","","","","","","","","","","",""
"3720.0999999996275","","image-slider-response","219","3126308","0.0-217.0","A5Q2CMQMYG1IK","","","","","-50","","","","","","","","","","","","","","","","","","","","","",""
"3648","","image-button-response","220","3131320","0.0-218.0","A5Q2CMQMYG1IK","img_art/5.jpg","0","","","","","","","","","","","","","","","","","","","","","","","","",""
"459","","image-button-response","221","3131783","0.0-219.0","A5Q2CMQMYG1IK","img_art/5.jpg","0","","","","","","","","","","","","","","","","","","","","","","","","",""
"3570","","image-button-response","222","3135355","0.0-220.0-0.0","A5Q2CMQMYG1IK","img_art/5.jpg","5","","","","","","","","","","","","","","","","","","","","","","","","",""
"3108","","image-button-response","223","3138466","0.0-221.0-0.0","A5Q2CMQMYG1IK","img_art/5.jpg","3","","","","","","","","","","","","","","","","","","","","","","","","",""
"null","","html-keyboard-response","224","3138981","0.0-222.0","A5Q2CMQMYG1IK","<p style=""font-size: 48px;"">+</p>","","","","","null","allTrialResponses","500","1","25","img_art/5.jpg","-50","Not impressed","Crystal,Breanna,Meghan,Alexandra,Shelby,Gabrielle","Confused as to what the artist is attempting to do.,-50,300,20","Makes me feel weird,-16,380,20","I like it but I don't know why,15,220,20","This looks like a twelve year old did it,-40,60,20","This feels joyful,39,240,20","looks like a 2nd grader did it,-50,160,20","Crystal","Confused as to what the artist is attempting to do.,-50,300,20","Gabrielle","looks like a 2nd grader did it,-50,160,20","Alexandra","This looks like a twelve year old did it,-40,60,20","4"
"4225","","survey-text","225","3143230","0.0-223.0-0.0","A5Q2CMQMYG1IK","","","","{""Q0"":""table""}","","","","","","","","","","","","","","","","","","","","","","",""
"11233","","survey-text","226","3154464","0.0-224.0-0.0","A5Q2CMQMYG1IK","","","","{""Q0"":""Not impressed""}","","","","","","","","","","","","","","","","","","","","","","",""
"2600.5999999996275","","image-slider-response","227","3157067","0.0-225.0","A5Q2CMQMYG1IK","","","","","-50","","","","","","","","","","","","","","","","","","","","","",""
"4170","","image-button-response","228","3162075","0.0-226.0","A5Q2CMQMYG1IK","img_art/15.jpg","1","","","","","","","","","","","","","","","","","","","","","","","","",""
"274","","image-button-response","229","3162352","0.0-227.0","A5Q2CMQMYG1IK","img_art/15.jpg","1","","","","","","","","","","","","","","","","","","","","","","","","",""
"5411","","image-button-response","230","3167765","0.0-228.0-0.0","A5Q2CMQMYG1IK","img_art/15.jpg","2","","","","","","","","","","","","","","","","","","","","","","","","",""
"2778","","image-button-response","231","3170546","0.0-229.0-0.0","A5Q2CMQMYG1IK","img_art/15.jpg","4","","","","","","","","","","","","","","","","","","","","","","","","",""
"null","","html-keyboard-response","232","3172053","0.0-230.0","A5Q2CMQMYG1IK","<p style=""font-size: 48px;"">+</p>","","","","","null","allTrialResponses","1500","1","26","img_art/15.jpg","-50","Not impressed","Crystal,Jessica,Kelly,Alexandra,Jordan,Gabrielle","The blotted black spots create a nice contrast between the brush strokes within the center and sides. I like it.,41,300,20","I think it's trying to execute a cool idea, but unfortunately it doesn't appeal,5,400,20","I can't really make out what this is supposed to be.,-8,220,20","This is sort of ugly, but I do like the design.,10,60,20","I'm just not into it,-5,20,20","dark and provoking,-50,160,20","Jessica","I think it's trying to execute a cool idea, but unfortunately it doesn't appeal,5,400,20","Kelly","I can't really make out what this is supposed to be.,-8,220,20","Jordan","I'm just not into it,-5,20,20","4"
"66349","","survey-text","233","3238414","0.0-231.0-0.0","A5Q2CMQMYG1IK","","","","{""Q0"":""I see a busy workplace.""}","","","","","","","","","","","","","","","","","","","","","","",""
"6060.200000000186","","image-slider-response","234","3244476","0.0-232.0","A5Q2CMQMYG1IK","","","","","5","","","","","","","","","","","","","","","","","","","","","",""
"null","","image-button-response","235","3249493","0.0-233.0","A5Q2CMQMYG1IK","img_art/2.jpg","null","","","","","","","","","","","","","","","","","","","","","","","","",""
"581","","image-button-response","236","3250077","0.0-234.0","A5Q2CMQMYG1IK","img_art/2.jpg","0","","","","","","","","","","","","","","","","","","","","","","","","",""
"18570","","image-button-response","237","3268650","0.0-235.0-0.0","A5Q2CMQMYG1IK","img_art/2.jpg","5","","","","","","","","","","","","","","","","","","","","","","","","",""
"3250","","image-button-response","238","3271903","0.0-236.0-0.0","A5Q2CMQMYG1IK","img_art/2.jpg","4","","","","","","","","","","","","","","","","","","","","","","","","",""
"null","","html-keyboard-response","239","3272907","0.0-237.0","A5Q2CMQMYG1IK","<p style=""font-size: 48px;"">+</p>","","","","","null","allTrialResponses","1000","1","27","img_art/2.jpg","5","I see a busy workplace.","Olivia,Jessica,Kelly,Lauren,Jordan,Monica","i liked the bright colors,13,40,20","I don't get the meaning of this piece either.,-13,400,20","I cant tell whats happening here and that shade of green is just not my thing.,-17,220,20","I feel that its too abstract for me to understand what I'm looking at.,-15,340,20","I can't get past the fact that it looks like someone wearing a mask,-46,20,20","I like the blue color in the center but that's it, the green is a gross color,-3,360,20","Olivia","i liked the bright colors,13,40,20","Monica","I like the blue color in the center but that's it, the green is a gross color,-3,360,20","Jordan","I can't get past the fact that it looks like someone wearing a mask,-46,20,20","4"
"18836","","survey-text","240","3291755","0.0-238.0-0.0","A5Q2CMQMYG1IK","","","","{""Q0"":""I feel peaceful. Reminds me of rain. ""}","","","","","","","","","","","","","","","","","","","","","","",""
"3140.7000000001863","","image-slider-response","241","3294899","0.0-239.0","A5Q2CMQMYG1IK","","","","","50","","","","","","","","","","","","","","","","","","","","","",""
"4150","","image-button-response","242","3299903","0.0-240.0","A5Q2CMQMYG1IK","img_art/13.jpg","2","","","","","","","","","","","","","","","","","","","","","","","","",""
"787","","image-button-response","243","3300694","0.0-241.0","A5Q2CMQMYG1IK","img_art/13.jpg","2","","","","","","","","","","","","","","","","","","","","","","","","",""
"1800","","image-button-response","244","3302496","0.0-242.0-0.0","A5Q2CMQMYG1IK","img_art/13.jpg","1","","","","","","","","","","","","","","","","","","","","","","","","",""
"10440","","image-button-response","245","3312939","0.0-243.0-0.0","A5Q2CMQMYG1IK","img_art/13.jpg","0","","","","","","","","","","","","","","","","","","","","","","","","",""
"null","","html-keyboard-response","246","3314456","0.0-244.0","A5Q2CMQMYG1IK","<p style=""font-size: 48px;"">+</p>","","","","","null","allTrialResponses","1500","1","28","img_art/13.jpg","50","I feel peaceful. Reminds me of rain. ","Olivia,Leah,Catherine,Melissa,Jordan,Monica","eighties here we come,7,40,20","Like it a lot, reminds me of rainy day on glass,43,360,20","Magnified rain around trees. Beautiful happy colors. The little person on the right feels nature is huge.,45,160,20","feels sterile/manufactured,1,240,20","It's just paint splatter, no real meaning to me,-50,20,20","It's like any other splatter paint art piece, nothing special,1,360,20","Catherine","Magnified rain around trees. Beautiful happy colors. The little person on the right feels nature is huge.,45,160,20","Leah","Like it a lot, reminds me of rainy day on glass,43,360,20","Olivia","eighties here we come,7,40,20","4"
"31247","","survey-text","247","3345714","0.0-245.0-0.0","A5Q2CMQMYG1IK","","","","{""Q0"":""This reminds me of a crime waiting to happen...""}","","","","","","","","","","","","","","","","","","","","","","",""
"4731.899999999441","","image-slider-response","248","3350448","0.0-246.0","A5Q2CMQMYG1IK","","","","","4","","","","","","","","","","","","","","","","","","","","","",""
"4530","","image-button-response","249","3355458","0.0-247.0","A5Q2CMQMYG1IK","img_art/16.jpg","2","","","","","","","","","","","","","","","","","","","","","","","","",""
"542","","image-button-response","250","3356003","0.0-248.0","A5Q2CMQMYG1IK","img_art/16.jpg","2","","","","","","","","","","","","","","","","","","","","","","","","",""
"3159","","image-button-response","251","3359164","0.0-249.0-0.0","A5Q2CMQMYG1IK","img_art/16.jpg","1","","","","","","","","","","","","","","","","","","","","","","","","",""
"1579","","image-button-response","252","3360746","0.0-250.0-0.0","A5Q2CMQMYG1IK","img_art/16.jpg","0","","","","","","","","","","","","","","","","","","","","","","","","",""
"null","","html-keyboard-response","253","3362253","0.0-251.0","A5Q2CMQMYG1IK","<p style=""font-size: 48px;"">+</p>","","","","","null","allTrialResponses","1500","1","29","img_art/16.jpg","4","This reminds me of a crime waiting to happen...","Olivia,Leah,Catherine,Katherine,Jennifer,Jenna","childhood horror,3,40,20","Know it is a piece relating to children and gun violence. Sad,-30,360,20","A teddybear, gun, crying person does not give a happy reaction. Death, still, no life.,-50,160,20","Super weird. Id like to know more about it,24,120,20","Very creepy, it makes me feel uneasy,-31,380,20","very bizarre and confusing, but that feels purposeful, so i don't completely hate it.,-25,360,20","Catherine","A teddybear, gun, crying person does not give a happy reaction. Death, still, no life.,-50,160,20","Leah","Know it is a piece relating to children and gun violence. Sad,-30,360,20","Olivia","childhood horror,3,40,20","4"
"16371","","survey-text","254","3378635","0.0-252.0-0.0","A5Q2CMQMYG1IK","","","","{""Q0"":""I see a centipede in dirt.""}","","","","","","","","","","","","","","","","","","","","","","",""
"2161.7000000001863","","image-slider-response","255","3380799","0.0-253.0","A5Q2CMQMYG1IK","","","","","1","","","","","","","","","","","","","","","","","","","","","",""
"null","","image-button-response","256","3385803","0.0-254.0","A5Q2CMQMYG1IK","img_art/23.jpg","null","","","","","","","","","","","","","","","","","","","","","","","","",""
"19327","","image-button-response","257","3405132","0.0-255.0","A5Q2CMQMYG1IK","img_art/23.jpg","4","","","","","","","","","","","","","","","","","","","","","","","","",""
"2740","","image-button-response","258","3407874","0.0-256.0-0.0","A5Q2CMQMYG1IK","img_art/23.jpg","1","","","","","","","","","","","","","","","","","","","","","","","","",""
"1769","","image-button-response","259","3409646","0.0-257.0-0.0","A5Q2CMQMYG1IK","img_art/23.jpg","2","","","","","","","","","","","","","","","","","","","","","","","","",""
"null","","html-keyboard-response","260","3410655","0.0-258.0","A5Q2CMQMYG1IK","<p style=""font-size: 48px;"">+</p>","","","","","null","allTrialResponses","1000","1","30","img_art/23.jpg","1","I see a centipede in dirt.","Olivia,Leah,Catherine,Diana,Alexis,Katie","happiness in the universe,28,40,20","Interesting, want to look at it more to identify,25,360,20","Partying, dancing, delusion, kaus.,10,160,20","I thought this art was exciting and it reminded me of dancing people.,12,380,20","Pretty cool. I love the white, reminds me of people lined up.,28,100,20","I don't get it! the white in the middle of the speckled rainbow is confusing.,-10,160,20","Alexis","Pretty cool. I love the white, reminds me of people lined up.,28,100,20","Leah","Interesting, want to look at it more to identify,25,360,20","Catherine","Partying, dancing, delusion, kaus.,10,160,20","4"
"3247","","image-button-response_instructions","261","3413917","0.0-259.0","A5Q2CMQMYG1IK","","0","instructions","","","","","","","","","","","","","","","","","","","","","","","",""
"1394","","image-button-response","262","3415321","0.0-260.0","A5Q2CMQMYG1IK","","0","","","","","","","","","","","","","","","","","","","","","","","","",""
