"rt","url","trial_type","trial_index","time_elapsed","internal_node_id","participant_id","stimulus","button_pressed","Name","responses","response","key_press","variableName","fixationTime","condition","trial","photo","subjectRating","subjectResponse","agentsNames","agent_1_Response","agent_2_Response","agent_3_Response","agent_4_Response","agent_5_Response","agent_6_Response","kept_1_name","kept_1_response","kept_2_name","kept_2_response","kept_3_name","kept_3_response","errorCounter"
"59730","external_page_harvard.html","external-html","0","60024","0.0-0.0","A5XQ30GQTHHK6","","","","","","","","","","","","","","","","","","","","","","","","","","",""
"1428","","image-button-response","1","61603","0.0-1.0","A5XQ30GQTHHK6","","1","","","","","","","","","","","","","","","","","","","","","","","","",""
"1985","","image-button-response","2","63603","0.0-2.0-0.0","A5XQ30GQTHHK6","","1","phone","","","","","","","","","","","","","","","","","","","","","","","",""
"3208","","survey-text","3","66930","0.0-3.0-0.0","A5XQ30GQTHHK6","","","","{""Q0"":""A5XQ30GQTHHK6""}","","","","","","","","","","","","","","","","","","","","","","",""
"8164","","image-button-response_instructions","4","75100","0.0-4.0","A5XQ30GQTHHK6","","0","instructions","","","","","","","","","","","","","","","","","","","","","","","",""
"12091","","image-button-response_instructions","5","87198","0.0-5.0","A5XQ30GQTHHK6","img_art/ins/popularity/ins1.png","0","instructions","","","","","","","","","","","","","","","","","","","","","","","",""
"2656","","image-button-response_instructions","6","89861","0.0-6.0","A5XQ30GQTHHK6","img_art/ins/popularity/ins2.png","0","instructions","","","","","","","","","","","","","","","","","","","","","","","",""
"3490","","image-button-response_instructions","7","93371","0.0-7.0","A5XQ30GQTHHK6","img_art/ins/popularity/ins2Extreme.png","0","instructions","","","","","","","","","","","","","","","","","","","","","","","",""
"15532","","image-button-response_instructions","8","108908","0.0-8.0","A5XQ30GQTHHK6","img_art/ins/popularity/ins3KEEPpop.PNG","0","instructions","","","","","","","","","","","","","","","","","","","","","","","",""
"2619","","image-button-response_instructions","9","111530","0.0-9.0","A5XQ30GQTHHK6","img_art/ins/popularity/ins3ANamepop.PNG","0","instructions","","","","","","","","","","","","","","","","","","","","","","","",""
"2534","","image-button-response_instructions","10","114068","0.0-10.0","A5XQ30GQTHHK6","img_art/ins/popularity/ins3ARatingpop.png","0","instructions","","","","","","","","","","","","","","","","","","","","","","","",""
"2029","","image-button-response_instructions","11","116102","0.0-11.0","A5XQ30GQTHHK6","img_art/ins/popularity/ins3ATextpop.png","0","instructions","","","","","","","","","","","","","","","","","","","","","","","",""
"33401","","image-button-response_instructions","12","149507","0.0-12.0","A5XQ30GQTHHK6","img_art/ins/popularity/ins3ALikespop.png","0","instructions","","","","","","","","","","","","","","","","","","","","","","","",""
"8239","","image-button-response_instructions","13","157750","0.0-13.0","A5XQ30GQTHHK6","img_art/ins/popularity/ins3KEEPpop.PNG","0","instructions","","","","","","","","","","","","","","","","","","","","","","","",""
"6749","","image-button-response_instructions","14","164502","0.0-14.0","A5XQ30GQTHHK6","img_art/ins/popularity/ins3_5RED.png","0","instructions","","","","","","","","","","","","","","","","","","","","","","","",""
"3729","","image-button-response_instructions","15","168235","0.0-15.0","A5XQ30GQTHHK6","img_art/ins/popularity/ins3KEEPpop.PNG","0","instructions","","","","","","","","","","","","","","","","","","","","","","","",""
"7437","","image-button-response_instructions","16","175676","0.0-16.0","A5XQ30GQTHHK6","img_art/ins/popularity/ins4KEEPpop.PNG","0","instructions","","","","","","","","","","","","","","","","","","","","","","","",""
"5035","","image-button-response_instructions","17","180715","0.0-17.0","A5XQ30GQTHHK6","img_art/ins/popularity/ins5KEEPpop.PNG","0","instructions","","","","","","","","","","","","","","","","","","","","","","","",""
"2029","","image-button-response_instructions","18","182748","0.0-18.0","A5XQ30GQTHHK6","","0","instructions","","","","","","","","","","","","","","","","","","","","","","","",""
"5412","","survey-text","19","188270","0.0-19.0-0.0","A5XQ30GQTHHK6","","","","{""Q0"":""but""}","","","","","","","","","","","","","","","","","","","","","","",""
"10483","","survey-text","20","198757","0.0-20.0-0.0","A5XQ30GQTHHK6","","","","{""Q0"":""Looks happy and free to me.""}","","","","","","","","","","","","","","","","","","","","","","",""
"4557","","image-slider-response","21","203391","0.0-21.0","A5XQ30GQTHHK6","","","","","31","","","","","","","","","","","","","","","","","","","","","",""
"null","","image-button-response","22","208409","0.0-22.0","A5XQ30GQTHHK6","img_art/ins/1.jpg","null","","","","","","","","","","","","","","","","","","","","","","","","",""
"35115","","image-button-response","23","243528","0.0-23.0","A5XQ30GQTHHK6","img_art/ins/1.jpg","5","","","","","","","","","","","","","","","","","","","","","","","","",""
"8779","","image-button-response","24","252314","0.0-24.0-0.0","A5XQ30GQTHHK6","img_art/ins/1.jpg","0","","","","","","","","","","","","","","","","","","","","","","","","",""
"9052","","image-button-response","25","261373","0.0-25.0-0.0","A5XQ30GQTHHK6","img_art/ins/1.jpg","5","","","","","","","","","","","","","","","","","","","","","","","","",""
"4861","","image-button-response","26","271402","0.0-25.1-0.1","A5XQ30GQTHHK6","img_art/ins/1.jpg","4","","","","","","","","","","","","","","","","","","","","","","","","",""
"null","","html-keyboard-response","27","271919","0.0-26.0","A5XQ30GQTHHK6","<p style=""font-size: 48px;"">+</p>","","","","","null","allTrialResponses","500","1","-2","img_art/ins/1.jpg","31","Looks happy and free to me.","Allison,Ashley,Beth,Dora,Erika,Jen","looks like a lot of things going on in the mist,20,20,20","I just don't get why these type of art would be popular,-32,40,20","This color reminds me of poo,-46,60,20","looks like what my niece in 3rd grade did this afternoon,-50,80,20","I like the sophisticated brushwork,40,100,20","It reminds me of a candy land dream I had,36,120,20","Jen","It reminds me of a candy land dream I had,36,120,20","Allison","looks like a lot of things going on in the mist,20,20,20","Erika","I like the sophisticated brushwork,40,100,20","2"
"10950","","survey-text","28","282947","0.0-27.0-0.0","A5XQ30GQTHHK6","","","","{""Q0"":""This looks like a mountain side to me.""}","","","","","","","","","","","","","","","","","","","","","","",""
"4430","","image-slider-response","29","287382","0.0-28.0","A5XQ30GQTHHK6","","","","","15","","","","","","","","","","","","","","","","","","","","","",""
"null","","image-button-response","30","292405","0.0-29.0","A5XQ30GQTHHK6","img_art/ins/2.jpg","null","","","","","","","","","","","","","","","","","","","","","","","","",""
"5523","","image-button-response","31","297930","0.0-30.0","A5XQ30GQTHHK6","img_art/ins/2.jpg","5","","","","","","","","","","","","","","","","","","","","","","","","",""
"1968","","image-button-response","32","299901","0.0-31.0-0.0","A5XQ30GQTHHK6","img_art/ins/2.jpg","0","","","","","","","","","","","","","","","","","","","","","","","","",""
"611","","image-button-response","33","300518","0.0-32.0-0.0","A5XQ30GQTHHK6","img_art/ins/2.jpg","1","","","","","","","","","","","","","","","","","","","","","","","","",""
"null","","html-keyboard-response","34","302033","0.0-33.0","A5XQ30GQTHHK6","<p style=""font-size: 48px;"">+</p>","","","","","null","allTrialResponses","1500","1","-1","img_art/ins/2.jpg","15","This looks like a mountain side to me.","Allison,Kara,Katie,Jenna,Erika,Jen","I don't have strong feelings about this,10,20,20","I like the blocks of color arrangements,30,160,20","too much color!,-28,180,20","One of my pet peevs,-48,140,20","I would never be able to compose a sophisticated pallete like this,48,100,20","It reminds me of a fireplace,36,120,20","Jen","It reminds me of a fireplace,36,120,20","Allison","I don't have strong feelings about this,10,20,20","Kara","I like the blocks of color arrangements,30,160,20","2"
"15574","","survey-text","35","317633","0.0-34.0-0.0","A5XQ30GQTHHK6","","","","{""Q0"":""Reminds me of bright ocean water at noon.""}","","","","","","","","","","","","","","","","","","","","","","",""
"3824","","image-slider-response","36","321463","0.0-35.0","A5XQ30GQTHHK6","","","","","40","","","","","","","","","","","","","","","","","","","","","",""
"3434","","image-button-response","37","326469","0.0-36.0","A5XQ30GQTHHK6","img_art/ins/3.jpg","1","","","","","","","","","","","","","","","","","","","","","","","","",""
"684","","image-button-response","38","327158","0.0-37.0","A5XQ30GQTHHK6","img_art/ins/3.jpg","1","","","","","","","","","","","","","","","","","","","","","","","","",""
"4716","","image-button-response","39","331878","0.0-38.0-0.0","A5XQ30GQTHHK6","img_art/ins/3.jpg","4","","","","","","","","","","","","","","","","","","","","","","","","",""
"1313","","image-button-response","40","333196","0.0-39.0-0.0","A5XQ30GQTHHK6","img_art/ins/3.jpg","0","","","","","","","","","","","","","","","","","","","","","","","","",""
"null","","html-keyboard-response","41","334212","0.0-40.0","A5XQ30GQTHHK6","<p style=""font-size: 48px;"">+</p>","","","","","null","allTrialResponses","1000","1","0","img_art/ins/3.jpg","40","Reminds me of bright ocean water at noon.","Allison,Kara,Rose,Leslie,Mary,Jen","enjoy the different shades of blue,22,20,20","calming blue is very nice,36,160,20","My daily routine, it's depressing,-20,240,20","It's an alright work,15,200,20","I like the overlapping of brushes,41,220,20","I can feel a rainy day from this painting,18,120,20","Kara","calming blue is very nice,36,160,20","Mary","I like the overlapping of brushes,41,220,20","Allison","enjoy the different shades of blue,22,20,20","2"
"5830","","image-button-response_instructions","42","340059","0.0-41.0","A5XQ30GQTHHK6","","0","instructions","","","","","","","","","","","","","","","","","","","","","","","",""
"13332","","survey-likert","43","353398","0.0-42.0-0.0","A5XQ30GQTHHK6","","","","{""Q0"":"""",""Q1"":0,""Q2"":0}","","","","","","","","","","","","","","","","","","","","","","",""
"5135","","survey-likert","44","361304","0.0-42.1-0.1","A5XQ30GQTHHK6","","","","{""Q0"":"""",""Q1"":0,""Q2"":1}","","","","","","","","","","","","","","","","","","","","","","",""
"3744","","survey-text","45","365059","0.0-43.0-0.0","A5XQ30GQTHHK6","","","","{""Q0"":""rock""}","","","","","","","","","","","","","","","","","","","","","","",""
"7906","","survey-text","46","372969","0.0-44.0-0.0","A5XQ30GQTHHK6","","","","{""Q0"":""An old west town""}","","","","","","","","","","","","","","","","","","","","","","",""
"5676","","image-slider-response","47","378649","0.0-45.0","A5XQ30GQTHHK6","","","","","-10","","","","","","","","","","","","","","","","","","","","","",""
"null","","image-button-response","48","383694","0.0-46.0","A5XQ30GQTHHK6","img_art/20.jpg","null","","","","","","","","","","","","","","","","","","","","","","","","",""
"1977","","image-button-response","49","385674","0.0-47.0","A5XQ30GQTHHK6","img_art/20.jpg","2","","","","","","","","","","","","","","","","","","","","","","","","",""
"4640","","image-button-response","50","390319","0.0-48.0-0.0","A5XQ30GQTHHK6","img_art/20.jpg","4","","","","","","","","","","","","","","","","","","","","","","","","",""
"1943","","image-button-response","51","392267","0.0-49.0-0.0","A5XQ30GQTHHK6","img_art/20.jpg","5","","","","","","","","","","","","","","","","","","","","","","","","",""
"null","","html-keyboard-response","52","393273","0.0-50.0","A5XQ30GQTHHK6","<p style=""font-size: 48px;"">+</p>","","","","","null","allTrialResponses","1000","1","1","img_art/20.jpg","-10","An old west town","Claire,Miranda,Hailey,Kaitlin,Courtney,Katie","reminds me of Salvadore Dali,24,260,20","A painting within a painting, the inner painting looks like a car crash with a semi truck.,21,320,20","reminds me of a dead animal in the west. ugly,-25,200,20","i can feel the intensity in this,11,60,20","The beast is running after you.,33,280,20","I don't like it. Dark sky and black figures. White objects remind me of bones.,-30,160,20","Hailey","reminds me of a dead animal in the west. ugly,-25,200,20","Courtney","The beast is running after you.,33,280,20","Katie","I don't like it. Dark sky and black figures. White objects remind me of bones.,-30,160,20","3"
"16623","","survey-text","53","409910","0.0-51.0-0.0","A5XQ30GQTHHK6","","","","{""Q0"":""small village looks rustic""}","","","","","","","","","","","","","","","","","","","","","","",""
"5824","","image-slider-response","54","415740","0.0-52.0","A5XQ30GQTHHK6","","","","","11","","","","","","","","","","","","","","","","","","","","","",""
"null","","image-button-response","55","420755","0.0-53.0","A5XQ30GQTHHK6","img_art/19.jpg","null","","","","","","","","","","","","","","","","","","","","","","","","",""
"3508","","image-button-response","56","424267","0.0-54.0","A5XQ30GQTHHK6","img_art/19.jpg","3","","","","","","","","","","","","","","","","","","","","","","","","",""
"830","","image-button-response","57","425103","0.0-55.0-0.0","A5XQ30GQTHHK6","img_art/19.jpg","4","","","","","","","","","","","","","","","","","","","","","","","","",""
"2523","","image-button-response","58","427632","0.0-56.0-0.0","A5XQ30GQTHHK6","img_art/19.jpg","0","","","","","","","","","","","","","","","","","","","","","","","","",""
"null","","html-keyboard-response","59","428643","0.0-57.0","A5XQ30GQTHHK6","<p style=""font-size: 48px;"">+</p>","","","","","null","allTrialResponses","1000","1","2","img_art/19.jpg","11","small village looks rustic","Emma,Allison,Hailey,Sabrina,Courtney,Katie","Interesting, leaves you wondering what it is,40,60,20","Messy mix of colors.,-5,140,20","an old cityfrom many years ago. its ok,6,200,20","Gives a very open and freeing vibe,42,120,20","Thats a lazy town,-8,280,20","Too busy, makes me anxious and frustrated. Lots of movement in the brush strokes.,-9,160,20","Sabrina","Gives a very open and freeing vibe,42,120,20","Courtney","Thats a lazy town,-8,280,20","Emma","Interesting, leaves you wondering what it is,40,60,20","3"
"11744","","survey-text","60","440396","0.0-58.0-0.0","A5XQ30GQTHHK6","","","","{""Q0"":""just reminds me of fog""}","","","","","","","","","","","","","","","","","","","","","","",""
"3655","","image-slider-response","61","444056","0.0-59.0","A5XQ30GQTHHK6","","","","","-35","","","","","","","","","","","","","","","","","","","","","",""
"null","","image-button-response","62","449074","0.0-60.0","A5XQ30GQTHHK6","img_art/21.jpg","null","","","","","","","","","","","","","","","","","","","","","","","","",""
"3174","","image-button-response","63","452249","0.0-61.0","A5XQ30GQTHHK6","img_art/21.jpg","4","","","","","","","","","","","","","","","","","","","","","","","","",""
"846","","image-button-response","64","453099","0.0-62.0-0.0","A5XQ30GQTHHK6","img_art/21.jpg","5","","","","","","","","","","","","","","","","","","","","","","","","",""
"3669","","image-button-response","65","456772","0.0-63.0-0.0","A5XQ30GQTHHK6","img_art/21.jpg","1","","","","","","","","","","","","","","","","","","","","","","","","",""
"null","","html-keyboard-response","66","457787","0.0-64.0","A5XQ30GQTHHK6","<p style=""font-size: 48px;"">+</p>","","","","","null","allTrialResponses","1000","1","3","img_art/21.jpg","-35","just reminds me of fog","Emma,Brittany,Rachel,Sabrina,Courtney,Margaret","Pretty, good colors,30,60,20","Alright. I like the colors.,5,40,20","Looks like a body of water during a sunset. I like this piece.,21,80,20","I like the representation of love and hate in this,43,120,20","Another ship on fire.,-10,280,20","i like the colors and the blending,17,100,20","Courtney","Another ship on fire.,-10,280,20","Margaret","i like the colors and the blending,17,100,20","Brittany","Alright. I like the colors.,5,40,20","3"
"11898","","survey-text","67","469697","0.0-65.0-0.0","A5XQ30GQTHHK6","","","","{""Q0"":""Looks like something under a microscope""}","","","","","","","","","","","","","","","","","","","","","","",""
"3186","","image-slider-response","68","472889","0.0-66.0","A5XQ30GQTHHK6","","","","","10","","","","","","","","","","","","","","","","","","","","","",""
"null","","image-button-response","69","477916","0.0-67.0","A5XQ30GQTHHK6","img_art/7.jpg","null","","","","","","","","","","","","","","","","","","","","","","","","",""
"216","","image-button-response","70","478138","0.0-68.0","A5XQ30GQTHHK6","img_art/7.jpg","0","","","","","","","","","","","","","","","","","","","","","","","","",""
"3853","","image-button-response","71","481996","0.0-69.0-0.0","A5XQ30GQTHHK6","img_art/7.jpg","4","","","","","","","","","","","","","","","","","","","","","","","","",""
"7411","","image-button-response","72","489412","0.0-70.0-0.0","A5XQ30GQTHHK6","img_art/7.jpg","5","","","","","","","","","","","","","","","","","","","","","","","","",""
"null","","html-keyboard-response","73","489934","0.0-71.0","A5XQ30GQTHHK6","<p style=""font-size: 48px;"">+</p>","","","","","null","allTrialResponses","500","1","4","img_art/7.jpg","10","Looks like something under a microscope","Cassidy,Brittany,Emily,Natalie,Courtney,Margaret","I like the texture,12,140,20","It looks like a wall, not really something I'd enjoy looking at.,-12,40,20","Ugly. I don't like the colors or the scattering.,-50,40,20","does not look good,-42,400,20","That a desert floor,16,280,20","looks like a close up of irritated skin under a microscope,-49,100,20","Cassidy","I like the texture,12,140,20","Courtney","That a desert floor,16,280,20","Margaret","looks like a close up of irritated skin under a microscope,-49,100,20","3"
"20109","","survey-text","74","510065","0.0-72.0-0.0","A5XQ30GQTHHK6","","","","{""Q0"":""I think of eel, snakes, or angry fire""}","","","","","","","","","","","","","","","","","","","","","","",""
"2801","","image-slider-response","75","512873","0.0-73.0","A5XQ30GQTHHK6","","","","","6","","","","","","","","","","","","","","","","","","","","","",""
"4891","","image-button-response","76","517895","0.0-74.0","A5XQ30GQTHHK6","img_art/30.jpg","2","","","","","","","","","","","","","","","","","","","","","","","","",""
"3431","","image-button-response","77","521328","0.0-75.0","A5XQ30GQTHHK6","img_art/30.jpg","2","","","","","","","","","","","","","","","","","","","","","","","","",""
"5566","","image-button-response","78","526898","0.0-76.0-0.0","A5XQ30GQTHHK6","img_art/30.jpg","0","","","","","","","","","","","","","","","","","","","","","","","","",""
"860","","image-button-response","79","527760","0.0-77.0-0.0","A5XQ30GQTHHK6","img_art/30.jpg","1","","","","","","","","","","","","","","","","","","","","","","","","",""
"null","","html-keyboard-response","80","528275","0.0-78.0","A5XQ30GQTHHK6","<p style=""font-size: 48px;"">+</p>","","","","","null","allTrialResponses","500","1","5","img_art/30.jpg","6","I think of eel, snakes, or angry fire","Cassidy,Brooke,Jessica,Jacqueline,Courtney,Margaret","I just don't see the point of this piece,-11,140,20","Like the color and style,31,60,20","Looks cool , but no meaning,1,400,20","Too dark and ugly with all the black smears,-20,300,20","Some people dancing.,-7,280,20","I dont like the colors whatsoever,-15,100,20","Jessica","Looks cool , but no meaning,1,400,20","Cassidy","I just don't see the point of this piece,-11,140,20","Brooke","Like the color and style,31,60,20","3"
"3525","","survey-text","81","531850","0.0-79.0-0.0","A5XQ30GQTHHK6","","","","{""Q0"":""sky""}","","","","","","","","","","","","","","","","","","","","","","",""
"12454","","survey-text","82","544308","0.0-80.0-0.0","A5XQ30GQTHHK6","","","","{""Q0"":""Looks like toddler crayon""}","","","","","","","","","","","","","","","","","","","","","","",""
"3618","","image-slider-response","83","547930","0.0-81.0","A5XQ30GQTHHK6","","","","","-36","","","","","","","","","","","","","","","","","","","","","",""
"2189","","image-button-response","84","552952","0.0-82.0","A5XQ30GQTHHK6","img_art/3.jpg","1","","","","","","","","","","","","","","","","","","","","","","","","",""
"529","","image-button-response","85","553488","0.0-83.0","A5XQ30GQTHHK6","img_art/3.jpg","1","","","","","","","","","","","","","","","","","","","","","","","","",""
"1081","","image-button-response","86","554572","0.0-84.0-0.0","A5XQ30GQTHHK6","img_art/3.jpg","0","","","","","","","","","","","","","","","","","","","","","","","","",""
"2742","","image-button-response","87","557320","0.0-85.0-0.0","A5XQ30GQTHHK6","img_art/3.jpg","2","","","","","","","","","","","","","","","","","","","","","","","","",""
"null","","html-keyboard-response","88","558833","0.0-86.0","A5XQ30GQTHHK6","<p style=""font-size: 48px;"">+</p>","","","","","null","allTrialResponses","1500","1","6","img_art/3.jpg","-36","Looks like toddler crayon","Cassidy,Brooke,Jessica,Chloe,Amber,Brianna","Again, looks like a child's work. I don't get these types of pieces. Too simple,-47,140,20","kid scribbled on the wall again,-35,60,20","Don't get the scribbles.,-13,400,20","Powerful lines but seems incomplete,-10,220,20","seems to be a lot of angry scribble.,-20,200,20","It's very plain,-20,20,20","Brooke","kid scribbled on the wall again,-35,60,20","Cassidy","Again, looks like a child's work. I don't get these types of pieces. Too simple,-47,140,20","Jessica","Don't get the scribbles.,-13,400,20","3"
"9950","","survey-text","89","568794","0.0-87.0-0.0","A5XQ30GQTHHK6","","","","{""Q0"":""Too abstract and then a key""}","","","","","","","","","","","","","","","","","","","","","","",""
"5688","","image-slider-response","90","574487","0.0-88.0","A5XQ30GQTHHK6","","","","","-32","","","","","","","","","","","","","","","","","","","","","",""
"null","","image-button-response","91","579503","0.0-89.0","A5XQ30GQTHHK6","img_art/22.jpg","null","","","","","","","","","","","","","","","","","","","","","","","","",""
"5901","","image-button-response","92","585406","0.0-90.0","A5XQ30GQTHHK6","img_art/22.jpg","5","","","","","","","","","","","","","","","","","","","","","","","","",""
"2569","","image-button-response","93","587980","0.0-91.0-0.0","A5XQ30GQTHHK6","img_art/22.jpg","3","","","","","","","","","","","","","","","","","","","","","","","","",""
"4492","","image-button-response","94","592476","0.0-92.0-0.0","A5XQ30GQTHHK6","img_art/22.jpg","1","","","","","","","","","","","","","","","","","","","","","","","","",""
"null","","html-keyboard-response","95","593995","0.0-93.0","A5XQ30GQTHHK6","<p style=""font-size: 48px;"">+</p>","","","","","null","allTrialResponses","1500","1","7","img_art/22.jpg","-32","Too abstract and then a key","Cassidy,Brooke,Jessica,Rebecca,Mariah,Gabriela","I don't really know why, I just like looking at it,10,140,20","Like this one, like a sunset,30,60,20","I like the mixing of the primary colors.,8,400,20","colorful water (in front of castle?),17,100,20","The colors are pleasant, the shapes are inviting.,21,140,20","Neither like nor dislike it. The red, yellow and blue colors are bright but I don't know what it's meant to be.,1,140,20","Gabriela","Neither like nor dislike it. The red, yellow and blue colors are bright but I don't know what it's meant to be.,1,140,20","Rebecca","colorful water (in front of castle?),17,100,20","Brooke","Like this one, like a sunset,30,60,20","3"
"22745","","survey-text","96","616764","0.0-94.0-0.0","A5XQ30GQTHHK6","","","","{""Q0"":""Great big party""}","","","","","","","","","","","","","","","","","","","","","","",""
"5550","","image-slider-response","97","622320","0.0-95.0","A5XQ30GQTHHK6","","","","","31","","","","","","","","","","","","","","","","","","","","","",""
"3091","","image-button-response","98","627336","0.0-96.0","A5XQ30GQTHHK6","img_art/23.jpg","1","","","","","","","","","","","","","","","","","","","","","","","","",""
"803","","image-button-response","99","628151","0.0-97.0","A5XQ30GQTHHK6","img_art/23.jpg","1","","","","","","","","","","","","","","","","","","","","","","","","",""
"4691","","image-button-response","100","632847","0.0-98.0-0.0","A5XQ30GQTHHK6","img_art/23.jpg","4","","","","","","","","","","","","","","","","","","","","","","","","",""
"1189","","image-button-response","101","634041","0.0-99.0-0.0","A5XQ30GQTHHK6","img_art/23.jpg","5","","","","","","","","","","","","","","","","","","","","","","","","",""
"null","","html-keyboard-response","102","635555","0.0-100.0","A5XQ30GQTHHK6","<p style=""font-size: 48px;"">+</p>","","","","","null","allTrialResponses","1500","1","8","img_art/23.jpg","31","Great big party","Paige,Brooke,Madeline,Rebecca,Kylie,Gabriela","Does not incite any emotional response,1,60,20","looks like those paper chain things.,0,60,20","background is great but the white is a bit weird,3,40,20","love the contrast (was this painted by a left-handed artist?),7,100,20","Universal celebration,40,300,20","It looks like a parade of musicians full of excitement. Makes me feel upbeat,33,140,20","Brooke","looks like those paper chain things.,0,60,20","Kylie","Universal celebration,40,300,20","Gabriela","It looks like a parade of musicians full of excitement. Makes me feel upbeat,33,140,20","3"
"17473","","survey-text","103","653053","0.0-101.0-0.0","A5XQ30GQTHHK6","","","","{""Q0"":""Volcano or cheese with a knife. ""}","","","","","","","","","","","","","","","","","","","","","","",""
"3690","","image-slider-response","104","656750","0.0-102.0","A5XQ30GQTHHK6","","","","","-41","","","","","","","","","","","","","","","","","","","","","",""
"null","","image-button-response","105","661754","0.0-103.0","A5XQ30GQTHHK6","img_art/5.jpg","null","","","","","","","","","","","","","","","","","","","","","","","","",""
"1131","","image-button-response","106","662888","0.0-104.0","A5XQ30GQTHHK6","img_art/5.jpg","2","","","","","","","","","","","","","","","","","","","","","","","","",""
"2498","","image-button-response","107","665390","0.0-105.0-0.0","A5XQ30GQTHHK6","img_art/5.jpg","3","","","","","","","","","","","","","","","","","","","","","","","","",""
"1474","","image-button-response","108","666869","0.0-106.0-0.0","A5XQ30GQTHHK6","img_art/5.jpg","5","","","","","","","","","","","","","","","","","","","","","","","","",""
"null","","html-keyboard-response","109","667874","0.0-107.0","A5XQ30GQTHHK6","<p style=""font-size: 48px;"">+</p>","","","","","null","allTrialResponses","1000","1","9","img_art/5.jpg","-41","Volcano or cheese with a knife. ","Lindsey,Brooke,Cynthia,Jennifer,Kylie,Gabriela","Black bit reminds me of a giant splinter. Yellow bit reminds me of urine. I hate it.,-50,400,20","No. What even is this? A mop?,-35,60,20","boring and unsure,-25,320,20","This piece doesn't really stand out.,0,380,20","It reminds me of a piece of lemon candy, which is one of my favorite flavors,20,300,20","I am confused as to what this is supposed to be,6,140,20","Cynthia","boring and unsure,-25,320,20","Jennifer","This piece doesn't really stand out.,0,380,20","Gabriela","I am confused as to what this is supposed to be,6,140,20","3"
"20214","","survey-text","110","688164","0.0-108.0-0.0","A5XQ30GQTHHK6","","","","{""Q0"":""Looks like something I don't need to see.  Gross.""}","","","","","","","","","","","","","","","","","","","","","","",""
"4084","","image-slider-response","111","692255","0.0-109.0","A5XQ30GQTHHK6","","","","","-36","","","","","","","","","","","","","","","","","","","","","",""
"null","","image-button-response","112","697262","0.0-110.0","A5XQ30GQTHHK6","img_art/4.jpg","null","","","","","","","","","","","","","","","","","","","","","","","","",""
"1116","","image-button-response","113","698380","0.0-111.0","A5XQ30GQTHHK6","img_art/4.jpg","2","","","","","","","","","","","","","","","","","","","","","","","","",""
"7427","","image-button-response","114","705810","0.0-112.0-0.0","A5XQ30GQTHHK6","img_art/4.jpg","3","","","","","","","","","","","","","","","","","","","","","","","","",""
"1696","","image-button-response","115","707510","0.0-113.0-0.0","A5XQ30GQTHHK6","img_art/4.jpg","0","","","","","","","","","","","","","","","","","","","","","","","","",""
"null","","html-keyboard-response","116","709025","0.0-114.0","A5XQ30GQTHHK6","<p style=""font-size: 48px;"">+</p>","","","","","null","allTrialResponses","1500","1","10","img_art/4.jpg","-36","Looks like something I don't need to see.  Gross.","Crystal,Alexandra,Cynthia,Jennifer,Madison,Gabriela","Looks like finger nails from the Guinness world record book.,-30,300,20","This artwork looks like a child did it,-41,60,20","creepy as it looks like fingernails,-23,320,20","Ugly and bland compared to the other pieces.,-33,380,20","This is what makes suburban dads say, ""my 4-year-old can do that."",-49,60,20","The bold colors are exciting. It looks like a statue on someone's mantle.,18,140,20","Cynthia","creepy as it looks like fingernails,-23,320,20","Jennifer","Ugly and bland compared to the other pieces.,-33,380,20","Crystal","Looks like finger nails from the Guinness world record book.,-30,300,20","3"
"3602","","survey-text","117","712661","0.0-115.0-0.0","A5XQ30GQTHHK6","","","","{""Q0"":""our""}","","","","","","","","","","","","","","","","","","","","","","",""
"9903","","survey-text","118","722568","0.0-116.0-0.0","A5XQ30GQTHHK6","","","","{""Q0"":""Looks like a cave drawing""}","","","","","","","","","","","","","","","","","","","","","","",""
"3062","","image-slider-response","119","725636","0.0-117.0","A5XQ30GQTHHK6","","","","","13","","","","","","","","","","","","","","","","","","","","","",""
"4838","","image-button-response","120","730654","0.0-118.0","A5XQ30GQTHHK6","img_art/25.jpg","1","","","","","","","","","","","","","","","","","","","","","","","","",""
"931","","image-button-response","121","731590","0.0-119.0","A5XQ30GQTHHK6","img_art/25.jpg","1","","","","","","","","","","","","","","","","","","","","","","","","",""
"26","","image-button-response","122","731623","0.0-120.0-0.0","A5XQ30GQTHHK6","img_art/25.jpg","1","","","","","","","","","","","","","","","","","","","","","","","","",""
"2630","","image-button-response","123","737108","0.0-120.1-0.1","A5XQ30GQTHHK6","img_art/25.jpg","4","","","","","","","","","","","","","","","","","","","","","","","","",""
"1474","","image-button-response","124","738588","0.0-121.0-0.0","A5XQ30GQTHHK6","img_art/25.jpg","5","","","","","","","","","","","","","","","","","","","","","","","","",""
"null","","html-keyboard-response","125","740094","0.0-122.0","A5XQ30GQTHHK6","<p style=""font-size: 48px;"">+</p>","","","","","null","allTrialResponses","1500","1","11","img_art/25.jpg","13","Looks like a cave drawing","Crystal,Sarah,Cynthia,Jennifer,Jenna,Heather","Seems ritualistic and nativist,50,300,20","green is really cool, and the pieces in black fit together and are interesting,20,180,20","Somewhat feel protected by a messenger,33,320,20","Spooky, but in a good way. I like the green and black color palette.,42,380,20","beautiful in a primitive way,10,360,20","This reminds me of royalty and servants.,32,260,20","Sarah","green is really cool, and the pieces in black fit together and are interesting,20,180,20","Jenna","beautiful in a primitive way,10,360,20","Heather","This reminds me of royalty and servants.,32,260,20","5"
"19440","","survey-text","126","759559","0.0-123.0-0.0","A5XQ30GQTHHK6","","","","{""Q0"":""Looked like a nest until I saw the horse.  Confusing.""}","","","","","","","","","","","","","","","","","","","","","","",""
"3210","","image-slider-response","127","762775","0.0-124.0","A5XQ30GQTHHK6","","","","","-14","","","","","","","","","","","","","","","","","","","","","",""
"4246","","image-button-response","128","767788","0.0-125.0","A5XQ30GQTHHK6","img_art/18.jpg","1","","","","","","","","","","","","","","","","","","","","","","","","",""
"6318","","image-button-response","129","774113","0.0-126.0","A5XQ30GQTHHK6","img_art/18.jpg","3","","","","","","","","","","","","","","","","","","","","","","","","",""
"1328","","image-button-response","130","775445","0.0-127.0-0.0","A5XQ30GQTHHK6","img_art/18.jpg","1","","","","","","","","","","","","","","","","","","","","","","","","",""
"4097","","image-button-response","131","779547","0.0-128.0-0.0","A5XQ30GQTHHK6","img_art/18.jpg","5","","","","","","","","","","","","","","","","","","","","","","","","",""
"null","","html-keyboard-response","132","780567","0.0-129.0","A5XQ30GQTHHK6","<p style=""font-size: 48px;"">+</p>","","","","","null","allTrialResponses","1000","1","12","img_art/18.jpg","-14","Looked like a nest until I saw the horse.  Confusing.","Shelby,Sarah,Jordan,Sydney,Jenna,Heather","This gives a very ominous feeling,-30,240,20","this is kind of cool. I like the color scheme and the figure in the upper left is interesting,15,180,20","Oh heck yes! I see two warriors riding down from valhalla, awesome painting,50,20,20","I like the colors being used, but I don't like the chaos in the middle of it.,20,320,20","hauntingly beautiful. more things revealed the longer you look. love the spirit-like figure in the top left.,47,360,20","i like the colors in the picture and can make out my own images,42,260,20","Sydney","I like the colors being used, but I don't like the chaos in the middle of it.,20,320,20","Sarah","this is kind of cool. I like the color scheme and the figure in the upper left is interesting,15,180,20","Heather","i like the colors in the picture and can make out my own images,42,260,20","5"
"11005","","survey-text","133","791599","0.0-130.0-0.0","A5XQ30GQTHHK6","","","","{""Q0"":""Looks like a fair to me.""}","","","","","","","","","","","","","","","","","","","","","","",""
"3027","","image-slider-response","134","794631","0.0-131.0","A5XQ30GQTHHK6","","","","","14","","","","","","","","","","","","","","","","","","","","","",""
"null","","image-button-response","135","799647","0.0-132.0","A5XQ30GQTHHK6","img_art/9.jpg","null","","","","","","","","","","","","","","","","","","","","","","","","",""
"6871","","image-button-response","136","806521","0.0-133.0","A5XQ30GQTHHK6","img_art/9.jpg","4","","","","","","","","","","","","","","","","","","","","","","","","",""
"1771","","image-button-response","137","808296","0.0-134.0-0.0","A5XQ30GQTHHK6","img_art/9.jpg","0","","","","","","","","","","","","","","","","","","","","","","","","",""
"5159","","image-button-response","138","813459","0.0-135.0-0.0","A5XQ30GQTHHK6","img_art/9.jpg","2","","","","","","","","","","","","","","","","","","","","","","","","",""
"null","","html-keyboard-response","139","814966","0.0-136.0","A5XQ30GQTHHK6","<p style=""font-size: 48px;"">+</p>","","","","","null","allTrialResponses","1500","1","13","img_art/9.jpg","14","Looks like a fair to me.","Alexandria,Sarah,Katherine,Sydney,Sierra,Heather","it makes me feel excited and draws my eye around,24,80,20","I really like the color balance but the image is odd,-5,180,20","Idk what is in the middle but the blurry image makes it seem like the subject is of the painters interest,22,120,20","I see some of my favorite colors which I like, but I don't like what's portrayed.,35,320,20","it looks like a lady resting. it is soothing.,4,260,20","a mother in bed surrounded by emotions,1,260,20","Sierra","it looks like a lady resting. it is soothing.,4,260,20","Alexandria","it makes me feel excited and draws my eye around,24,80,20","Katherine","Idk what is in the middle but the blurry image makes it seem like the subject is of the painters interest,22,120,20","5"
"8570","","survey-text","140","823564","0.0-137.0-0.0","A5XQ30GQTHHK6","","","","{""Q0"":""Too abstract for me.""}","","","","","","","","","","","","","","","","","","","","","","",""
"3341","","image-slider-response","141","826914","0.0-138.0","A5XQ30GQTHHK6","","","","","-36","","","","","","","","","","","","","","","","","","","","","",""
"4815","","image-button-response","142","831937","0.0-139.0","A5XQ30GQTHHK6","img_art/12.jpg","1","","","","","","","","","","","","","","","","","","","","","","","","",""
"1442","","image-button-response","143","833386","0.0-140.0","A5XQ30GQTHHK6","img_art/12.jpg","0","","","","","","","","","","","","","","","","","","","","","","","","",""
"994","","image-button-response","144","834385","0.0-141.0-0.0","A5XQ30GQTHHK6","img_art/12.jpg","1","","","","","","","","","","","","","","","","","","","","","","","","",""
"3595","","image-button-response","145","837984","0.0-142.0-0.0","A5XQ30GQTHHK6","img_art/12.jpg","4","","","","","","","","","","","","","","","","","","","","","","","","",""
"null","","html-keyboard-response","146","838507","0.0-143.0","A5XQ30GQTHHK6","<p style=""font-size: 48px;"">+</p>","","","","","null","allTrialResponses","500","1","14","img_art/12.jpg","-36","Too abstract for me.","Alexandria,Alicia,Katherine,Christina,Sierra,Maria","don't feel a lot but it seems very simple,-6,80,20","it's ok, but blocky, looks old.,3,120,20","Not sure why but this is my favorite. I'd put it on my wall,50,120,20","way too 90s/80s for me,-9,240,20","i dont see the point.,-19,260,20","evokes the 80s, and not in a necessarily good way,-10,120,20","Alexandria","don't feel a lot but it seems very simple,-6,80,20","Alicia","it's ok, but blocky, looks old.,3,120,20","Sierra","i dont see the point.,-19,260,20","5"
"15814","","survey-text","147","854347","0.0-144.0-0.0","A5XQ30GQTHHK6","","","","{""Q0"":""beautiful colors and looks natural""}","","","","","","","","","","","","","","","","","","","","","","",""
"3629","","image-slider-response","148","857984","0.0-145.0","A5XQ30GQTHHK6","","","","","42","","","","","","","","","","","","","","","","","","","","","",""
"2274","","image-button-response","149","862997","0.0-146.0","A5XQ30GQTHHK6","img_art/17.jpg","1","","","","","","","","","","","","","","","","","","","","","","","","",""
"771","","image-button-response","150","863776","0.0-147.0","A5XQ30GQTHHK6","img_art/17.jpg","1","","","","","","","","","","","","","","","","","","","","","","","","",""
"2261","","image-button-response","151","866041","0.0-148.0-0.0","A5XQ30GQTHHK6","img_art/17.jpg","5","","","","","","","","","","","","","","","","","","","","","","","","",""
"2719","","image-button-response","152","868764","0.0-149.0-0.0","A5XQ30GQTHHK6","img_art/17.jpg","3","","","","","","","","","","","","","","","","","","","","","","","","",""
"null","","html-keyboard-response","153","869788","0.0-150.0","A5XQ30GQTHHK6","<p style=""font-size: 48px;"">+</p>","","","","","null","allTrialResponses","1000","1","15","img_art/17.jpg","42","beautiful colors and looks natural","Alexandria,Alicia,Taylor,Dominique,Sierra,Erica","it looks very intricate and colorful,50,80,20","Like this one, super creative, calming.,43,120,20","A very inspiring piece,41,340,20","Another favorite a relaxing day with nature a day to take it all In,34,400,20","the colors, the arch and the wall,15,260,20","Makes me warm and cozy just by looking at it,29,80,20","Alicia","Like this one, super creative, calming.,43,120,20","Erica","Makes me warm and cozy just by looking at it,29,80,20","Dominique","Another favorite a relaxing day with nature a day to take it all In,34,400,20","5"
"4191","","survey-text","154","874013","0.0-151.0-0.0","A5XQ30GQTHHK6","","","","{""Q0"":""course""}","","","","","","","","","","","","","","","","","","","","","","",""
"8710","","survey-text","155","882726","0.0-152.0-0.0","A5XQ30GQTHHK6","","","","{""Q0"":""Looks like a big fire.""}","","","","","","","","","","","","","","","","","","","","","","",""
"5415","","image-slider-response","156","888148","0.0-153.0","A5XQ30GQTHHK6","","","","","-28","","","","","","","","","","","","","","","","","","","","","",""
"null","","image-button-response","157","893166","0.0-154.0","A5XQ30GQTHHK6","img_art/1.jpg","null","","","","","","","","","","","","","","","","","","","","","","","","",""
"106","","image-button-response","158","893275","0.0-155.0","A5XQ30GQTHHK6","img_art/1.jpg","0","","","","","","","","","","","","","","","","","","","","","","","","",""
"3126","","image-button-response","159","896406","0.0-156.0-0.0","A5XQ30GQTHHK6","img_art/1.jpg","3","","","","","","","","","","","","","","","","","","","","","","","","",""
"2496","","image-button-response","160","898906","0.0-157.0-0.0","A5XQ30GQTHHK6","img_art/1.jpg","5","","","","","","","","","","","","","","","","","","","","","","","","",""
"null","","html-keyboard-response","161","899916","0.0-158.0","A5XQ30GQTHHK6","<p style=""font-size: 48px;"">+</p>","","","","","null","allTrialResponses","1000","1","16","img_art/1.jpg","-28","Looks like a big fire.","Kristen,Alicia,Makayla,Dominique,Isabella,Erica","river, fall, cozy, warm,12,280,20","just colors mixed together. not interesting.,5,120,20","Nothing whatsoever,2,80,20","I love the detail and colors like a beautiful autumn day,35,400,20","Warmth of the sun,22,280,20","Makes me warm and relaxed,38,80,20","Kristen","river, fall, cozy, warm,12,280,20","Dominique","I love the detail and colors like a beautiful autumn day,35,400,20","Erica","Makes me warm and relaxed,38,80,20","5"
"11600","","survey-text","162","911539","0.0-159.0-0.0","A5XQ30GQTHHK6","","","","{""Q0"":""Wrath of a god on a city""}","","","","","","","","","","","","","","","","","","","","","","",""
"3482","","image-slider-response","163","915026","0.0-160.0","A5XQ30GQTHHK6","","","","","9","","","","","","","","","","","","","","","","","","","","","",""
"4947","","image-button-response","164","920047","0.0-161.0","A5XQ30GQTHHK6","img_art/8.jpg","0","","","","","","","","","","","","","","","","","","","","","","","","",""
"5831","","image-button-response","165","925881","0.0-162.0","A5XQ30GQTHHK6","img_art/8.jpg","4","","","","","","","","","","","","","","","","","","","","","","","","",""
"1808","","image-button-response","166","927693","0.0-163.0-0.0","A5XQ30GQTHHK6","img_art/8.jpg","5","","","","","","","","","","","","","","","","","","","","","","","","",""
"1032","","image-button-response","167","928730","0.0-164.0-0.0","A5XQ30GQTHHK6","img_art/8.jpg","0","","","","","","","","","","","","","","","","","","","","","","","","",""
"null","","html-keyboard-response","168","929236","0.0-165.0","A5XQ30GQTHHK6","<p style=""font-size: 48px;"">+</p>","","","","","null","allTrialResponses","500","1","17","img_art/8.jpg","9","Wrath of a god on a city","Kristen,Cassandra,Danielle,Dominique,Sara,Erica","mothe nature/godess, watching over you,21,280,20","I like the colors and the scene.,24,120,20","Enjoy this, it looks like a rushing water pool, surrounded by mountains and buildings, hiding details such as faces.,30,340,20","This speaks volumes to me and is another favorite I'm sure by many,40,400,20","Very interesting use of blocks,21,160,20","Very busy, I want to look at it and investigate,23,80,20","Sara","Very interesting use of blocks,21,160,20","Erica","Very busy, I want to look at it and investigate,23,80,20","Kristen","mothe nature/godess, watching over you,21,280,20","5"
"16253","","survey-text","169","945524","0.0-166.0-0.0","A5XQ30GQTHHK6","","","","{""Q0"":""Odd mix of abstract and a paintbrush""}","","","","","","","","","","","","","","","","","","","","","","",""
"5109","","image-slider-response","170","950639","0.0-167.0","A5XQ30GQTHHK6","","","","","-25","","","","","","","","","","","","","","","","","","","","","",""
"4136","","image-button-response","171","955647","0.0-168.0","A5XQ30GQTHHK6","img_art/29.jpg","0","","","","","","","","","","","","","","","","","","","","","","","","",""
"3490","","image-button-response","172","959141","0.0-169.0","A5XQ30GQTHHK6","img_art/29.jpg","3","","","","","","","","","","","","","","","","","","","","","","","","",""
"1365","","image-button-response","173","960510","0.0-170.0-0.0","A5XQ30GQTHHK6","img_art/29.jpg","0","","","","","","","","","","","","","","","","","","","","","","","","",""
"2571","","image-button-response","174","963085","0.0-171.0-0.0","A5XQ30GQTHHK6","img_art/29.jpg","5","","","","","","","","","","","","","","","","","","","","","","","","",""
"null","","html-keyboard-response","175","964107","0.0-172.0","A5XQ30GQTHHK6","<p style=""font-size: 48px;"">+</p>","","","","","null","allTrialResponses","1000","1","18","img_art/29.jpg","-25","Odd mix of abstract and a paintbrush","Kristen,Ashley,Morgan,Lauren,Sara,Erica","danger, crime scene,,10,280,20","It that an actual PAINTBUSH! Love it.,50,320,20","Tested and failed a lot of ideas.,-20,380,20","Don't really like the red x. It gives the impression that this a discarded piece.,-10,340,20","I don't like the black,-50,160,20","Looks like an accident more than an art to me,-26,80,20","Lauren","Don't really like the red x. It gives the impression that this a discarded piece.,-10,340,20","Kristen","danger, crime scene,,10,280,20","Erica","Looks like an accident more than an art to me,-26,80,20","5"
"13176","","survey-text","176","977306","0.0-173.0-0.0","A5XQ30GQTHHK6","","","","{""Q0"":""Look like reeds under water at night""}","","","","","","","","","","","","","","","","","","","","","","",""
"3740","","image-slider-response","177","981051","0.0-174.0","A5XQ30GQTHHK6","","","","","24","","","","","","","","","","","","","","","","","","","","","",""
"null","","image-button-response","178","986068","0.0-175.0","A5XQ30GQTHHK6","img_art/15.jpg","null","","","","","","","","","","","","","","","","","","","","","","","","",""
"2351","","image-button-response","179","988422","0.0-176.0","A5XQ30GQTHHK6","img_art/15.jpg","3","","","","","","","","","","","","","","","","","","","","","","","","",""
"2055","","image-button-response","180","990481","0.0-177.0-0.0","A5XQ30GQTHHK6","img_art/15.jpg","4","","","","","","","","","","","","","","","","","","","","","","","","",""
"5896","","image-button-response","181","996384","0.0-178.0-0.0","A5XQ30GQTHHK6","img_art/15.jpg","2","","","","","","","","","","","","","","","","","","","","","","","","",""
"null","","html-keyboard-response","182","996896","0.0-179.0","A5XQ30GQTHHK6","<p style=""font-size: 48px;"">+</p>","","","","","null","allTrialResponses","500","1","19","img_art/15.jpg","24","Look like reeds under water at night","Kristen,Vanessa,Julia,Lauren,Nicole,Erica","darkness, hatred, fear,-29,280,20","I don't even know what's going on here. Again, this is too abstract.,-21,380,20","This is simply too ""old-school"",-27,40,20","Hard to tell what I'm looking at, but it does a gives a slight impression of a of garden.,5,340,20","Very cool, i want it in my living room,50,20,20","dark and I can not see a meaning behind it,-31,80,20","Lauren","Hard to tell what I'm looking at, but it does a gives a slight impression of a of garden.,5,340,20","Nicole","Very cool, i want it in my living room,50,20,20","Julia","This is simply too ""old-school"",-27,40,20","5"
"7323","","survey-text","183","1004233","0.0-180.0-0.0","A5XQ30GQTHHK6","","","","{""Q0"":""Calming colors""}","","","","","","","","","","","","","","","","","","","","","","",""
"4453","","image-slider-response","184","1008694","0.0-181.0","A5XQ30GQTHHK6","","","","","30","","","","","","","","","","","","","","","","","","","","","",""
"4752","","image-button-response","185","1013720","0.0-182.0","A5XQ30GQTHHK6","img_art/27.jpg","0","","","","","","","","","","","","","","","","","","","","","","","","",""
"4676","","image-button-response","186","1018404","0.0-183.0","A5XQ30GQTHHK6","img_art/27.jpg","4","","","","","","","","","","","","","","","","","","","","","","","","",""
"1352","","image-button-response","187","1019760","0.0-184.0-0.0","A5XQ30GQTHHK6","img_art/27.jpg","5","","","","","","","","","","","","","","","","","","","","","","","","",""
"7437","","image-button-response","188","1027202","0.0-185.0-0.0","A5XQ30GQTHHK6","img_art/27.jpg","1","","","","","","","","","","","","","","","","","","","","","","","","",""
"null","","html-keyboard-response","189","1028707","0.0-186.0","A5XQ30GQTHHK6","<p style=""font-size: 48px;"">+</p>","","","","","null","allTrialResponses","1500","1","20","img_art/27.jpg","30","Calming colors","Savannah,Shannon,Julia,Lauren,Nicole,Kaitlyn","An abstract piece with such lifeless colors.,-26,200,20","This image could do a better job of showing what is going on and it could use more colors.,-42,220,20","Colors could be more pleasing, but I really like the thinner lines superimposed over the background,25,40,20","Not a fan of the green; gives off the impression that someone else drew on it.,-20,340,20","Very cool colors and I like the contrast of lights and darks,30,20,20","The variation of orange is nice,9,80,20","Nicole","Very cool colors and I like the contrast of lights and darks,30,20,20","Kaitlyn","The variation of orange is nice,9,80,20","Shannon","This image could do a better job of showing what is going on and it could use more colors.,-42,220,20","5"
"5377","","survey-text","190","1034127","0.0-187.0-0.0","A5XQ30GQTHHK6","","","","{""Q0"":""we""}","","","","","","","","","","","","","","","","","","","","","","",""
"12592","","survey-text","191","1046723","0.0-188.0-0.0","A5XQ30GQTHHK6","","","","{""Q0"":""Busy city but needs more color""}","","","","","","","","","","","","","","","","","","","","","","",""
"3703","","image-slider-response","192","1050430","0.0-189.0","A5XQ30GQTHHK6","","","","","-5","","","","","","","","","","","","","","","","","","","","","",""
"4974","","image-button-response","193","1055447","0.0-190.0","A5XQ30GQTHHK6","img_art/26.jpg","0","","","","","","","","","","","","","","","","","","","","","","","","",""
"4185","","image-button-response","194","1059636","0.0-191.0","A5XQ30GQTHHK6","img_art/26.jpg","4","","","","","","","","","","","","","","","","","","","","","","","","",""
"1264","","image-button-response","195","1060904","0.0-192.0-0.0","A5XQ30GQTHHK6","img_art/26.jpg","5","","","","","","","","","","","","","","","","","","","","","","","","",""
"883","","image-button-response","196","1061793","0.0-193.0-0.0","A5XQ30GQTHHK6","img_art/26.jpg","0","","","","","","","","","","","","","","","","","","","","","","","","",""
"null","","html-keyboard-response","197","1062808","0.0-194.0","A5XQ30GQTHHK6","<p style=""font-size: 48px;"">+</p>","","","","","null","allTrialResponses","1000","1","21","img_art/26.jpg","-5","Busy city but needs more color","Marissa,Shannon,Molly,Destiny,Nicole,Kaitlyn","It feels simple and pretty,12,160,20","I like that it looks like an actual picture and isn't just random colors.,25,220,20","Nothing to say.,0,340,20","I really love pastels and they're just being dimmed down too much here,-3,360,20","It's relaxing to look at but I wish it was just a little more defined,20,20,20","The colors look faded and blurry,2,80,20","Nicole","It's relaxing to look at but I wish it was just a little more defined,20,20,20","Kaitlyn","The colors look faded and blurry,2,80,20","Marissa","It feels simple and pretty,12,160,20","5"
"12293","","survey-text","198","1075125","0.0-195.0-0.0","A5XQ30GQTHHK6","","","","{""Q0"":""Very odd mix and leaves me unsettled""}","","","","","","","","","","","","","","","","","","","","","","",""
"3271","","image-slider-response","199","1078405","0.0-196.0","A5XQ30GQTHHK6","","","","","-48","","","","","","","","","","","","","","","","","","","","","",""
"4162","","image-button-response","200","1083416","0.0-197.0","A5XQ30GQTHHK6","img_art/16.jpg","0","","","","","","","","","","","","","","","","","","","","","","","","",""
"1724","","image-button-response","201","1085145","0.0-198.0","A5XQ30GQTHHK6","img_art/16.jpg","3","","","","","","","","","","","","","","","","","","","","","","","","",""
"1758","","image-button-response","202","1086909","0.0-199.0-0.0","A5XQ30GQTHHK6","img_art/16.jpg","4","","","","","","","","","","","","","","","","","","","","","","","","",""
"2063","","image-button-response","203","1088977","0.0-200.0-0.0","A5XQ30GQTHHK6","img_art/16.jpg","5","","","","","","","","","","","","","","","","","","","","","","","","",""
"null","","html-keyboard-response","204","1089987","0.0-201.0","A5XQ30GQTHHK6","<p style=""font-size: 48px;"">+</p>","","","","","null","allTrialResponses","1000","1","22","img_art/16.jpg","-48","Very odd mix and leaves me unsettled","Marissa,Elizabeth,Olivia,Kayla,Nicole,Kaitlyn","I do not like this dark and twisted portrayal of childhood,-42,160,20","Picture seems unique,12,20,20","childhood horror,3,40,20","Looks upsetting. Like it's actually graphic violence but you can't tell.,-24,180,20","It's a little anxiety inducing in a good way,16,20,20","The bear is a weird choice,-22,80,20","Kayla","Looks upsetting. Like it's actually graphic violence but you can't tell.,-24,180,20","Nicole","It's a little anxiety inducing in a good way,16,20,20","Kaitlyn","The bear is a weird choice,-22,80,20","5"
"8098","","survey-text","205","1098122","0.0-202.0-0.0","A5XQ30GQTHHK6","","","","{""Q0"":""Relaxing waterfall.  Like it""}","","","","","","","","","","","","","","","","","","","","","","",""
"2939","","image-slider-response","206","1101068","0.0-203.0","A5XQ30GQTHHK6","","","","","40","","","","","","","","","","","","","","","","","","","","","",""
"2891","","image-button-response","207","1106076","0.0-204.0","A5XQ30GQTHHK6","img_art/24.jpg","1","","","","","","","","","","","","","","","","","","","","","","","","",""
"2663","","image-button-response","208","1108744","0.0-205.0","A5XQ30GQTHHK6","img_art/24.jpg","5","","","","","","","","","","","","","","","","","","","","","","","","",""
"784","","image-button-response","209","1109533","0.0-206.0-0.0","A5XQ30GQTHHK6","img_art/24.jpg","1","","","","","","","","","","","","","","","","","","","","","","","","",""
"564","","image-button-response","210","1110100","0.0-207.0-0.0","A5XQ30GQTHHK6","img_art/24.jpg","0","","","","","","","","","","","","","","","","","","","","","","","","",""
"null","","html-keyboard-response","211","1111617","0.0-208.0","A5XQ30GQTHHK6","<p style=""font-size: 48px;"">+</p>","","","","","null","allTrialResponses","1500","1","23","img_art/24.jpg","40","Relaxing waterfall.  Like it","Alexa,Bailey,Angelica,Kayla,Nicole,Kaitlyn","I absolutely adore this painting. The colors, designs, everything. It's phenomenal,50,40,20","Feels surreal, in a way, and vibrant,37,360,20","This looks ugly and simple, as if done by a young person.,-2,280,20","It looks like a poor dead bunny in a field of flowers. I don't want the bunny to be dead.,-37,180,20","The colors and brush strokes make it feel adventurous,20,20,20","I like the bright colors,16,80,20","Kaitlyn","I like the bright colors,16,80,20","Bailey","Feels surreal, in a way, and vibrant,37,360,20","Alexa","I absolutely adore this painting. The colors, designs, everything. It's phenomenal,50,40,20","5"
"7236","","survey-text","212","1118878","0.0-209.0-0.0","A5XQ30GQTHHK6","","","","{""Q0"":""Roller coaster time""}","","","","","","","","","","","","","","","","","","","","","","",""
"3303","","image-slider-response","213","1122189","0.0-210.0","A5XQ30GQTHHK6","","","","","5","","","","","","","","","","","","","","","","","","","","","",""
"null","","image-button-response","214","1127205","0.0-211.0","A5XQ30GQTHHK6","img_art/11.jpg","null","","","","","","","","","","","","","","","","","","","","","","","","",""
"1424","","image-button-response","215","1128633","0.0-212.0","A5XQ30GQTHHK6","img_art/11.jpg","3","","","","","","","","","","","","","","","","","","","","","","","","",""
"2190","","image-button-response","216","1130828","0.0-213.0-0.0","A5XQ30GQTHHK6","img_art/11.jpg","4","","","","","","","","","","","","","","","","","","","","","","","","",""
"870","","image-button-response","217","1131703","0.0-214.0-0.0","A5XQ30GQTHHK6","img_art/11.jpg","5","","","","","","","","","","","","","","","","","","","","","","","","",""
"null","","html-keyboard-response","218","1132710","0.0-215.0","A5XQ30GQTHHK6","<p style=""font-size: 48px;"">+</p>","","","","","null","allTrialResponses","1000","1","24","img_art/11.jpg","5","Roller coaster time","Alexa,Bailey,Cheyenne,Sophia,Angela,Kaitlyn","There's a lot going on in this painting but it is pleasing and neat looking,31,40,20","Kind of bizzare in that I can imagine ships or something from it.,11,360,20","Very good use of colors,44,200,20","WOW!  I love how the ships and the seas become one in this piece.,50,280,20","I like this one very much, especially the shades of gray.,30,260,20","Interesting use of color,9,80,20","Sophia","WOW!  I love how the ships and the seas become one in this piece.,50,280,20","Angela","I like this one very much, especially the shades of gray.,30,260,20","Kaitlyn","Interesting use of color,9,80,20","5"
"14466","","survey-text","219","1147191","0.0-216.0-0.0","A5XQ30GQTHHK6","","","","{""Q0"":""Sea serpant in the water maybe""}","","","","","","","","","","","","","","","","","","","","","","",""
"3408","","image-slider-response","220","1150605","0.0-217.0","A5XQ30GQTHHK6","","","","","-38","","","","","","","","","","","","","","","","","","","","","",""
"null","","image-button-response","221","1155622","0.0-218.0","A5XQ30GQTHHK6","img_art/10.jpg","null","","","","","","","","","","","","","","","","","","","","","","","","",""
"1182","","image-button-response","222","1156805","0.0-219.0","A5XQ30GQTHHK6","img_art/10.jpg","0","","","","","","","","","","","","","","","","","","","","","","","","",""
"5612","","image-button-response","223","1162423","0.0-220.0-0.0","A5XQ30GQTHHK6","img_art/10.jpg","5","","","","","","","","","","","","","","","","","","","","","","","","",""
"2485","","image-button-response","224","1164914","0.0-221.0-0.0","A5XQ30GQTHHK6","img_art/10.jpg","1","","","","","","","","","","","","","","","","","","","","","","","","",""
"null","","html-keyboard-response","225","1165422","0.0-222.0","A5XQ30GQTHHK6","<p style=""font-size: 48px;"">+</p>","","","","","null","allTrialResponses","500","1","25","img_art/10.jpg","-38","Sea serpant in the water maybe","Caitlin,Laura,Breanna,Sophia,Angela,Kaitlyn","The roller coaster from hell !!!,-10,80,20","I feel a state of readiness without anxiety.,24,320,20","Makes me feel amazed,23,380,20","This piece is very intriguing to me.,3,280,20","This makes me think of a city, specifically London.,20,260,20","Picture looks smudged,-7,80,20","Caitlin","The roller coaster from hell !!!,-10,80,20","Kaitlyn","Picture looks smudged,-7,80,20","Laura","I feel a state of readiness without anxiety.,24,320,20","5"
"5850","","survey-text","226","1171334","0.0-223.0-0.0","A5XQ30GQTHHK6","","","","{""Q0"":""table""}","","","","","","","","","","","","","","","","","","","","","","",""
"22168","","survey-text","227","1193504","0.0-224.0-0.0","A5XQ30GQTHHK6","","","","{""Q0"":""Tree and I thought picnic until I saw the pencil dog head""}","","","","","","","","","","","","","","","","","","","","","","",""
"3407","","image-slider-response","228","1196917","0.0-225.0","A5XQ30GQTHHK6","","","","","-32","","","","","","","","","","","","","","","","","","","","","",""
"2091","","image-button-response","229","1201930","0.0-226.0","A5XQ30GQTHHK6","img_art/14.jpg","1","","","","","","","","","","","","","","","","","","","","","","","","",""
"3137","","image-button-response","230","1205075","0.0-227.0","A5XQ30GQTHHK6","img_art/14.jpg","4","","","","","","","","","","","","","","","","","","","","","","","","",""
"920","","image-button-response","231","1206001","0.0-228.0-0.0","A5XQ30GQTHHK6","img_art/14.jpg","1","","","","","","","","","","","","","","","","","","","","","","","","",""
"2621","","image-button-response","232","1208625","0.0-229.0-0.0","A5XQ30GQTHHK6","img_art/14.jpg","2","","","","","","","","","","","","","","","","","","","","","","","","",""
"null","","html-keyboard-response","233","1209637","0.0-230.0","A5XQ30GQTHHK6","<p style=""font-size: 48px;"">+</p>","","","","","null","allTrialResponses","1000","1","26","img_art/14.jpg","-32","Tree and I thought picnic until I saw the pencil dog head","Caitlin,Laura,Hannah,Abigail,Leslie,Kaitlyn","Are they blowing up a tree?,-5,80,20","feels incomplete, poorly planned/executed,-34,320,20","This doesn't speak to me on an emotional level,-6,240,20","Reminds me of art class,22,20,20","This elicits no reaction in me.,0,380,20","Focal point is interesting,5,80,20","Leslie","This elicits no reaction in me.,0,380,20","Laura","feels incomplete, poorly planned/executed,-34,320,20","Hannah","This doesn't speak to me on an emotional level,-6,240,20","5"
"11819","","survey-text","234","1221490","0.0-231.0-0.0","A5XQ30GQTHHK6","","","","{""Q0"":""Odd little girl.  Little creepy""}","","","","","","","","","","","","","","","","","","","","","","",""
"4408","","image-slider-response","235","1225903","0.0-232.0","A5XQ30GQTHHK6","","","","","-39","","","","","","","","","","","","","","","","","","","","","",""
"3338","","image-button-response","236","1230927","0.0-233.0","A5XQ30GQTHHK6","img_art/2.jpg","2","","","","","","","","","","","","","","","","","","","","","","","","",""
"961","","image-button-response","237","1231892","0.0-234.0","A5XQ30GQTHHK6","img_art/2.jpg","4","","","","","","","","","","","","","","","","","","","","","","","","",""
"2806","","image-button-response","238","1234702","0.0-235.0-0.0","A5XQ30GQTHHK6","img_art/2.jpg","5","","","","","","","","","","","","","","","","","","","","","","","","",""
"870","","image-button-response","239","1235576","0.0-236.0-0.0","A5XQ30GQTHHK6","img_art/2.jpg","2","","","","","","","","","","","","","","","","","","","","","","","","",""
"null","","html-keyboard-response","240","1236598","0.0-237.0","A5XQ30GQTHHK6","<p style=""font-size: 48px;"">+</p>","","","","","null","allTrialResponses","1000","1","27","img_art/2.jpg","-39","Odd little girl.  Little creepy","Grace,Laura,Hannah,Melissa,Leslie,Chelsea","Like the colors but reminds me of a kids show done in cubism.,0,180,20","active and kinetic- simplified,14,320,20","Looks like child's art.,-19,240,20","appealing colors,4,240,20","The colors are entirely unappealing and very unpleasant to look at.,-20,380,20","Not sure what is happening. I'm not a big fan of the colors but they don't bother me either.,1,180,20","Leslie","The colors are entirely unappealing and very unpleasant to look at.,-20,380,20","Chelsea","Not sure what is happening. I'm not a big fan of the colors but they don't bother me either.,1,180,20","Hannah","Looks like child's art.,-19,240,20","5"
"11707","","survey-text","241","1248332","0.0-238.0-0.0","A5XQ30GQTHHK6","","","","{""Q0"":""Rain on a window.  Relaxing""}","","","","","","","","","","","","","","","","","","","","","","",""
"2840","","image-slider-response","242","1251176","0.0-239.0","A5XQ30GQTHHK6","","","","","43","","","","","","","","","","","","","","","","","","","","","",""
"2669","","image-button-response","243","1256182","0.0-240.0","A5XQ30GQTHHK6","img_art/13.jpg","3","","","","","","","","","","","","","","","","","","","","","","","","",""
"708","","image-button-response","244","1256894","0.0-241.0","A5XQ30GQTHHK6","img_art/13.jpg","2","","","","","","","","","","","","","","","","","","","","","","","","",""
"2162","","image-button-response","245","1259062","0.0-242.0-0.0","A5XQ30GQTHHK6","img_art/13.jpg","1","","","","","","","","","","","","","","","","","","","","","","","","",""
"3372","","image-button-response","246","1262441","0.0-243.0-0.0","A5XQ30GQTHHK6","img_art/13.jpg","3","","","","","","","","","","","","","","","","","","","","","","","","",""
"null","","html-keyboard-response","247","1263453","0.0-244.0","A5XQ30GQTHHK6","<p style=""font-size: 48px;"">+</p>","","","","","null","allTrialResponses","1000","1","28","img_art/13.jpg","43","Rain on a window.  Relaxing","Amy,Katelyn,Hannah,Erika,Leslie,Chelsea","I recognize the beauty of this but FOR ME its large degree of abstraction diminishes my emotional interaction.,-10,220,20","Really like this. Its like looking out a window into a beautiful storm,39,100,20","Like this a lot and would hang in my house.,27,240,20","Gorgeous contrast and color choice, very pleasing,50,100,20","This elicits no reaction in me.,0,380,20","The colors are okay but I don't like the shapes here.,-18,180,20","Hannah","Like this a lot and would hang in my house.,27,240,20","Katelyn","Really like this. Its like looking out a window into a beautiful storm,39,100,20","Erika","Gorgeous contrast and color choice, very pleasing,50,100,20","5"
"8839","","survey-text","248","1272311","0.0-245.0-0.0","A5XQ30GQTHHK6","","","","{""Q0"":""Boring.  Bird on a hill""}","","","","","","","","","","","","","","","","","","","","","","",""
"3667","","image-slider-response","249","1275984","0.0-246.0","A5XQ30GQTHHK6","","","","","-40","","","","","","","","","","","","","","","","","","","","","",""
"1893","","image-button-response","250","1281008","0.0-247.0","A5XQ30GQTHHK6","img_art/6.jpg","1","","","","","","","","","","","","","","","","","","","","","","","","",""
"1217","","image-button-response","251","1282233","0.0-248.0","A5XQ30GQTHHK6","img_art/6.jpg","4","","","","","","","","","","","","","","","","","","","","","","","","",""
"1179","","image-button-response","252","1283415","0.0-249.0-0.0","A5XQ30GQTHHK6","img_art/6.jpg","1","","","","","","","","","","","","","","","","","","","","","","","","",""
"3014","","image-button-response","253","1286434","0.0-250.0-0.0","A5XQ30GQTHHK6","img_art/6.jpg","2","","","","","","","","","","","","","","","","","","","","","","","","",""
"null","","html-keyboard-response","254","1286939","0.0-251.0","A5XQ30GQTHHK6","<p style=""font-size: 48px;"">+</p>","","","","","null","allTrialResponses","500","1","29","img_art/6.jpg","-40","Boring.  Bird on a hill","Catherine,Katelyn,Hannah,Erika,Autumn,Kelsey","Looking, searching at the same time being content.,30,160,20","Nothing grabs at me here,-11,100,20","Looks like a bird. It's fine.,7,240,20","Lonesome in nature,13,100,20","Bird? It's a bird.,23,340,20","its like a jalapeno,-28,240,20","Autumn","Bird? It's a bird.,23,340,20","Katelyn","Nothing grabs at me here,-11,100,20","Hannah","Looks like a bird. It's fine.,7,240,20","5"
"15289","","survey-text","255","1302245","0.0-252.0-0.0","A5XQ30GQTHHK6","","","","{""Q0"":""Two people but one looks like a huge mouse""}","","","","","","","","","","","","","","","","","","","","","","",""
"3076","","image-slider-response","256","1305327","0.0-253.0","A5XQ30GQTHHK6","","","","","-26","","","","","","","","","","","","","","","","","","","","","",""
"2015","","image-button-response","257","1310339","0.0-254.0","A5XQ30GQTHHK6","img_art/28.jpg","1","","","","","","","","","","","","","","","","","","","","","","","","",""
"1129","","image-button-response","258","1311474","0.0-255.0","A5XQ30GQTHHK6","img_art/28.jpg","3","","","","","","","","","","","","","","","","","","","","","","","","",""
"822","","image-button-response","259","1312301","0.0-256.0-0.0","A5XQ30GQTHHK6","img_art/28.jpg","4","","","","","","","","","","","","","","","","","","","","","","","","",""
"858","","image-button-response","260","1313164","0.0-257.0-0.0","A5XQ30GQTHHK6","img_art/28.jpg","1","","","","","","","","","","","","","","","","","","","","","","","","",""
"null","","html-keyboard-response","261","1314180","0.0-258.0","A5XQ30GQTHHK6","<p style=""font-size: 48px;"">+</p>","","","","","null","allTrialResponses","1000","1","30","img_art/28.jpg","-26","Two people but one looks like a huge mouse","Briana,Katelyn,Hannah,Megan,Autumn,Michaela","Is this anything?,-20,400,20","Just all blurs together for me. No substance.,-23,100,20","The colors are drab and a little depressing.,-20,240,20","Compact grey mess lack negative space,-10,200,20","Looks yucky and poor.,-33,340,20","Salvador Dali called and he thinks this looks pretty good,27,260,20","Megan","Compact grey mess lack negative space,-10,200,20","Autumn","Looks yucky and poor.,-33,340,20","Katelyn","Just all blurs together for me. No substance.,-23,100,20","5"
"3760","","image-button-response_instructions","262","1317982","0.0-259.0","A5XQ30GQTHHK6","","0","instructions","","","","","","","","","","","","","","","","","","","","","","","",""
