"rt","url","trial_type","trial_index","time_elapsed","internal_node_id","participant_id","stimulus","button_pressed","Name","responses","response","key_press","variableName","fixationTime","condition","trial","photo","subjectRating","subjectResponse","agentsNames","agent_1_Response","agent_2_Response","agent_3_Response","agent_4_Response","agent_5_Response","agent_6_Response","kept_1_name","kept_1_response","kept_2_name","kept_2_response","kept_3_name","kept_3_response","errorCounter"
"10077","external_page_harvard.html","external-html","0","10156","0.0-0.0","A74WSJU2N2I0U","","","","","","","","","","","","","","","","","","","","","","","","","","",""
"2596","","image-button-response","1","12753","0.0-1.0","A74WSJU2N2I0U","","0","","","","","","","","","","","","","","","","","","","","","","","","",""
"1525","","image-button-response","2","14281","0.0-2.0-0.0","A74WSJU2N2I0U","","1","phone","","","","","","","","","","","","","","","","","","","","","","","",""
"7436","","survey-text","3","21718","0.0-3.0-0.0","A74WSJU2N2I0U","","","","{""Q0"":""A74WSJU2N2I0U""}","","","","","","","","","","","","","","","","","","","","","","",""
"3799","","image-button-response_instructions","4","25519","0.0-4.0","A74WSJU2N2I0U","","0","instructions","","","","","","","","","","","","","","","","","","","","","","","",""
"10477","","image-button-response_instructions","5","35998","0.0-5.0","A74WSJU2N2I0U","img_art/ins/popularity/ins1.png","0","instructions","","","","","","","","","","","","","","","","","","","","","","","",""
"4249","","image-button-response_instructions","6","40247","0.0-6.0","A74WSJU2N2I0U","img_art/ins/popularity/ins2.png","0","instructions","","","","","","","","","","","","","","","","","","","","","","","",""
"6128","","image-button-response_instructions","7","46376","0.0-7.0","A74WSJU2N2I0U","img_art/ins/popularity/ins2Extreme.png","0","instructions","","","","","","","","","","","","","","","","","","","","","","","",""
"13606","","image-button-response_instructions","8","59983","0.0-8.0","A74WSJU2N2I0U","img_art/ins/popularity/ins3KEEPpop.PNG","0","instructions","","","","","","","","","","","","","","","","","","","","","","","",""
"13895","","image-button-response_instructions","9","73879","0.0-9.0","A74WSJU2N2I0U","img_art/ins/popularity/ins3ANamepop.PNG","0","instructions","","","","","","","","","","","","","","","","","","","","","","","",""
"2893","","image-button-response_instructions","10","76773","0.0-10.0","A74WSJU2N2I0U","img_art/ins/popularity/ins3ARatingpop.png","0","instructions","","","","","","","","","","","","","","","","","","","","","","","",""
"1700","","image-button-response_instructions","11","78474","0.0-11.0","A74WSJU2N2I0U","img_art/ins/popularity/ins3ATextpop.png","0","instructions","","","","","","","","","","","","","","","","","","","","","","","",""
"2247","","image-button-response_instructions","12","80722","0.0-12.0","A74WSJU2N2I0U","img_art/ins/popularity/ins3ALikespop.png","0","instructions","","","","","","","","","","","","","","","","","","","","","","","",""
"5657","","image-button-response_instructions","13","86381","0.0-13.0","A74WSJU2N2I0U","img_art/ins/popularity/ins3KEEPpop.PNG","0","instructions","","","","","","","","","","","","","","","","","","","","","","","",""
"6454","","image-button-response_instructions","14","92836","0.0-14.0","A74WSJU2N2I0U","img_art/ins/popularity/ins3_5RED.png","0","instructions","","","","","","","","","","","","","","","","","","","","","","","",""
"2227","","image-button-response_instructions","15","95064","0.0-15.0","A74WSJU2N2I0U","img_art/ins/popularity/ins3KEEPpop.PNG","0","instructions","","","","","","","","","","","","","","","","","","","","","","","",""
"5013","","image-button-response_instructions","16","100077","0.0-16.0","A74WSJU2N2I0U","img_art/ins/popularity/ins4KEEPpop.PNG","0","instructions","","","","","","","","","","","","","","","","","","","","","","","",""
"2555","","image-button-response_instructions","17","102634","0.0-17.0","A74WSJU2N2I0U","img_art/ins/popularity/ins5KEEPpop.PNG","0","instructions","","","","","","","","","","","","","","","","","","","","","","","",""
"1451","","image-button-response_instructions","18","104085","0.0-18.0","A74WSJU2N2I0U","","0","instructions","","","","","","","","","","","","","","","","","","","","","","","",""
"6457","","survey-text","19","110559","0.0-19.0-0.0","A74WSJU2N2I0U","","","","{""Q0"":""but""}","","","","","","","","","","","","","","","","","","","","","","",""
"16583","","survey-text","20","127142","0.0-20.0-0.0","A74WSJU2N2I0U","","","","{""Q0"":""It looks messy and weird""}","","","","","","","","","","","","","","","","","","","","","","",""
"3656.2999999523163","","image-slider-response","21","130801","0.0-21.0","A74WSJU2N2I0U","","","","","-41","","","","","","","","","","","","","","","","","","","","","",""
"null","","image-button-response","22","135804","0.0-22.0","A74WSJU2N2I0U","img_art/ins/1.jpg","null","","","","","","","","","","","","","","","","","","","","","","","","",""
"4048","","image-button-response","23","139853","0.0-23.0","A74WSJU2N2I0U","img_art/ins/1.jpg","4","","","","","","","","","","","","","","","","","","","","","","","","",""
"1700","","image-button-response","24","141554","0.0-24.0-0.0","A74WSJU2N2I0U","img_art/ins/1.jpg","2","","","","","","","","","","","","","","","","","","","","","","","","",""
"4674","","image-button-response","25","146230","0.0-25.0-0.0","A74WSJU2N2I0U","img_art/ins/1.jpg","0","","","","","","","","","","","","","","","","","","","","","","","","",""
"null","","html-keyboard-response","26","146743","0.0-26.0","A74WSJU2N2I0U","<p style=""font-size: 48px;"">+</p>","","","","","null","allTrialResponses","500","1","-2","img_art/ins/1.jpg","-41","It looks messy and weird","Adam,Alex,Ben,Carl,Daniel,Jack","Seems like doodles,-20,20,20","very creative work.,36,40,20","This color reminds me of poo,-46,60,20","very calming artwork,42,80,20","It looks like a murder scene.,-48,100,20","I like the sophisticated brushwork,40,120,20","Daniel","It looks like a murder scene.,-48,100,20","Ben","This color reminds me of poo,-46,60,20","Adam","Seems like doodles,-20,20,20","0"
"11676","","survey-text","27","158421","0.0-27.0-0.0","A74WSJU2N2I0U","","","","{""Q0"":""It looks like a house""}","","","","","","","","","","","","","","","","","","","","","","",""
"3546.5","","image-slider-response","28","161969","0.0-28.0","A74WSJU2N2I0U","","","","","19","","","","","","","","","","","","","","","","","","","","","",""
"4794","","image-button-response","29","166985","0.0-29.0","A74WSJU2N2I0U","img_art/ins/2.jpg","3","","","","","","","","","","","","","","","","","","","","","","","","",""
"455","","image-button-response","30","167442","0.0-30.0","A74WSJU2N2I0U","img_art/ins/2.jpg","5","","","","","","","","","","","","","","","","","","","","","","","","",""
"745","","image-button-response","31","168188","0.0-31.0-0.0","A74WSJU2N2I0U","img_art/ins/2.jpg","3","","","","","","","","","","","","","","","","","","","","","","","","",""
"2696","","image-button-response","32","170885","0.0-32.0-0.0","A74WSJU2N2I0U","img_art/ins/2.jpg","2","","","","","","","","","","","","","","","","","","","","","","","","",""
"null","","html-keyboard-response","33","171393","0.0-33.0","A74WSJU2N2I0U","<p style=""font-size: 48px;"">+</p>","","","","","null","allTrialResponses","500","1","-1","img_art/ins/2.jpg","19","It looks like a house","Adam,John,Ben,James,Daniel,Kyle","too much color,-18,20,20","love the texture of paint,48,160,20","meaningless painting,-45,60,20","looks too angry,-50,140,20","One of my pet peevs,-48,100,20","Idk, it is just annoying,-32,180,20","Kyle","Idk, it is just annoying,-32,180,20","James","looks too angry,-50,140,20","Ben","meaningless painting,-45,60,20","0"
"14573","","survey-text","34","185969","0.0-34.0-0.0","A74WSJU2N2I0U","","","","{""Q0"":""I don't get it but the colors are cool""}","","","","","","","","","","","","","","","","","","","","","","",""
"2984.600000023842","","image-slider-response","35","188955","0.0-35.0","A74WSJU2N2I0U","","","","","39","","","","","","","","","","","","","","","","","","","","","",""
"3657","","image-button-response","36","193961","0.0-36.0","A74WSJU2N2I0U","img_art/ins/3.jpg","5","","","","","","","","","","","","","","","","","","","","","","","","",""
"522","","image-button-response","37","194484","0.0-37.0","A74WSJU2N2I0U","img_art/ins/3.jpg","0","","","","","","","","","","","","","","","","","","","","","","","","",""
"2048","","image-button-response","38","196534","0.0-38.0-0.0","A74WSJU2N2I0U","img_art/ins/3.jpg","0","","","","","","","","","","","","","","","","","","","","","","","","",""
"447","","image-button-response","39","201618","0.0-38.1-0.1","A74WSJU2N2I0U","img_art/ins/3.jpg","3","","","","","","","","","","","","","","","","","","","","","","","","",""
"1759","","image-button-response","40","203379","0.0-39.0-0.0","A74WSJU2N2I0U","img_art/ins/3.jpg","5","","","","","","","","","","","","","","","","","","","","","","","","",""
"null","","html-keyboard-response","41","204894","0.0-40.0","A74WSJU2N2I0U","<p style=""font-size: 48px;"">+</p>","","","","","null","allTrialResponses","1500","1","0","img_art/ins/3.jpg","39","I don't get it but the colors are cool","Sam,Mike,Ben,James,Ron,Kyle","I can feel a rainy day from this painting,18,240,20","enjoy the different shades of blue,22,200,20","This thing gives me anxiety,-41,60,20","My worst nightmare,-42,140,20","It looks depressing,-26,220,20","It looks like a playground for bats,-36,180,20","Sam","I can feel a rainy day from this painting,18,240,20","James","My worst nightmare,-42,140,20","Kyle","It looks like a playground for bats,-36,180,20","2"
"4780","","image-button-response_instructions","42","209677","0.0-41.0","A74WSJU2N2I0U","","0","instructions","","","","","","","","","","","","","","","","","","","","","","","",""
"10526","","survey-likert","43","220204","0.0-42.0-0.0","A74WSJU2N2I0U","","","","{""Q0"":"""",""Q1"":0,""Q2"":1}","","","","","","","","","","","","","","","","","","","","","","",""
"3918","","survey-text","44","224125","0.0-43.0-0.0","A74WSJU2N2I0U","","","","{""Q0"":""rock""}","","","","","","","","","","","","","","","","","","","","","","",""
"19621","","survey-text","45","243747","0.0-44.0-0.0","A74WSJU2N2I0U","","","","{""Q0"":""They are like souls that just left their bodies""}","","","","","","","","","","","","","","","","","","","","","","",""
"2855.600000023842","","image-slider-response","46","246604","0.0-45.0","A74WSJU2N2I0U","","","","","44","","","","","","","","","","","","","","","","","","","","","",""
"null","","image-button-response","47","251620","0.0-46.0","A74WSJU2N2I0U","img_art/23.jpg","null","","","","","","","","","","","","","","","","","","","","","","","","",""
"197","","image-button-response","48","251818","0.0-47.0","A74WSJU2N2I0U","img_art/23.jpg","5","","","","","","","","","","","","","","","","","","","","","","","","",""
"3272","","image-button-response","49","255092","0.0-48.0-0.0","A74WSJU2N2I0U","img_art/23.jpg","3","","","","","","","","","","","","","","","","","","","","","","","","",""
"1900","","image-button-response","50","256993","0.0-49.0-0.0","A74WSJU2N2I0U","img_art/23.jpg","4","","","","","","","","","","","","","","","","","","","","","","","","",""
"null","","html-keyboard-response","51","257496","0.0-50.0","A74WSJU2N2I0U","<p style=""font-size: 48px;"">+</p>","","","","","null","allTrialResponses","500","1","1","img_art/23.jpg","44","They are like souls that just left their bodies","Antonio,Bryan,Jeremy,Joshua,Derek,Richard","Like the colors and made me feel happy,23,220,20","Looks like fireworks.,21,400,20","Does not incite any emotional response,1,60,20","This one is interesting. Looks like people with maybe musical instruments?,11,240,20","Very colorful and wild. It's cool and I like it,32,360,20","it's OK, but just OK, kind of interesting but I wouldn't spend money on it,4,340,20","Richard","it's OK, but just OK, kind of interesting but I wouldn't spend money on it,4,340,20","Joshua","This one is interesting. Looks like people with maybe musical instruments?,11,240,20","Derek","Very colorful and wild. It's cool and I like it,32,360,20","2"
"10655","","survey-text","52","268154","0.0-51.0-0.0","A74WSJU2N2I0U","","","","{""Q0"":""It brings me back to my childhood somehow""}","","","","","","","","","","","","","","","","","","","","","","",""
"3508.399999976158","","image-slider-response","53","271664","0.0-52.0","A74WSJU2N2I0U","","","","","50","","","","","","","","","","","","","","","","","","","","","",""
"null","","image-button-response","54","277196","0.0-53.0","A74WSJU2N2I0U","img_art/4.jpg","null","","","","","","","","","","","","","","","","","","","","","","","","",""
"5130","","image-button-response","55","282327","0.0-54.0","A74WSJU2N2I0U","img_art/4.jpg","1","","","","","","","","","","","","","","","","","","","","","","","","",""
"2475","","image-button-response","56","284804","0.0-55.0-0.0","A74WSJU2N2I0U","img_art/4.jpg","2","","","","","","","","","","","","","","","","","","","","","","","","",""
"1372","","image-button-response","57","286177","0.0-56.0-0.0","A74WSJU2N2I0U","img_art/4.jpg","3","","","","","","","","","","","","","","","","","","","","","","","","",""
"null","","html-keyboard-response","58","286679","0.0-57.0","A74WSJU2N2I0U","<p style=""font-size: 48px;"">+</p>","","","","","null","allTrialResponses","500","1","2","img_art/4.jpg","50","It brings me back to my childhood somehow","Nicholas,Chase,Kenneth,Joshua,Derek,Richard","I domt like the yellow black blended smear,-50,240,20","It looks like smeared poop.,-27,120,20","The longer I stare at this the less I like it.,-19,300,20","looks very rudimentary and too simple.,-14,240,20","A bit too plain for my tastes,-10,360,20","too childish, not really art in my world,-50,340,20","Chase","It looks like smeared poop.,-27,120,20","Kenneth","The longer I stare at this the less I like it.,-19,300,20","Joshua","looks very rudimentary and too simple.,-14,240,20","2"
"19948","","survey-text","59","306629","0.0-58.0-0.0","A74WSJU2N2I0U","","","","{""Q0"":""No real art. It looks like a coastline?""}","","","","","","","","","","","","","","","","","","","","","","",""
"7231.600000023842","","image-slider-response","60","313862","0.0-59.0","A74WSJU2N2I0U","","","","","15","","","","","","","","","","","","","","","","","","","","","",""
"4998","","image-button-response","61","318863","0.0-60.0","A74WSJU2N2I0U","img_art/21.jpg","1","","","","","","","","","","","","","","","","","","","","","","","","",""
"555","","image-button-response","62","319419","0.0-61.0","A74WSJU2N2I0U","img_art/21.jpg","1","","","","","","","","","","","","","","","","","","","","","","","","",""
"2168","","image-button-response","63","321588","0.0-62.0-0.0","A74WSJU2N2I0U","img_art/21.jpg","3","","","","","","","","","","","","","","","","","","","","","","","","",""
"1659","","image-button-response","64","323249","0.0-63.0-0.0","A74WSJU2N2I0U","img_art/21.jpg","5","","","","","","","","","","","","","","","","","","","","","","","","",""
"null","","html-keyboard-response","65","324251","0.0-64.0","A74WSJU2N2I0U","<p style=""font-size: 48px;"">+</p>","","","","","null","allTrialResponses","1000","1","3","img_art/21.jpg","15","No real art. It looks like a coastline?","Vincent,Chase,Kenneth,Joshua,Logan,Mark","Love the colors have to say this is my favorite above all,37,360,20","Kind of looks like a sky with a storm or tornado.,10,120,20","It actually reminded me of a place I've been to. So I had a positive reaction to it.,22,300,20","Boring colors and look. Too much 1980s.,-20,240,20","Pink is my favorite, against blue it looks like sunset. Seems like a boat burning down, so don't absolutely love it,23,360,20","It feels like a day at sea but the pink is slightly jarring and holding my eye.,26,80,20","Chase","Kind of looks like a sky with a storm or tornado.,10,120,20","Joshua","Boring colors and look. Too much 1980s.,-20,240,20","Mark","It feels like a day at sea but the pink is slightly jarring and holding my eye.,26,80,20","2"
"9115","","survey-text","66","333370","0.0-65.0-0.0","A74WSJU2N2I0U","","","","{""Q0"":""They tried to paint a plant I guess""}","","","","","","","","","","","","","","","","","","","","","","",""
"3432.899999976158","","image-slider-response","67","336804","0.0-66.0","A74WSJU2N2I0U","","","","","-35","","","","","","","","","","","","","","","","","","","","","",""
"4981","","image-button-response","68","341806","0.0-67.0","A74WSJU2N2I0U","img_art/14.jpg","1","","","","","","","","","","","","","","","","","","","","","","","","",""
"397","","image-button-response","69","342205","0.0-68.0","A74WSJU2N2I0U","img_art/14.jpg","1","","","","","","","","","","","","","","","","","","","","","","","","",""
"1273","","image-button-response","70","343479","0.0-69.0-0.0","A74WSJU2N2I0U","img_art/14.jpg","0","","","","","","","","","","","","","","","","","","","","","","","","",""
"1550","","image-button-response","71","345031","0.0-70.0-0.0","A74WSJU2N2I0U","img_art/14.jpg","0","","","","","","","","","","","","","","","","","","","","","","","","",""
"834","","image-button-response","72","349121","0.0-70.1-0.1","A74WSJU2N2I0U","img_art/14.jpg","3","","","","","","","","","","","","","","","","","","","","","","","","",""
"null","","html-keyboard-response","73","349647","0.0-71.0","A74WSJU2N2I0U","<p style=""font-size: 48px;"">+</p>","","","","","null","allTrialResponses","500","1","4","img_art/14.jpg","-35","They tried to paint a plant I guess","Malik,Chase,Justin,Joshua,Jake,Mark","It's alright, something I'd see in a guest bedroom,10,40,20","It kind of looks like a tree but I feel very netural.,0,120,20","The colors are good and the design is intriguing.,15,280,20","This doesn't speak to me on an emotional level,-6,240,20","This is poorly done and not aesthetically appealing.,-2,360,20","Cute little plant.,15,80,20","Chase","It kind of looks like a tree but I feel very netural.,0,120,20","Malik","It's alright, something I'd see in a guest bedroom,10,40,20","Joshua","This doesn't speak to me on an emotional level,-6,240,20","4"
"16599","","survey-text","74","366249","0.0-72.0-0.0","A74WSJU2N2I0U","","","","{""Q0"":""It's like a prehistoric painting depicting an alien""}","","","","","","","","","","","","","","","","","","","","","","",""
"2760.7000000476837","","image-slider-response","75","369011","0.0-73.0","A74WSJU2N2I0U","","","","","50","","","","","","","","","","","","","","","","","","","","","",""
"2447","","image-button-response","76","374017","0.0-74.0","A74WSJU2N2I0U","img_art/25.jpg","0","","","","","","","","","","","","","","","","","","","","","","","","",""
"1379","","image-button-response","77","375399","0.0-75.0","A74WSJU2N2I0U","img_art/25.jpg","0","","","","","","","","","","","","","","","","","","","","","","","","",""
"4257","","image-button-response","78","379658","0.0-76.0-0.0","A74WSJU2N2I0U","img_art/25.jpg","2","","","","","","","","","","","","","","","","","","","","","","","","",""
"5054","","image-button-response","79","384714","0.0-77.0-0.0","A74WSJU2N2I0U","img_art/25.jpg","3","","","","","","","","","","","","","","","","","","","","","","","","",""
"null","","html-keyboard-response","80","385215","0.0-78.0","A74WSJU2N2I0U","<p style=""font-size: 48px;"">+</p>","","","","","null","allTrialResponses","500","1","5","img_art/25.jpg","50","It's like a prehistoric painting depicting an alien","Malik,Chase,Bradley,Joshua,Nathaniel,Jesse","Very cryptic and ancient,36,40,20","Not particularly interesting for me. The green color is strange mixed with this.,-11,120,20","This one just has a dark feeling to me.,-50,300,20","Looks like a voodoo figure in a New Orleans cemetery at night.,-5,240,20","I love the background color and it's creepy...but cool.,30,220,20","Creates a bit of fear in me for some reason,-26,80,20","Malik","Very cryptic and ancient,36,40,20","Bradley","This one just has a dark feeling to me.,-50,300,20","Joshua","Looks like a voodoo figure in a New Orleans cemetery at night.,-5,240,20","4"
"2536","","survey-text","81","387757","0.0-79.0-0.0","A74WSJU2N2I0U","","","","{""Q0"":""sky""}","","","","","","","","","","","","","","","","","","","","","","",""
"5645","","survey-text","82","393402","0.0-80.0-0.0","A74WSJU2N2I0U","","","","{""Q0"":""I hate it, it makes no sense""}","","","","","","","","","","","","","","","","","","","","","","",""
"6537","","image-slider-response","83","399941","0.0-81.0","A74WSJU2N2I0U","","","","","-50","","","","","","","","","","","","","","","","","","","","","",""
"null","","image-button-response","84","404953","0.0-82.0","A74WSJU2N2I0U","img_art/3.jpg","null","","","","","","","","","","","","","","","","","","","","","","","","",""
"328","","image-button-response","85","405282","0.0-83.0","A74WSJU2N2I0U","img_art/3.jpg","3","","","","","","","","","","","","","","","","","","","","","","","","",""
"4233","","image-button-response","86","409517","0.0-84.0-0.0","A74WSJU2N2I0U","img_art/3.jpg","5","","","","","","","","","","","","","","","","","","","","","","","","",""
"1054","","image-button-response","87","410572","0.0-85.0-0.0","A74WSJU2N2I0U","img_art/3.jpg","1","","","","","","","","","","","","","","","","","","","","","","","","",""
"null","","html-keyboard-response","88","412082","0.0-86.0","A74WSJU2N2I0U","<p style=""font-size: 48px;"">+</p>","","","","","null","allTrialResponses","1500","1","6","img_art/3.jpg","-50","I hate it, it makes no sense","Malik,Shawn,Bradley,Joshua,Carlos,Isaiah","Unaure what the artist  was doing, needs context,11,40,20","Powerful lines but seems incomplete,-10,100,20","Marker gone wild?  Not sure what's going on here.,-21,300,20","Looks like a Basquiat but just not my cup of tea.,-29,240,20","The composition keeps the eye moving, the colors are satisfying.,31,80,20","I feel uncomfortable, like I am looking at a crime scene.,-17,300,20","Joshua","Looks like a Basquiat but just not my cup of tea.,-29,240,20","Isaiah","I feel uncomfortable, like I am looking at a crime scene.,-17,300,20","Shawn","Powerful lines but seems incomplete,-10,100,20","4"
"9720","","survey-text","89","421804","0.0-87.0-0.0","A74WSJU2N2I0U","","","","{""Q0"":""It looks like a tribal mask""}","","","","","","","","","","","","","","","","","","","","","","",""
"4145.5","","image-slider-response","90","425951","0.0-88.0","A74WSJU2N2I0U","","","","","-50","","","","","","","","","","","","","","","","","","","","","",""
"3475","","image-button-response","91","430956","0.0-89.0","A74WSJU2N2I0U","img_art/2.jpg","5","","","","","","","","","","","","","","","","","","","","","","","","",""
"10818","","image-button-response","92","441775","0.0-90.0","A74WSJU2N2I0U","img_art/2.jpg","0","","","","","","","","","","","","","","","","","","","","","","","","",""
"375","","image-button-response","93","442152","0.0-91.0-0.0","A74WSJU2N2I0U","img_art/2.jpg","1","","","","","","","","","","","","","","","","","","","","","","","","",""
"859","","image-button-response","94","443013","0.0-92.0-0.0","A74WSJU2N2I0U","img_art/2.jpg","4","","","","","","","","","","","","","","","","","","","","","","","","",""
"null","","html-keyboard-response","95","444517","0.0-93.0","A74WSJU2N2I0U","<p style=""font-size: 48px;"">+</p>","","","","","null","allTrialResponses","1500","1","7","img_art/2.jpg","-50","It looks like a tribal mask","Spencer,Shawn,Jordan,Joshua,Timothy,Isaiah","Kind of looks upside down, I need a focal point,-29,120,20","The color choices and lines seem a bit sloppy?,-10,100,20","Reminds me of my baby brother,11,160,20","Looks like child's art.,-19,240,20","The contrasting colors are a bit harsh,-10,240,20","I feel claustrophobic. I'm looking at a busy shop, but the simple shapes and continuous colors make it hectic.,-8,300,20","Spencer","Kind of looks upside down, I need a focal point,-29,120,20","Shawn","The color choices and lines seem a bit sloppy?,-10,100,20","Timothy","The contrasting colors are a bit harsh,-10,240,20","4"
"12872","","survey-text","96","457391","0.0-94.0-0.0","A74WSJU2N2I0U","","","","{""Q0"":""It's very basic. Made by a child""}","","","","","","","","","","","","","","","","","","","","","","",""
"31624.399999976158","","image-slider-response","97","489017","0.0-95.0","A74WSJU2N2I0U","","","","","-50","","","","","","","","","","","","","","","","","","","","","",""
"3382","","image-button-response","98","494019","0.0-96.0","A74WSJU2N2I0U","img_art/27.jpg","2","","","","","","","","","","","","","","","","","","","","","","","","",""
"440","","image-button-response","99","494460","0.0-97.0","A74WSJU2N2I0U","img_art/27.jpg","3","","","","","","","","","","","","","","","","","","","","","","","","",""
"2984","","image-button-response","100","497444","0.0-98.0-0.0","A74WSJU2N2I0U","img_art/27.jpg","5","","","","","","","","","","","","","","","","","","","","","","","","",""
"705","","image-button-response","101","498151","0.0-99.0-0.0","A74WSJU2N2I0U","img_art/27.jpg","4","","","","","","","","","","","","","","","","","","","","","","","","",""
"null","","html-keyboard-response","102","498656","0.0-100.0","A74WSJU2N2I0U","<p style=""font-size: 48px;"">+</p>","","","","","null","allTrialResponses","500","1","8","img_art/27.jpg","-50","It's very basic. Made by a child","Spencer,Shawn,Joseph,Cole,Timothy,Isaac","An attractive assortment of squiggles and colors,22,120,20","Like the movement of the lines and dripping paint.,30,100,20","Don't know what it is, but I do like it.,10,220,20","Unfinished something?,-30,200,20","The colors in this one are wonderful,20,240,20","The green lines look like a child drew over a painting.,-36,280,20","Cole","Unfinished something?,-30,200,20","Isaac","The green lines look like a child drew over a painting.,-36,280,20","Timothy","The colors in this one are wonderful,20,240,20","4"
"3518","","survey-text","103","502176","0.0-101.0-0.0","A74WSJU2N2I0U","","","","{""Q0"":""Horrible""}","","","","","","","","","","","","","","","","","","","","","","",""
"2813.8000000715256","","image-slider-response","104","504991","0.0-102.0","A74WSJU2N2I0U","","","","","-50","","","","","","","","","","","","","","","","","","","","","",""
"null","","image-button-response","105","509993","0.0-103.0","A74WSJU2N2I0U","img_art/15.jpg","null","","","","","","","","","","","","","","","","","","","","","","","","",""
"443","","image-button-response","106","510437","0.0-104.0","A74WSJU2N2I0U","img_art/15.jpg","4","","","","","","","","","","","","","","","","","","","","","","","","",""
"1650","","image-button-response","107","512089","0.0-105.0-0.0","A74WSJU2N2I0U","img_art/15.jpg","2","","","","","","","","","","","","","","","","","","","","","","","","",""
"1311","","image-button-response","108","513402","0.0-106.0-0.0","A74WSJU2N2I0U","img_art/15.jpg","5","","","","","","","","","","","","","","","","","","","","","","","","",""
"null","","html-keyboard-response","109","514413","0.0-107.0","A74WSJU2N2I0U","<p style=""font-size: 48px;"">+</p>","","","","","null","allTrialResponses","1000","1","9","img_art/15.jpg","-50","Horrible","Kevin,Kyle,Alexander,Cole,Timothy,Isaac","Weird fuzzball bush.,22,320,20","I like it as the colors complement each other well,21,340,20","Leafs spread on the ground.,27,120,20","It reminds me of when you look up into a tree,21,200,20","This painting gives a calm vibe but no stronger emotions than that,10,240,20","The colors are too busy.,-39,280,20","Timothy","This painting gives a calm vibe but no stronger emotions than that,10,240,20","Alexander","Leafs spread on the ground.,27,120,20","Isaac","The colors are too busy.,-39,280,20","4"
"16059","","survey-text","110","530475","0.0-108.0-0.0","A74WSJU2N2I0U","","","","{""Q0"":""Nice depth. The red X ruins it all""}","","","","","","","","","","","","","","","","","","","","","","",""
"1618.6000000238419","","image-slider-response","111","532095","0.0-109.0","A74WSJU2N2I0U","","","","","37","","","","","","","","","","","","","","","","","","","","","",""
"3848","","image-button-response","112","537107","0.0-110.0","A74WSJU2N2I0U","img_art/29.jpg","3","","","","","","","","","","","","","","","","","","","","","","","","",""
"1949","","image-button-response","113","539058","0.0-111.0","A74WSJU2N2I0U","img_art/29.jpg","3","","","","","","","","","","","","","","","","","","","","","","","","",""
"2456","","image-button-response","114","541515","0.0-112.0-0.0","A74WSJU2N2I0U","img_art/29.jpg","4","","","","","","","","","","","","","","","","","","","","","","","","",""
"1720","","image-button-response","115","543236","0.0-113.0-0.0","A74WSJU2N2I0U","img_art/29.jpg","5","","","","","","","","","","","","","","","","","","","","","","","","",""
"null","","html-keyboard-response","116","544743","0.0-114.0","A74WSJU2N2I0U","<p style=""font-size: 48px;"">+</p>","","","","","null","allTrialResponses","1500","1","10","img_art/29.jpg","37","Nice depth. The red X ruins it all","Nathan,Samuel,Alexander,Taylor,Timothy,Isaac","Quite ugly in my opinion,-30,200,20","too challenging to comprehend,-28,400,20","Tested and failed a lot of ideas.,-20,120,20","I would give up and give it a red X too.,-5,200,20","Doesnt say much for me,0,240,20","It is intriguing but I don't like the red X.,6,280,20","Taylor","I would give up and give it a red X too.,-5,200,20","Timothy","Doesnt say much for me,0,240,20","Isaac","It is intriguing but I don't like the red X.,6,280,20","4"
"2572","","survey-text","117","547320","0.0-115.0-0.0","A74WSJU2N2I0U","","","","{""Q0"":""our""}","","","","","","","","","","","","","","","","","","","","","","",""
"19520","","survey-text","118","566842","0.0-116.0-0.0","A74WSJU2N2I0U","","","","{""Q0"":""Nice paint. Better than the previous one""}","","","","","","","","","","","","","","","","","","","","","","",""
"111077.40000009537","","image-slider-response","119","677921","0.0-117.0","A74WSJU2N2I0U","","","","","50","","","","","","","","","","","","","","","","","","","","","",""
"null","","image-button-response","120","682936","0.0-118.0","A74WSJU2N2I0U","img_art/17.jpg","null","","","","","","","","","","","","","","","","","","","","","","","","",""
"34666","","image-button-response","121","717603","0.0-119.0","A74WSJU2N2I0U","img_art/17.jpg","0","","","","","","","","","","","","","","","","","","","","","","","","",""
"1040","","image-button-response","122","718646","0.0-120.0-0.0","A74WSJU2N2I0U","img_art/17.jpg","3","","","","","","","","","","","","","","","","","","","","","","","","",""
"853","","image-button-response","123","719501","0.0-121.0-0.0","A74WSJU2N2I0U","img_art/17.jpg","4","","","","","","","","","","","","","","","","","","","","","","","","",""
"null","","html-keyboard-response","124","720017","0.0-122.0","A74WSJU2N2I0U","<p style=""font-size: 48px;"">+</p>","","","","","null","allTrialResponses","500","1","11","img_art/17.jpg","50","Nice paint. Better than the previous one","Jack,Trevor,Brett,Taylor,Timothy,Isaac","stunning. makes me feel happy, hopeful, serene, and a little wistful.,50,320,20","I like how it looks like a tree. The colors are too muted though,12,280,20","Looks like an explosion of pretty artwork,45,360,20","Somewhat should trim the tree branches at the shopping mall.,10,200,20","This feels like creativity and limitlessness,30,240,20","The colors are soft.,32,280,20","Jack","stunning. makes me feel happy, hopeful, serene, and a little wistful.,50,320,20","Taylor","Somewhat should trim the tree branches at the shopping mall.,10,200,20","Timothy","This feels like creativity and limitlessness,30,240,20","4"
"6386","","survey-text","125","726406","0.0-123.0-0.0","A74WSJU2N2I0U","","","","{""Q0"":""A mix of other paintings""}","","","","","","","","","","","","","","","","","","","","","","",""
"2897.5","","image-slider-response","126","729305","0.0-124.0","A74WSJU2N2I0U","","","","","-36","","","","","","","","","","","","","","","","","","","","","",""
"3699","","image-button-response","127","734306","0.0-125.0","A74WSJU2N2I0U","img_art/12.jpg","3","","","","","","","","","","","","","","","","","","","","","","","","",""
"548","","image-button-response","128","734855","0.0-126.0","A74WSJU2N2I0U","img_art/12.jpg","1","","","","","","","","","","","","","","","","","","","","","","","","",""
"1739","","image-button-response","129","736595","0.0-127.0-0.0","A74WSJU2N2I0U","img_art/12.jpg","3","","","","","","","","","","","","","","","","","","","","","","","","",""
"955","","image-button-response","130","737551","0.0-128.0-0.0","A74WSJU2N2I0U","img_art/12.jpg","2","","","","","","","","","","","","","","","","","","","","","","","","",""
"null","","html-keyboard-response","131","738567","0.0-129.0","A74WSJU2N2I0U","<p style=""font-size: 48px;"">+</p>","","","","","null","allTrialResponses","1000","1","12","img_art/12.jpg","-36","A mix of other paintings","Jack,Grant,Travis,Taylor,Timothy,Dalton","interesting, but feels like someone cut up a picture and pasted it together wrong. want to see the original,15,320,20","This elicits no reaction in me.,0,200,20","Neutral...just blocks.,3,260,20","Just wish it was more colorful.,20,200,20","The shapes make me feel a bit uncomfortable,-10,240,20","beautiful also reminds me of a quilt,1,300,20","Grant","This elicits no reaction in me.,0,200,20","Taylor","Just wish it was more colorful.,20,200,20","Travis","Neutral...just blocks.,3,260,20","4"
"12359","","survey-text","132","750928","0.0-130.0-0.0","A74WSJU2N2I0U","","","","{""Q0"":""It reminds me of a guitar""}","","","","","","","","","","","","","","","","","","","","","","",""
"2527.5","","image-slider-response","133","753457","0.0-131.0","A74WSJU2N2I0U","","","","","50","","","","","","","","","","","","","","","","","","","","","",""
"4042","","image-button-response","134","758465","0.0-132.0","A74WSJU2N2I0U","img_art/10.jpg","3","","","","","","","","","","","","","","","","","","","","","","","","",""
"515","","image-button-response","135","758982","0.0-133.0","A74WSJU2N2I0U","img_art/10.jpg","3","","","","","","","","","","","","","","","","","","","","","","","","",""
"1641","","image-button-response","136","760624","0.0-134.0-0.0","A74WSJU2N2I0U","img_art/10.jpg","0","","","","","","","","","","","","","","","","","","","","","","","","",""
"1610","","image-button-response","137","762234","0.0-135.0-0.0","A74WSJU2N2I0U","img_art/10.jpg","2","","","","","","","","","","","","","","","","","","","","","","","","",""
"null","","html-keyboard-response","138","762750","0.0-136.0","A74WSJU2N2I0U","<p style=""font-size: 48px;"">+</p>","","","","","null","allTrialResponses","500","1","13","img_art/10.jpg","50","It reminds me of a guitar","Gabriel,Grant,Travis,Taylor,Brandon,Austin","reminds me of a violin,9,160,20","I love the chaotic feel of the brush strokes.,35,200,20","I liked it...it looked somewhat like a guitar.,32,260,20","The roller coaster from hell !!!,-10,200,20","Too abstract and it doesn't really remind me of anything,-40,320,20","Has an air of mystery around it,39,240,20","Taylor","The roller coaster from hell !!!,-10,200,20","Gabriel","reminds me of a violin,9,160,20","Travis","I liked it...it looked somewhat like a guitar.,32,260,20","4"
"9464","","survey-text","139","772217","0.0-137.0-0.0","A74WSJU2N2I0U","","","","{""Q0"":""It looks like hell""}","","","","","","","","","","","","","","","","","","","","","","",""
"4295.299999952316","","image-slider-response","140","776514","0.0-138.0","A74WSJU2N2I0U","","","","","14","","","","","","","","","","","","","","","","","","","","","",""
"2833","","image-button-response","141","781516","0.0-139.0","A74WSJU2N2I0U","img_art/9.jpg","3","","","","","","","","","","","","","","","","","","","","","","","","",""
"1391","","image-button-response","142","782909","0.0-140.0","A74WSJU2N2I0U","img_art/9.jpg","3","","","","","","","","","","","","","","","","","","","","","","","","",""
"2913","","image-button-response","143","785823","0.0-141.0-0.0","A74WSJU2N2I0U","img_art/9.jpg","4","","","","","","","","","","","","","","","","","","","","","","","","",""
"1599","","image-button-response","144","787423","0.0-142.0-0.0","A74WSJU2N2I0U","img_art/9.jpg","1","","","","","","","","","","","","","","","","","","","","","","","","",""
"null","","html-keyboard-response","145","787924","0.0-143.0","A74WSJU2N2I0U","<p style=""font-size: 48px;"">+</p>","","","","","null","allTrialResponses","500","1","14","img_art/9.jpg","14","It looks like hell","Gabriel,Connor,Travis,Taylor,Aaron,Eric","i like the colors but not the composition,-17,160,20","Framing is overwhelming,-35,240,20","Stuipid looking...dumb,-48,260,20","Caveman. Not for my walls.,-5,200,20","It looks like a child's crayon drawing.,-10,20,20","I see some of my favorite colors which I like, but I don't like what's portrayed.,35,100,20","Taylor","Caveman. Not for my walls.,-5,200,20","Aaron","It looks like a child's crayon drawing.,-10,20,20","Connor","Framing is overwhelming,-35,240,20","4"
"9724","","survey-text","146","797652","0.0-144.0-0.0","A74WSJU2N2I0U","","","","{""Q0"":""Are those two kidneys?""}","","","","","","","","","","","","","","","","","","","","","","",""
"3547.3000000715256","","image-slider-response","147","801200","0.0-145.0","A74WSJU2N2I0U","","","","","-29","","","","","","","","","","","","","","","","","","","","","",""
"2500","","image-button-response","148","806202","0.0-146.0","A74WSJU2N2I0U","img_art/28.jpg","0","","","","","","","","","","","","","","","","","","","","","","","","",""
"194","","image-button-response","149","806397","0.0-147.0","A74WSJU2N2I0U","img_art/28.jpg","0","","","","","","","","","","","","","","","","","","","","","","","","",""
"1013","","image-button-response","150","807411","0.0-148.0-0.0","A74WSJU2N2I0U","img_art/28.jpg","3","","","","","","","","","","","","","","","","","","","","","","","","",""
"1501","","image-button-response","151","808914","0.0-149.0-0.0","A74WSJU2N2I0U","img_art/28.jpg","4","","","","","","","","","","","","","","","","","","","","","","","","",""
"null","","html-keyboard-response","152","809923","0.0-150.0","A74WSJU2N2I0U","<p style=""font-size: 48px;"">+</p>","","","","","null","allTrialResponses","1000","1","15","img_art/28.jpg","-29","Are those two kidneys?","Ethan,Connor,Dakota,Taylor,Aaron,Seth","The colors are really ugly. They do not compliment each other well.,-45,120,20","Dislike color palette and amoeba,-9,240,20","musical, animated and happy with somber undertones,7,280,20","Bug meets bug in a dark alley.,-20,200,20","It's drab and looks like stereotypical abstract art.,-30,20,20","I think this piece is interesting. I love the faces drawn into it.,29,60,20","Ethan","The colors are really ugly. They do not compliment each other well.,-45,120,20","Taylor","Bug meets bug in a dark alley.,-20,200,20","Aaron","It's drab and looks like stereotypical abstract art.,-30,20,20","4"
"3031","","survey-text","153","812961","0.0-151.0-0.0","A74WSJU2N2I0U","","","","{""Q0"":""course""}","","","","","","","","","","","","","","","","","","","","","","",""
"19747","","survey-text","154","832709","0.0-152.0-0.0","A74WSJU2N2I0U","","","","{""Q0"":""Somehow it's dark, like it was made by a bipolar kid""}","","","","","","","","","","","","","","","","","","","","","","",""
"6431.399999976158","","image-slider-response","155","839142","0.0-153.0","A74WSJU2N2I0U","","","","","33","","","","","","","","","","","","","","","","","","","","","",""
"4806","","image-button-response","156","844156","0.0-154.0","A74WSJU2N2I0U","img_art/16.jpg","3","","","","","","","","","","","","","","","","","","","","","","","","",""
"1135","","image-button-response","157","845292","0.0-155.0","A74WSJU2N2I0U","img_art/16.jpg","3","","","","","","","","","","","","","","","","","","","","","","","","",""
"3977","","image-button-response","158","849269","0.0-156.0-0.0","A74WSJU2N2I0U","img_art/16.jpg","1","","","","","","","","","","","","","","","","","","","","","","","","",""
"1003","","image-button-response","159","850273","0.0-157.0-0.0","A74WSJU2N2I0U","img_art/16.jpg","2","","","","","","","","","","","","","","","","","","","","","","","","",""
"null","","html-keyboard-response","160","851286","0.0-158.0","A74WSJU2N2I0U","<p style=""font-size: 48px;"">+</p>","","","","","null","allTrialResponses","1000","1","16","img_art/16.jpg","33","Somehow it's dark, like it was made by a bipolar kid","Ethan,Bryce,Tyler,Taylor,Aaron,Luis","This is a neat piece. Sort of shocking. I think it's too monochromatic though.,19,120,20","The teddy bear is scary as hell.,-44,20,20","Pop art, Tate Modern horse dung.,-50,320,20","It is sick to put a teddy bear and a gun on the same piece of canvas.,-40,200,20","It's edgy but cool,10,20,20","Kind of an edgy teenager vibe,32,400,20","Taylor","It is sick to put a teddy bear and a gun on the same piece of canvas.,-40,200,20","Bryce","The teddy bear is scary as hell.,-44,20,20","Tyler","Pop art, Tate Modern horse dung.,-50,320,20","4"
"3308","","survey-text","161","854597","0.0-159.0-0.0","A74WSJU2N2I0U","","","","{""Q0"":""ants and bugs""}","","","","","","","","","","","","","","","","","","","","","","",""
"4107.800000071526","","image-slider-response","162","858706","0.0-160.0","A74WSJU2N2I0U","","","","","-45","","","","","","","","","","","","","","","","","","","","","",""
"4862","","image-button-response","163","863709","0.0-161.0","A74WSJU2N2I0U","img_art/7.jpg","0","","","","","","","","","","","","","","","","","","","","","","","","",""
"774","","image-button-response","164","864484","0.0-162.0","A74WSJU2N2I0U","img_art/7.jpg","1","","","","","","","","","","","","","","","","","","","","","","","","",""
"994","","image-button-response","165","865480","0.0-163.0-0.0","A74WSJU2N2I0U","img_art/7.jpg","3","","","","","","","","","","","","","","","","","","","","","","","","",""
"903","","image-button-response","166","866384","0.0-164.0-0.0","A74WSJU2N2I0U","img_art/7.jpg","4","","","","","","","","","","","","","","","","","","","","","","","","",""
"null","","html-keyboard-response","167","867899","0.0-165.0","A74WSJU2N2I0U","<p style=""font-size: 48px;"">+</p>","","","","","null","allTrialResponses","1500","1","17","img_art/7.jpg","-45","ants and bugs","Tristan,Bryce,Tyler,Taylor,Cody,John","Limited emotional reaction for me. No focus and highly abstract,-20,300,20","I love the texture.,20,20,20","Is this a painting, really? Very compelling if so, the texture work is incredible.,15,320,20","Looks like a photo taken from the moon.,-6,200,20","Cool, makes me think of archeology,15,180,20","It looks like someone took a picture of a muddy ground and called it art.,-41,120,20","Bryce","I love the texture.,20,20,20","Taylor","Looks like a photo taken from the moon.,-6,200,20","Cody","Cool, makes me think of archeology,15,180,20","4"
"7848","","survey-text","168","875751","0.0-166.0-0.0","A74WSJU2N2I0U","","","","{""Q0"":""I would use this as a screensaver""}","","","","","","","","","","","","","","","","","","","","","","",""
"3230.0999999046326","","image-slider-response","169","878982","0.0-167.0","A74WSJU2N2I0U","","","","","50","","","","","","","","","","","","","","","","","","","","","",""
"1671","","image-button-response","170","883986","0.0-168.0","A74WSJU2N2I0U","img_art/13.jpg","3","","","","","","","","","","","","","","","","","","","","","","","","",""
"417","","image-button-response","171","884404","0.0-169.0","A74WSJU2N2I0U","img_art/13.jpg","3","","","","","","","","","","","","","","","","","","","","","","","","",""
"1670","","image-button-response","172","886075","0.0-170.0-0.0","A74WSJU2N2I0U","img_art/13.jpg","1","","","","","","","","","","","","","","","","","","","","","","","","",""
"1590","","image-button-response","173","887667","0.0-171.0-0.0","A74WSJU2N2I0U","img_art/13.jpg","5","","","","","","","","","","","","","","","","","","","","","","","","",""
"null","","html-keyboard-response","174","888668","0.0-172.0","A74WSJU2N2I0U","<p style=""font-size: 48px;"">+</p>","","","","","null","allTrialResponses","1000","1","18","img_art/13.jpg","50","I would use this as a screensaver","Gregory,Bryce,James,Taylor,Cody,Colton","Cool colors and looks like rain on a window,45,220,20","My favorite!,47,20,20","This is a very cool painting, something an art teacher or professor would own.,22,380,20","Simple and in my favorite color. I actually like this one.,40,200,20","It's pretty ...........,41,180,20","love the colors and splatters,44,220,20","Taylor","Simple and in my favorite color. I actually like this one.,40,200,20","Bryce","My favorite!,47,20,20","Colton","love the colors and splatters,44,220,20","4"
"6506","","survey-text","175","895178","0.0-173.0-0.0","A74WSJU2N2I0U","","","","{""Q0"":""It's a city""}","","","","","","","","","","","","","","","","","","","","","","",""
"2372.7000000476837","","image-slider-response","176","897552","0.0-174.0","A74WSJU2N2I0U","","","","","19","","","","","","","","","","","","","","","","","","","","","",""
"2484","","image-button-response","177","902564","0.0-175.0","A74WSJU2N2I0U","img_art/26.jpg","3","","","","","","","","","","","","","","","","","","","","","","","","",""
"635","","image-button-response","178","903200","0.0-176.0","A74WSJU2N2I0U","img_art/26.jpg","3","","","","","","","","","","","","","","","","","","","","","","","","",""
"4117","","image-button-response","179","907318","0.0-177.0-0.0","A74WSJU2N2I0U","img_art/26.jpg","4","","","","","","","","","","","","","","","","","","","","","","","","",""
"1181","","image-button-response","180","908501","0.0-178.0-0.0","A74WSJU2N2I0U","img_art/26.jpg","0","","","","","","","","","","","","","","","","","","","","","","","","",""
"null","","html-keyboard-response","181","909002","0.0-179.0","A74WSJU2N2I0U","<p style=""font-size: 48px;"">+</p>","","","","","null","allTrialResponses","500","1","19","img_art/26.jpg","19","It's a city","Victor,Bryce,Sean,Taylor,Corey,Colton","the trees are cool,1,340,20","Love the colors in this one.,22,20,20","picture looks alright,1,40,20","At least it is a bit of scenery.,10,200,20","its boring and i dont like the color palette,3,260,20","very impressionistic,11,220,20","Taylor","At least it is a bit of scenery.,10,200,20","Corey","its boring and i dont like the color palette,3,260,20","Victor","the trees are cool,1,340,20","4"
"7796","","survey-text","182","916801","0.0-180.0-0.0","A74WSJU2N2I0U","","","","{""Q0"":""Those colours make me feel awe""}","","","","","","","","","","","","","","","","","","","","","","",""
"2688.3000000715256","","image-slider-response","183","919490","0.0-181.0","A74WSJU2N2I0U","","","","","39","","","","","","","","","","","","","","","","","","","","","",""
"2246","","image-button-response","184","924506","0.0-182.0","A74WSJU2N2I0U","img_art/22.jpg","3","","","","","","","","","","","","","","","","","","","","","","","","",""
"572","","image-button-response","185","925079","0.0-183.0","A74WSJU2N2I0U","img_art/22.jpg","3","","","","","","","","","","","","","","","","","","","","","","","","",""
"3400","","image-button-response","186","928481","0.0-184.0-0.0","A74WSJU2N2I0U","img_art/22.jpg","2","","","","","","","","","","","","","","","","","","","","","","","","",""
"1798","","image-button-response","187","930281","0.0-185.0-0.0","A74WSJU2N2I0U","img_art/22.jpg","5","","","","","","","","","","","","","","","","","","","","","","","","",""
"null","","html-keyboard-response","188","931284","0.0-186.0","A74WSJU2N2I0U","<p style=""font-size: 48px;"">+</p>","","","","","null","allTrialResponses","1000","1","20","img_art/22.jpg","39","Those colours make me feel awe","Victor,Alex,Mitchell,Taylor,Corey,Lucas","I don't really know why, I just like looking at it,10,340,20","Not a huge fan of the blocks, also very abstract, I have no idea what it is,8,100,20","Scary monsters lurking causing confusion.,-40,180,20","Looks like the kind of art I would see at the doctor's office.,-5,200,20","i feel like this is a a basic art piece that a school would have on the wall,-24,260,20","Unfortunately, I can't see anything special in this painting.,-20,380,20","Taylor","Looks like the kind of art I would see at the doctor's office.,-5,200,20","Mitchell","Scary monsters lurking causing confusion.,-40,180,20","Lucas","Unfortunately, I can't see anything special in this painting.,-20,380,20","4"
"1916","","survey-text","189","933206","0.0-187.0-0.0","A74WSJU2N2I0U","","","","{""Q0"":""we""}","","","","","","","","","","","","","","","","","","","","","","",""
"8110","","survey-text","190","941318","0.0-188.0-0.0","A74WSJU2N2I0U","","","","{""Q0"":""Amazing art. Apocalyptic""}","","","","","","","","","","","","","","","","","","","","","","",""
"2698.7000000476837","","image-slider-response","191","944018","0.0-189.0","A74WSJU2N2I0U","","","","","50","","","","","","","","","","","","","","","","","","","","","",""
"3497","","image-button-response","192","949032","0.0-190.0","A74WSJU2N2I0U","img_art/20.jpg","3","","","","","","","","","","","","","","","","","","","","","","","","",""
"371","","image-button-response","193","949405","0.0-191.0","A74WSJU2N2I0U","img_art/20.jpg","3","","","","","","","","","","","","","","","","","","","","","","","","",""
"795","","image-button-response","194","950200","0.0-192.0-0.0","A74WSJU2N2I0U","img_art/20.jpg","4","","","","","","","","","","","","","","","","","","","","","","","","",""
"2913","","image-button-response","195","953115","0.0-193.0-0.0","A74WSJU2N2I0U","img_art/20.jpg","0","","","","","","","","","","","","","","","","","","","","","","","","",""
"null","","html-keyboard-response","196","954616","0.0-194.0","A74WSJU2N2I0U","<p style=""font-size: 48px;"">+</p>","","","","","null","allTrialResponses","1500","1","21","img_art/20.jpg","50","Amazing art. Apocalyptic","Juan,Zachary,Mitchell,Taylor,Alexis,Lucas","I like the deep blues, but I don't like the way this picture makes me feel.,-13,260,20","While interesting in technique.. It looks like a blurry car wreck. Does not evoke great emotions.,-20,400,20","Interesting. Empty place, wondering what happened, leaving what you used to know.,10,180,20","Not bad for all the southwestern people.,15,200,20","it is a bit disturbing, like a monster or ghost floating away from a bleak building,-8,140,20","Phenomenal painting of building.,25,380,20","Taylor","Not bad for all the southwestern people.,15,200,20","Alexis","it is a bit disturbing, like a monster or ghost floating away from a bleak building,-8,140,20","Juan","I like the deep blues, but I don't like the way this picture makes me feel.,-13,260,20","4"
"7989","","survey-text","197","962609","0.0-195.0-0.0","A74WSJU2N2I0U","","","","{""Q0"":""Great and dark as hell""}","","","","","","","","","","","","","","","","","","","","","","",""
"3048.7999999523163","","image-slider-response","198","965659","0.0-196.0","A74WSJU2N2I0U","","","","","50","","","","","","","","","","","","","","","","","","","","","",""
"4093","","image-button-response","199","970661","0.0-197.0","A74WSJU2N2I0U","img_art/11.jpg","3","","","","","","","","","","","","","","","","","","","","","","","","",""
"612","","image-button-response","200","971275","0.0-198.0","A74WSJU2N2I0U","img_art/11.jpg","1","","","","","","","","","","","","","","","","","","","","","","","","",""
"1759","","image-button-response","201","973035","0.0-199.0-0.0","A74WSJU2N2I0U","img_art/11.jpg","5","","","","","","","","","","","","","","","","","","","","","","","","",""
"1629","","image-button-response","202","974666","0.0-200.0-0.0","A74WSJU2N2I0U","img_art/11.jpg","3","","","","","","","","","","","","","","","","","","","","","","","","",""
"null","","html-keyboard-response","203","975173","0.0-201.0","A74WSJU2N2I0U","<p style=""font-size: 48px;"">+</p>","","","","","null","allTrialResponses","500","1","22","img_art/11.jpg","50","Great and dark as hell","Juan,Patrick,Andrew,Taylor,Alexis,Jesus","It makes me think of a rainy day and I like the colors. Also like the wavy lines.,22,260,20","Looks sad but clean,31,280,20","It's a really cool painting, but it reminds me of bad traffic,-20,160,20","Busy, busy oceanside city.,-10,200,20","This photo makes me feel bleak,-16,140,20","The different textures and colors make this pleasing to look at.,30,100,20","Patrick","Looks sad but clean,31,280,20","Jesus","The different textures and colors make this pleasing to look at.,30,100,20","Taylor","Busy, busy oceanside city.,-10,200,20","4"
"11053","","survey-text","204","986230","0.0-202.0-0.0","A74WSJU2N2I0U","","","","{""Q0"":""Horrible. I could've made this myself""}","","","","","","","","","","","","","","","","","","","","","","",""
"2582.7000000476837","","image-slider-response","205","988814","0.0-203.0","A74WSJU2N2I0U","","","","","-50","","","","","","","","","","","","","","","","","","","","","",""
"2745","","image-button-response","206","993816","0.0-204.0","A74WSJU2N2I0U","img_art/5.jpg","2","","","","","","","","","","","","","","","","","","","","","","","","",""
"258","","image-button-response","207","994076","0.0-205.0","A74WSJU2N2I0U","img_art/5.jpg","5","","","","","","","","","","","","","","","","","","","","","","","","",""
"1152","","image-button-response","208","995230","0.0-206.0-0.0","A74WSJU2N2I0U","img_art/5.jpg","3","","","","","","","","","","","","","","","","","","","","","","","","",""
"3071","","image-button-response","209","998303","0.0-207.0-0.0","A74WSJU2N2I0U","img_art/5.jpg","2","","","","","","","","","","","","","","","","","","","","","","","","",""
"null","","html-keyboard-response","210","998816","0.0-208.0","A74WSJU2N2I0U","<p style=""font-size: 48px;"">+</p>","","","","","null","allTrialResponses","500","1","23","img_art/5.jpg","-50","Horrible. I could've made this myself","Jacob,Patrick,Michael,Taylor,Matthew,Jesus","Don't really know the point of this one.,-11,340,20","It looks random,-10,280,20","Complete garbage. Looks like a kid drew it.,-50,140,20","More kindergarten art class. Who buys this stuff?,-45,200,20","I like the simple shapes and colors.,23,120,20","Overpowering colors.,-26,100,20","Jesus","Overpowering colors.,-26,100,20","Taylor","More kindergarten art class. Who buys this stuff?,-45,200,20","Michael","Complete garbage. Looks like a kid drew it.,-50,140,20","4"
"9669","","survey-text","211","1008488","0.0-209.0-0.0","A74WSJU2N2I0U","","","","{""Q0"":""Very mystical. Beautiful colors""}","","","","","","","","","","","","","","","","","","","","","","",""
"2542","","image-slider-response","212","1011031","0.0-210.0","A74WSJU2N2I0U","","","","","50","","","","","","","","","","","","","","","","","","","","","",""
"null","","image-button-response","213","1016045","0.0-211.0","A74WSJU2N2I0U","img_art/30.jpg","null","","","","","","","","","","","","","","","","","","","","","","","","",""
"2122","","image-button-response","214","1018169","0.0-212.0","A74WSJU2N2I0U","img_art/30.jpg","1","","","","","","","","","","","","","","","","","","","","","","","","",""
"2475","","image-button-response","215","1020645","0.0-213.0-0.0","A74WSJU2N2I0U","img_art/30.jpg","2","","","","","","","","","","","","","","","","","","","","","","","","",""
"1501","","image-button-response","216","1022147","0.0-214.0-0.0","A74WSJU2N2I0U","img_art/30.jpg","5","","","","","","","","","","","","","","","","","","","","","","","","",""
"null","","html-keyboard-response","217","1023149","0.0-215.0","A74WSJU2N2I0U","<p style=""font-size: 48px;"">+</p>","","","","","null","allTrialResponses","1000","1","24","img_art/30.jpg","50","Very mystical. Beautiful colors","Robert,Luke,Michael,Taylor,Mason,Jesus","My kindergarten class could do this,-50,360,20","the lines and colors look purposeful,18,20,20","It looks like a child did it. There is nothing talented or special about it.,-16,140,20","My kid drew this same picture at daycare!!!,5,200,20","Neat, but simple, I could make this. not skilled.,9,100,20","I like the forefront design.,10,100,20","Luke","the lines and colors look purposeful,18,20,20","Michael","It looks like a child did it. There is nothing talented or special about it.,-16,140,20","Jesus","I like the forefront design.,10,100,20","4"
"9130","","survey-text","218","1032282","0.0-216.0-0.0","A74WSJU2N2I0U","","","","{""Q0"":""Great. I love the faces""}","","","","","","","","","","","","","","","","","","","","","","",""
"1854.2999999523163","","image-slider-response","219","1034138","0.0-217.0","A74WSJU2N2I0U","","","","","50","","","","","","","","","","","","","","","","","","","","","",""
"2764","","image-button-response","220","1039149","0.0-218.0","A74WSJU2N2I0U","img_art/8.jpg","3","","","","","","","","","","","","","","","","","","","","","","","","",""
"467","","image-button-response","221","1039618","0.0-219.0","A74WSJU2N2I0U","img_art/8.jpg","1","","","","","","","","","","","","","","","","","","","","","","","","",""
"1002","","image-button-response","222","1040621","0.0-220.0-0.0","A74WSJU2N2I0U","img_art/8.jpg","3","","","","","","","","","","","","","","","","","","","","","","","","",""
"1331","","image-button-response","223","1041954","0.0-221.0-0.0","A74WSJU2N2I0U","img_art/8.jpg","4","","","","","","","","","","","","","","","","","","","","","","","","",""
"null","","html-keyboard-response","224","1042469","0.0-222.0","A74WSJU2N2I0U","<p style=""font-size: 48px;"">+</p>","","","","","null","allTrialResponses","500","1","25","img_art/8.jpg","50","Great. I love the faces","Alejandro,Luke,Michael,Marcus,Christian,Jesus","i like the abstract nature of a birds eye view of the city. The hard shapes and squares present with a softness rather than rigidity.,26,80,20","It is very colorful with a deeper meaning,25,20,20","It is interesting to look at. Abstract but ordered.,9,140,20","Like the colors and the energy, but the face feels jarring to me,13,60,20","gives off inception vibes <3,50,140,20","The different shapes are fun to look for.,30,100,20","Luke","It is very colorful with a deeper meaning,25,20,20","Marcus","Like the colors and the energy, but the face feels jarring to me,13,60,20","Christian","gives off inception vibes <3,50,140,20","4"
"1899","","survey-text","225","1044374","0.0-223.0-0.0","A74WSJU2N2I0U","","","","{""Q0"":""table""}","","","","","","","","","","","","","","","","","","","","","","",""
"17167","","survey-text","226","1061542","0.0-224.0-0.0","A74WSJU2N2I0U","","","","{""Q0"":""Pure trash but it is disturbing""}","","","","","","","","","","","","","","","","","","","","","","",""
"2468.7000000476837","","image-slider-response","227","1064012","0.0-225.0","A74WSJU2N2I0U","","","","","-38","","","","","","","","","","","","","","","","","","","","","",""
"4340","","image-button-response","228","1069023","0.0-226.0","A74WSJU2N2I0U","img_art/6.jpg","0","","","","","","","","","","","","","","","","","","","","","","","","",""
"980","","image-button-response","229","1070004","0.0-227.0","A74WSJU2N2I0U","img_art/6.jpg","0","","","","","","","","","","","","","","","","","","","","","","","","",""
"1480","","image-button-response","230","1071485","0.0-228.0-0.0","A74WSJU2N2I0U","img_art/6.jpg","3","","","","","","","","","","","","","","","","","","","","","","","","",""
"4056","","image-button-response","231","1075543","0.0-229.0-0.0","A74WSJU2N2I0U","img_art/6.jpg","1","","","","","","","","","","","","","","","","","","","","","","","","",""
"null","","html-keyboard-response","232","1077055","0.0-230.0","A74WSJU2N2I0U","<p style=""font-size: 48px;"">+</p>","","","","","null","allTrialResponses","1500","1","26","img_art/6.jpg","-38","Pure trash but it is disturbing","Steven,Luke,Devon,Marcus,Christian,Brian","This is interesting, I feel solitude, and loneliness from this.,13,160,20","i like it but it is very neutral,9,20,20","This one also confuses me a bit.,-19,400,20","I like the orange color, and I don't know why but I like this piece.,22,60,20","??????? fake floating leaf? headless bird,-28,140,20","this is too simple for me,-34,380,20","Steven","This is interesting, I feel solitude, and loneliness from this.,13,160,20","Marcus","I like the orange color, and I don't know why but I like this piece.,22,60,20","Luke","i like it but it is very neutral,9,20,20","4"
"11701","","survey-text","233","1088760","0.0-231.0-0.0","A74WSJU2N2I0U","","","","{""Q0"":""It had potential but there's a lot going on""}","","","","","","","","","","","","","","","","","","","","","","",""
"2928.4000000953674","","image-slider-response","234","1091690","0.0-232.0","A74WSJU2N2I0U","","","","","25","","","","","","","","","","","","","","","","","","","","","",""
"2307","","image-button-response","235","1096692","0.0-233.0","A74WSJU2N2I0U","img_art/19.jpg","3","","","","","","","","","","","","","","","","","","","","","","","","",""
"280","","image-button-response","236","1096972","0.0-234.0","A74WSJU2N2I0U","img_art/19.jpg","3","","","","","","","","","","","","","","","","","","","","","","","","",""
"1073","","image-button-response","237","1098047","0.0-235.0-0.0","A74WSJU2N2I0U","img_art/19.jpg","0","","","","","","","","","","","","","","","","","","","","","","","","",""
"1499","","image-button-response","238","1099548","0.0-236.0-0.0","A74WSJU2N2I0U","img_art/19.jpg","2","","","","","","","","","","","","","","","","","","","","","","","","",""
"null","","html-keyboard-response","239","1100058","0.0-237.0","A74WSJU2N2I0U","<p style=""font-size: 48px;"">+</p>","","","","","null","allTrialResponses","500","1","27","img_art/19.jpg","25","It had potential but there's a lot going on","Steven,Luke,Peter,Marcus,Blake,Jorge","I like it, I see someone walking his dog in the early morning time,23,160,20","it draws my eye and my mind fills in the spaces,14,20,20","Looks like hustle and bustle ,,3,320,20","I like the colors but the scene itself feels too jumbled and cluttered,9,60,20","an old cityfrom many years ago. its ok,6,280,20","confused and emotional,-4,180,20","Marcus","I like the colors but the scene itself feels too jumbled and cluttered,9,60,20","Steven","I like it, I see someone walking his dog in the early morning time,23,160,20","Peter","Looks like hustle and bustle ,,3,320,20","4"
"736511","","survey-text","240","1836573","0.0-238.0-0.0","A74WSJU2N2I0U","","","","{""Q0"":""Rainfall. Beautiful""}","","","","","","","","","","","","","","","","","","","","","","",""
"2378.100000023842","","image-slider-response","241","1838953","0.0-239.0","A74WSJU2N2I0U","","","","","50","","","","","","","","","","","","","","","","","","","","","",""
"4503","","image-button-response","242","1843960","0.0-240.0","A74WSJU2N2I0U","img_art/24.jpg","3","","","","","","","","","","","","","","","","","","","","","","","","",""
"877","","image-button-response","243","1844838","0.0-241.0","A74WSJU2N2I0U","img_art/24.jpg","3","","","","","","","","","","","","","","","","","","","","","","","","",""
"1240","","image-button-response","244","1846079","0.0-242.0-0.0","A74WSJU2N2I0U","img_art/24.jpg","1","","","","","","","","","","","","","","","","","","","","","","","","",""
"873","","image-button-response","245","1846954","0.0-243.0-0.0","A74WSJU2N2I0U","img_art/24.jpg","5","","","","","","","","","","","","","","","","","","","","","","","","",""
"null","","html-keyboard-response","246","1847456","0.0-244.0","A74WSJU2N2I0U","<p style=""font-size: 48px;"">+</p>","","","","","null","allTrialResponses","500","1","28","img_art/24.jpg","50","Rainfall. Beautiful","Steven,Jason,Peter,Marcus,Charles,Angel","It's beautiful! I love it! I see a waterfall, and they are my favorite things in the world,50,160,20","I like the bright colors,16,20,20","Looks like a serene waterfall and woods,29,320,20","Love the colors in this work, and the sense of motion in the water,36,60,20","It just feels a little bland for me,-23,100,20","This is clear and healthy. It makes me think of unspoiled nature.,20,180,20","Marcus","Love the colors in this work, and the sense of motion in the water,36,60,20","Jason","I like the bright colors,16,20,20","Angel","This is clear and healthy. It makes me think of unspoiled nature.,20,180,20","4"
"7799","","survey-text","247","1855260","0.0-245.0-0.0","A74WSJU2N2I0U","","","","{""Q0"":""Too much stuff going on""}","","","","","","","","","","","","","","","","","","","","","","",""
"6939","","image-slider-response","248","1862201","0.0-246.0","A74WSJU2N2I0U","","","","","31","","","","","","","","","","","","","","","","","","","","","",""
"2284","","image-button-response","249","1867202","0.0-247.0","A74WSJU2N2I0U","img_art/1.jpg","3","","","","","","","","","","","","","","","","","","","","","","","","",""
"431","","image-button-response","250","1867635","0.0-248.0","A74WSJU2N2I0U","img_art/1.jpg","3","","","","","","","","","","","","","","","","","","","","","","","","",""
"764","","image-button-response","251","1868400","0.0-249.0-0.0","A74WSJU2N2I0U","img_art/1.jpg","0","","","","","","","","","","","","","","","","","","","","","","","","",""
"505","","image-button-response","252","1868906","0.0-250.0-0.0","A74WSJU2N2I0U","img_art/1.jpg","1","","","","","","","","","","","","","","","","","","","","","","","","",""
"null","","html-keyboard-response","253","1869408","0.0-251.0","A74WSJU2N2I0U","<p style=""font-size: 48px;"">+</p>","","","","","null","allTrialResponses","500","1","29","img_art/1.jpg","31","Too much stuff going on","Jared,Jason,Adam,Marcus,Jose,Angel","there isnt anything clear to look at,-2,400,20","Interesting blend of colors,9,20,20","Messy mix of primary colors.,-10,40,20","Like the colors very much, and this piece makes me feel peaceful.,29,60,20","Blurry but that's how emotions are a lot of the time.,27,200,20","For some reason this makes me want to go ice skating. It's whimsical and free but also very smooth.,20,180,20","Marcus","Like the colors very much, and this piece makes me feel peaceful.,29,60,20","Jared","there isnt anything clear to look at,-2,400,20","Jason","Interesting blend of colors,9,20,20","4"
"9622","","survey-text","254","1879034","0.0-252.0-0.0","A74WSJU2N2I0U","","","","{""Q0"":""Apocalyptic piece. Great work""}","","","","","","","","","","","","","","","","","","","","","","",""
"11516.100000023842","","image-slider-response","255","1890552","0.0-253.0","A74WSJU2N2I0U","","","","","50","","","","","","","","","","","","","","","","","","","","","",""
"null","","image-button-response","256","1895564","0.0-254.0","A74WSJU2N2I0U","img_art/18.jpg","null","","","","","","","","","","","","","","","","","","","","","","","","",""
"9509","","image-button-response","257","1905074","0.0-255.0","A74WSJU2N2I0U","img_art/18.jpg","3","","","","","","","","","","","","","","","","","","","","","","","","",""
"833","","image-button-response","258","1905908","0.0-256.0-0.0","A74WSJU2N2I0U","img_art/18.jpg","1","","","","","","","","","","","","","","","","","","","","","","","","",""
"624","","image-button-response","259","1906534","0.0-257.0-0.0","A74WSJU2N2I0U","img_art/18.jpg","2","","","","","","","","","","","","","","","","","","","","","","","","",""
"null","","html-keyboard-response","260","1908037","0.0-258.0","A74WSJU2N2I0U","<p style=""font-size: 48px;"">+</p>","","","","","null","allTrialResponses","1500","1","30","img_art/18.jpg","50","Apocalyptic piece. Great work","Jared,Jason,Dustin,Marcus,William,Hunter","it looks like people,9,400,20","Umclear what is present in the picture,0,20,20","Looks messy. Reminds me of a battle or war. I have an unpleasant feeling the more I look.,-20,20,20","like the grays and contrast of the yellow. This piece feels a bit angry,10,60,20","Makes me think of stormy oceans,20,380,20","creamy color, feels like organized chaos,23,240,20","Marcus","like the grays and contrast of the yellow. This piece feels a bit angry,10,60,20","Jason","Umclear what is present in the picture,0,20,20","Dustin","Looks messy. Reminds me of a battle or war. I have an unpleasant feeling the more I look.,-20,20,20","4"
"3152","","image-button-response_instructions","261","1911192","0.0-259.0","A74WSJU2N2I0U","","0","instructions","","","","","","","","","","","","","","","","","","","","","","","",""
"1537","","image-button-response","262","1912732","0.0-260.0","A74WSJU2N2I0U","","0","","","","","","","","","","","","","","","","","","","","","","","","",""
