"rt","url","trial_type","trial_index","time_elapsed","internal_node_id","participant_id","stimulus","button_pressed","Name","responses","response","key_press","variableName","fixationTime","condition","trial","photo","subjectRating","subjectResponse","agentsNames","agent_1_Response","agent_2_Response","agent_3_Response","agent_4_Response","agent_5_Response","agent_6_Response","kept_1_name","kept_1_response","kept_2_name","kept_2_response","kept_3_name","kept_3_response","errorCounter"
"7110","external_page_harvard.html","external-html","0","7167","0.0-0.0","A7I3G380E29VE","","","","","","","","","","","","","","","","","","","","","","","","","","",""
"1788","","image-button-response","1","8957","0.0-1.0","A7I3G380E29VE","","0","","","","","","","","","","","","","","","","","","","","","","","","",""
"1836","","image-button-response","2","10796","0.0-2.0-0.0","A7I3G380E29VE","","1","phone","","","","","","","","","","","","","","","","","","","","","","","",""
"7543","","survey-text","3","18341","0.0-3.0-0.0","A7I3G380E29VE","","","","{""Q0"":""A7I3G380E29VE""}","","","","","","","","","","","","","","","","","","","","","","",""
"5550","","image-button-response_instructions","4","23892","0.0-4.0","A7I3G380E29VE","","0","instructions","","","","","","","","","","","","","","","","","","","","","","","",""
"12336","","image-button-response_instructions","5","36230","0.0-5.0","A7I3G380E29VE","img_art/ins/popularity/ins1.png","0","instructions","","","","","","","","","","","","","","","","","","","","","","","",""
"4733","","image-button-response_instructions","6","40964","0.0-6.0","A7I3G380E29VE","img_art/ins/popularity/ins2.png","0","instructions","","","","","","","","","","","","","","","","","","","","","","","",""
"7871","","image-button-response_instructions","7","48836","0.0-7.0","A7I3G380E29VE","img_art/ins/popularity/ins2Extreme.png","0","instructions","","","","","","","","","","","","","","","","","","","","","","","",""
"25623","","image-button-response_instructions","8","74461","0.0-8.0","A7I3G380E29VE","img_art/ins/popularity/ins3KEEPpop.PNG","0","instructions","","","","","","","","","","","","","","","","","","","","","","","",""
"6255","","image-button-response_instructions","9","80717","0.0-9.0","A7I3G380E29VE","img_art/ins/popularity/ins3ANamepop.PNG","0","instructions","","","","","","","","","","","","","","","","","","","","","","","",""
"4335","","image-button-response_instructions","10","85053","0.0-10.0","A7I3G380E29VE","img_art/ins/popularity/ins3ARatingpop.png","0","instructions","","","","","","","","","","","","","","","","","","","","","","","",""
"7031","","image-button-response_instructions","11","92085","0.0-11.0","A7I3G380E29VE","img_art/ins/popularity/ins3ATextpop.png","0","instructions","","","","","","","","","","","","","","","","","","","","","","","",""
"9143","","image-button-response_instructions","12","101229","0.0-12.0","A7I3G380E29VE","img_art/ins/popularity/ins3ALikespop.png","0","instructions","","","","","","","","","","","","","","","","","","","","","","","",""
"14351","","image-button-response_instructions","13","115581","0.0-13.0","A7I3G380E29VE","img_art/ins/popularity/ins3KEEPpop.PNG","0","instructions","","","","","","","","","","","","","","","","","","","","","","","",""
"22318","","image-button-response_instructions","14","137900","0.0-14.0","A7I3G380E29VE","img_art/ins/popularity/ins3_5RED.png","0","instructions","","","","","","","","","","","","","","","","","","","","","","","",""
"5255","","image-button-response_instructions","15","143156","0.0-15.0","A7I3G380E29VE","img_art/ins/popularity/ins3KEEPpop.PNG","0","instructions","","","","","","","","","","","","","","","","","","","","","","","",""
"11208","","image-button-response_instructions","16","154364","0.0-16.0","A7I3G380E29VE","img_art/ins/popularity/ins4KEEPpop.PNG","0","instructions","","","","","","","","","","","","","","","","","","","","","","","",""
"7008","","image-button-response_instructions","17","161372","0.0-17.0","A7I3G380E29VE","img_art/ins/popularity/ins5KEEPpop.PNG","0","instructions","","","","","","","","","","","","","","","","","","","","","","","",""
"3439","","image-button-response_instructions","18","164812","0.0-18.0","A7I3G380E29VE","","0","instructions","","","","","","","","","","","","","","","","","","","","","","","",""
"5209","","survey-text","19","170044","0.0-19.0-0.0","A7I3G380E29VE","","","","{""Q0"":""but""}","","","","","","","","","","","","","","","","","","","","","","",""
"51351","","survey-text","20","221396","0.0-20.0-0.0","A7I3G380E29VE","","","","{""Q0"":""Looks like a the person just randomly squiggled.""}","","","","","","","","","","","","","","","","","","","","","","",""
"3629.599999964237","","image-slider-response","21","225029","0.0-21.0","A7I3G380E29VE","","","","","-36","","","","","","","","","","","","","","","","","","","","","",""
"null","","image-button-response","22","230041","0.0-22.0","A7I3G380E29VE","img_art/ins/1.jpg","null","","","","","","","","","","","","","","","","","","","","","","","","",""
"520","","image-button-response","23","230565","0.0-23.0","A7I3G380E29VE","img_art/ins/1.jpg","0","","","","","","","","","","","","","","","","","","","","","","","","",""
"6598","","image-button-response","24","237164","0.0-24.0-0.0","A7I3G380E29VE","img_art/ins/1.jpg","3","","","","","","","","","","","","","","","","","","","","","","","","",""
"2654","","image-button-response","25","239820","0.0-25.0-0.0","A7I3G380E29VE","img_art/ins/1.jpg","4","","","","","","","","","","","","","","","","","","","","","","","","",""
"null","","html-keyboard-response","26","240338","0.0-26.0","A7I3G380E29VE","<p style=""font-size: 48px;"">+</p>","","","","","null","allTrialResponses","500","1","-2","img_art/ins/1.jpg","-36","Looks like a the person just randomly squiggled.","Adam,Alex,Ben,Carl,Daniel,Jack","Seems like doodles,-20,20,20","very creative work.,36,40,20","This color reminds me of poo,-46,60,20","very calming artwork,42,80,20","It looks like a murder scene.,-48,100,20","I like the sophisticated brushwork,40,120,20","Adam","Seems like doodles,-20,20,20","Carl","very calming artwork,42,80,20","Daniel","It looks like a murder scene.,-48,100,20","0"
"27102","","survey-text","27","267452","0.0-27.0-0.0","A7I3G380E29VE","","","","{""Q0"":""I like the deep colors and the texture the shadows give.""}","","","","","","","","","","","","","","","","","","","","","","",""
"3414.400000035763","","image-slider-response","28","270868","0.0-28.0","A7I3G380E29VE","","","","","20","","","","","","","","","","","","","","","","","","","","","",""
"null","","image-button-response","29","275871","0.0-29.0","A7I3G380E29VE","img_art/ins/2.jpg","null","","","","","","","","","","","","","","","","","","","","","","","","",""
"3113","","image-button-response","30","278988","0.0-30.0","A7I3G380E29VE","img_art/ins/2.jpg","2","","","","","","","","","","","","","","","","","","","","","","","","",""
"5334","","image-button-response","31","284324","0.0-31.0-0.0","A7I3G380E29VE","img_art/ins/2.jpg","3","","","","","","","","","","","","","","","","","","","","","","","","",""
"2413","","image-button-response","32","286740","0.0-32.0-0.0","A7I3G380E29VE","img_art/ins/2.jpg","1","","","","","","","","","","","","","","","","","","","","","","","","",""
"null","","html-keyboard-response","33","287251","0.0-33.0","A7I3G380E29VE","<p style=""font-size: 48px;"">+</p>","","","","","null","allTrialResponses","500","1","-1","img_art/ins/2.jpg","20","I like the deep colors and the texture the shadows give.","Adam,James,John,Carl,Daniel,Kyle","too much color,-18,20,20","looks too angry,-50,140,20","love the texture of paint,48,160,20","I can feel the artist's passion in it,45,80,20","One of my pet peevs,-48,100,20","Idk, it is just annoying,-32,180,20","John","love the texture of paint,48,160,20","Carl","I can feel the artist's passion in it,45,80,20","James","looks too angry,-50,140,20","0"
"23280","","survey-text","34","310540","0.0-34.0-0.0","A7I3G380E29VE","","","","{""Q0"":""I like the icy blue tone, but there's not much too it.""}","","","","","","","","","","","","","","","","","","","","","","",""
"4742.5","","image-slider-response","35","315284","0.0-35.0","A7I3G380E29VE","","","","","9","","","","","","","","","","","","","","","","","","","","","",""
"2494","","image-button-response","36","320293","0.0-36.0","A7I3G380E29VE","img_art/ins/3.jpg","0","","","","","","","","","","","","","","","","","","","","","","","","",""
"7300","","image-button-response","37","327596","0.0-37.0","A7I3G380E29VE","img_art/ins/3.jpg","0","","","","","","","","","","","","","","","","","","","","","","","","",""
"1878","","image-button-response","38","329477","0.0-38.0-0.0","A7I3G380E29VE","img_art/ins/3.jpg","5","","","","","","","","","","","","","","","","","","","","","","","","",""
"10614","","image-button-response","39","340093","0.0-39.0-0.0","A7I3G380E29VE","img_art/ins/3.jpg","3","","","","","","","","","","","","","","","","","","","","","","","","",""
"null","","html-keyboard-response","40","341095","0.0-40.0","A7I3G380E29VE","<p style=""font-size: 48px;"">+</p>","","","","","null","allTrialResponses","1000","1","0","img_art/ins/3.jpg","9","I like the icy blue tone, but there's not much too it.","Mike,James,John,Carl,Ron,Sam","enjoy the different shades of blue,22,200,20","My worst nightmare,-42,140,20","I like the overlapping of brushes,41,160,20","It's an alright work,15,80,20","It looks depressing,-26,220,20","I can feel a rainy day from this painting,18,240,20","Mike","enjoy the different shades of blue,22,200,20","Sam","I can feel a rainy day from this painting,18,240,20","Carl","It's an alright work,15,80,20","0"
"5587","","image-button-response_instructions","41","346692","0.0-41.0","A7I3G380E29VE","","0","instructions","","","","","","","","","","","","","","","","","","","","","","","",""
"10199","","survey-likert","42","356893","0.0-42.0-0.0","A7I3G380E29VE","","","","{""Q0"":"""",""Q1"":0,""Q2"":1}","","","","","","","","","","","","","","","","","","","","","","",""
"3834","","survey-text","43","360732","0.0-43.0-0.0","A7I3G380E29VE","","","","{""Q0"":""rock""}","","","","","","","","","","","","","","","","","","","","","","",""
"52342","","survey-text","44","413076","0.0-44.0-0.0","A7I3G380E29VE","","","","{""Q0"":""This is kind of interesting. Looks like the artist mixed different pictures together.""}","","","","","","","","","","","","","","","","","","","","","","",""
"6710.300000011921","","image-slider-response","45","419788","0.0-45.0","A7I3G380E29VE","","","","","9","","","","","","","","","","","","","","","","","","","","","",""
"null","","image-button-response","46","424815","0.0-46.0","A7I3G380E29VE","img_art/17.jpg","null","","","","","","","","","","","","","","","","","","","","","","","","",""
"5386","","image-button-response","47","430204","0.0-47.0","A7I3G380E29VE","img_art/17.jpg","3","","","","","","","","","","","","","","","","","","","","","","","","",""
"2231","","image-button-response","48","432436","0.0-48.0-0.0","A7I3G380E29VE","img_art/17.jpg","4","","","","","","","","","","","","","","","","","","","","","","","","",""
"2047","","image-button-response","49","434484","0.0-49.0-0.0","A7I3G380E29VE","img_art/17.jpg","0","","","","","","","","","","","","","","","","","","","","","","","","",""
"null","","html-keyboard-response","50","434999","0.0-50.0","A7I3G380E29VE","<p style=""font-size: 48px;"">+</p>","","","","","null","allTrialResponses","500","1","1","img_art/17.jpg","9","This is kind of interesting. Looks like the artist mixed different pictures together.","Joseph,James,Brett,William,Jacob,Cody","I like the way the forest is taking over the buildings.,21,220,20","It's nice and realistic looking.,12,380,20","Looks like an explosion of pretty artwork,45,360,20","love the wispyness of it,34,380,20","The way they painted the trees is so cool.,27,340,20","Love the colors and the movement,46,180,20","William","love the wispyness of it,34,380,20","Jacob","The way they painted the trees is so cool.,27,340,20","Joseph","I like the way the forest is taking over the buildings.,21,220,20","0"
"41828","","survey-text","51","476836","0.0-51.0-0.0","A7I3G380E29VE","","","","{""Q0"":""I don't know what to think about this one.""}","","","","","","","","","","","","","","","","","","","","","","",""
"7270.199999988079","","image-slider-response","52","484108","0.0-52.0","A7I3G380E29VE","","","","","2","","","","","","","","","","","","","","","","","","","","","",""
"null","","image-button-response","53","489123","0.0-53.0","A7I3G380E29VE","img_art/9.jpg","null","","","","","","","","","","","","","","","","","","","","","","","","",""
"2758","","image-button-response","54","491884","0.0-54.0","A7I3G380E29VE","img_art/9.jpg","3","","","","","","","","","","","","","","","","","","","","","","","","",""
"3302","","image-button-response","55","495189","0.0-55.0-0.0","A7I3G380E29VE","img_art/9.jpg","4","","","","","","","","","","","","","","","","","","","","","","","","",""
"2397","","image-button-response","56","497589","0.0-56.0-0.0","A7I3G380E29VE","img_art/9.jpg","5","","","","","","","","","","","","","","","","","","","","","","","","",""
"null","","html-keyboard-response","57","498591","0.0-57.0","A7I3G380E29VE","<p style=""font-size: 48px;"">+</p>","","","","","null","allTrialResponses","1000","1","2","img_art/9.jpg","2","I don't know what to think about this one.","Joseph,Corey,Devin,William,Jacob,Robert","It's nice. Peaceful. Calming.,11,220,20","keeps me interested. like the colors,17,260,20","I really like the colors and details.,8,380,20","reminds me of a story book,18,380,20","So I don't really like this style but it looks somewhat okay,3,340,20","Someone sleeping in a cave. Dont like the scribble look.,-30,360,20","William","reminds me of a story book,18,380,20","Jacob","So I don't really like this style but it looks somewhat okay,3,340,20","Robert","Someone sleeping in a cave. Dont like the scribble look.,-30,360,20","0"
"28893","","survey-text","58","527492","0.0-58.0-0.0","A7I3G380E29VE","","","","{""Q0"":""This painting is pretty boring.""}","","","","","","","","","","","","","","","","","","","","","","",""
"3446.300000011921","","image-slider-response","59","530940","0.0-59.0","A7I3G380E29VE","","","","","-15","","","","","","","","","","","","","","","","","","","","","",""
"null","","image-button-response","60","535942","0.0-60.0","A7I3G380E29VE","img_art/15.jpg","null","","","","","","","","","","","","","","","","","","","","","","","","",""
"4019","","image-button-response","61","539964","0.0-61.0","A7I3G380E29VE","img_art/15.jpg","0","","","","","","","","","","","","","","","","","","","","","","","","",""
"2711","","image-button-response","62","542676","0.0-62.0-0.0","A7I3G380E29VE","img_art/15.jpg","0","","","","","","","","","","","","","","","","","","","","","","","","",""
"3431","","image-button-response","63","550812","0.0-62.1-0.1","A7I3G380E29VE","img_art/15.jpg","1","","","","","","","","","","","","","","","","","","","","","","","","",""
"9398","","image-button-response","64","560212","0.0-63.0-0.0","A7I3G380E29VE","img_art/15.jpg","4","","","","","","","","","","","","","","","","","","","","","","","","",""
"null","","html-keyboard-response","65","561723","0.0-64.0","A7I3G380E29VE","<p style=""font-size: 48px;"">+</p>","","","","","null","allTrialResponses","1500","1","3","img_art/15.jpg","-15","This painting is pretty boring.","Jeremy,Juan,Jason,William,Jacob,Robert","I feel nothing when looking at this,1,60,20","I don't even know what's going on here. Again, this is too abstract.,-21,260,20","Simplicity of colors is nice,11,20,20","makes me feel calm,40,380,20","I think it's trying to execute a cool idea, but unfortunately it doesn't appeal,5,340,20","This piece is too dark,-42,360,20","Jeremy","I feel nothing when looking at this,1,60,20","Juan","I don't even know what's going on here. Again, this is too abstract.,-21,260,20","Jacob","I think it's trying to execute a cool idea, but unfortunately it doesn't appeal,5,340,20","2"
"22232","","survey-text","66","583964","0.0-65.0-0.0","A7I3G380E29VE","","","","{""Q0"":""Looks like some kid drew over a painting.""}","","","","","","","","","","","","","","","","","","","","","","",""
"3894.399999976158","","image-slider-response","67","587860","0.0-66.0","A7I3G380E29VE","","","","","-21","","","","","","","","","","","","","","","","","","","","","",""
"null","","image-button-response","68","592862","0.0-67.0","A7I3G380E29VE","img_art/27.jpg","null","","","","","","","","","","","","","","","","","","","","","","","","",""
"274","","image-button-response","69","593140","0.0-68.0","A7I3G380E29VE","img_art/27.jpg","0","","","","","","","","","","","","","","","","","","","","","","","","",""
"13766","","image-button-response","70","606908","0.0-69.0-0.0","A7I3G380E29VE","img_art/27.jpg","5","","","","","","","","","","","","","","","","","","","","","","","","",""
"1494","","image-button-response","71","608404","0.0-70.0-0.0","A7I3G380E29VE","img_art/27.jpg","1","","","","","","","","","","","","","","","","","","","","","","","","",""
"null","","html-keyboard-response","72","609417","0.0-71.0","A7I3G380E29VE","<p style=""font-size: 48px;"">+</p>","","","","","null","allTrialResponses","1000","1","4","img_art/27.jpg","-21","Looks like some kid drew over a painting.","Jeremy,Juan,Eric,Mason,Jacob,Grant","Pleased. Reminds me of a child drawing,46,60,20","Colors make me think of fall, but I don't like how the picture was done or the weird lines across the background,6,260,20","This piece reminds me of a summer day.,30,100,20","dont like it, don't hate it, meh.,2,100,20","Don't get the point of this piece that much, but it doesn't bug me,1,340,20","This feels like I'm looking at a child's scribbles.,-27,200,20","Jeremy","Pleased. Reminds me of a child drawing,46,60,20","Grant","This feels like I'm looking at a child's scribbles.,-27,200,20","Juan","Colors make me think of fall, but I don't like how the picture was done or the weird lines across the background,6,260,20","2"
"25943","","survey-text","73","635372","0.0-72.0-0.0","A7I3G380E29VE","","","","{""Q0"":""This is interesting and unique.""}","","","","","","","","","","","","","","","","","","","","","","",""
"15286.100000023842","","image-slider-response","74","650660","0.0-73.0","A7I3G380E29VE","","","","","0","","","","","","","","","","","","","","","","","","","","","",""
"null","","image-button-response","75","655677","0.0-74.0","A7I3G380E29VE","img_art/11.jpg","null","","","","","","","","","","","","","","","","","","","","","","","","",""
"14011","","image-button-response","76","669692","0.0-75.0","A7I3G380E29VE","img_art/11.jpg","1","","","","","","","","","","","","","","","","","","","","","","","","",""
"4454","","image-button-response","77","674148","0.0-76.0-0.0","A7I3G380E29VE","img_art/11.jpg","2","","","","","","","","","","","","","","","","","","","","","","","","",""
"3711","","image-button-response","78","677860","0.0-77.0-0.0","A7I3G380E29VE","img_art/11.jpg","4","","","","","","","","","","","","","","","","","","","","","","","","",""
"null","","html-keyboard-response","79","679362","0.0-78.0","A7I3G380E29VE","<p style=""font-size: 48px;"">+</p>","","","","","null","allTrialResponses","1500","1","5","img_art/11.jpg","0","This is interesting and unique.","Jeremy,Juan,Garrett,Jose,Brandon,Grant","gave me a sense of gloom,-21,60,20","It makes me think of a rainy day and I like the colors. Also like the wavy lines.,22,260,20","This looks like a bridge that has plenty of color.,10,180,20","Makes me feel like my vision is breaking,19,200,20","Don't like cityscapes, which this picture reminds me of,-29,320,20","This elicits no reaction in me.,0,200,20","Juan","It makes me think of a rainy day and I like the colors. Also like the wavy lines.,22,260,20","Garrett","This looks like a bridge that has plenty of color.,10,180,20","Brandon","Don't like cityscapes, which this picture reminds me of,-29,320,20","2"
"3256","","survey-text","80","682644","0.0-79.0-0.0","A7I3G380E29VE","","","","{""Q0"":""sky""}","","","","","","","","","","","","","","","","","","","","","","",""
"35558","","survey-text","81","718204","0.0-80.0-0.0","A7I3G380E29VE","","","","{""Q0"":""I like the small village on a river feeling.""}","","","","","","","","","","","","","","","","","","","","","","",""
"3942.2999999523163","","image-slider-response","82","722148","0.0-81.0","A7I3G380E29VE","","","","","18","","","","","","","","","","","","","","","","","","","","","",""
"null","","image-button-response","83","727150","0.0-82.0","A7I3G380E29VE","img_art/19.jpg","null","","","","","","","","","","","","","","","","","","","","","","","","",""
"3466","","image-button-response","84","730620","0.0-83.0","A7I3G380E29VE","img_art/19.jpg","0","","","","","","","","","","","","","","","","","","","","","","","","",""
"14142","","image-button-response","85","744764","0.0-84.0-0.0","A7I3G380E29VE","img_art/19.jpg","3","","","","","","","","","","","","","","","","","","","","","","","","",""
"1822","","image-button-response","86","746588","0.0-85.0-0.0","A7I3G380E29VE","img_art/19.jpg","2","","","","","","","","","","","","","","","","","","","","","","","","",""
"null","","html-keyboard-response","87","747090","0.0-86.0","A7I3G380E29VE","<p style=""font-size: 48px;"">+</p>","","","","","null","allTrialResponses","500","1","6","img_art/19.jpg","18","I like the small village on a river feeling.","Adrian,Juan,Garrett,Steven,Brandon,Jordan","Pleasant colors with just enough detail to be recognizable. I can see a scene in it that tells a story.,7,60,20","Again, this is too abstract.,-10,260,20","This looks like a bunch of weird blobs and the colors don't go great together.,-10,180,20","I like it, I see someone walking his dog in the early morning time,23,160,20","Not a fan of the blobbiness,-22,320,20","I dont like the gray shadows, ruins it,-7,160,20","Adrian","Pleasant colors with just enough detail to be recognizable. I can see a scene in it that tells a story.,7,60,20","Steven","I like it, I see someone walking his dog in the early morning time,23,160,20","Garrett","This looks like a bunch of weird blobs and the colors don't go great together.,-10,180,20","2"
"15807","","survey-text","88","762908","0.0-87.0-0.0","A7I3G380E29VE","","","","{""Q0"":""This is not art.""}","","","","","","","","","","","","","","","","","","","","","","",""
"3894.5","","image-slider-response","89","766804","0.0-88.0","A7I3G380E29VE","","","","","-50","","","","","","","","","","","","","","","","","","","","","",""
"null","","image-button-response","90","771820","0.0-89.0","A7I3G380E29VE","img_art/5.jpg","null","","","","","","","","","","","","","","","","","","","","","","","","",""
"21860","","image-button-response","91","793684","0.0-90.0","A7I3G380E29VE","img_art/5.jpg","2","","","","","","","","","","","","","","","","","","","","","","","","",""
"1278","","image-button-response","92","794964","0.0-91.0-0.0","A7I3G380E29VE","img_art/5.jpg","3","","","","","","","","","","","","","","","","","","","","","","","","",""
"2022","","image-button-response","93","796988","0.0-92.0-0.0","A7I3G380E29VE","img_art/5.jpg","1","","","","","","","","","","","","","","","","","","","","","","","","",""
"null","","html-keyboard-response","94","798505","0.0-93.0","A7I3G380E29VE","<p style=""font-size: 48px;"">+</p>","","","","","null","allTrialResponses","1500","1","7","img_art/5.jpg","-50","This is not art.","Adrian,Thomas,Garrett,Steven,Vincent,Devon","Black bit reminds me of a giant splinter. Yellow bit reminds me of urine. I hate it.,-50,60,20","I'm confused by what I am looking at,-3,220,20","I don't know what it's supposed to be and it looks ugly the way the colors are on the yellow cube.,-50,180,20","I dont really get anything from this,-25,160,20","It speaks volumes to some. It's also a conversational piece. And very different ideas,34,360,20","a bit confused about this picture,-9,400,20","Garrett","I don't know what it's supposed to be and it looks ugly the way the colors are on the yellow cube.,-50,180,20","Steven","I dont really get anything from this,-25,160,20","Thomas","I'm confused by what I am looking at,-3,220,20","2"
"19216","","survey-text","95","817732","0.0-94.0-0.0","A7I3G380E29VE","","","","{""Q0"":""Looks like some kid got angry and was taking it out with a crayon.""}","","","","","","","","","","","","","","","","","","","","","","",""
"5062.799999952316","","image-slider-response","96","822796","0.0-95.0","A7I3G380E29VE","","","","","-39","","","","","","","","","","","","","","","","","","","","","",""
"null","","image-button-response","97","827799","0.0-96.0","A7I3G380E29VE","img_art/3.jpg","null","","","","","","","","","","","","","","","","","","","","","","","","",""
"5113","","image-button-response","98","832916","0.0-97.0","A7I3G380E29VE","img_art/3.jpg","3","","","","","","","","","","","","","","","","","","","","","","","","",""
"3902","","image-button-response","99","836820","0.0-98.0-0.0","A7I3G380E29VE","img_art/3.jpg","5","","","","","","","","","","","","","","","","","","","","","","","","",""
"1238","","image-button-response","100","838060","0.0-99.0-0.0","A7I3G380E29VE","img_art/3.jpg","0","","","","","","","","","","","","","","","","","","","","","","","","",""
"null","","html-keyboard-response","101","839062","0.0-100.0","A7I3G380E29VE","<p style=""font-size: 48px;"">+</p>","","","","","null","allTrialResponses","1000","1","8","img_art/3.jpg","-39","Looks like some kid got angry and was taking it out with a crayon.","Bryce,Thomas,Garrett,Steven,Derek,Justin","Scary. Looks like blood.,-45,20,20","Too messy and structure-less,-10,220,20","I can't tell what this image is supposed to be it looks extremely ugly and color variety is boring.,-50,180,20","i don't like this, just looks like scribbles,-50,160,20","Looks messy and too much for my eyes,-35,360,20","I don't care for art that looks like it was just scribbled.,-19,280,20","Steven","i don't like this, just looks like scribbles,-50,160,20","Justin","I don't care for art that looks like it was just scribbled.,-19,280,20","Bryce","Scary. Looks like blood.,-45,20,20","2"
"34171","","survey-text","102","873244","0.0-101.0-0.0","A7I3G380E29VE","","","","{""Q0"":""I usually don't like art like this, but I like how there's many different colors in the strokes.""}","","","","","","","","","","","","","","","","","","","","","","",""
"4638.199999988079","","image-slider-response","103","877883","0.0-102.0","A7I3G380E29VE","","","","","34","","","","","","","","","","","","","","","","","","","","","",""
"null","","image-button-response","104","882894","0.0-103.0","A7I3G380E29VE","img_art/30.jpg","null","","","","","","","","","","","","","","","","","","","","","","","","",""
"7051","","image-button-response","105","889948","0.0-104.0","A7I3G380E29VE","img_art/30.jpg","5","","","","","","","","","","","","","","","","","","","","","","","","",""
"774","","image-button-response","106","890724","0.0-105.0-0.0","A7I3G380E29VE","img_art/30.jpg","0","","","","","","","","","","","","","","","","","","","","","","","","",""
"9942","","image-button-response","107","900667","0.0-106.0-0.0","A7I3G380E29VE","img_art/30.jpg","2","","","","","","","","","","","","","","","","","","","","","","","","",""
"null","","html-keyboard-response","108","902170","0.0-107.0","A7I3G380E29VE","<p style=""font-size: 48px;"">+</p>","","","","","null","allTrialResponses","1500","1","9","img_art/30.jpg","34","I usually don't like art like this, but I like how there's many different colors in the strokes.","Bryce,Timothy,Jonathan,Steven,Connor,Justin","Very colorful! Wow!,22,20,20","It's pleasent but otherwise unprovoking,8,240,20","I like the softness of this but it doesn't make me feel that nice,5,140,20","cant see the meaning behind it,-20,160,20","Layers are interesting,22,240,20","The colors and the brushstrokes are interesting enough.,17,280,20","Justin","The colors and the brushstrokes are interesting enough.,17,280,20","Bryce","Very colorful! Wow!,22,20,20","Jonathan","I like the softness of this but it doesn't make me feel that nice,5,140,20","2"
"15366","","survey-text","109","917548","0.0-108.0-0.0","A7I3G380E29VE","","","","{""Q0"":""This is pleasant enough, looks familiar.""}","","","","","","","","","","","","","","","","","","","","","","",""
"2726.400000035763","","image-slider-response","110","920276","0.0-109.0","A7I3G380E29VE","","","","","16","","","","","","","","","","","","","","","","","","","","","",""
"null","","image-button-response","111","925282","0.0-110.0","A7I3G380E29VE","img_art/26.jpg","null","","","","","","","","","","","","","","","","","","","","","","","","",""
"4470","","image-button-response","112","929756","0.0-111.0","A7I3G380E29VE","img_art/26.jpg","4","","","","","","","","","","","","","","","","","","","","","","","","",""
"3678","","image-button-response","113","933436","0.0-112.0-0.0","A7I3G380E29VE","img_art/26.jpg","2","","","","","","","","","","","","","","","","","","","","","","","","",""
"3054","","image-button-response","114","936492","0.0-113.0-0.0","A7I3G380E29VE","img_art/26.jpg","0","","","","","","","","","","","","","","","","","","","","","","","","",""
"null","","html-keyboard-response","115","936998","0.0-114.0","A7I3G380E29VE","<p style=""font-size: 48px;"">+</p>","","","","","null","allTrialResponses","500","1","10","img_art/26.jpg","16","This is pleasant enough, looks familiar.","Bryce,Bryan,Jonathan,Joshua,Gregory,Justin","Love the colors in this one.,22,20,20","Like the muted colors & the scene which seems to be serene.,14,400,20","It's relaxing to look at but I wish it was just a little more defined,20,140,20","This is boring.,-15,240,20","Street corner on a sunny day,5,220,20","It looks boring and too rough.,-9,280,20","Gregory","Street corner on a sunny day,5,220,20","Jonathan","It's relaxing to look at but I wish it was just a little more defined,20,140,20","Bryce","Love the colors in this one.,22,20,20","2"
"5371","","survey-text","116","942388","0.0-115.0-0.0","A7I3G380E29VE","","","","{""Q0"":""our""}","","","","","","","","","","","","","","","","","","","","","","",""
"10983","","survey-text","117","953372","0.0-116.0-0.0","A7I3G380E29VE","","","","{""Q0"":""I can't even...""}","","","","","","","","","","","","","","","","","","","","","","",""
"3462.5","","image-slider-response","118","956836","0.0-117.0","A7I3G380E29VE","","","","","-50","","","","","","","","","","","","","","","","","","","","","",""
"null","","image-button-response","119","961838","0.0-118.0","A7I3G380E29VE","img_art/16.jpg","null","","","","","","","","","","","","","","","","","","","","","","","","",""
"4594","","image-button-response","120","966436","0.0-119.0","A7I3G380E29VE","img_art/16.jpg","0","","","","","","","","","","","","","","","","","","","","","","","","",""
"646","","image-button-response","121","967084","0.0-120.0-0.0","A7I3G380E29VE","img_art/16.jpg","1","","","","","","","","","","","","","","","","","","","","","","","","",""
"6445","","image-button-response","122","973531","0.0-121.0-0.0","A7I3G380E29VE","img_art/16.jpg","3","","","","","","","","","","","","","","","","","","","","","","","","",""
"null","","html-keyboard-response","123","974035","0.0-122.0","A7I3G380E29VE","<p style=""font-size: 48px;"">+</p>","","","","","null","allTrialResponses","500","1","11","img_art/16.jpg","-50","I can't even...","Bryce,Nathaniel,Jonathan,Stephen,Gregory,Shawn","The teddy bear is scary as hell.,-44,20,20","Creeps me out. Like..really creeps me out.,-48,220,20","It's a little anxiety inducing in a good way,16,140,20","Cute but there's a lot going on.,7,140,20","Weird and funny,40,220,20","Fun but a little cheesy,15,100,20","Bryce","The teddy bear is scary as hell.,-44,20,20","Nathaniel","Creeps me out. Like..really creeps me out.,-48,220,20","Stephen","Cute but there's a lot going on.,7,140,20","2"
"40052","","survey-text","124","1014099","0.0-123.0-0.0","A7I3G380E29VE","","","","{""Q0"":""I don't like the dull colors""}","","","","","","","","","","","","","","","","","","","","","","",""
"3390.5","","image-slider-response","125","1017491","0.0-124.0","A7I3G380E29VE","","","","","-21","","","","","","","","","","","","","","","","","","","","","",""
"null","","image-button-response","126","1022493","0.0-125.0","A7I3G380E29VE","img_art/28.jpg","null","","","","","","","","","","","","","","","","","","","","","","","","",""
"1234","","image-button-response","127","1023731","0.0-126.0","A7I3G380E29VE","img_art/28.jpg","1","","","","","","","","","","","","","","","","","","","","","","","","",""
"1222","","image-button-response","128","1024955","0.0-127.0-0.0","A7I3G380E29VE","img_art/28.jpg","0","","","","","","","","","","","","","","","","","","","","","","","","",""
"14055","","image-button-response","129","1039012","0.0-128.0-0.0","A7I3G380E29VE","img_art/28.jpg","5","","","","","","","","","","","","","","","","","","","","","","","","",""
"null","","html-keyboard-response","130","1039514","0.0-129.0","A7I3G380E29VE","<p style=""font-size: 48px;"">+</p>","","","","","null","allTrialResponses","500","1","12","img_art/28.jpg","-21","I don't like the dull colors","Bryce,Nathaniel,Taylor,Stephen,Caleb,Patrick","It gives me weird vibes.,-25,20,20","Has an air of darkness to it, but no real substance besides the mouse-like thing.,-38,220,20","Bug meets bug in a dark alley.,-20,200,20","Good use of shapes.,7,140,20","White and dark balance is way off- Seems dull.,-33,40,20","This swirly drawing i snot my type I get confused and dizzy,-20,280,20","Nathaniel","Has an air of darkness to it, but no real substance besides the mouse-like thing.,-38,220,20","Bryce","It gives me weird vibes.,-25,20,20","Patrick","This swirly drawing i snot my type I get confused and dizzy,-20,280,20","2"
"20110","","survey-text","131","1059635","0.0-130.0-0.0","A7I3G380E29VE","","","","{""Q0"":""I love the colors and the natural imagery.""}","","","","","","","","","","","","","","","","","","","","","","",""
"3854.399999976158","","image-slider-response","132","1063491","0.0-131.0","A7I3G380E29VE","","","","","42","","","","","","","","","","","","","","","","","","","","","",""
"null","","image-button-response","133","1068508","0.0-132.0","A7I3G380E29VE","img_art/24.jpg","null","","","","","","","","","","","","","","","","","","","","","","","","",""
"6268","","image-button-response","134","1074779","0.0-133.0","A7I3G380E29VE","img_art/24.jpg","1","","","","","","","","","","","","","","","","","","","","","","","","",""
"5222","","image-button-response","135","1080004","0.0-134.0-0.0","A7I3G380E29VE","img_art/24.jpg","4","","","","","","","","","","","","","","","","","","","","","","","","",""
"4166","","image-button-response","136","1084172","0.0-135.0-0.0","A7I3G380E29VE","img_art/24.jpg","5","","","","","","","","","","","","","","","","","","","","","","","","",""
"null","","html-keyboard-response","137","1085674","0.0-136.0","A7I3G380E29VE","<p style=""font-size: 48px;"">+</p>","","","","","null","allTrialResponses","1500","1","13","img_art/24.jpg","42","I love the colors and the natural imagery.","Bryce,Nathaniel,Victor,Luke,Spencer,Patrick","Looks like a waterfall!,34,20,20","Feels surreal, in a way, and vibrant,37,220,20","I don't even know. It's just kind of meh,1,340,20","very colorful and intricate and makes me feel at peace,50,20,20","Happy, the forest as I would love to see it,50,120,20","Beautiful scenic drawing with perfect color coordination,43,280,20","Nathaniel","Feels surreal, in a way, and vibrant,37,220,20","Spencer","Happy, the forest as I would love to see it,50,120,20","Patrick","Beautiful scenic drawing with perfect color coordination,43,280,20","2"
"23838","","survey-text","138","1109523","0.0-137.0-0.0","A7I3G380E29VE","","","","{""Q0"":""Again, I don't see this as art.""}","","","","","","","","","","","","","","","","","","","","","","",""
"3382.5","","image-slider-response","139","1112907","0.0-138.0","A7I3G380E29VE","","","","","-50","","","","","","","","","","","","","","","","","","","","","",""
"null","","image-button-response","140","1117910","0.0-139.0","A7I3G380E29VE","img_art/29.jpg","null","","","","","","","","","","","","","","","","","","","","","","","","",""
"3139","","image-button-response","141","1121052","0.0-140.0","A7I3G380E29VE","img_art/29.jpg","1","","","","","","","","","","","","","","","","","","","","","","","","",""
"8590","","image-button-response","142","1129644","0.0-141.0-0.0","A7I3G380E29VE","img_art/29.jpg","5","","","","","","","","","","","","","","","","","","","","","","","","",""
"982","","image-button-response","143","1130628","0.0-142.0-0.0","A7I3G380E29VE","img_art/29.jpg","4","","","","","","","","","","","","","","","","","","","","","","","","",""
"null","","html-keyboard-response","144","1131629","0.0-143.0","A7I3G380E29VE","<p style=""font-size: 48px;"">+</p>","","","","","null","allTrialResponses","1000","1","14","img_art/29.jpg","-50","Again, I don't see this as art.","Malik,Nathaniel,Peter,Lucas,Spencer,Patrick","Feels like an abandoned dream,13,40,20","Giant messy blob. Looks like it tries to be edgy, but fails.,-40,220,20","Looks like a jail cell,-15,320,20","Looks kinda scary.,25,380,20","Scrawled graffiti, with a red x as saying it was a mistake,-40,120,20","I don't like the black,-50,280,20","Nathaniel","Giant messy blob. Looks like it tries to be edgy, but fails.,-40,220,20","Patrick","I don't like the black,-50,280,20","Spencer","Scrawled graffiti, with a red x as saying it was a mistake,-40,120,20","2"
"18982","","survey-text","145","1150619","0.0-144.0-0.0","A7I3G380E29VE","","","","{""Q0"":""Interesting patterns.""}","","","","","","","","","","","","","","","","","","","","","","",""
"4038.599999964237","","image-slider-response","146","1154659","0.0-145.0","A7I3G380E29VE","","","","","0","","","","","","","","","","","","","","","","","","","","","",""
"null","","image-button-response","147","1159664","0.0-146.0","A7I3G380E29VE","img_art/10.jpg","null","","","","","","","","","","","","","","","","","","","","","","","","",""
"12289","","image-button-response","148","1171955","0.0-147.0","A7I3G380E29VE","img_art/10.jpg","1","","","","","","","","","","","","","","","","","","","","","","","","",""
"1294","","image-button-response","149","1173251","0.0-148.0-0.0","A7I3G380E29VE","img_art/10.jpg","0","","","","","","","","","","","","","","","","","","","","","","","","",""
"3942","","image-button-response","150","1177196","0.0-149.0-0.0","A7I3G380E29VE","img_art/10.jpg","4","","","","","","","","","","","","","","","","","","","","","","","","",""
"null","","html-keyboard-response","151","1178705","0.0-150.0","A7I3G380E29VE","<p style=""font-size: 48px;"">+</p>","","","","","null","allTrialResponses","1500","1","15","img_art/10.jpg","0","Interesting patterns.","Christopher,Nathaniel,Isaiah,Scott,Spencer,Patrick","i like this, the mix of brush textures is cool,24,160,20","For black and white, this is pretty vibrant and cool. I like this.,39,220,20","I feel little to no emotion looking at this painting.,0,300,20","kind of reminds me of a map,1,20,20","Dark with no object, looks like experimentation, slightly like a storm on the ocean,-21,120,20","I don't like the colors,-20,280,20","Nathaniel","For black and white, this is pretty vibrant and cool. I like this.,39,220,20","Christopher","i like this, the mix of brush textures is cool,24,160,20","Spencer","Dark with no object, looks like experimentation, slightly like a storm on the ocean,-21,120,20","2"
"3452","","survey-text","152","1182179","0.0-151.0-0.0","A7I3G380E29VE","","","","{""Q0"":""course""}","","","","","","","","","","","","","","","","","","","","","","",""
"23015","","survey-text","153","1205195","0.0-152.0-0.0","A7I3G380E29VE","","","","{""Q0"":""Looks cultish like the wicker man, not a big fan of the colors.""}","","","","","","","","","","","","","","","","","","","","","","",""
"3678.600000023842","","image-slider-response","154","1208875","0.0-153.0","A7I3G380E29VE","","","","","-3","","","","","","","","","","","","","","","","","","","","","",""
"null","","image-button-response","155","1213891","0.0-154.0","A7I3G380E29VE","img_art/25.jpg","null","","","","","","","","","","","","","","","","","","","","","","","","",""
"12543","","image-button-response","156","1226435","0.0-155.0","A7I3G380E29VE","img_art/25.jpg","3","","","","","","","","","","","","","","","","","","","","","","","","",""
"2678","","image-button-response","157","1229115","0.0-156.0-0.0","A7I3G380E29VE","img_art/25.jpg","4","","","","","","","","","","","","","","","","","","","","","","","","",""
"2942","","image-button-response","158","1232059","0.0-157.0-0.0","A7I3G380E29VE","img_art/25.jpg","1","","","","","","","","","","","","","","","","","","","","","","","","",""
"null","","html-keyboard-response","159","1233573","0.0-158.0","A7I3G380E29VE","<p style=""font-size: 48px;"">+</p>","","","","","null","allTrialResponses","1500","1","16","img_art/25.jpg","-3","Looks cultish like the wicker man, not a big fan of the colors.","Christopher,Nathaniel,Tyler,Jared,Spencer,Adam","green is really cool, and the pieces in black fit together and are interesting,20,160,20","I love the background color and it's creepy...but cool.,30,220,20","Meh. Hardly abstract, though.,-40,320,20","the green is serene. the figure is scare crow like,7,400,20","I really like it, very simple, very tribal,38,120,20","high contrast draws attention to the image, but I'm not sure what I'm seeing,-5,40,20","Jared","the green is serene. the figure is scare crow like,7,400,20","Spencer","I really like it, very simple, very tribal,38,120,20","Nathaniel","I love the background color and it's creepy...but cool.,30,220,20","2"
"12705","","survey-text","160","1246291","0.0-159.0-0.0","A7I3G380E29VE","","","","{""Q0"":""The colors of a sunset.""}","","","","","","","","","","","","","","","","","","","","","","",""
"3622.400000035763","","image-slider-response","161","1249915","0.0-160.0","A7I3G380E29VE","","","","","4","","","","","","","","","","","","","","","","","","","","","",""
"null","","image-button-response","162","1254930","0.0-161.0","A7I3G380E29VE","img_art/1.jpg","null","","","","","","","","","","","","","","","","","","","","","","","","",""
"13558","","image-button-response","163","1268491","0.0-162.0","A7I3G380E29VE","img_art/1.jpg","1","","","","","","","","","","","","","","","","","","","","","","","","",""
"2367","","image-button-response","164","1270859","0.0-163.0-0.0","A7I3G380E29VE","img_art/1.jpg","2","","","","","","","","","","","","","","","","","","","","","","","","",""
"1814","","image-button-response","165","1272676","0.0-164.0-0.0","A7I3G380E29VE","img_art/1.jpg","4","","","","","","","","","","","","","","","","","","","","","","","","",""
"null","","html-keyboard-response","166","1273178","0.0-165.0","A7I3G380E29VE","<p style=""font-size: 48px;"">+</p>","","","","","null","allTrialResponses","500","1","17","img_art/1.jpg","4","The colors of a sunset.","Jack,Nathaniel,Matthew,Jared,Spencer,Hunter","beautiful colors and brush strokes,47,320,20","A bit of a smokey mess, but it does have an air of mystery I like,7,220,20","More passable, colorful, abstract.,13,120,20","there isnt anything clear to look at,-2,400,20","Pretty intermeshing of colors, happy,32,120,20","muddy and uninteresting,-16,240,20","Nathaniel","A bit of a smokey mess, but it does have an air of mystery I like,7,220,20","Matthew","More passable, colorful, abstract.,13,120,20","Spencer","Pretty intermeshing of colors, happy,32,120,20","2"
"31901","","survey-text","167","1305090","0.0-166.0-0.0","A7I3G380E29VE","","","","{""Q0"":""It's like a bunch of tiny abstract paintings patched together.""}","","","","","","","","","","","","","","","","","","","","","","",""
"9150.600000023842","","image-slider-response","168","1314243","0.0-167.0","A7I3G380E29VE","","","","","0","","","","","","","","","","","","","","","","","","","","","",""
"null","","image-button-response","169","1319246","0.0-168.0","A7I3G380E29VE","img_art/12.jpg","null","","","","","","","","","","","","","","","","","","","","","","","","",""
"4127","","image-button-response","170","1323379","0.0-169.0","A7I3G380E29VE","img_art/12.jpg","0","","","","","","","","","","","","","","","","","","","","","","","","",""
"10662","","image-button-response","171","1334043","0.0-170.0-0.0","A7I3G380E29VE","img_art/12.jpg","4","","","","","","","","","","","","","","","","","","","","","","","","",""
"7541","","image-button-response","172","1341587","0.0-171.0-0.0","A7I3G380E29VE","img_art/12.jpg","2","","","","","","","","","","","","","","","","","","","","","","","","",""
"null","","html-keyboard-response","173","1343089","0.0-172.0","A7I3G380E29VE","<p style=""font-size: 48px;"">+</p>","","","","","null","allTrialResponses","1500","1","18","img_art/12.jpg","0","It's like a bunch of tiny abstract paintings patched together.","Isaac,Nathaniel,Matthew,Tristan,Spencer,Alexis","I like the gradient of little color on the top to colorful on the bottom.,24,280,20","Too many blocks. I can't see a purpose or a focal point,-44,220,20","It's boxy, cubist immpressionism? Very ncie.,32,120,20","Quite lovely with depth and possibility.,21,300,20","Looks like a puzzle I want to put together, but not hang in my den,2,120,20","In my opinion, this photo has an old school vibe,22,140,20","Isaac","I like the gradient of little color on the top to colorful on the bottom.,24,280,20","Spencer","Looks like a puzzle I want to put together, but not hang in my den,2,120,20","Matthew","It's boxy, cubist immpressionism? Very ncie.,32,120,20","2"
"21988","","survey-text","174","1365091","0.0-173.0-0.0","A7I3G380E29VE","","","","{""Q0"":""Strange, but for some reason I find it appealing.""}","","","","","","","","","","","","","","","","","","","","","","",""
"3174.399999976158","","image-slider-response","175","1368267","0.0-174.0","A7I3G380E29VE","","","","","3","","","","","","","","","","","","","","","","","","","","","",""
"null","","image-button-response","176","1373270","0.0-175.0","A7I3G380E29VE","img_art/4.jpg","null","","","","","","","","","","","","","","","","","","","","","","","","",""
"1122","","image-button-response","177","1374395","0.0-176.0","A7I3G380E29VE","img_art/4.jpg","0","","","","","","","","","","","","","","","","","","","","","","","","",""
"4310","","image-button-response","178","1378707","0.0-177.0-0.0","A7I3G380E29VE","img_art/4.jpg","1","","","","","","","","","","","","","","","","","","","","","","","","",""
"6599","","image-button-response","179","1385307","0.0-178.0-0.0","A7I3G380E29VE","img_art/4.jpg","2","","","","","","","","","","","","","","","","","","","","","","","","",""
"null","","html-keyboard-response","180","1386311","0.0-179.0","A7I3G380E29VE","<p style=""font-size: 48px;"">+</p>","","","","","null","allTrialResponses","1000","1","19","img_art/4.jpg","3","Strange, but for some reason I find it appealing.","Isaac,Alejandro,Matthew,Kyle,Spencer,John","The colors remind me of McDonalds.,-41,280,20","Looks like finger nails from the Guinness world record book.,-30,80,20","It looks like a hand.,25,120,20","It's quite meh to me,0,340,20","To me just looking at paint scrawls,-41,120,20","Extremely simple and like not alot of time was put into it,-20,120,20","Isaac","The colors remind me of McDonalds.,-41,280,20","Alejandro","Looks like finger nails from the Guinness world record book.,-30,80,20","Matthew","It looks like a hand.,25,120,20","2"
"44390","","survey-text","181","1430715","0.0-180.0-0.0","A7I3G380E29VE","","","","{""Q0"":""Looks like a post apocalyptic scene with a crashed truck. I like the brush strokes.""}","","","","","","","","","","","","","","","","","","","","","","",""
"3422.5","","image-slider-response","182","1434139","0.0-181.0","A7I3G380E29VE","","","","","7","","","","","","","","","","","","","","","","","","","","","",""
"null","","image-button-response","183","1439142","0.0-182.0","A7I3G380E29VE","img_art/20.jpg","null","","","","","","","","","","","","","","","","","","","","","","","","",""
"9601","","image-button-response","184","1448747","0.0-183.0","A7I3G380E29VE","img_art/20.jpg","3","","","","","","","","","","","","","","","","","","","","","","","","",""
"5630","","image-button-response","185","1454379","0.0-184.0-0.0","A7I3G380E29VE","img_art/20.jpg","1","","","","","","","","","","","","","","","","","","","","","","","","",""
"1887","","image-button-response","186","1456267","0.0-185.0-0.0","A7I3G380E29VE","img_art/20.jpg","0","","","","","","","","","","","","","","","","","","","","","","","","",""
"null","","html-keyboard-response","187","1457269","0.0-186.0","A7I3G380E29VE","<p style=""font-size: 48px;"">+</p>","","","","","null","allTrialResponses","1000","1","20","img_art/20.jpg","7","Looks like a post apocalyptic scene with a crashed truck. I like the brush strokes.","Isaac,Alejandro,Matthew,Kevin,Daniel,Anthony","It is abstract but it looks neat.,15,280,20","The pulling and sagging nature is very beautiful.,30,80,20","Painting within a painting, abstract.,32,120,20","The beast is running after you.,33,320,20","Fails to capture what similar styles do,-12,320,20","Neutral, this piece doesn't strike me as particularly bad or good,0,200,20","Kevin","The beast is running after you.,33,320,20","Alejandro","The pulling and sagging nature is very beautiful.,30,80,20","Isaac","It is abstract but it looks neat.,15,280,20","2"
"2262","","survey-text","188","1459555","0.0-187.0-0.0","A7I3G380E29VE","","","","{""Q0"":""we""}","","","","","","","","","","","","","","","","","","","","","","",""
"31231","","survey-text","189","1490788","0.0-188.0-0.0","A7I3G380E29VE","","","","{""Q0"":""I like how the colors fade into each other. ""}","","","","","","","","","","","","","","","","","","","","","","",""
"2845.800000011921","","image-slider-response","190","1493635","0.0-189.0","A7I3G380E29VE","","","","","6","","","","","","","","","","","","","","","","","","","","","",""
"null","","image-button-response","191","1498638","0.0-190.0","A7I3G380E29VE","img_art/21.jpg","null","","","","","","","","","","","","","","","","","","","","","","","","",""
"11042","","image-button-response","192","1509683","0.0-191.0","A7I3G380E29VE","img_art/21.jpg","0","","","","","","","","","","","","","","","","","","","","","","","","",""
"983","","image-button-response","193","1510667","0.0-192.0-0.0","A7I3G380E29VE","img_art/21.jpg","1","","","","","","","","","","","","","","","","","","","","","","","","",""
"1719","","image-button-response","194","1512388","0.0-193.0-0.0","A7I3G380E29VE","img_art/21.jpg","5","","","","","","","","","","","","","","","","","","","","","","","","",""
"null","","html-keyboard-response","195","1513389","0.0-194.0","A7I3G380E29VE","<p style=""font-size: 48px;"">+</p>","","","","","null","allTrialResponses","1000","1","21","img_art/21.jpg","6","I like how the colors fade into each other. ","Isaac,Alejandro,Austin,Kevin,Brian,Carlos","I like the colors. It looks dramatic.,5,280,20","Feels like a clash between land and sea,31,80,20","Touches the heart,50,240,20","Another ship on fire.,-10,320,20","there's not enough fine detail in this one,-27,380,20","Motion, the light marks in the lower right corner are very appealing.,15,80,20","Isaac","I like the colors. It looks dramatic.,5,280,20","Alejandro","Feels like a clash between land and sea,31,80,20","Carlos","Motion, the light marks in the lower right corner are very appealing.,15,80,20","2"
"22479","","survey-text","196","1535875","0.0-195.0-0.0","A7I3G380E29VE","","","","{""Q0"":""Looks like how you'd imagine the surface of mars to be.""}","","","","","","","","","","","","","","","","","","","","","","",""
"2598.5","","image-slider-response","197","1538475","0.0-196.0","A7I3G380E29VE","","","","","-10","","","","","","","","","","","","","","","","","","","","","",""
"null","","image-button-response","198","1543493","0.0-197.0","A7I3G380E29VE","img_art/7.jpg","null","","","","","","","","","","","","","","","","","","","","","","","","",""
"3170","","image-button-response","199","1546667","0.0-198.0","A7I3G380E29VE","img_art/7.jpg","1","","","","","","","","","","","","","","","","","","","","","","","","",""
"3958","","image-button-response","200","1550627","0.0-199.0-0.0","A7I3G380E29VE","img_art/7.jpg","2","","","","","","","","","","","","","","","","","","","","","","","","",""
"3959","","image-button-response","201","1554587","0.0-200.0-0.0","A7I3G380E29VE","img_art/7.jpg","4","","","","","","","","","","","","","","","","","","","","","","","","",""
"null","","html-keyboard-response","202","1555090","0.0-201.0","A7I3G380E29VE","<p style=""font-size: 48px;"">+</p>","","","","","null","allTrialResponses","500","1","22","img_art/7.jpg","-10","Looks like how you'd imagine the surface of mars to be.","Isaac,Alejandro,Colton,Cole,Dalton,Carlos","It looks more like wallpaper rather than a painting.,-27,280,20","I thought I was looking at a satellite image of mars.,21,80,20","reminds me of a cave wall,-21,220,20","Are these ancient cave paintings?,-7,200,20","i dont like it. it looks like rocks,-40,300,20","The dried bottom of a puddle in July.,-41,80,20","Alejandro","I thought I was looking at a satellite image of mars.,21,80,20","Colton","reminds me of a cave wall,-21,220,20","Dalton","i dont like it. it looks like rocks,-40,300,20","2"
"21659","","survey-text","203","1576763","0.0-202.0-0.0","A7I3G380E29VE","","","","{""Q0"":""Peachy colors I guess.""}","","","","","","","","","","","","","","","","","","","","","","",""
"3622.2999999523163","","image-slider-response","204","1580387","0.0-203.0","A7I3G380E29VE","","","","","-21","","","","","","","","","","","","","","","","","","","","","",""
"null","","image-button-response","205","1585403","0.0-204.0","A7I3G380E29VE","img_art/22.jpg","null","","","","","","","","","","","","","","","","","","","","","","","","",""
"7324","","image-button-response","206","1592731","0.0-205.0","A7I3G380E29VE","img_art/22.jpg","4","","","","","","","","","","","","","","","","","","","","","","","","",""
"1926","","image-button-response","207","1594658","0.0-206.0-0.0","A7I3G380E29VE","img_art/22.jpg","0","","","","","","","","","","","","","","","","","","","","","","","","",""
"2486","","image-button-response","208","1597147","0.0-207.0-0.0","A7I3G380E29VE","img_art/22.jpg","1","","","","","","","","","","","","","","","","","","","","","","","","",""
"null","","html-keyboard-response","209","1598651","0.0-208.0","A7I3G380E29VE","<p style=""font-size: 48px;"">+</p>","","","","","null","allTrialResponses","1500","1","23","img_art/22.jpg","-21","Peachy colors I guess.","Paul,Alejandro,Colton,Andrew,Dalton,David","I really like the bright colors and sunset feel,31,300,20","Beautiful use of chalk or pastels. Love the abstract nature.,35,80,20","I enjoy the colors used,24,220,20","Doesn't make me feel anything,-4,160,20","i think its pretty but im not sure what i see,1,300,20","This doesn't invoke anything, since I can't tell what the piece represents.,0,340,20","Dalton","i think its pretty but im not sure what i see,1,300,20","Paul","I really like the bright colors and sunset feel,31,300,20","Alejandro","Beautiful use of chalk or pastels. Love the abstract nature.,35,80,20","2"
"30906","","survey-text","210","1629570","0.0-209.0-0.0","A7I3G380E29VE","","","","{""Q0"":""This is pretty cool and I wish I could describe why.""}","","","","","","","","","","","","","","","","","","","","","","",""
"4078.600000023842","","image-slider-response","211","1633651","0.0-210.0","A7I3G380E29VE","","","","","42","","","","","","","","","","","","","","","","","","","","","",""
"null","","image-button-response","212","1638653","0.0-211.0","A7I3G380E29VE","img_art/8.jpg","null","","","","","","","","","","","","","","","","","","","","","","","","",""
"11314","","image-button-response","213","1649971","0.0-212.0","A7I3G380E29VE","img_art/8.jpg","1","","","","","","","","","","","","","","","","","","","","","","","","",""
"1662","","image-button-response","214","1651635","0.0-213.0-0.0","A7I3G380E29VE","img_art/8.jpg","2","","","","","","","","","","","","","","","","","","","","","","","","",""
"5294","","image-button-response","215","1656931","0.0-214.0-0.0","A7I3G380E29VE","img_art/8.jpg","5","","","","","","","","","","","","","","","","","","","","","","","","",""
"null","","html-keyboard-response","216","1657934","0.0-215.0","A7I3G380E29VE","<p style=""font-size: 48px;"">+</p>","","","","","null","allTrialResponses","1000","1","24","img_art/8.jpg","42","This is pretty cool and I wish I could describe why.","Paul,Alejandro,Cameron,Seth,Dalton,Samuel","The faces in the upper left show agony and contrast with the geometric shapes too much,-31,300,20","i like the abstract nature of a birds eye view of the city. The hard shapes and squares present with a softness rather than rigidity.,26,80,20","what's going on here. looks like scary town.,-25,60,20","I don't care for the piece, but I appreciate the talent that it took to create it.,22,60,20","woman looking over a the community,1,300,20","being watched over,17,400,20","Alejandro","i like the abstract nature of a birds eye view of the city. The hard shapes and squares present with a softness rather than rigidity.,26,80,20","Cameron","what's going on here. looks like scary town.,-25,60,20","Samuel","being watched over,17,400,20","2"
"15806","","survey-text","217","1673755","0.0-216.0-0.0","A7I3G380E29VE","","","","{""Q0"":""Reminds me of a day in the park.""}","","","","","","","","","","","","","","","","","","","","","","",""
"5294.199999988079","","image-slider-response","218","1679050","0.0-217.0","A7I3G380E29VE","","","","","1","","","","","","","","","","","","","","","","","","","","","",""
"null","","image-button-response","219","1684053","0.0-218.0","A7I3G380E29VE","img_art/2.jpg","null","","","","","","","","","","","","","","","","","","","","","","","","",""
"4124","","image-button-response","220","1688179","0.0-219.0","A7I3G380E29VE","img_art/2.jpg","2","","","","","","","","","","","","","","","","","","","","","","","","",""
"6550","","image-button-response","221","1694731","0.0-220.0-0.0","A7I3G380E29VE","img_art/2.jpg","3","","","","","","","","","","","","","","","","","","","","","","","","",""
"918","","image-button-response","222","1695651","0.0-221.0-0.0","A7I3G380E29VE","img_art/2.jpg","1","","","","","","","","","","","","","","","","","","","","","","","","",""
"null","","html-keyboard-response","223","1696153","0.0-222.0","A7I3G380E29VE","<p style=""font-size: 48px;"">+</p>","","","","","null","allTrialResponses","500","1","25","img_art/2.jpg","1","Reminds me of a day in the park.","Sean,Alejandro,Cameron,Dakota,Blake,Samuel","looks like a bunch of gibberish,-39,40,20","Looks contrived and like someone tried to hard to make it abstract,-31,80,20","Ugly version of that park painting.,-31,60,20","active and kinetic- simplified,14,280,20","ugly green color and makes me sick,-29,280,20","i liked the bright colors,13,400,20","Cameron","Ugly version of that park painting.,-31,60,20","Dakota","active and kinetic- simplified,14,280,20","Alejandro","Looks contrived and like someone tried to hard to make it abstract,-31,80,20","2"
"3223","","survey-text","224","1699402","0.0-223.0-0.0","A7I3G380E29VE","","","","{""Q0"":""table""}","","","","","","","","","","","","","","","","","","","","","","",""
"25039","","survey-text","225","1724442","0.0-224.0-0.0","A7I3G380E29VE","","","","{""Q0"":""I like that orange color, but not much else going for it.""}","","","","","","","","","","","","","","","","","","","","","","",""
"5678","","image-slider-response","226","1730122","0.0-225.0","A7I3G380E29VE","","","","","0","","","","","","","","","","","","","","","","","","","","","",""
"null","","image-button-response","227","1735135","0.0-226.0","A7I3G380E29VE","img_art/6.jpg","null","","","","","","","","","","","","","","","","","","","","","","","","",""
"4473","","image-button-response","228","1739611","0.0-227.0","A7I3G380E29VE","img_art/6.jpg","4","","","","","","","","","","","","","","","","","","","","","","","","",""
"6814","","image-button-response","229","1746426","0.0-228.0-0.0","A7I3G380E29VE","img_art/6.jpg","1","","","","","","","","","","","","","","","","","","","","","","","","",""
"870","","image-button-response","230","1747299","0.0-229.0-0.0","A7I3G380E29VE","img_art/6.jpg","2","","","","","","","","","","","","","","","","","","","","","","","","",""
"null","","html-keyboard-response","231","1748814","0.0-230.0","A7I3G380E29VE","<p style=""font-size: 48px;"">+</p>","","","","","null","allTrialResponses","1500","1","26","img_art/6.jpg","0","I like that orange color, but not much else going for it.","Nathan,Alejandro,Cameron,Dakota,Nicholas,Chase","Not a fan of anything in this,-43,200,20","Gives me a feeling of solitude and nothingness,11,80,20","Kind of neat, but then that's a weird looking bird. too weird.,0,60,20","graceful and light,35,280,20","It isnt bad but sort of too bland,0,240,20","It's a bit bland, but looks like a bird standing.,11,120,20","Nicholas","It isnt bad but sort of too bland,0,240,20","Alejandro","Gives me a feeling of solitude and nothingness,11,80,20","Cameron","Kind of neat, but then that's a weird looking bird. too weird.,0,60,20","2"
"23310","","survey-text","232","1772138","0.0-231.0-0.0","A7I3G380E29VE","","","","{""Q0"":""Oh another splattered paint picture.""}","","","","","","","","","","","","","","","","","","","","","","",""
"3086.2999999523163","","image-slider-response","233","1775227","0.0-232.0","A7I3G380E29VE","","","","","-44","","","","","","","","","","","","","","","","","","","","","",""
"null","","image-button-response","234","1780238","0.0-233.0","A7I3G380E29VE","img_art/13.jpg","null","","","","","","","","","","","","","","","","","","","","","","","","",""
"4939","","image-button-response","235","1785179","0.0-234.0","A7I3G380E29VE","img_art/13.jpg","2","","","","","","","","","","","","","","","","","","","","","","","","",""
"9806","","image-button-response","236","1794987","0.0-235.0-0.0","A7I3G380E29VE","img_art/13.jpg","4","","","","","","","","","","","","","","","","","","","","","","","","",""
"2238","","image-button-response","237","1797227","0.0-236.0-0.0","A7I3G380E29VE","img_art/13.jpg","3","","","","","","","","","","","","","","","","","","","","","","","","",""
"null","","html-keyboard-response","238","1798238","0.0-237.0","A7I3G380E29VE","<p style=""font-size: 48px;"">+</p>","","","","","null","allTrialResponses","1000","1","27","img_art/13.jpg","-44","Oh another splattered paint picture.","Angel,Alejandro,Cameron,Dylan,Nicholas,Gabriel","Reminds me of depression anxiety, but negativity is dampened by motion. It's trying to release itself through expression.,-10,180,20","Reminiscent of Jackson Pollock and gives me a feeling of chaotic satisfaction,50,80,20","Like the use of color, not a fan of the splatter,29,60,20","I do like the blue colors in this.,12,40,20","Nice colors. beautiful blue,50,240,20","its like the ocean,24,160,20","Cameron","Like the use of color, not a fan of the splatter,29,60,20","Nicholas","Nice colors. beautiful blue,50,240,20","Dylan","I do like the blue colors in this.,12,40,20","2"
"35372","","survey-text","239","1833626","0.0-238.0-0.0","A7I3G380E29VE","","","","{""Q0"":""Ghostly rider on a horse. I like this one.""}","","","","","","","","","","","","","","","","","","","","","","",""
"2334.399999976158","","image-slider-response","240","1835962","0.0-239.0","A7I3G380E29VE","","","","","37","","","","","","","","","","","","","","","","","","","","","",""
"null","","image-button-response","241","1840972","0.0-240.0","A7I3G380E29VE","img_art/18.jpg","null","","","","","","","","","","","","","","","","","","","","","","","","",""
"9587","","image-button-response","242","1850563","0.0-241.0","A7I3G380E29VE","img_art/18.jpg","1","","","","","","","","","","","","","","","","","","","","","","","","",""
"1462","","image-button-response","243","1852027","0.0-242.0-0.0","A7I3G380E29VE","img_art/18.jpg","0","","","","","","","","","","","","","","","","","","","","","","","","",""
"3182","","image-button-response","244","1855211","0.0-243.0-0.0","A7I3G380E29VE","img_art/18.jpg","5","","","","","","","","","","","","","","","","","","","","","","","","",""
"null","","html-keyboard-response","245","1856713","0.0-244.0","A7I3G380E29VE","<p style=""font-size: 48px;"">+</p>","","","","","null","allTrialResponses","1500","1","28","img_art/18.jpg","37","Ghostly rider on a horse. I like this one.","Charles,Alexander,Cameron,Dylan,Nicholas,Dustin","I enjoy the detailed line work in this one,21,100,20","Ghostly sea adventure.,20,120,20","Don't like the color scheme. Or the theme.,-5,60,20","Ugly, too much is going on,-40,40,20","Id love to see this piece closer. So much extra details hidden it it.,50,240,20","Looks messy. Reminds me of a battle or war. I have an unpleasant feeling the more I look.,-20,20,20","Alexander","Ghostly sea adventure.,20,120,20","Charles","I enjoy the detailed line work in this one,21,100,20","Dustin","Looks messy. Reminds me of a battle or war. I have an unpleasant feeling the more I look.,-20,20,20","2"
"26233","","survey-text","246","1882963","0.0-245.0-0.0","A7I3G380E29VE","","","","{""Q0"":""Kind of looks like little plant.""}","","","","","","","","","","","","","","","","","","","","","","",""
"2310.699999988079","","image-slider-response","247","1885275","0.0-246.0","A7I3G380E29VE","","","","","-20","","","","","","","","","","","","","","","","","","","","","",""
"null","","image-button-response","248","1890278","0.0-247.0","A7I3G380E29VE","img_art/14.jpg","null","","","","","","","","","","","","","","","","","","","","","","","","",""
"7793","","image-button-response","249","1898075","0.0-248.0","A7I3G380E29VE","img_art/14.jpg","0","","","","","","","","","","","","","","","","","","","","","","","","",""
"4559","","image-button-response","250","1902635","0.0-249.0-0.0","A7I3G380E29VE","img_art/14.jpg","5","","","","","","","","","","","","","","","","","","","","","","","","",""
"7469","","image-button-response","251","1910107","0.0-250.0-0.0","A7I3G380E29VE","img_art/14.jpg","2","","","","","","","","","","","","","","","","","","","","","","","","",""
"null","","html-keyboard-response","252","1911124","0.0-251.0","A7I3G380E29VE","<p style=""font-size: 48px;"">+</p>","","","","","null","allTrialResponses","1000","1","29","img_art/14.jpg","-20","Kind of looks like little plant.","Charles,Alexander,Ryan,Ethan,Marcus,Dustin","In some ways it looks natural, but I'm just not feeling it,0,100,20","Angled, colored, boxy.,10,120,20","Gorgeous use of water color,50,380,20","I like the layers of color in this piece. The circles and lines are interesting.,29,120,20","I like the colors and the shapes are interesting,11,60,20","It represents growth. I see a plant/tree growing out of the ground. I like the rainbow of color in the painting.,31,20,20","Charles","In some ways it looks natural, but I'm just not feeling it,0,100,20","Dustin","It represents growth. I see a plant/tree growing out of the ground. I like the rainbow of color in the painting.,31,20,20","Ryan","Gorgeous use of water color,50,380,20","2"
"26893","","survey-text","253","1938035","0.0-252.0-0.0","A7I3G380E29VE","","","","{""Q0"":""I'm not a fan of the white in this peice.""}","","","","","","","","","","","","","","","","","","","","","","",""
"7022.400000035763","","image-slider-response","254","1945058","0.0-253.0","A7I3G380E29VE","","","","","0","","","","","","","","","","","","","","","","","","","","","",""
"null","","image-button-response","255","1950062","0.0-254.0","A7I3G380E29VE","img_art/23.jpg","null","","","","","","","","","","","","","","","","","","","","","","","","",""
"2329","","image-button-response","256","1952394","0.0-255.0","A7I3G380E29VE","img_art/23.jpg","0","","","","","","","","","","","","","","","","","","","","","","","","",""
"6567","","image-button-response","257","1958963","0.0-256.0-0.0","A7I3G380E29VE","img_art/23.jpg","5","","","","","","","","","","","","","","","","","","","","","","","","",""
"1590","","image-button-response","258","1960554","0.0-257.0-0.0","A7I3G380E29VE","img_art/23.jpg","2","","","","","","","","","","","","","","","","","","","","","","","","",""
"null","","html-keyboard-response","259","1962058","0.0-258.0","A7I3G380E29VE","<p style=""font-size: 48px;"">+</p>","","","","","null","allTrialResponses","1500","1","30","img_art/23.jpg","0","I'm not a fan of the white in this peice.","Charles,Jorge,Ryan,Mitchell,Aaron,Dustin","Look at all the dancers,26,100,20","puzzled with curiosity,31,180,20","One of my favorites, love the colors and how the white looks like humans,50,380,20","Partying, dancing, delusion, kaus.,10,180,20","I love the colors and the contrast.,50,20,20","I don't get it! the white in the middle of the speckled rainbow is confusing.,-10,20,20","Charles","Look at all the dancers,26,100,20","Dustin","I don't get it! the white in the middle of the speckled rainbow is confusing.,-10,20,20","Ryan","One of my favorites, love the colors and how the white looks like humans,50,380,20","2"
"4120","","image-button-response_instructions","260","1966194","0.0-259.0","A7I3G380E29VE","","0","instructions","","","","","","","","","","","","","","","","","","","","","","","",""
"1107","","image-button-response","261","1967306","0.0-260.0","A7I3G380E29VE","","0","","","","","","","","","","","","","","","","","","","","","","","","",""
