"rt","url","trial_type","trial_index","time_elapsed","internal_node_id","participant_id","stimulus","button_pressed","Name","responses","response","key_press","variableName","fixationTime","condition","trial","photo","subjectRating","subjectResponse","agentsNames","agent_1_Response","agent_2_Response","agent_3_Response","agent_4_Response","agent_5_Response","agent_6_Response","kept_1_name","kept_1_response","kept_2_name","kept_2_response","kept_3_name","kept_3_response","errorCounter"
"12520","external_page_harvard.html","external-html","0","12641","0.0-0.0","A7OZPNXIVO1FX","","","","","","","","","","","","","","","","","","","","","","","","","","",""
"15019","","image-button-response","1","27662","0.0-1.0","A7OZPNXIVO1FX","","1","","","","","","","","","","","","","","","","","","","","","","","","",""
"2297","","image-button-response","2","29965","0.0-2.0-0.0","A7OZPNXIVO1FX","","1","phone","","","","","","","","","","","","","","","","","","","","","","","",""
"9740","","survey-text","3","39708","0.0-3.0-0.0","A7OZPNXIVO1FX","","","","{""Q0"":""A7OZPNXIVO1FX""}","","","","","","","","","","","","","","","","","","","","","","",""
"3958","","image-button-response_instructions","4","43669","0.0-4.0","A7OZPNXIVO1FX","","0","instructions","","","","","","","","","","","","","","","","","","","","","","","",""
"182679","","image-button-response_instructions","5","226350","0.0-5.0","A7OZPNXIVO1FX","img_art/ins/popularity/ins1.png","0","instructions","","","","","","","","","","","","","","","","","","","","","","","",""
"1579","","image-button-response_instructions","6","227931","0.0-6.0","A7OZPNXIVO1FX","img_art/ins/popularity/ins2.png","0","instructions","","","","","","","","","","","","","","","","","","","","","","","",""
"961","","image-button-response_instructions","7","228894","0.0-7.0","A7OZPNXIVO1FX","img_art/ins/popularity/ins2Extreme.png","0","instructions","","","","","","","","","","","","","","","","","","","","","","","",""
"1055","","image-button-response_instructions","8","229951","0.0-8.0","A7OZPNXIVO1FX","img_art/ins/popularity/ins3KEEPpop.PNG","0","instructions","","","","","","","","","","","","","","","","","","","","","","","",""
"3326","","image-button-response_instructions","9","233279","0.0-9.0","A7OZPNXIVO1FX","img_art/ins/popularity/ins3ANamepop.PNG","0","instructions","","","","","","","","","","","","","","","","","","","","","","","",""
"1279","","image-button-response_instructions","10","234559","0.0-10.0","A7OZPNXIVO1FX","img_art/ins/popularity/ins3ARatingpop.png","0","instructions","","","","","","","","","","","","","","","","","","","","","","","",""
"517","","image-button-response_instructions","11","235079","0.0-11.0","A7OZPNXIVO1FX","img_art/ins/popularity/ins3ATextpop.png","0","instructions","","","","","","","","","","","","","","","","","","","","","","","",""
"124","","image-button-response_instructions","12","235203","0.0-12.0","A7OZPNXIVO1FX","img_art/ins/popularity/ins3ALikespop.png","0","instructions","","","","","","","","","","","","","","","","","","","","","","","",""
"607","","image-button-response_instructions","13","235812","0.0-13.0","A7OZPNXIVO1FX","img_art/ins/popularity/ins3KEEPpop.PNG","0","instructions","","","","","","","","","","","","","","","","","","","","","","","",""
"901","","image-button-response_instructions","14","236714","0.0-14.0","A7OZPNXIVO1FX","img_art/ins/popularity/ins3_5RED.png","0","instructions","","","","","","","","","","","","","","","","","","","","","","","",""
"691","","image-button-response_instructions","15","237408","0.0-15.0","A7OZPNXIVO1FX","img_art/ins/popularity/ins3KEEPpop.PNG","0","instructions","","","","","","","","","","","","","","","","","","","","","","","",""
"667","","image-button-response_instructions","16","238077","0.0-16.0","A7OZPNXIVO1FX","img_art/ins/popularity/ins4KEEPpop.PNG","0","instructions","","","","","","","","","","","","","","","","","","","","","","","",""
"188","","image-button-response_instructions","17","238267","0.0-17.0","A7OZPNXIVO1FX","img_art/ins/popularity/ins5KEEPpop.PNG","0","instructions","","","","","","","","","","","","","","","","","","","","","","","",""
"905","","image-button-response_instructions","18","239174","0.0-18.0","A7OZPNXIVO1FX","","0","instructions","","","","","","","","","","","","","","","","","","","","","","","",""
"3643","","survey-text","19","242842","0.0-19.0-0.0","A7OZPNXIVO1FX","","","","{""Q0"":""but""}","","","","","","","","","","","","","","","","","","","","","","",""
"6910","","survey-text","20","249755","0.0-20.0-0.0","A7OZPNXIVO1FX","","","","{""Q0"":""It looks very child-like""}","","","","","","","","","","","","","","","","","","","","","","",""
"3627.9000000953674","","image-slider-response","21","253386","0.0-21.0","A7OZPNXIVO1FX","","","","","-44","","","","","","","","","","","","","","","","","","","","","",""
"null","","image-button-response","22","258394","0.0-22.0","A7OZPNXIVO1FX","img_art/ins/1.jpg","null","","","","","","","","","","","","","","","","","","","","","","","","",""
"1128","","image-button-response","23","259526","0.0-23.0","A7OZPNXIVO1FX","img_art/ins/1.jpg","3","","","","","","","","","","","","","","","","","","","","","","","","",""
"5477","","image-button-response","24","265007","0.0-24.0-0.0","A7OZPNXIVO1FX","img_art/ins/1.jpg","5","","","","","","","","","","","","","","","","","","","","","","","","",""
"2722","","image-button-response","25","267735","0.0-25.0-0.0","A7OZPNXIVO1FX","img_art/ins/1.jpg","2","","","","","","","","","","","","","","","","","","","","","","","","",""
"null","","html-keyboard-response","26","269256","0.0-26.0","A7OZPNXIVO1FX","<p style=""font-size: 48px;"">+</p>","","","","","null","allTrialResponses","1500","1","-2","img_art/ins/1.jpg","-44","It looks very child-like","Allison,Ashley,Beth,Dora,Erika,Jen","looks like a lot of things going on in the mist,20,20,20","I just don't get why these type of art would be popular,-32,40,20","This color reminds me of poo,-46,60,20","looks like what my niece in 3rd grade did this afternoon,-50,80,20","I like the sophisticated brushwork,40,100,20","It reminds me of a candy land dream I had,36,120,20","Dora","looks like what my niece in 3rd grade did this afternoon,-50,80,20","Jen","It reminds me of a candy land dream I had,36,120,20","Beth","This color reminds me of poo,-46,60,20","0"
"17964","","survey-text","27","287227","0.0-27.0-0.0","A7OZPNXIVO1FX","","","","{""Q0"":""It reminds me of someone trying to draw the underground of h*ll""}","","","","","","","","","","","","","","","","","","","","","","",""
"2887.1999999284744","","image-slider-response","28","290116","0.0-28.0","A7OZPNXIVO1FX","","","","","-9","","","","","","","","","","","","","","","","","","","","","",""
"3515","","image-button-response","29","295122","0.0-29.0","A7OZPNXIVO1FX","img_art/ins/2.jpg","3","","","","","","","","","","","","","","","","","","","","","","","","",""
"2373","","image-button-response","30","297498","0.0-30.0","A7OZPNXIVO1FX","img_art/ins/2.jpg","5","","","","","","","","","","","","","","","","","","","","","","","","",""
"2453","","image-button-response","31","299956","0.0-31.0-0.0","A7OZPNXIVO1FX","img_art/ins/2.jpg","3","","","","","","","","","","","","","","","","","","","","","","","","",""
"4503","","image-button-response","32","304464","0.0-32.0-0.0","A7OZPNXIVO1FX","img_art/ins/2.jpg","2","","","","","","","","","","","","","","","","","","","","","","","","",""
"null","","html-keyboard-response","33","306587","0.0-33.0","A7OZPNXIVO1FX","<p style=""font-size: 48px;"">+</p>","","","","","null","allTrialResponses","1500","1","-1","img_art/ins/2.jpg","-9","It reminds me of someone trying to draw the underground of h*ll","Katie,Jenna,Beth,Dora,Kara,Jen","too much color!,-28,180,20","One of my pet peevs,-48,140,20","meaningless painting,-45,60,20","looks too angry,-50,80,20","I like the blocks of color arrangements,30,160,20","It reminds me of a fireplace,36,120,20","Jen","It reminds me of a fireplace,36,120,20","Dora","looks too angry,-50,80,20","Beth","meaningless painting,-45,60,20","0"
"2932521","","survey-text","34","3239116","0.0-34.0-0.0","A7OZPNXIVO1FX","","","","{""Q0"":""This looks like ice and snow""}","","","","","","","","","","","","","","","","","","","","","","",""
"1896.7999999523163","","image-slider-response","35","3241018","0.0-35.0","A7OZPNXIVO1FX","","","","","26","","","","","","","","","","","","","","","","","","","","","",""
"null","","image-button-response","36","3246036","0.0-36.0","A7OZPNXIVO1FX","img_art/ins/3.jpg","null","","","","","","","","","","","","","","","","","","","","","","","","",""
"596","","image-button-response","37","3246634","0.0-37.0","A7OZPNXIVO1FX","img_art/ins/3.jpg","5","","","","","","","","","","","","","","","","","","","","","","","","",""
"1407","","image-button-response","38","3248043","0.0-38.0-0.0","A7OZPNXIVO1FX","img_art/ins/3.jpg","2","","","","","","","","","","","","","","","","","","","","","","","","",""
"407","","image-button-response","39","3248454","0.0-39.0-0.0","A7OZPNXIVO1FX","img_art/ins/3.jpg","0","","","","","","","","","","","","","","","","","","","","","","","","",""
"null","","html-keyboard-response","40","3248966","0.0-40.0","A7OZPNXIVO1FX","<p style=""font-size: 48px;"">+</p>","","","","","null","allTrialResponses","500","1","0","img_art/ins/3.jpg","26","This looks like ice and snow","Rose,Leslie,Beth,Dora,Mary,Jen","My daily routine, it's depressing,-20,240,20","It's an alright work,15,200,20","This thing gives me anxiety,-41,60,20","My worst nightmare,-42,80,20","I like the overlapping of brushes,41,220,20","I can feel a rainy day from this painting,18,120,20","Jen","I can feel a rainy day from this painting,18,120,20","Beth","This thing gives me anxiety,-41,60,20","Rose","My daily routine, it's depressing,-20,240,20","0"
"3430","","image-button-response_instructions","41","3252415","0.0-41.0","A7OZPNXIVO1FX","","0","instructions","","","","","","","","","","","","","","","","","","","","","","","",""
"5946","","survey-likert","42","3258363","0.0-42.0-0.0","A7OZPNXIVO1FX","","","","{""Q0"":"""",""Q1"":0,""Q2"":1}","","","","","","","","","","","","","","","","","","","","","","",""
"8288","","survey-text","43","3266664","0.0-43.0-0.0","A7OZPNXIVO1FX","","","","{""Q0"":""rock""}","","","","","","","","","","","","","","","","","","","","","","",""
"11969","","survey-text","44","3278635","0.0-44.0-0.0","A7OZPNXIVO1FX","","","","{""Q0"":""a nice picture of nature""}","","","","","","","","","","","","","","","","","","","","","","",""
"2385.100000023842","","image-slider-response","45","3281024","0.0-45.0","A7OZPNXIVO1FX","","","","","25","","","","","","","","","","","","","","","","","","","","","",""
"4030","","image-button-response","46","3286052","0.0-46.0","A7OZPNXIVO1FX","img_art/26.jpg","0","","","","","","","","","","","","","","","","","","","","","","","","",""
"1706","","image-button-response","47","3287762","0.0-47.0","A7OZPNXIVO1FX","img_art/26.jpg","1","","","","","","","","","","","","","","","","","","","","","","","","",""
"754","","image-button-response","48","3288520","0.0-48.0-0.0","A7OZPNXIVO1FX","img_art/26.jpg","0","","","","","","","","","","","","","","","","","","","","","","","","",""
"1548","","image-button-response","49","3290073","0.0-49.0-0.0","A7OZPNXIVO1FX","img_art/26.jpg","3","","","","","","","","","","","","","","","","","","","","","","","","",""
"null","","html-keyboard-response","50","3291576","0.0-50.0","A7OZPNXIVO1FX","<p style=""font-size: 48px;"">+</p>","","","","","null","allTrialResponses","1500","1","1","img_art/26.jpg","25","a nice picture of nature","Jenna,Megan,Catherine,Michaela,Alexis,Taylor","soft colors & brush work. very easy to look at. makes me happy.,50,360,20","Washed out suburban scene with childish tones.,-24,200,20","Incomplete, The artist painted his impression of somthing he was thinking of,0,160,20","Elevator art but the watercolors are good,29,260,20","Much too simple and without color for my taste,-33,100,20","Makes me want to walk down a cool street,20,340,20","Megan","Washed out suburban scene with childish tones.,-24,200,20","Jenna","soft colors & brush work. very easy to look at. makes me happy.,50,360,20","Michaela","Elevator art but the watercolors are good,29,260,20","0"
"6801","","survey-text","51","3298388","0.0-51.0-0.0","A7OZPNXIVO1FX","","","","{""Q0"":""reminds me of a trophy""}","","","","","","","","","","","","","","","","","","","","","","",""
"3936","","image-slider-response","52","3302327","0.0-52.0","A7OZPNXIVO1FX","","","","","11","","","","","","","","","","","","","","","","","","","","","",""
"null","","image-button-response","53","3307332","0.0-53.0","A7OZPNXIVO1FX","img_art/4.jpg","null","","","","","","","","","","","","","","","","","","","","","","","","",""
"99","","image-button-response","54","3307434","0.0-54.0","A7OZPNXIVO1FX","img_art/4.jpg","0","","","","","","","","","","","","","","","","","","","","","","","","",""
"2590","","image-button-response","55","3310027","0.0-55.0-0.0","A7OZPNXIVO1FX","img_art/4.jpg","3","","","","","","","","","","","","","","","","","","","","","","","","",""
"1317","","image-button-response","56","3311348","0.0-56.0-0.0","A7OZPNXIVO1FX","img_art/4.jpg","0","","","","","","","","","","","","","","","","","","","","","","","","",""
"780","","image-button-response","57","3316337","0.0-56.1-0.1","A7OZPNXIVO1FX","img_art/4.jpg","2","","","","","","","","","","","","","","","","","","","","","","","","",""
"null","","html-keyboard-response","58","3317350","0.0-57.0","A7OZPNXIVO1FX","<p style=""font-size: 48px;"">+</p>","","","","","null","allTrialResponses","1000","1","2","img_art/4.jpg","11","reminds me of a trophy","Jenna,Megan,Heather,Michaela,Kayla,Leah","creepy, looks like a deformed hand, but the background is pretty,5,360,20","Better version of a 7 year old who got lucky,-23,200,20","looks like an award from an award show.,22,260,20","It reminds me of something a kid would make for their parents,13,260,20","It's okay, I guess. Nothing much either way.,5,180,20","To me just looking at paint scrawls,-41,360,20","Jenna","creepy, looks like a deformed hand, but the background is pretty,5,360,20","Michaela","It reminds me of something a kid would make for their parents,13,260,20","Heather","looks like an award from an award show.,22,260,20","2"
"19053","","survey-text","59","3336413","0.0-58.0-0.0","A7OZPNXIVO1FX","","","","{""Q0"":""looks like trees in a nice, autumn day""}","","","","","","","","","","","","","","","","","","","","","","",""
"2364.100000023842","","image-slider-response","60","3338780","0.0-59.0","A7OZPNXIVO1FX","","","","","44","","","","","","","","","","","","","","","","","","","","","",""
"3554","","image-button-response","61","3343786","0.0-60.0","A7OZPNXIVO1FX","img_art/27.jpg","0","","","","","","","","","","","","","","","","","","","","","","","","",""
"2316","","image-button-response","62","3346106","0.0-61.0","A7OZPNXIVO1FX","img_art/27.jpg","2","","","","","","","","","","","","","","","","","","","","","","","","",""
"2498","","image-button-response","63","3348607","0.0-62.0-0.0","A7OZPNXIVO1FX","img_art/27.jpg","5","","","","","","","","","","","","","","","","","","","","","","","","",""
"2621","","image-button-response","64","3351231","0.0-63.0-0.0","A7OZPNXIVO1FX","img_art/27.jpg","0","","","","","","","","","","","","","","","","","","","","","","","","",""
"null","","html-keyboard-response","65","3352234","0.0-64.0","A7OZPNXIVO1FX","<p style=""font-size: 48px;"">+</p>","","","","","null","allTrialResponses","1000","1","3","img_art/27.jpg","44","looks like trees in a nice, autumn day","Jenna,Alexandra,Heather,Michaela,Grace,Amanda","the green & white scribbles feel childlike. perhaps the quality of the photo, but the colors are gloomy.,-13,360,20","This is ugly and looks like a child did this,-36,60,20","looks like a garden in between two storms.,33,260,20","It looks like a kid colored a picture and an adult added to it,19,260,20","Not fond of the bad pencil drawing mixed with the drab colors.,-21,180,20","I love the childish aspect to it,37,180,20","Heather","looks like a garden in between two storms.,33,260,20","Amanda","I love the childish aspect to it,37,180,20","Jenna","the green & white scribbles feel childlike. perhaps the quality of the photo, but the colors are gloomy.,-13,360,20","2"
"17670","","survey-text","66","3369916","0.0-65.0-0.0","A7OZPNXIVO1FX","","","","{""Q0"":""this looks like pictures of depressing trees and people""}","","","","","","","","","","","","","","","","","","","","","","",""
"2405.600000023842","","image-slider-response","67","3372325","0.0-66.0","A7OZPNXIVO1FX","","","","","-19","","","","","","","","","","","","","","","","","","","","","",""
"2984","","image-button-response","68","3377331","0.0-67.0","A7OZPNXIVO1FX","img_art/12.jpg","0","","","","","","","","","","","","","","","","","","","","","","","","",""
"1336","","image-button-response","69","3378673","0.0-68.0","A7OZPNXIVO1FX","img_art/12.jpg","4","","","","","","","","","","","","","","","","","","","","","","","","",""
"3118","","image-button-response","70","3381794","0.0-69.0-0.0","A7OZPNXIVO1FX","img_art/12.jpg","2","","","","","","","","","","","","","","","","","","","","","","","","",""
"1880","","image-button-response","71","3383678","0.0-70.0-0.0","A7OZPNXIVO1FX","img_art/12.jpg","1","","","","","","","","","","","","","","","","","","","","","","","","",""
"null","","html-keyboard-response","72","3384182","0.0-71.0","A7OZPNXIVO1FX","<p style=""font-size: 48px;"">+</p>","","","","","null","allTrialResponses","500","1","4","img_art/12.jpg","-19","this looks like pictures of depressing trees and people","Jenna,Sara,Heather,Margaret,Molly,Amanda","interesting, but feels like someone cut up a picture and pasted it together wrong. want to see the original,15,360,20","I don't like the blocking,-20,160,20","beautiful also reminds me of a quilt,1,260,20","I like the bottom half and hate the top half,7,100,20","Seems to be puzzles.,25,340,20","The colors are beautiful and it has great composition,50,180,20","Molly","Seems to be puzzles.,25,340,20","Heather","beautiful also reminds me of a quilt,1,260,20","Sara","I don't like the blocking,-20,160,20","2"
"13319","","survey-text","73","3397512","0.0-72.0-0.0","A7OZPNXIVO1FX","","","","{""Q0"":""looks like pictures cut out from a newspaper and pasted on""}","","","","","","","","","","","","","","","","","","","","","","",""
"2025.3999999761581","","image-slider-response","74","3399541","0.0-73.0","A7OZPNXIVO1FX","","","","","-24","","","","","","","","","","","","","","","","","","","","","",""
"2827","","image-button-response","75","3404547","0.0-74.0","A7OZPNXIVO1FX","img_art/16.jpg","0","","","","","","","","","","","","","","","","","","","","","","","","",""
"3527","","image-button-response","76","3408078","0.0-75.0","A7OZPNXIVO1FX","img_art/16.jpg","5","","","","","","","","","","","","","","","","","","","","","","","","",""
"1473","","image-button-response","77","3409556","0.0-76.0-0.0","A7OZPNXIVO1FX","img_art/16.jpg","3","","","","","","","","","","","","","","","","","","","","","","","","",""
"3099","","image-button-response","78","3412660","0.0-77.0-0.0","A7OZPNXIVO1FX","img_art/16.jpg","0","","","","","","","","","","","","","","","","","","","","","","","","",""
"null","","html-keyboard-response","79","3413667","0.0-78.0","A7OZPNXIVO1FX","<p style=""font-size: 48px;"">+</p>","","","","","null","allTrialResponses","1000","1","5","img_art/16.jpg","-24","looks like pictures cut out from a newspaper and pasted on","Breanna,Sara,Heather,Gabriela,Molly,Andrea","The bear is terrifying,-50,380,20","This painting is too random,-30,160,20","lol i dont know how i feel about this.,1,260,20","It looks very generic, like items were pasted onto the background,-38,140,20","It's frightening.,30,340,20","I think it's about child abuse. The teddy bear represents innocence and the dark shape is approaching it.,40,240,20","Andrea","I think it's about child abuse. The teddy bear represents innocence and the dark shape is approaching it.,40,240,20","Gabriela","It looks very generic, like items were pasted onto the background,-38,140,20","Breanna","The bear is terrifying,-50,380,20","2"
"2697","","survey-text","80","3416385","0.0-79.0-0.0","A7OZPNXIVO1FX","","","","{""Q0"":""sky""}","","","","","","","","","","","","","","","","","","","","","","",""
"7842","","survey-text","81","3424229","0.0-80.0-0.0","A7OZPNXIVO1FX","","","","{""Q0"":""it looks like a picture of dirt and fossils""}","","","","","","","","","","","","","","","","","","","","","","",""
"2659.899999976158","","image-slider-response","82","3426892","0.0-81.0","A7OZPNXIVO1FX","","","","","-32","","","","","","","","","","","","","","","","","","","","","",""
"2364","","image-button-response","83","3431896","0.0-82.0","A7OZPNXIVO1FX","img_art/7.jpg","0","","","","","","","","","","","","","","","","","","","","","","","","",""
"1010","","image-button-response","84","3432909","0.0-83.0","A7OZPNXIVO1FX","img_art/7.jpg","3","","","","","","","","","","","","","","","","","","","","","","","","",""
"932","","image-button-response","85","3433844","0.0-84.0-0.0","A7OZPNXIVO1FX","img_art/7.jpg","0","","","","","","","","","","","","","","","","","","","","","","","","",""
"2117","","image-button-response","86","3435965","0.0-85.0-0.0","A7OZPNXIVO1FX","img_art/7.jpg","5","","","","","","","","","","","","","","","","","","","","","","","","",""
"null","","html-keyboard-response","87","3436976","0.0-86.0","A7OZPNXIVO1FX","<p style=""font-size: 48px;"">+</p>","","","","","null","allTrialResponses","1000","1","6","img_art/7.jpg","-32","it looks like a picture of dirt and fossils","Breanna,Leslie,Kaitlin,Gabriela,Cassidy,Andrea","Not highly impressed,-5,380,20","This elicits no reaction in me.,0,380,20","I'm not too sure about this one,-10,60,20","it looks like an ant farm,12,140,20","I like the texture,12,140,20","Reminds me of mold. Repulsive.,-10,240,20","Gabriela","it looks like an ant farm,12,140,20","Breanna","Not highly impressed,-5,380,20","Andrea","Reminds me of mold. Repulsive.,-10,240,20","2"
"16149","","survey-text","88","3453134","0.0-87.0-0.0","A7OZPNXIVO1FX","","","","{""Q0"":""this looks like a picture of a tiny tree in a yard. i like it""}","","","","","","","","","","","","","","","","","","","","","","",""
"1721.1000000238419","","image-slider-response","89","3454857","0.0-88.0","A7OZPNXIVO1FX","","","","","37","","","","","","","","","","","","","","","","","","","","","",""
"1937","","image-button-response","90","3459875","0.0-89.0","A7OZPNXIVO1FX","img_art/14.jpg","4","","","","","","","","","","","","","","","","","","","","","","","","",""
"2225","","image-button-response","91","3462104","0.0-90.0","A7OZPNXIVO1FX","img_art/14.jpg","4","","","","","","","","","","","","","","","","","","","","","","","","",""
"907","","image-button-response","92","3463015","0.0-91.0-0.0","A7OZPNXIVO1FX","img_art/14.jpg","2","","","","","","","","","","","","","","","","","","","","","","","","",""
"934","","image-button-response","93","3463954","0.0-92.0-0.0","A7OZPNXIVO1FX","img_art/14.jpg","5","","","","","","","","","","","","","","","","","","","","","","","","",""
"null","","html-keyboard-response","94","3465465","0.0-93.0","A7OZPNXIVO1FX","<p style=""font-size: 48px;"">+</p>","","","","","null","allTrialResponses","1500","1","7","img_art/14.jpg","37","this looks like a picture of a tiny tree in a yard. i like it","Breanna,Cassandra,Ashley,Gabriela,Crystal,Andrea","Makes me feel good,30,380,20","I kind of like it...I like the white back ground,11,120,20","I like the color tone, it's kind of disturbing.,35,320,20","It looks like a table centerpiece,-22,140,20","It looks like a tree but the bleeding water colors lack borders and makes it hard to appreciate the message.,-41,300,20","Cute little plant.,15,240,20","Crystal","It looks like a tree but the bleeding water colors lack borders and makes it hard to appreciate the message.,-41,300,20","Ashley","I like the color tone, it's kind of disturbing.,35,320,20","Andrea","Cute little plant.,15,240,20","2"
"14436","","survey-text","95","3479912","0.0-94.0-0.0","A7OZPNXIVO1FX","","","","{""Q0"":""looks like a scary monster about to destroy the planet""}","","","","","","","","","","","","","","","","","","","","","","",""
"2256","","image-slider-response","96","3482170","0.0-95.0","A7OZPNXIVO1FX","","","","","42","","","","","","","","","","","","","","","","","","","","","",""
"2385","","image-button-response","97","3487174","0.0-96.0","A7OZPNXIVO1FX","img_art/25.jpg","4","","","","","","","","","","","","","","","","","","","","","","","","",""
"1991","","image-button-response","98","3489170","0.0-97.0","A7OZPNXIVO1FX","img_art/25.jpg","4","","","","","","","","","","","","","","","","","","","","","","","","",""
"937","","image-button-response","99","3490111","0.0-98.0-0.0","A7OZPNXIVO1FX","img_art/25.jpg","5","","","","","","","","","","","","","","","","","","","","","","","","",""
"1293","","image-button-response","100","3491409","0.0-99.0-0.0","A7OZPNXIVO1FX","img_art/25.jpg","2","","","","","","","","","","","","","","","","","","","","","","","","",""
"null","","html-keyboard-response","101","3492411","0.0-100.0","A7OZPNXIVO1FX","<p style=""font-size: 48px;"">+</p>","","","","","null","allTrialResponses","1000","1","8","img_art/25.jpg","42","looks like a scary monster about to destroy the planet","Sydney,Allison,Ashley,Amy,Crystal,Andrea","This piece gives me a lot of questions which I kind of like.,10,320,20","high contrast draws attention to the image, but I'm not sure what I'm seeing,-5,140,20","haunting, a lovely impression.,50,320,20","The limited palette make this figure mysterious and interpret-able.,20,220,20","Seems ritualistic and nativist,50,300,20","Looks like Burning Man, dont care for the colors.,-5,240,20","Crystal","Seems ritualistic and nativist,50,300,20","Andrea","Looks like Burning Man, dont care for the colors.,-5,240,20","Ashley","haunting, a lovely impression.,50,320,20","2"
"11750","","survey-text","102","3504173","0.0-101.0-0.0","A7OZPNXIVO1FX","","","","{""Q0"":""it looks like a disturbing picture that a child drew""}","","","","","","","","","","","","","","","","","","","","","","",""
"3952.7000000476837","","image-slider-response","103","3508128","0.0-102.0","A7OZPNXIVO1FX","","","","","-50","","","","","","","","","","","","","","","","","","","","","",""
"null","","image-button-response","104","3513140","0.0-103.0","A7OZPNXIVO1FX","img_art/3.jpg","null","","","","","","","","","","","","","","","","","","","","","","","","",""
"8870","","image-button-response","105","3522014","0.0-104.0","A7OZPNXIVO1FX","img_art/3.jpg","2","","","","","","","","","","","","","","","","","","","","","","","","",""
"2933","","image-button-response","106","3524950","0.0-105.0-0.0","A7OZPNXIVO1FX","img_art/3.jpg","4","","","","","","","","","","","","","","","","","","","","","","","","",""
"1435","","image-button-response","107","3526390","0.0-106.0-0.0","A7OZPNXIVO1FX","img_art/3.jpg","3","","","","","","","","","","","","","","","","","","","","","","","","",""
"null","","html-keyboard-response","108","3527907","0.0-107.0","A7OZPNXIVO1FX","<p style=""font-size: 48px;"">+</p>","","","","","null","allTrialResponses","1500","1","9","img_art/3.jpg","-50","it looks like a disturbing picture that a child drew","Jessica,Claire,Ashley,Marissa,Crystal,Andrea","Don't get the scribbles.,-13,400,20","looks like a kid scribbled with crayon,-35,260,20","Reminds of John Lenonn's art a bit.,27,320,20","It feels like a half assed and failed imitation of Japanese signatures on old paintings,-22,160,20","I like the abstract flowing lines. It lacks hard rigid marks and flow nicely into a piece of calamity.,32,300,20","I don't feel anything, it seems childish.,-25,240,20","Ashley","Reminds of John Lenonn's art a bit.,27,320,20","Crystal","I like the abstract flowing lines. It lacks hard rigid marks and flow nicely into a piece of calamity.,32,300,20","Marissa","It feels like a half assed and failed imitation of Japanese signatures on old paintings,-22,160,20","2"
"15182","","survey-text","109","3543097","0.0-108.0-0.0","A7OZPNXIVO1FX","","","","{""Q0"":""it reminds me of a little suburban town with colorful lines""}","","","","","","","","","","","","","","","","","","","","","","",""
"1812.5","","image-slider-response","110","3544912","0.0-109.0","A7OZPNXIVO1FX","","","","","14","","","","","","","","","","","","","","","","","","","","","",""
"3034","","image-button-response","111","3549921","0.0-110.0","A7OZPNXIVO1FX","img_art/19.jpg","0","","","","","","","","","","","","","","","","","","","","","","","","",""
"929","","image-button-response","112","3550853","0.0-111.0","A7OZPNXIVO1FX","img_art/19.jpg","0","","","","","","","","","","","","","","","","","","","","","","","","",""
"4984","","image-button-response","113","3555841","0.0-112.0-0.0","A7OZPNXIVO1FX","img_art/19.jpg","4","","","","","","","","","","","","","","","","","","","","","","","","",""
"633","","image-button-response","114","3556479","0.0-113.0-0.0","A7OZPNXIVO1FX","img_art/19.jpg","3","","","","","","","","","","","","","","","","","","","","","","","","",""
"null","","html-keyboard-response","115","3557496","0.0-114.0","A7OZPNXIVO1FX","<p style=""font-size: 48px;"">+</p>","","","","","null","allTrialResponses","1000","1","10","img_art/19.jpg","14","it reminds me of a little suburban town with colorful lines","Kylie,Bailey,Ashley,Marissa,Crystal,Autumn","Reminds me of a quaint little town I once visited in Italy,50,300,20","Horrible. Squiggly lines everywhere.,-50,360,20","someone at the beach maybe?,27,320,20","It makes me feel like it is of a street of bakeries,15,160,20","It is an interesting piece but there are too many muted tones,22,300,20","Messy and kid like.,-36,340,20","Kylie","Reminds me of a quaint little town I once visited in Italy,50,300,20","Crystal","It is an interesting piece but there are too many muted tones,22,300,20","Marissa","It makes me feel like it is of a street of bakeries,15,160,20","2"
"4312","","survey-text","116","3561824","0.0-115.0-0.0","A7OZPNXIVO1FX","","","","{""Q0"":""our""}","","","","","","","","","","","","","","","","","","","","","","",""
"14885","","survey-text","117","3576712","0.0-116.0-0.0","A7OZPNXIVO1FX","","","","{""Q0"":""it reminds me of ghosts riding horses. its disturbing and cool.""}","","","","","","","","","","","","","","","","","","","","","","",""
"2634.100000023842","","image-slider-response","118","3579348","0.0-117.0","A7OZPNXIVO1FX","","","","","50","","","","","","","","","","","","","","","","","","","","","",""
"2079","","image-button-response","119","3584355","0.0-118.0","A7OZPNXIVO1FX","img_art/18.jpg","4","","","","","","","","","","","","","","","","","","","","","","","","",""
"1686","","image-button-response","120","3586045","0.0-119.0","A7OZPNXIVO1FX","img_art/18.jpg","4","","","","","","","","","","","","","","","","","","","","","","","","",""
"1084","","image-button-response","121","3587132","0.0-120.0-0.0","A7OZPNXIVO1FX","img_art/18.jpg","3","","","","","","","","","","","","","","","","","","","","","","","","",""
"1072","","image-button-response","122","3588208","0.0-121.0-0.0","A7OZPNXIVO1FX","img_art/18.jpg","2","","","","","","","","","","","","","","","","","","","","","","","","",""
"null","","html-keyboard-response","123","3589725","0.0-122.0","A7OZPNXIVO1FX","<p style=""font-size: 48px;"">+</p>","","","","","null","allTrialResponses","1500","1","11","img_art/18.jpg","50","it reminds me of ghosts riding horses. its disturbing and cool.","Kylie,Christina,Katie,Marissa,Crystal,Jennifer","Kind of weird in a confusing way,10,300,20","it looks dreary and not uplifting,-10,240,20","Looks messy. Reminds me of a battle or war. I have an unpleasant feeling the more I look.,-20,160,20","This brings to mind the four horsemen of the apocalypse,8,160,20","I love this because abstractly depicts the apocalypse. The white horse and its rider as Death, described in religious texts and pop culture. ""He rode a pale horse and his name was death."",50,300,20","I have no strong feelings about this image,1,380,20","Crystal","I love this because abstractly depicts the apocalypse. The white horse and its rider as Death, described in religious texts and pop culture. ""He rode a pale horse and his name was death."",50,300,20","Marissa","This brings to mind the four horsemen of the apocalypse,8,160,20","Katie","Looks messy. Reminds me of a battle or war. I have an unpleasant feeling the more I look.,-20,160,20","2"
"21468","","survey-text","124","3611207","0.0-123.0-0.0","A7OZPNXIVO1FX","","","","{""Q0"":""it looks like never-ending train tracks. it's confusing but in a good way.""}","","","","","","","","","","","","","","","","","","","","","","",""
"5324.299999952316","","image-slider-response","125","3616533","0.0-124.0","A7OZPNXIVO1FX","","","","","30","","","","","","","","","","","","","","","","","","","","","",""
"1310","","image-button-response","126","3621543","0.0-125.0","A7OZPNXIVO1FX","img_art/11.jpg","2","","","","","","","","","","","","","","","","","","","","","","","","",""
"658","","image-button-response","127","3622204","0.0-126.0","A7OZPNXIVO1FX","img_art/11.jpg","1","","","","","","","","","","","","","","","","","","","","","","","","",""
"890","","image-button-response","128","3623097","0.0-127.0-0.0","A7OZPNXIVO1FX","img_art/11.jpg","4","","","","","","","","","","","","","","","","","","","","","","","","",""
"2827","","image-button-response","129","3625927","0.0-128.0-0.0","A7OZPNXIVO1FX","img_art/11.jpg","2","","","","","","","","","","","","","","","","","","","","","","","","",""
"null","","html-keyboard-response","130","3626434","0.0-129.0","A7OZPNXIVO1FX","<p style=""font-size: 48px;"">+</p>","","","","","null","allTrialResponses","500","1","12","img_art/11.jpg","30","it looks like never-ending train tracks. it's confusing but in a good way.","Cheyenne,Lauren,Katie,Marissa,Crystal,Madeline","Very good use of colors,44,200,20","I like how this piece can be interpreted in different ways, such as a village on hilly terrain.,10,340,20","Dark and dreary. Makes me think of rain/water. I see grey clouds and high waves. Looks unsettling.,-20,160,20","I dislike how dark this is,-21,160,20","Enjoyed the lines representing different paths that encompass different entities,20,300,20","I like the vibe of the painting,-3,40,20","Lauren","I like how this piece can be interpreted in different ways, such as a village on hilly terrain.,10,340,20","Crystal","Enjoyed the lines representing different paths that encompass different entities,20,300,20","Katie","Dark and dreary. Makes me think of rain/water. I see grey clouds and high waves. Looks unsettling.,-20,160,20","2"
"10393","","survey-text","131","3636836","0.0-130.0-0.0","A7OZPNXIVO1FX","","","","{""Q0"":""a dark, disturbing flower. makes me feel disturbed.""}","","","","","","","","","","","","","","","","","","","","","","",""
"2291.600000023842","","image-slider-response","132","3639129","0.0-131.0","A7OZPNXIVO1FX","","","","","12","","","","","","","","","","","","","","","","","","","","","",""
"2110","","image-button-response","133","3644147","0.0-132.0","A7OZPNXIVO1FX","img_art/15.jpg","4","","","","","","","","","","","","","","","","","","","","","","","","",""
"1858","","image-button-response","134","3646008","0.0-133.0","A7OZPNXIVO1FX","img_art/15.jpg","4","","","","","","","","","","","","","","","","","","","","","","","","",""
"962","","image-button-response","135","3646973","0.0-134.0-0.0","A7OZPNXIVO1FX","img_art/15.jpg","1","","","","","","","","","","","","","","","","","","","","","","","","",""
"1332","","image-button-response","136","3648307","0.0-135.0-0.0","A7OZPNXIVO1FX","img_art/15.jpg","2","","","","","","","","","","","","","","","","","","","","","","","","",""
"null","","html-keyboard-response","137","3649316","0.0-136.0","A7OZPNXIVO1FX","<p style=""font-size: 48px;"">+</p>","","","","","null","allTrialResponses","1000","1","13","img_art/15.jpg","12","a dark, disturbing flower. makes me feel disturbed.","Mackenzie,Lauren,Katie,Sophia,Crystal,Destiny","I like the colors and textures.,32,20,20","Hard to tell what I'm looking at, but it does a gives a slight impression of a of garden.,5,340,20","Too much black. I see weeds or dead/dying flowers.,-40,160,20","I feel like there's ski jumping going on here.,2,280,20","The blotted black spots create a nice contrast between the brush strokes within the center and sides. I like it.,41,300,20","I couldn't tell you why but I'm really into this,39,360,20","Crystal","The blotted black spots create a nice contrast between the brush strokes within the center and sides. I like it.,41,300,20","Lauren","Hard to tell what I'm looking at, but it does a gives a slight impression of a of garden.,5,340,20","Katie","Too much black. I see weeds or dead/dying flowers.,-40,160,20","2"
"8008","","survey-text","138","3657334","0.0-137.0-0.0","A7OZPNXIVO1FX","","","","{""Q0"":""i love the colors of this picture.""}","","","","","","","","","","","","","","","","","","","","","","",""
"1966.7999999523163","","image-slider-response","139","3659302","0.0-138.0","A7OZPNXIVO1FX","","","","","21","","","","","","","","","","","","","","","","","","","","","",""
"2588","","image-button-response","140","3664307","0.0-139.0","A7OZPNXIVO1FX","img_art/22.jpg","4","","","","","","","","","","","","","","","","","","","","","","","","",""
"1283","","image-button-response","141","3665592","0.0-140.0","A7OZPNXIVO1FX","img_art/22.jpg","4","","","","","","","","","","","","","","","","","","","","","","","","",""
"1785","","image-button-response","142","3667382","0.0-141.0-0.0","A7OZPNXIVO1FX","img_art/22.jpg","2","","","","","","","","","","","","","","","","","","","","","","","","",""
"218","","image-button-response","143","3667603","0.0-142.0-0.0","A7OZPNXIVO1FX","img_art/22.jpg","2","","","","","","","","","","","","","","","","","","","","","","","","",""
"764","","image-button-response","144","3672138","0.0-142.1-0.1","A7OZPNXIVO1FX","img_art/22.jpg","0","","","","","","","","","","","","","","","","","","","","","","","","",""
"null","","html-keyboard-response","145","3673644","0.0-143.0","A7OZPNXIVO1FX","<p style=""font-size: 48px;"">+</p>","","","","","null","allTrialResponses","1500","1","14","img_art/22.jpg","21","i love the colors of this picture.","Shelby,Lauren,Katie,Alyssa,Crystal,Briana","This painting has a very nostalgic feel,20,240,20","This doesn't invoke anything, since I can't tell what the piece represents.,0,340,20","Too much red. The red/yellow/orange make me think of heat/fire, which makes me anxious.,-10,160,20","Its okay,it doesnt make me feel any sort of strong emotion,1,160,20","Beautiful use of chalk or pastels. Love the abstract nature.,35,300,20","Bright colors feel warm,22,400,20","Crystal","Beautiful use of chalk or pastels. Love the abstract nature.,35,300,20","Katie","Too much red. The red/yellow/orange make me think of heat/fire, which makes me anxious.,-10,160,20","Shelby","This painting has a very nostalgic feel,20,240,20","4"
"24754","","survey-text","146","3698410","0.0-144.0-0.0","A7OZPNXIVO1FX","","","","{""Q0"":""this looks like some sort of colorful animal, which i like. makes me feel happy""}","","","","","","","","","","","","","","","","","","","","","","",""
"2719.600000023842","","image-slider-response","147","3701131","0.0-145.0","A7OZPNXIVO1FX","","","","","22","","","","","","","","","","","","","","","","","","","","","",""
"null","","image-button-response","148","3706149","0.0-146.0","A7OZPNXIVO1FX","img_art/5.jpg","null","","","","","","","","","","","","","","","","","","","","","","","","",""
"259","","image-button-response","149","3706411","0.0-147.0","A7OZPNXIVO1FX","img_art/5.jpg","1","","","","","","","","","","","","","","","","","","","","","","","","",""
"4456","","image-button-response","150","3710870","0.0-148.0-0.0","A7OZPNXIVO1FX","img_art/5.jpg","0","","","","","","","","","","","","","","","","","","","","","","","","",""
"1817","","image-button-response","151","3712690","0.0-149.0-0.0","A7OZPNXIVO1FX","img_art/5.jpg","4","","","","","","","","","","","","","","","","","","","","","","","","",""
"null","","html-keyboard-response","152","3713707","0.0-150.0","A7OZPNXIVO1FX","<p style=""font-size: 48px;"">+</p>","","","","","null","allTrialResponses","1000","1","15","img_art/5.jpg","22","this looks like some sort of colorful animal, which i like. makes me feel happy","Shelby,Lindsey,Katie,Cynthia,Crystal,Kathryn","This feels joyful,39,240,20","Black bit reminds me of a giant splinter. Yellow bit reminds me of urine. I hate it.,-50,400,20","I don't get it at all. But, maybe it is the top portion of a piece of fruit.,-50,160,20","boring and unsure,-25,320,20","Confused as to what the artist is attempting to do.,-50,300,20","I see a sign advising me to be cautious.,-20,140,20","Lindsey","Black bit reminds me of a giant splinter. Yellow bit reminds me of urine. I hate it.,-50,400,20","Shelby","This feels joyful,39,240,20","Crystal","Confused as to what the artist is attempting to do.,-50,300,20","4"
"7607","","survey-text","153","3721334","0.0-151.0-0.0","A7OZPNXIVO1FX","","","","{""Q0"":""course""}","","","","","","","","","","","","","","","","","","","","","","",""
"21659","","survey-text","154","3742995","0.0-152.0-0.0","A7OZPNXIVO1FX","","","","{""Q0"":""this gives me nostalgic vibes""}","","","","","","","","","","","","","","","","","","","","","","",""
"2368.399999976158","","image-slider-response","155","3745365","0.0-153.0","A7OZPNXIVO1FX","","","","","50","","","","","","","","","","","","","","","","","","","","","",""
"null","","image-button-response","156","3750384","0.0-154.0","A7OZPNXIVO1FX","img_art/2.jpg","null","","","","","","","","","","","","","","","","","","","","","","","","",""
"129","","image-button-response","157","3750514","0.0-155.0","A7OZPNXIVO1FX","img_art/2.jpg","2","","","","","","","","","","","","","","","","","","","","","","","","",""
"1534","","image-button-response","158","3752051","0.0-156.0-0.0","A7OZPNXIVO1FX","img_art/2.jpg","5","","","","","","","","","","","","","","","","","","","","","","","","",""
"1507","","image-button-response","159","3753561","0.0-157.0-0.0","A7OZPNXIVO1FX","img_art/2.jpg","4","","","","","","","","","","","","","","","","","","","","","","","","",""
"null","","html-keyboard-response","160","3755079","0.0-158.0","A7OZPNXIVO1FX","<p style=""font-size: 48px;"">+</p>","","","","","null","allTrialResponses","1500","1","16","img_art/2.jpg","50","this gives me nostalgic vibes","Shelby,Lindsey,Caitlin,Makayla,Crystal,Samantha","The contrasting colors are a bit harsh,-10,240,20","Not a fan of the colors or the style.,-31,400,20","Have now advanced from kindergarten to the first grade.,-5,80,20","I don't feel indifferent,4,80,20","Looks contrived and like someone tried to hard to make it abstract,-31,300,20","Cute and happy,22,140,20","Caitlin","Have now advanced from kindergarten to the first grade.,-5,80,20","Samantha","Cute and happy,22,140,20","Crystal","Looks contrived and like someone tried to hard to make it abstract,-31,300,20","4"
"19192","","survey-text","161","3774281","0.0-159.0-0.0","A7OZPNXIVO1FX","","","","{""Q0"":""looks like a messy scribble picture done by a first grader""}","","","","","","","","","","","","","","","","","","","","","","",""
"2854.4000000953674","","image-slider-response","162","3777137","0.0-160.0","A7OZPNXIVO1FX","","","","","-37","","","","","","","","","","","","","","","","","","","","","",""
"2587","","image-button-response","163","3782140","0.0-161.0","A7OZPNXIVO1FX","img_art/28.jpg","0","","","","","","","","","","","","","","","","","","","","","","","","",""
"1815","","image-button-response","164","3783958","0.0-162.0","A7OZPNXIVO1FX","img_art/28.jpg","0","","","","","","","","","","","","","","","","","","","","","","","","",""
"92","","image-button-response","165","3784053","0.0-163.0-0.0","A7OZPNXIVO1FX","img_art/28.jpg","0","","","","","","","","","","","","","","","","","","","","","","","","",""
"642","","image-button-response","166","3788005","0.0-163.1-0.1","A7OZPNXIVO1FX","img_art/28.jpg","3","","","","","","","","","","","","","","","","","","","","","","","","",""
"1130","","image-button-response","167","3789139","0.0-164.0-0.0","A7OZPNXIVO1FX","img_art/28.jpg","2","","","","","","","","","","","","","","","","","","","","","","","","",""
"null","","html-keyboard-response","168","3790147","0.0-165.0","A7OZPNXIVO1FX","<p style=""font-size: 48px;"">+</p>","","","","","null","allTrialResponses","1000","1","17","img_art/28.jpg","-37","looks like a messy scribble picture done by a first grader","Anna,Victoria,Caitlin,Jasmine,Crystal,Samantha","It's drab and looks like stereotypical abstract art.,-30,300,20","drab and dreary,-21,400,20","Bug meets bug in a dark alley.,-20,80,20","Colors too dull for me,-10,340,20","I like the flow and abstract nature of what seems to be humans,40,300,20","Interesting and weird. Perfect conversational piece,33,140,20","Anna","It's drab and looks like stereotypical abstract art.,-30,300,20","Jasmine","Colors too dull for me,-10,340,20","Caitlin","Bug meets bug in a dark alley.,-20,80,20","6"
"11003","","survey-text","169","3801161","0.0-166.0-0.0","A7OZPNXIVO1FX","","","","{""Q0"":""reminds me of strands of hair, which creeps me out""}","","","","","","","","","","","","","","","","","","","","","","",""
"2558.899999976158","","image-slider-response","170","3803722","0.0-167.0","A7OZPNXIVO1FX","","","","","-22","","","","","","","","","","","","","","","","","","","","","",""
"null","","image-button-response","171","3808730","0.0-168.0","A7OZPNXIVO1FX","img_art/30.jpg","null","","","","","","","","","","","","","","","","","","","","","","","","",""
"890","","image-button-response","172","3809623","0.0-169.0","A7OZPNXIVO1FX","img_art/30.jpg","0","","","","","","","","","","","","","","","","","","","","","","","","",""
"1911","","image-button-response","173","3811537","0.0-170.0-0.0","A7OZPNXIVO1FX","img_art/30.jpg","2","","","","","","","","","","","","","","","","","","","","","","","","",""
"1194","","image-button-response","174","3812735","0.0-171.0-0.0","A7OZPNXIVO1FX","img_art/30.jpg","5","","","","","","","","","","","","","","","","","","","","","","","","",""
"null","","html-keyboard-response","175","3813243","0.0-172.0","A7OZPNXIVO1FX","<p style=""font-size: 48px;"">+</p>","","","","","null","allTrialResponses","500","1","18","img_art/30.jpg","-22","reminds me of strands of hair, which creeps me out","Anna,Sierra,Caitlin,Jasmine,Hannah,Paige","It looks like a pretty but unremarkable painting in a doctors office,15,300,20","i dont like how the colors are mixed,-6,260,20","My kid drew this same picture at daycare!!!,5,80,20","Pretty neutral about this one,0,340,20","It's just all right.,5,240,20","Happy. Makes me think of childhood finger painting,49,60,20","Anna","It looks like a pretty but unremarkable painting in a doctors office,15,300,20","Caitlin","My kid drew this same picture at daycare!!!,5,80,20","Paige","Happy. Makes me think of childhood finger painting,49,60,20","6"
"14497","","survey-text","176","3827755","0.0-173.0-0.0","A7OZPNXIVO1FX","","","","{""Q0"":""its fun but depressing at the same time. reminds me of sprinkles, but the colors are dark.""}","","","","","","","","","","","","","","","","","","","","","","",""
"2226.399999976158","","image-slider-response","177","3829982","0.0-174.0","A7OZPNXIVO1FX","","","","","11","","","","","","","","","","","","","","","","","","","","","",""
"3759","","image-button-response","178","3834991","0.0-175.0","A7OZPNXIVO1FX","img_art/23.jpg","1","","","","","","","","","","","","","","","","","","","","","","","","",""
"1216","","image-button-response","179","3836209","0.0-176.0","A7OZPNXIVO1FX","img_art/23.jpg","0","","","","","","","","","","","","","","","","","","","","","","","","",""
"2357","","image-button-response","180","3838568","0.0-177.0-0.0","A7OZPNXIVO1FX","img_art/23.jpg","3","","","","","","","","","","","","","","","","","","","","","","","","",""
"1366","","image-button-response","181","3839935","0.0-178.0-0.0","A7OZPNXIVO1FX","img_art/23.jpg","1","","","","","","","","","","","","","","","","","","","","","","","","",""
"null","","html-keyboard-response","182","3840438","0.0-179.0","A7OZPNXIVO1FX","<p style=""font-size: 48px;"">+</p>","","","","","null","allTrialResponses","500","1","19","img_art/23.jpg","11","its fun but depressing at the same time. reminds me of sprinkles, but the colors are dark.","Anna,Sabrina,Caitlin,Erin,Natalie,Paige","I love the colors and the contrast.,50,300,20","I dont like the chaos of this,-20,120,20","SOME thought was put into this one.,5,80,20","Confetti dancer,-7,120,20","so much detail .,31,400,20","Does not incite any emotional response,1,60,20","Anna","I love the colors and the contrast.,50,300,20","Erin","Confetti dancer,-7,120,20","Sabrina","I dont like the chaos of this,-20,120,20","6"
"24083","","survey-text","183","3864530","0.0-180.0-0.0","A7OZPNXIVO1FX","","","","{""Q0"":""it disturbs me. makes me think of some kind of ship wreck in the ocean, and being eaten by a sea monster.""}","","","","","","","","","","","","","","","","","","","","","","",""
"1950.2000000476837","","image-slider-response","184","3866482","0.0-181.0","A7OZPNXIVO1FX","","","","","17","","","","","","","","","","","","","","","","","","","","","",""
"3865","","image-button-response","185","3871488","0.0-182.0","A7OZPNXIVO1FX","img_art/10.jpg","1","","","","","","","","","","","","","","","","","","","","","","","","",""
"2174","","image-button-response","186","3873666","0.0-183.0","A7OZPNXIVO1FX","img_art/10.jpg","2","","","","","","","","","","","","","","","","","","","","","","","","",""
"786","","image-button-response","187","3874455","0.0-184.0-0.0","A7OZPNXIVO1FX","img_art/10.jpg","1","","","","","","","","","","","","","","","","","","","","","","","","",""
"1746","","image-button-response","188","3876204","0.0-185.0-0.0","A7OZPNXIVO1FX","img_art/10.jpg","4","","","","","","","","","","","","","","","","","","","","","","","","",""
"null","","html-keyboard-response","189","3877221","0.0-186.0","A7OZPNXIVO1FX","<p style=""font-size: 48px;"">+</p>","","","","","null","allTrialResponses","1000","1","20","img_art/10.jpg","17","it disturbs me. makes me think of some kind of ship wreck in the ocean, and being eaten by a sea monster.","Anna,Sabrina,Haley,Erin,Katelyn,Courtney","I like how simple but intricate it is.,30,300,20","I love the dark and edgy nature of this,50,120,20","Makes me want to know more about it, and potentially the artist.,20,220,20","Cello music instrument,11,120,20","It makes me think of music and i love the reflective aspect,29,100,20","Thats a horses head,10,280,20","Haley","Makes me want to know more about it, and potentially the artist.,20,220,20","Sabrina","I love the dark and edgy nature of this,50,120,20","Katelyn","It makes me think of music and i love the reflective aspect,29,100,20","6"
"2733","","survey-text","190","3879974","0.0-187.0-0.0","A7OZPNXIVO1FX","","","","{""Q0"":""we""}","","","","","","","","","","","","","","","","","","","","","","",""
"182134","","survey-text","191","4062109","0.0-188.0-0.0","A7OZPNXIVO1FX","","","","{""Q0"":""its nostalgic. looks like a picture of a princess sleeping""}","","","","","","","","","","","","","","","","","","","","","","",""
"2498.5","","image-slider-response","192","4064609","0.0-189.0","A7OZPNXIVO1FX","","","","","13","","","","","","","","","","","","","","","","","","","","","",""
"null","","image-button-response","193","4069612","0.0-190.0","A7OZPNXIVO1FX","img_art/9.jpg","null","","","","","","","","","","","","","","","","","","","","","","","","",""
"2314","","image-button-response","194","4071928","0.0-191.0","A7OZPNXIVO1FX","img_art/9.jpg","0","","","","","","","","","","","","","","","","","","","","","","","","",""
"1591","","image-button-response","195","4073522","0.0-192.0-0.0","A7OZPNXIVO1FX","img_art/9.jpg","1","","","","","","","","","","","","","","","","","","","","","","","","",""
"1470","","image-button-response","196","4074996","0.0-193.0-0.0","A7OZPNXIVO1FX","img_art/9.jpg","5","","","","","","","","","","","","","","","","","","","","","","","","",""
"null","","html-keyboard-response","197","4076512","0.0-194.0","A7OZPNXIVO1FX","<p style=""font-size: 48px;"">+</p>","","","","","null","allTrialResponses","1500","1","21","img_art/9.jpg","13","its nostalgic. looks like a picture of a princess sleeping","Erica,Sabrina,Haley,Jamie,Katelyn,Elizabeth","Looks very relaxing; someone laying in a meadow,13,80,20","Calming and relaxing,42,120,20","I don't like the picture, but it wouldn't surprise me if someone did,-20,220,20","Mash up of colors and designs don't really go together,-5,320,20","The lack of concrete form kind of turns me off,-2,100,20","Love the uniqueness,21,20,20","Erica","Looks very relaxing; someone laying in a meadow,13,80,20","Sabrina","Calming and relaxing,42,120,20","Elizabeth","Love the uniqueness,21,20,20","6"
"13488","","survey-text","198","4090013","0.0-195.0-0.0","A7OZPNXIVO1FX","","","","{""Q0"":""love this picture. it's so calming. reminds me of a stream in a beautiful meadow""}","","","","","","","","","","","","","","","","","","","","","","",""
"2995.2000000476837","","image-slider-response","199","4093010","0.0-196.0","A7OZPNXIVO1FX","","","","","50","","","","","","","","","","","","","","","","","","","","","",""
"null","","image-button-response","200","4098015","0.0-197.0","A7OZPNXIVO1FX","img_art/24.jpg","null","","","","","","","","","","","","","","","","","","","","","","","","",""
"2346","","image-button-response","201","4100364","0.0-198.0","A7OZPNXIVO1FX","img_art/24.jpg","3","","","","","","","","","","","","","","","","","","","","","","","","",""
"3155","","image-button-response","202","4103523","0.0-199.0-0.0","A7OZPNXIVO1FX","img_art/24.jpg","1","","","","","","","","","","","","","","","","","","","","","","","","",""
"1115","","image-button-response","203","4104642","0.0-200.0-0.0","A7OZPNXIVO1FX","img_art/24.jpg","0","","","","","","","","","","","","","","","","","","","","","","","","",""
"null","","html-keyboard-response","204","4105651","0.0-201.0","A7OZPNXIVO1FX","<p style=""font-size: 48px;"">+</p>","","","","","null","allTrialResponses","1000","1","22","img_art/24.jpg","50","love this picture. it's so calming. reminds me of a stream in a beautiful meadow","Erica,Sabrina,Sarah,Rachel,Chloe,Elizabeth","Very refreshing and vigorous,19,80,20","Love the natural vibe,50,120,20","it's fine, the colors are pleasing, but not my taste,9,180,20","Looks like a beautiful stream rolling through terrain of rocks and flowers.,43,80,20","Pretty but cheesy,-15,220,20","Evokes pleasant feelings,50,20,20","Rachel","Looks like a beautiful stream rolling through terrain of rocks and flowers.,43,80,20","Sabrina","Love the natural vibe,50,120,20","Erica","Very refreshing and vigorous,19,80,20","6"
"74955","","survey-text","205","4180622","0.0-202.0-0.0","A7OZPNXIVO1FX","","","","{""Q0"":""looks creepy to me. like dinosaur bones behind a house.""}","","","","","","","","","","","","","","","","","","","","","","",""
"2166.899999976158","","image-slider-response","206","4182791","0.0-203.0","A7OZPNXIVO1FX","","","","","14","","","","","","","","","","","","","","","","","","","","","",""
"2588","","image-button-response","207","4187795","0.0-204.0","A7OZPNXIVO1FX","img_art/20.jpg","4","","","","","","","","","","","","","","","","","","","","","","","","",""
"944","","image-button-response","208","4188741","0.0-205.0","A7OZPNXIVO1FX","img_art/20.jpg","4","","","","","","","","","","","","","","","","","","","","","","","","",""
"1532","","image-button-response","209","4190276","0.0-206.0-0.0","A7OZPNXIVO1FX","img_art/20.jpg","3","","","","","","","","","","","","","","","","","","","","","","","","",""
"1145","","image-button-response","210","4191425","0.0-207.0-0.0","A7OZPNXIVO1FX","img_art/20.jpg","1","","","","","","","","","","","","","","","","","","","","","","","","",""
"null","","html-keyboard-response","211","4191935","0.0-208.0","A7OZPNXIVO1FX","<p style=""font-size: 48px;"">+</p>","","","","","null","allTrialResponses","500","1","23","img_art/20.jpg","14","looks creepy to me. like dinosaur bones behind a house.","Erica,Sabrina,Mariah,Rachel,Brooke,Tiffany","looks like an auto accident,-30,80,20","I love the way it expresses dark nature and uncontrolled situations.,44,120,20","It feels like it ""almost"" several things.,-10,140,20","While interesting in technique.. It looks like a blurry car wreck. Does not evoke great emotions.,-20,80,20","Dinosaur skill and some dark shadow above,-30,60,20","I feel powerful, like I am looking out a window at this machine, that I am in charge.,17,360,20","Brooke","Dinosaur skill and some dark shadow above,-30,60,20","Rachel","While interesting in technique.. It looks like a blurry car wreck. Does not evoke great emotions.,-20,80,20","Sabrina","I love the way it expresses dark nature and uncontrolled situations.,44,120,20","6"
"10949","","survey-text","212","4202897","0.0-209.0-0.0","A7OZPNXIVO1FX","","","","{""Q0"":""looks creepy and isolated but in a good way. a tree in the middle of nowhere""}","","","","","","","","","","","","","","","","","","","","","","",""
"3223.600000023842","","image-slider-response","213","4206123","0.0-210.0","A7OZPNXIVO1FX","","","","","28","","","","","","","","","","","","","","","","","","","","","",""
"1950","","image-button-response","214","4211133","0.0-211.0","A7OZPNXIVO1FX","img_art/6.jpg","1","","","","","","","","","","","","","","","","","","","","","","","","",""
"1269","","image-button-response","215","4212406","0.0-212.0","A7OZPNXIVO1FX","img_art/6.jpg","1","","","","","","","","","","","","","","","","","","","","","","","","",""
"750","","image-button-response","216","4213160","0.0-213.0-0.0","A7OZPNXIVO1FX","img_art/6.jpg","0","","","","","","","","","","","","","","","","","","","","","","","","",""
"1304","","image-button-response","217","4214467","0.0-214.0-0.0","A7OZPNXIVO1FX","img_art/6.jpg","3","","","","","","","","","","","","","","","","","","","","","","","","",""
"null","","html-keyboard-response","218","4214978","0.0-215.0","A7OZPNXIVO1FX","<p style=""font-size: 48px;"">+</p>","","","","","null","allTrialResponses","500","1","24","img_art/6.jpg","28","looks creepy and isolated but in a good way. a tree in the middle of nowhere","Kristen,Sabrina,Kelsey,Rachel,Brooke,Melissa","loneliness, fragile, forever alone, a girl who's been there for eternity, only think tracking time is the length of her hair,9,280,20","I love the representation of death and life.,50,120,20","its like a jalapeno,-28,240,20","Reminds me of a plant poking through the soil. It reminds me of new life.,31,80,20","Kind of neat, but then that's a weird looking bird. too weird.,0,60,20","composition is engaging,28,240,20","Sabrina","I love the representation of death and life.,50,120,20","Kristen","loneliness, fragile, forever alone, a girl who's been there for eternity, only think tracking time is the length of her hair,9,280,20","Rachel","Reminds me of a plant poking through the soil. It reminds me of new life.,31,80,20","6"
"17612","","survey-text","219","4232602","0.0-216.0-0.0","A7OZPNXIVO1FX","","","","{""Q0"":""a really cool picture. the statue of the head at the top of houses. gives eerie but cool vibes.""}","","","","","","","","","","","","","","","","","","","","","","",""
"1921.7000000476837","","image-slider-response","220","4234525","0.0-217.0","A7OZPNXIVO1FX","","","","","50","","","","","","","","","","","","","","","","","","","","","",""
"3122","","image-button-response","221","4239541","0.0-218.0","A7OZPNXIVO1FX","img_art/8.jpg","3","","","","","","","","","","","","","","","","","","","","","","","","",""
"843","","image-button-response","222","4240387","0.0-219.0","A7OZPNXIVO1FX","img_art/8.jpg","3","","","","","","","","","","","","","","","","","","","","","","","","",""
"1160","","image-button-response","223","4241551","0.0-220.0-0.0","A7OZPNXIVO1FX","img_art/8.jpg","0","","","","","","","","","","","","","","","","","","","","","","","","",""
"2651","","image-button-response","224","4244206","0.0-221.0-0.0","A7OZPNXIVO1FX","img_art/8.jpg","1","","","","","","","","","","","","","","","","","","","","","","","","",""
"null","","html-keyboard-response","225","4245219","0.0-222.0","A7OZPNXIVO1FX","<p style=""font-size: 48px;"">+</p>","","","","","null","allTrialResponses","1000","1","25","img_art/8.jpg","50","a really cool picture. the statue of the head at the top of houses. gives eerie but cool vibes.","Kristen,Sabrina,Angelica,Rachel,Emily,Emma","mothe nature/godess, watching over you,21,280,20","I love the expressiveness of this,50,120,20","It's a poor rendition of an MC Escher inspired piece.,-25,280,20","I like all of the faces that can be found in this piece. Interesting.,35,80,20","It is interesting to look at. Abstract but ordered.,9,40,20","Love the colors & block-style,50,60,20","Rachel","I like all of the faces that can be found in this piece. Interesting.,35,80,20","Kristen","mothe nature/godess, watching over you,21,280,20","Sabrina","I love the expressiveness of this,50,120,20","6"
"4829","","survey-text","226","4250066","0.0-223.0-0.0","A7OZPNXIVO1FX","","","","{""Q0"":""table""}","","","","","","","","","","","","","","","","","","","","","","",""
"12490","","survey-text","227","4262557","0.0-224.0-0.0","A7OZPNXIVO1FX","","","","{""Q0"":""very relaxing feeling. looks like raindrops on a window.""}","","","","","","","","","","","","","","","","","","","","","","",""
"2026.1000000238419","","image-slider-response","228","4264585","0.0-225.0","A7OZPNXIVO1FX","","","","","50","","","","","","","","","","","","","","","","","","","","","",""
"1488","","image-button-response","229","4269589","0.0-226.0","A7OZPNXIVO1FX","img_art/13.jpg","4","","","","","","","","","","","","","","","","","","","","","","","","",""
"1162","","image-button-response","230","4270753","0.0-227.0","A7OZPNXIVO1FX","img_art/13.jpg","4","","","","","","","","","","","","","","","","","","","","","","","","",""
"1127","","image-button-response","231","4271881","0.0-228.0-0.0","A7OZPNXIVO1FX","img_art/13.jpg","2","","","","","","","","","","","","","","","","","","","","","","","","",""
"682","","image-button-response","232","4272564","0.0-229.0-0.0","A7OZPNXIVO1FX","img_art/13.jpg","0","","","","","","","","","","","","","","","","","","","","","","","","",""
"null","","html-keyboard-response","233","4274081","0.0-230.0","A7OZPNXIVO1FX","<p style=""font-size: 48px;"">+</p>","","","","","null","allTrialResponses","1500","1","26","img_art/13.jpg","50","very relaxing feeling. looks like raindrops on a window.","Kristen,Sabrina,Jacqueline,Rachel,Isabella,Meghan","happy, serenity,30,280,20","I love the edgy nature,50,120,20","Seems a little cold but I like the neuron looking splatters.,10,300,20","Peaceful colors.,20,80,20","Rain drops on a window,35,280,20","I like the transition to other colors,24,220,20","Isabella","Rain drops on a window,35,280,20","Jacqueline","Seems a little cold but I like the neuron looking splatters.,10,300,20","Kristen","happy, serenity,30,280,20","6"
"20910","","survey-text","234","4295001","0.0-231.0-0.0","A7OZPNXIVO1FX","","","","{""Q0"":""this reminds me of someones interpretation of hell. very eerie but cool""}","","","","","","","","","","","","","","","","","","","","","","",""
"131026.29999995232","","image-slider-response","235","4426029","0.0-232.0","A7OZPNXIVO1FX","","","","","14","","","","","","","","","","","","","","","","","","","","","",""
"1870","","image-button-response","236","4431048","0.0-233.0","A7OZPNXIVO1FX","img_art/1.jpg","4","","","","","","","","","","","","","","","","","","","","","","","","",""
"868","","image-button-response","237","4431918","0.0-234.0","A7OZPNXIVO1FX","img_art/1.jpg","0","","","","","","","","","","","","","","","","","","","","","","","","",""
"742","","image-button-response","238","4432662","0.0-235.0-0.0","A7OZPNXIVO1FX","img_art/1.jpg","4","","","","","","","","","","","","","","","","","","","","","","","","",""
"940","","image-button-response","239","4433605","0.0-236.0-0.0","A7OZPNXIVO1FX","img_art/1.jpg","3","","","","","","","","","","","","","","","","","","","","","","","","",""
"null","","html-keyboard-response","240","4435120","0.0-237.0","A7OZPNXIVO1FX","<p style=""font-size: 48px;"">+</p>","","","","","null","allTrialResponses","1500","1","27","img_art/1.jpg","14","this reminds me of someones interpretation of hell. very eerie but cool","Kristen,Laura,Jacqueline,Kelly,Isabella,Olivia","river, fall, cozy, warm,12,280,20","soft and touchable, muddled,15,320,20","It's alright but lacks any depth.,-5,300,20","I love colorful photos and I like this one a lot.,25,220,20","Warmth of the sun,22,280,20","feels like there is meaning,9,40,20","Kristen","river, fall, cozy, warm,12,280,20","Isabella","Warmth of the sun,22,280,20","Kelly","I love colorful photos and I like this one a lot.,25,220,20","6"
"25999","","survey-text","241","4461132","0.0-238.0-0.0","A7OZPNXIVO1FX","","","","{""Q0"":""comforting but evil at the same time. a photo of autumn but the deep red, which looks like blood, is a bit unsettling.""}","","","","","","","","","","","","","","","","","","","","","","",""
"3106","","image-slider-response","242","4464239","0.0-239.0","A7OZPNXIVO1FX","","","","","27","","","","","","","","","","","","","","","","","","","","","",""
"2268","","image-button-response","243","4469248","0.0-240.0","A7OZPNXIVO1FX","img_art/21.jpg","4","","","","","","","","","","","","","","","","","","","","","","","","",""
"246","","image-button-response","244","4469496","0.0-241.0","A7OZPNXIVO1FX","img_art/21.jpg","4","","","","","","","","","","","","","","","","","","","","","","","","",""
"1151","","image-button-response","245","4470649","0.0-242.0-0.0","A7OZPNXIVO1FX","img_art/21.jpg","0","","","","","","","","","","","","","","","","","","","","","","","","",""
"1632","","image-button-response","246","4472284","0.0-243.0-0.0","A7OZPNXIVO1FX","img_art/21.jpg","1","","","","","","","","","","","","","","","","","","","","","","","","",""
"null","","html-keyboard-response","247","4473301","0.0-244.0","A7OZPNXIVO1FX","<p style=""font-size: 48px;"">+</p>","","","","","null","allTrialResponses","1000","1","28","img_art/21.jpg","27","comforting but evil at the same time. a photo of autumn but the deep red, which looks like blood, is a bit unsettling.","Kristen,Gabrielle,Mikayla,Kelly,Isabella,Mary","calm, ship at sea, sunset,16,280,20","setting sun sky? nice colors and blending,14,160,20","Nothing exciting in this one.,-36,300,20","It actually reminded me of a place I've been to. So I had a positive reaction to it.,22,220,20","It reminds me of war, red blood and dark blue reminds me of an army,-20,280,20","This is lovely. I like the mix of colors, the warn and cool slowly combining.,39,180,20","Isabella","It reminds me of war, red blood and dark blue reminds me of an army,-20,280,20","Kristen","calm, ship at sea, sunset,16,280,20","Gabrielle","setting sun sky? nice colors and blending,14,160,20","6"
"11026","","survey-text","248","4484344","0.0-245.0-0.0","A7OZPNXIVO1FX","","","","{""Q0"":""reminds me of an ostrich. strange but cool""}","","","","","","","","","","","","","","","","","","","","","","",""
"2599.399999976158","","image-slider-response","249","4486945","0.0-246.0","A7OZPNXIVO1FX","","","","","10","","","","","","","","","","","","","","","","","","","","","",""
"null","","image-button-response","250","4491958","0.0-247.0","A7OZPNXIVO1FX","img_art/17.jpg","null","","","","","","","","","","","","","","","","","","","","","","","","",""
"357","","image-button-response","251","4492318","0.0-248.0","A7OZPNXIVO1FX","img_art/17.jpg","4","","","","","","","","","","","","","","","","","","","","","","","","",""
"1378","","image-button-response","252","4493700","0.0-249.0-0.0","A7OZPNXIVO1FX","img_art/17.jpg","2","","","","","","","","","","","","","","","","","","","","","","","","",""
"838","","image-button-response","253","4494541","0.0-250.0-0.0","A7OZPNXIVO1FX","img_art/17.jpg","5","","","","","","","","","","","","","","","","","","","","","","","","",""
"null","","html-keyboard-response","254","4495052","0.0-251.0","A7OZPNXIVO1FX","<p style=""font-size: 48px;"">+</p>","","","","","null","allTrialResponses","500","1","29","img_art/17.jpg","10","reminds me of an ostrich. strange but cool","Kristen,Gabrielle,Nicole,Madison,Isabella,Alexandria","calm, tranquil, happy,50,280,20","nice composition and colors, fairy land,28,160,20","Feels nostalgic somehow,31,20,20","No strong reaction. Beautiful design, but hue appears taciturn. Bad photograph?,1,60,20","Pleasant fall to winter day,22,280,20","it looks very intricate and colorful,50,80,20","Isabella","Pleasant fall to winter day,22,280,20","Nicole","Feels nostalgic somehow,31,20,20","Alexandria","it looks very intricate and colorful,50,80,20","6"
"28548","","survey-text","255","4523615","0.0-252.0-0.0","A7OZPNXIVO1FX","","","","{""Q0"":""it looks like a messy painting. doesn't give me much of a reaction. just looks messy.""}","","","","","","","","","","","","","","","","","","","","","","",""
"1769.5","","image-slider-response","256","4525386","0.0-253.0","A7OZPNXIVO1FX","","","","","-31","","","","","","","","","","","","","","","","","","","","","",""
"4263","","image-button-response","257","4530393","0.0-254.0","A7OZPNXIVO1FX","img_art/29.jpg","3","","","","","","","","","","","","","","","","","","","","","","","","",""
"2488","","image-button-response","258","4532884","0.0-255.0","A7OZPNXIVO1FX","img_art/29.jpg","3","","","","","","","","","","","","","","","","","","","","","","","","",""
"1509","","image-button-response","259","4534395","0.0-256.0-0.0","A7OZPNXIVO1FX","img_art/29.jpg","0","","","","","","","","","","","","","","","","","","","","","","","","",""
"1051","","image-button-response","260","4535449","0.0-257.0-0.0","A7OZPNXIVO1FX","img_art/29.jpg","2","","","","","","","","","","","","","","","","","","","","","","","","",""
"null","","html-keyboard-response","261","4536955","0.0-258.0","A7OZPNXIVO1FX","<p style=""font-size: 48px;"">+</p>","","","","","null","allTrialResponses","1500","1","30","img_art/29.jpg","-31","it looks like a messy painting. doesn't give me much of a reaction. just looks messy.","Brianna,Rebecca,Nicole,Hailey,Isabella,Alexandria","It has a red X on there, and x's mean bad in my perspective,-29,20,20","love the texture, i don't know, i just really like it (and the paintbrush adds a nice touch),44,100,20","This one feels scary in a good way,30,20,20","a hot fireplace with things to burn. warm,12,200,20","Darkness and torment,-50,280,20","it is difficult to look at but you can't look away,-25,80,20","Hailey","a hot fireplace with things to burn. warm,12,200,20","Brianna","It has a red X on there, and x's mean bad in my perspective,-29,20,20","Nicole","This one feels scary in a good way,30,20,20","6"
"2702","","image-button-response_instructions","262","4539675","0.0-259.0","A7OZPNXIVO1FX","","0","instructions","","","","","","","","","","","","","","","","","","","","","","","",""
"1189","","image-button-response","263","4540878","0.0-260.0","A7OZPNXIVO1FX","","0","","","","","","","","","","","","","","","","","","","","","","","","",""
