"rt","url","trial_type","trial_index","time_elapsed","internal_node_id","participant_id","stimulus","button_pressed","Name","responses","response","key_press","variableName","fixationTime","condition","trial","photo","subjectRating","subjectResponse","agentsNames","agent_1_Response","agent_2_Response","agent_3_Response","agent_4_Response","agent_5_Response","agent_6_Response","kept_1_name","kept_1_response","kept_2_name","kept_2_response","kept_3_name","kept_3_response","errorCounter"
"25646","external_page_harvard.html","external-html","0","25728","0.0-0.0","A7WJHRZ37HC66","","","","","","","","","","","","","","","","","","","","","","","","","","",""
"1348","","image-button-response","1","27078","0.0-1.0","A7WJHRZ37HC66","","1","","","","","","","","","","","","","","","","","","","","","","","","",""
"1711","","image-button-response","2","28794","0.0-2.0-0.0","A7WJHRZ37HC66","","1","phone","","","","","","","","","","","","","","","","","","","","","","","",""
"7930","","survey-text","3","36726","0.0-3.0-0.0","A7WJHRZ37HC66","","","","{""Q0"":""A7WJHRZ37HC66""}","","","","","","","","","","","","","","","","","","","","","","",""
"5698","","image-button-response_instructions","4","42426","0.0-4.0","A7WJHRZ37HC66","","0","instructions","","","","","","","","","","","","","","","","","","","","","","","",""
"14791","","image-button-response_instructions","5","57218","0.0-5.0","A7WJHRZ37HC66","img_art/ins/popularity/ins1.png","0","instructions","","","","","","","","","","","","","","","","","","","","","","","",""
"12643","","image-button-response_instructions","6","69862","0.0-6.0","A7WJHRZ37HC66","img_art/ins/popularity/ins2.png","0","instructions","","","","","","","","","","","","","","","","","","","","","","","",""
"8287","","image-button-response_instructions","7","78150","0.0-7.0","A7WJHRZ37HC66","img_art/ins/popularity/ins2Extreme.png","0","instructions","","","","","","","","","","","","","","","","","","","","","","","",""
"10371","","image-button-response_instructions","8","88522","0.0-8.0","A7WJHRZ37HC66","img_art/ins/popularity/ins3KEEPpop.PNG","0","instructions","","","","","","","","","","","","","","","","","","","","","","","",""
"5059","","image-button-response_instructions","9","93582","0.0-9.0","A7WJHRZ37HC66","img_art/ins/popularity/ins3ANamepop.PNG","0","instructions","","","","","","","","","","","","","","","","","","","","","","","",""
"3863","","image-button-response_instructions","10","97446","0.0-10.0","A7WJHRZ37HC66","img_art/ins/popularity/ins3ARatingpop.png","0","instructions","","","","","","","","","","","","","","","","","","","","","","","",""
"6811","","image-button-response_instructions","11","104258","0.0-11.0","A7WJHRZ37HC66","img_art/ins/popularity/ins3ATextpop.png","0","instructions","","","","","","","","","","","","","","","","","","","","","","","",""
"10175","","image-button-response_instructions","12","114434","0.0-12.0","A7WJHRZ37HC66","img_art/ins/popularity/ins3ALikespop.png","0","instructions","","","","","","","","","","","","","","","","","","","","","","","",""
"12148","","image-button-response_instructions","13","126582","0.0-13.0","A7WJHRZ37HC66","img_art/ins/popularity/ins3KEEPpop.PNG","0","instructions","","","","","","","","","","","","","","","","","","","","","","","",""
"18527","","image-button-response_instructions","14","145110","0.0-14.0","A7WJHRZ37HC66","img_art/ins/popularity/ins3_5RED.png","0","instructions","","","","","","","","","","","","","","","","","","","","","","","",""
"6767","","image-button-response_instructions","15","151878","0.0-15.0","A7WJHRZ37HC66","img_art/ins/popularity/ins3KEEPpop.PNG","0","instructions","","","","","","","","","","","","","","","","","","","","","","","",""
"16351","","image-button-response_instructions","16","168230","0.0-16.0","A7WJHRZ37HC66","img_art/ins/popularity/ins4KEEPpop.PNG","0","instructions","","","","","","","","","","","","","","","","","","","","","","","",""
"6435","","image-button-response_instructions","17","174666","0.0-17.0","A7WJHRZ37HC66","img_art/ins/popularity/ins5KEEPpop.PNG","0","instructions","","","","","","","","","","","","","","","","","","","","","","","",""
"2443","","image-button-response_instructions","18","177110","0.0-18.0","A7WJHRZ37HC66","","0","instructions","","","","","","","","","","","","","","","","","","","","","","","",""
"7183","","survey-text","19","184314","0.0-19.0-0.0","A7WJHRZ37HC66","","","","{""Q0"":""but""}","","","","","","","","","","","","","","","","","","","","","","",""
"19339","","survey-text","20","203654","0.0-20.0-0.0","A7WJHRZ37HC66","","","","{""Q0"":""Looks like a child painted it ""}","","","","","","","","","","","","","","","","","","","","","","",""
"6101.699999988079","","image-slider-response","21","209758","0.0-21.0","A7WJHRZ37HC66","","","","","23","","","","","","","","","","","","","","","","","","","","","",""
"null","","image-button-response","22","214771","0.0-22.0","A7WJHRZ37HC66","img_art/ins/1.jpg","null","","","","","","","","","","","","","","","","","","","","","","","","",""
"4037","","image-button-response","23","218810","0.0-23.0","A7WJHRZ37HC66","img_art/ins/1.jpg","3","","","","","","","","","","","","","","","","","","","","","","","","",""
"17246","","image-button-response","24","236058","0.0-24.0-0.0","A7WJHRZ37HC66","img_art/ins/1.jpg","4","","","","","","","","","","","","","","","","","","","","","","","","",""
"3822","","image-button-response","25","239882","0.0-25.0-0.0","A7WJHRZ37HC66","img_art/ins/1.jpg","0","","","","","","","","","","","","","","","","","","","","","","","","",""
"null","","html-keyboard-response","26","241397","0.0-26.0","A7WJHRZ37HC66","<p style=""font-size: 48px;"">+</p>","","","","","null","allTrialResponses","1500","1","-2","img_art/ins/1.jpg","23","Looks like a child painted it ","Allison,Ashley,Beth,Dora,Erika,Jen","looks like a lot of things going on in the mist,20,20,20","I just don't get why these type of art would be popular,-32,40,20","This color reminds me of poo,-46,60,20","looks like what my niece in 3rd grade did this afternoon,-50,80,20","I like the sophisticated brushwork,40,100,20","It reminds me of a candy land dream I had,36,120,20","Dora","looks like what my niece in 3rd grade did this afternoon,-50,80,20","Erika","I like the sophisticated brushwork,40,100,20","Allison","looks like a lot of things going on in the mist,20,20,20","0"
"11299","","survey-text","27","252702","0.0-27.0-0.0","A7WJHRZ37HC66","","","","{""Q0"":""looks a mess""}","","","","","","","","","","","","","","","","","","","","","","",""
"3754.4000000059605","","image-slider-response","28","256458","0.0-28.0","A7WJHRZ37HC66","","","","","-22","","","","","","","","","","","","","","","","","","","","","",""
"null","","image-button-response","29","261682","0.0-29.0","A7WJHRZ37HC66","img_art/ins/2.jpg","null","","","","","","","","","","","","","","","","","","","","","","","","",""
"101135","","image-button-response","30","362818","0.0-30.0","A7WJHRZ37HC66","img_art/ins/2.jpg","2","","","","","","","","","","","","","","","","","","","","","","","","",""
"2154","","image-button-response","31","364974","0.0-31.0-0.0","A7WJHRZ37HC66","img_art/ins/2.jpg","0","","","","","","","","","","","","","","","","","","","","","","","","",""
"2550","","image-button-response","32","367526","0.0-32.0-0.0","A7WJHRZ37HC66","img_art/ins/2.jpg","0","","","","","","","","","","","","","","","","","","","","","","","","",""
"1147","","image-button-response","33","372819","0.0-32.1-0.1","A7WJHRZ37HC66","img_art/ins/2.jpg","5","","","","","","","","","","","","","","","","","","","","","","","","",""
"null","","html-keyboard-response","34","373320","0.0-33.0","A7WJHRZ37HC66","<p style=""font-size: 48px;"">+</p>","","","","","null","allTrialResponses","500","1","-1","img_art/ins/2.jpg","-22","looks a mess","Allison,Jenna,Kara,Dora,Erika,Katie","I don't have strong feelings about this,10,20,20","One of my pet peevs,-48,140,20","I like the blocks of color arrangements,30,160,20","looks too angry,-50,80,20","I would never be able to compose a sophisticated pallete like this,48,100,20","too much color!,-28,180,20","Kara","I like the blocks of color arrangements,30,160,20","Allison","I don't have strong feelings about this,10,20,20","Katie","too much color!,-28,180,20","2"
"22763","","survey-text","35","396090","0.0-34.0-0.0","A7WJHRZ37HC66","","","","{""Q0"":""love this love the color""}","","","","","","","","","","","","","","","","","","","","","","",""
"5486.399999991059","","image-slider-response","36","401578","0.0-35.0","A7WJHRZ37HC66","","","","","47","","","","","","","","","","","","","","","","","","","","","",""
"null","","image-button-response","37","406583","0.0-36.0","A7WJHRZ37HC66","img_art/ins/3.jpg","null","","","","","","","","","","","","","","","","","","","","","","","","",""
"2502","","image-button-response","38","409086","0.0-37.0","A7WJHRZ37HC66","img_art/ins/3.jpg","0","","","","","","","","","","","","","","","","","","","","","","","","",""
"1115","","image-button-response","39","410202","0.0-38.0-0.0","A7WJHRZ37HC66","img_art/ins/3.jpg","2","","","","","","","","","","","","","","","","","","","","","","","","",""
"3959","","image-button-response","40","414162","0.0-39.0-0.0","A7WJHRZ37HC66","img_art/ins/3.jpg","4","","","","","","","","","","","","","","","","","","","","","","","","",""
"null","","html-keyboard-response","41","414669","0.0-40.0","A7WJHRZ37HC66","<p style=""font-size: 48px;"">+</p>","","","","","null","allTrialResponses","500","1","0","img_art/ins/3.jpg","47","love this love the color","Allison,Rose,Kara,Leslie,Mary,Katie","enjoy the different shades of blue,22,20,20","My daily routine, it's depressing,-20,240,20","calming blue is very nice,36,160,20","It's an alright work,15,200,20","I like the overlapping of brushes,41,220,20","It looks depressing,-26,180,20","Allison","enjoy the different shades of blue,22,20,20","Kara","calming blue is very nice,36,160,20","Mary","I like the overlapping of brushes,41,220,20","2"
"6782","","image-button-response_instructions","42","421454","0.0-41.0","A7WJHRZ37HC66","","0","instructions","","","","","","","","","","","","","","","","","","","","","","","",""
"13683","","survey-likert","43","435139","0.0-42.0-0.0","A7WJHRZ37HC66","","","","{""Q0"":"""",""Q1"":0,""Q2"":1}","","","","","","","","","","","","","","","","","","","","","","",""
"5220","","survey-text","44","440362","0.0-43.0-0.0","A7WJHRZ37HC66","","","","{""Q0"":""rock""}","","","","","","","","","","","","","","","","","","","","","","",""
"15735","","survey-text","45","456098","0.0-44.0-0.0","A7WJHRZ37HC66","","","","{""Q0"":""looks like  a childs art class""}","","","","","","","","","","","","","","","","","","","","","","",""
"3330.7000000029802","","image-slider-response","46","459430","0.0-45.0","A7WJHRZ37HC66","","","","","-36","","","","","","","","","","","","","","","","","","","","","",""
"null","","image-button-response","47","464462","0.0-46.0","A7WJHRZ37HC66","img_art/9.jpg","null","","","","","","","","","","","","","","","","","","","","","","","","",""
"2350","","image-button-response","48","466815","0.0-47.0","A7WJHRZ37HC66","img_art/9.jpg","3","","","","","","","","","","","","","","","","","","","","","","","","",""
"1610","","image-button-response","49","468427","0.0-48.0-0.0","A7WJHRZ37HC66","img_art/9.jpg","4","","","","","","","","","","","","","","","","","","","","","","","","",""
"2642","","image-button-response","50","471071","0.0-49.0-0.0","A7WJHRZ37HC66","img_art/9.jpg","2","","","","","","","","","","","","","","","","","","","","","","","","",""
"null","","html-keyboard-response","51","472582","0.0-50.0","A7WJHRZ37HC66","<p style=""font-size: 48px;"">+</p>","","","","","null","allTrialResponses","1500","1","1","img_art/9.jpg","-36","looks like  a childs art class","Jasmine,Mackenzie,Marissa,Cassandra,Miranda,Crystal","I like abstract art that looks that there is more than random brush strokes. This one looks the former,10,340,20","I enjoy the design, but the colors look waxy,-7,20,20","It makes me think of Snow White sleeping,11,160,20","Stuipid looking...dumb,-48,120,20","It looks like someone gave a kid a coloring book page but the colors are soothing and look put together and elegant,27,320,20","Evokes triumph of a mountain over powering a drowning sea,24,300,20","Cassandra","Stuipid looking...dumb,-48,120,20","Miranda","It looks like someone gave a kid a coloring book page but the colors are soothing and look put together and elegant,27,320,20","Marissa","It makes me think of Snow White sleeping,11,160,20","2"
"20468","","survey-text","52","493053","0.0-51.0-0.0","A7WJHRZ37HC66","","","","{""Q0"":""this looks dark and disturbing""}","","","","","","","","","","","","","","","","","","","","","","",""
"2815.0999999940395","","image-slider-response","53","495870","0.0-52.0","A7WJHRZ37HC66","","","","","-42","","","","","","","","","","","","","","","","","","","","","",""
"null","","image-button-response","54","500871","0.0-53.0","A7WJHRZ37HC66","img_art/16.jpg","null","","","","","","","","","","","","","","","","","","","","","","","","",""
"7022","","image-button-response","55","507894","0.0-54.0","A7WJHRZ37HC66","img_art/16.jpg","1","","","","","","","","","","","","","","","","","","","","","","","","",""
"1483","","image-button-response","56","509378","0.0-55.0-0.0","A7WJHRZ37HC66","img_art/16.jpg","2","","","","","","","","","","","","","","","","","","","","","","","","",""
"1922","","image-button-response","57","511302","0.0-56.0-0.0","A7WJHRZ37HC66","img_art/16.jpg","0","","","","","","","","","","","","","","","","","","","","","","","","",""
"null","","html-keyboard-response","58","511819","0.0-57.0","A7WJHRZ37HC66","<p style=""font-size: 48px;"">+</p>","","","","","null","allTrialResponses","500","1","2","img_art/16.jpg","-42","this looks dark and disturbing","Hannah,Sophia,Marissa,Cassandra,Miranda,Emma","This is weird and a little creepy.,6,240,20","This feels like there's some kind of pedofile thing going on here.,-50,280,20","I do not like this dark and twisted portrayal of childhood,-42,160,20","I like the teddy bear,but a neutral feeling,5,120,20","This looks like it was made by an art student filled with angst,-30,320,20","Kind of creepyyyyyy,-41,60,20","Sophia","This feels like there's some kind of pedofile thing going on here.,-50,280,20","Marissa","I do not like this dark and twisted portrayal of childhood,-42,160,20","Hannah","This is weird and a little creepy.,6,240,20","2"
"15140","","survey-text","59","526962","0.0-58.0-0.0","A7WJHRZ37HC66","","","","{""Q0"":""weird I don't get it""}","","","","","","","","","","","","","","","","","","","","","","",""
"2170.5999999940395","","image-slider-response","60","529134","0.0-59.0","A7WJHRZ37HC66","","","","","-41","","","","","","","","","","","","","","","","","","","","","",""
"null","","image-button-response","61","534152","0.0-60.0","A7WJHRZ37HC66","img_art/27.jpg","null","","","","","","","","","","","","","","","","","","","","","","","","",""
"4929","","image-button-response","62","539083","0.0-61.0","A7WJHRZ37HC66","img_art/27.jpg","1","","","","","","","","","","","","","","","","","","","","","","","","",""
"510","","image-button-response","63","539595","0.0-62.0-0.0","A7WJHRZ37HC66","img_art/27.jpg","2","","","","","","","","","","","","","","","","","","","","","","","","",""
"3654","","image-button-response","64","543251","0.0-63.0-0.0","A7WJHRZ37HC66","img_art/27.jpg","3","","","","","","","","","","","","","","","","","","","","","","","","",""
"null","","html-keyboard-response","65","543766","0.0-64.0","A7WJHRZ37HC66","<p style=""font-size: 48px;"">+</p>","","","","","null","allTrialResponses","500","1","3","img_art/27.jpg","-41","weird I don't get it","Hannah,Sophia,Marissa,Chelsea,Anna,Brianna","Reminds me of something I'd see in a gold frame from the Eighties.,-9,240,20","Yikes. I think I made this in kindergarten.,-20,280,20","I am bothered by the green doodles,-20,160,20","The green lines look like a child drew over a painting.,-36,180,20","It looks like when my little sister took magic markers to the wall.,-11,300,20","This painting is very unique,21,20,20","Sophia","Yikes. I think I made this in kindergarten.,-20,280,20","Marissa","I am bothered by the green doodles,-20,160,20","Chelsea","The green lines look like a child drew over a painting.,-36,180,20","2"
"20807","","survey-text","66","564578","0.0-65.0-0.0","A7WJHRZ37HC66","","","","{""Q0"":""This is kinda cool but at the same time lazy artist""}","","","","","","","","","","","","","","","","","","","","","","",""
"2994.5","","image-slider-response","67","567575","0.0-66.0","A7WJHRZ37HC66","","","","","14","","","","","","","","","","","","","","","","","","","","","",""
"null","","image-button-response","68","572590","0.0-67.0","A7WJHRZ37HC66","img_art/30.jpg","null","","","","","","","","","","","","","","","","","","","","","","","","",""
"7570","","image-button-response","69","580163","0.0-68.0","A7WJHRZ37HC66","img_art/30.jpg","3","","","","","","","","","","","","","","","","","","","","","","","","",""
"6106","","image-button-response","70","586270","0.0-69.0-0.0","A7WJHRZ37HC66","img_art/30.jpg","1","","","","","","","","","","","","","","","","","","","","","","","","",""
"4138","","image-button-response","71","590411","0.0-70.0-0.0","A7WJHRZ37HC66","img_art/30.jpg","2","","","","","","","","","","","","","","","","","","","","","","","","",""
"null","","html-keyboard-response","72","590912","0.0-71.0","A7WJHRZ37HC66","<p style=""font-size: 48px;"">+</p>","","","","","null","allTrialResponses","500","1","4","img_art/30.jpg","14","This is kinda cool but at the same time lazy artist","Morgan,Sophia,Marissa,Chelsea,Lauren,Vanessa","Sleek eel in the abstract ocean.,30,380,20","Hmmm. I think the artist is trying to direct me to a spreadsheet?  (s/s),-10,280,20","I really like the broad and colorful strokes,21,160,20","It looks like it was painted in 5 minutes.,-32,180,20","I like how the strokes invokes a sense of fluidity.,20,340,20","I like the red against the blue, but otherwise, it's not really my taste,4,380,20","Chelsea","It looks like it was painted in 5 minutes.,-32,180,20","Sophia","Hmmm. I think the artist is trying to direct me to a spreadsheet?  (s/s),-10,280,20","Marissa","I really like the broad and colorful strokes,21,160,20","2"
"15314","","survey-text","73","606234","0.0-72.0-0.0","A7WJHRZ37HC66","","","","{""Q0"":""This looks like a child didn't care what they were painting""}","","","","","","","","","","","","","","","","","","","","","","",""
"3434.9000000059605","","image-slider-response","74","609670","0.0-73.0","A7WJHRZ37HC66","","","","","-36","","","","","","","","","","","","","","","","","","","","","",""
"null","","image-button-response","75","614681","0.0-74.0","A7WJHRZ37HC66","img_art/2.jpg","null","","","","","","","","","","","","","","","","","","","","","","","","",""
"730","","image-button-response","76","615415","0.0-75.0","A7WJHRZ37HC66","img_art/2.jpg","1","","","","","","","","","","","","","","","","","","","","","","","","",""
"15207","","image-button-response","77","630623","0.0-76.0-0.0","A7WJHRZ37HC66","img_art/2.jpg","5","","","","","","","","","","","","","","","","","","","","","","","","",""
"798","","image-button-response","78","631423","0.0-77.0-0.0","A7WJHRZ37HC66","img_art/2.jpg","2","","","","","","","","","","","","","","","","","","","","","","","","",""
"null","","html-keyboard-response","79","631924","0.0-78.0","A7WJHRZ37HC66","<p style=""font-size: 48px;"">+</p>","","","","","null","allTrialResponses","500","1","5","img_art/2.jpg","-36","This looks like a child didn't care what they were painting","Angela,Sophia,Marissa,Chelsea,Alexa,Sara","Only like the blues and teals in this. The rest is unappealing.,-15,260,20","I'm not fond of the colors in this one.,-33,280,20","I feel bothered by the dark and dingy choice of colors,-22,160,20","Not sure what is happening. I'm not a big fan of the colors but they don't bother me either.,1,180,20","Not my favorite but I can see this being hung in a art museum,25,40,20","Dark tone feels sad,-30,160,20","Sophia","I'm not fond of the colors in this one.,-33,280,20","Sara","Dark tone feels sad,-30,160,20","Marissa","I feel bothered by the dark and dingy choice of colors,-22,160,20","2"
"4131","","survey-text","80","636062","0.0-79.0-0.0","A7WJHRZ37HC66","","","","{""Q0"":""sky""}","","","","","","","","","","","","","","","","","","","","","","",""
"8795","","survey-text","81","644858","0.0-80.0-0.0","A7WJHRZ37HC66","","","","{""Q0"":""very colorful""}","","","","","","","","","","","","","","","","","","","","","","",""
"2762.5999999940395","","image-slider-response","82","647623","0.0-81.0","A7WJHRZ37HC66","","","","","18","","","","","","","","","","","","","","","","","","","","","",""
"null","","image-button-response","83","652640","0.0-82.0","A7WJHRZ37HC66","img_art/22.jpg","null","","","","","","","","","","","","","","","","","","","","","","","","",""
"2012","","image-button-response","84","654655","0.0-83.0","A7WJHRZ37HC66","img_art/22.jpg","1","","","","","","","","","","","","","","","","","","","","","","","","",""
"7698","","image-button-response","85","662355","0.0-84.0-0.0","A7WJHRZ37HC66","img_art/22.jpg","2","","","","","","","","","","","","","","","","","","","","","","","","",""
"994","","image-button-response","86","663351","0.0-85.0-0.0","A7WJHRZ37HC66","img_art/22.jpg","4","","","","","","","","","","","","","","","","","","","","","","","","",""
"null","","html-keyboard-response","87","664862","0.0-86.0","A7WJHRZ37HC66","<p style=""font-size: 48px;"">+</p>","","","","","null","allTrialResponses","1500","1","6","img_art/22.jpg","18","very colorful","Lindsey,Sophia,Marissa,Maria,Michaela,Sara","Too much contrasting colors makes me feel anxious. I don't like it.,-20,400,20","I like this one. There is a lot to see if you keep looking for it.,27,280,20","I enjoy the vibrant colors,23,160,20","displeasure - not a fan of the colour or the shapes,-18,120,20","I like the use of primary colors in an interesting way,29,260,20","Looks like a warm sunset to me i like it,42,160,20","Sophia","I like this one. There is a lot to see if you keep looking for it.,27,280,20","Marissa","I enjoy the vibrant colors,23,160,20","Michaela","I like the use of primary colors in an interesting way,29,260,20","2"
"9347","","survey-text","88","674215","0.0-87.0-0.0","A7WJHRZ37HC66","","","","{""Q0"":""What????""}","","","","","","","","","","","","","","","","","","","","","","",""
"3961.5","","image-slider-response","89","678178","0.0-88.0","A7WJHRZ37HC66","","","","","-48","","","","","","","","","","","","","","","","","","","","","",""
"null","","image-button-response","90","683194","0.0-89.0","A7WJHRZ37HC66","img_art/5.jpg","null","","","","","","","","","","","","","","","","","","","","","","","","",""
"2807","","image-button-response","91","686002","0.0-90.0","A7WJHRZ37HC66","img_art/5.jpg","1","","","","","","","","","","","","","","","","","","","","","","","","",""
"4575","","image-button-response","92","690579","0.0-91.0-0.0","A7WJHRZ37HC66","img_art/5.jpg","2","","","","","","","","","","","","","","","","","","","","","","","","",""
"2050","","image-button-response","93","692631","0.0-92.0-0.0","A7WJHRZ37HC66","img_art/5.jpg","3","","","","","","","","","","","","","","","","","","","","","","","","",""
"null","","html-keyboard-response","94","693141","0.0-93.0","A7WJHRZ37HC66","<p style=""font-size: 48px;"">+</p>","","","","","null","allTrialResponses","500","1","7","img_art/5.jpg","-48","What????","Caitlin,Sophia,Marissa,Bailey,Michaela,Alexandria","More kindergarten art class. Who buys this stuff?,-45,80,20","Looks like a tied up trash bag.,-10,280,20","I am confused as to what I am seeing is it a handbag, duck foot, bell?,-18,160,20","Not sure what that even is. Looks like a 2-year old drawing,-40,360,20","Pretty simple, I'm not sure what it's supposed to mean,14,260,20","no clear emotion,-16,80,20","Sophia","Looks like a tied up trash bag.,-10,280,20","Marissa","I am confused as to what I am seeing is it a handbag, duck foot, bell?,-18,160,20","Bailey","Not sure what that even is. Looks like a 2-year old drawing,-40,360,20","2"
"19067","","survey-text","95","712214","0.0-94.0-0.0","A7WJHRZ37HC66","","","","{""Q0"":""Beautiful waterfall""}","","","","","","","","","","","","","","","","","","","","","","",""
"5435","","image-slider-response","96","717651","0.0-95.0","A7WJHRZ37HC66","","","","","45","","","","","","","","","","","","","","","","","","","","","",""
"null","","image-button-response","97","722655","0.0-96.0","A7WJHRZ37HC66","img_art/24.jpg","null","","","","","","","","","","","","","","","","","","","","","","","","",""
"2010","","image-button-response","98","724667","0.0-97.0","A7WJHRZ37HC66","img_art/24.jpg","2","","","","","","","","","","","","","","","","","","","","","","","","",""
"3155","","image-button-response","99","727823","0.0-98.0-0.0","A7WJHRZ37HC66","img_art/24.jpg","3","","","","","","","","","","","","","","","","","","","","","","","","",""
"4818","","image-button-response","100","732643","0.0-99.0-0.0","A7WJHRZ37HC66","img_art/24.jpg","4","","","","","","","","","","","","","","","","","","","","","","","","",""
"null","","html-keyboard-response","101","734154","0.0-100.0","A7WJHRZ37HC66","<p style=""font-size: 48px;"">+</p>","","","","","null","allTrialResponses","1500","1","8","img_art/24.jpg","45","Beautiful waterfall","Erika,Sophia,Marissa,Bailey,Shannon,Elizabeth","Very nice textures and subject,38,100,20","Hmm. Don't know what to make of this one.,1,280,20","It feels very serene,19,160,20","Feels surreal, in a way, and vibrant,37,360,20","I like the way the colors are put together, and I can imagine this picture in real life.,40,220,20","Evokes pleasant feelings,50,20,20","Marissa","It feels very serene,19,160,20","Bailey","Feels surreal, in a way, and vibrant,37,360,20","Shannon","I like the way the colors are put together, and I can imagine this picture in real life.,40,220,20","2"
"19505","","survey-text","102","753663","0.0-101.0-0.0","A7WJHRZ37HC66","","","","{""Q0"":""I like the blends of colors but not sure what I am looking at""}","","","","","","","","","","","","","","","","","","","","","","",""
"2650.5999999940395","","image-slider-response","103","756315","0.0-102.0","A7WJHRZ37HC66","","","","","-15","","","","","","","","","","","","","","","","","","","","","",""
"null","","image-button-response","104","761332","0.0-103.0","A7WJHRZ37HC66","img_art/20.jpg","null","","","","","","","","","","","","","","","","","","","","","","","","",""
"9405","","image-button-response","105","770739","0.0-104.0","A7WJHRZ37HC66","img_art/20.jpg","3","","","","","","","","","","","","","","","","","","","","","","","","",""
"16210","","image-button-response","106","786951","0.0-105.0-0.0","A7WJHRZ37HC66","img_art/20.jpg","0","","","","","","","","","","","","","","","","","","","","","","","","",""
"4011","","image-button-response","107","790963","0.0-106.0-0.0","A7WJHRZ37HC66","img_art/20.jpg","1","","","","","","","","","","","","","","","","","","","","","","","","",""
"null","","html-keyboard-response","108","791469","0.0-107.0","A7WJHRZ37HC66","<p style=""font-size: 48px;"">+</p>","","","","","null","allTrialResponses","500","1","9","img_art/20.jpg","-15","I like the blends of colors but not sure what I am looking at","Alexis,Briana,Marissa,Bailey,Shannon,Breanna","I like the proportion of the car to the desert city, but too abstract for me,15,100,20","Someone trying to be dali,-15,400,20","I feel intrigued and impressed,34,160,20","A bit hectic, but it does have a bit of coolness to it,6,360,20","I really like this. There are lots of objects the artist wanted to show and the colors are good.,38,220,20","Makes me feel impressed,9,380,20","Bailey","A bit hectic, but it does have a bit of coolness to it,6,360,20","Alexis","I like the proportion of the car to the desert city, but too abstract for me,15,100,20","Briana","Someone trying to be dali,-15,400,20","2"
"14199","","survey-text","109","805675","0.0-108.0-0.0","A7WJHRZ37HC66","","","","{""Q0"":""Intentional art but doesn't do it for me""}","","","","","","","","","","","","","","","","","","","","","","",""
"3122.6000000089407","","image-slider-response","110","808799","0.0-109.0","A7WJHRZ37HC66","","","","","-19","","","","","","","","","","","","","","","","","","","","","",""
"3622","","image-button-response","111","813802","0.0-110.0","A7WJHRZ37HC66","img_art/12.jpg","1","","","","","","","","","","","","","","","","","","","","","","","","",""
"9350","","image-button-response","112","823155","0.0-111.0","A7WJHRZ37HC66","img_art/12.jpg","5","","","","","","","","","","","","","","","","","","","","","","","","",""
"4778","","image-button-response","113","827935","0.0-112.0-0.0","A7WJHRZ37HC66","img_art/12.jpg","2","","","","","","","","","","","","","","","","","","","","","","","","",""
"1251","","image-button-response","114","829187","0.0-113.0-0.0","A7WJHRZ37HC66","img_art/12.jpg","1","","","","","","","","","","","","","","","","","","","","","","","","",""
"null","","html-keyboard-response","115","830693","0.0-114.0","A7WJHRZ37HC66","<p style=""font-size: 48px;"">+</p>","","","","","null","allTrialResponses","1500","1","10","img_art/12.jpg","-19","Intentional art but doesn't do it for me","Alexis,Briana,Megan,Bailey,Brittany,Sydney","I like the cubic feel.,11,100,20","Interesting colors. I really dont like modern art though,24,400,20","Blocky windowed, safe and selfish,-41,200,20","Too many blocks. I can't see a purpose or a focal point,-44,360,20","Too blocky and not interesting enough.,-15,40,20","I don't like the dark black with the bright colors, but this as a whole is nice.,25,320,20","Sydney","I don't like the dark black with the bright colors, but this as a whole is nice.,25,320,20","Megan","Blocky windowed, safe and selfish,-41,200,20","Briana","Interesting colors. I really dont like modern art though,24,400,20","2"
"4255","","survey-text","116","834955","0.0-115.0-0.0","A7WJHRZ37HC66","","","","{""Q0"":""our""}","","","","","","","","","","","","","","","","","","","","","","",""
"32170","","survey-text","117","867126","0.0-116.0-0.0","A7WJHRZ37HC66","","","","{""Q0"":""This is really beautiful.  I can see a lot of different feelings in this""}","","","","","","","","","","","","","","","","","","","","","","",""
"3282.8999999910593","","image-slider-response","118","870410","0.0-117.0","A7WJHRZ37HC66","","","","","45","","","","","","","","","","","","","","","","","","","","","",""
"null","","image-button-response","119","875417","0.0-118.0","A7WJHRZ37HC66","img_art/21.jpg","null","","","","","","","","","","","","","","","","","","","","","","","","",""
"11459","","image-button-response","120","886879","0.0-119.0","A7WJHRZ37HC66","img_art/21.jpg","3","","","","","","","","","","","","","","","","","","","","","","","","",""
"834","","image-button-response","121","887715","0.0-120.0-0.0","A7WJHRZ37HC66","img_art/21.jpg","5","","","","","","","","","","","","","","","","","","","","","","","","",""
"874","","image-button-response","122","888590","0.0-121.0-0.0","A7WJHRZ37HC66","img_art/21.jpg","2","","","","","","","","","","","","","","","","","","","","","","","","",""
"null","","html-keyboard-response","123","890092","0.0-122.0","A7WJHRZ37HC66","<p style=""font-size: 48px;"">+</p>","","","","","null","allTrialResponses","1500","1","11","img_art/21.jpg","45","This is really beautiful.  I can see a lot of different feelings in this","Olivia,Briana,Megan,Haley,Kaylee,Sydney","feels like a wave coming into light,9,40,20","Unfinished. Confusing to look at,-12,400,20","Nice asymmetry with maritime colors city meets the sea,34,200,20","Again, I love the use of color,50,220,20","looks like a sea during some war,27,200,20","I love everything about this piece.,50,320,20","Haley","Again, I love the use of color,50,220,20","Sydney","I love everything about this piece.,50,320,20","Megan","Nice asymmetry with maritime colors city meets the sea,34,200,20","2"
"20331","","survey-text","124","910430","0.0-123.0-0.0","A7WJHRZ37HC66","","","","{""Q0"":""A little strange, yet it is done nicely""}","","","","","","","","","","","","","","","","","","","","","","",""
"2570.7999999970198","","image-slider-response","125","913002","0.0-124.0","A7WJHRZ37HC66","","","","","10","","","","","","","","","","","","","","","","","","","","","",""
"null","","image-button-response","126","918014","0.0-125.0","A7WJHRZ37HC66","img_art/10.jpg","null","","","","","","","","","","","","","","","","","","","","","","","","",""
"7062","","image-button-response","127","925079","0.0-126.0","A7WJHRZ37HC66","img_art/10.jpg","3","","","","","","","","","","","","","","","","","","","","","","","","",""
"9034","","image-button-response","128","934114","0.0-127.0-0.0","A7WJHRZ37HC66","img_art/10.jpg","0","","","","","","","","","","","","","","","","","","","","","","","","",""
"2562","","image-button-response","129","936678","0.0-128.0-0.0","A7WJHRZ37HC66","img_art/10.jpg","2","","","","","","","","","","","","","","","","","","","","","","","","",""
"null","","html-keyboard-response","130","937690","0.0-129.0","A7WJHRZ37HC66","<p style=""font-size: 48px;"">+</p>","","","","","null","allTrialResponses","1000","1","12","img_art/10.jpg","10","A little strange, yet it is done nicely","Victoria,Diana,Megan,Haley,Courtney,Sydney","absolutely beautiful piece of art,49,400,20","It reminds me of the ocean. Almost like a battlefield, but on the water.,19,380,20","Music visualized with subtle color,17,200,20","Makes me want to know more about it, and potentially the artist.,20,220,20","Thats a horses head,10,280,20","This piece is unusual in a way that makes me uncomfortable.,-5,320,20","Haley","Makes me want to know more about it, and potentially the artist.,20,220,20","Victoria","absolutely beautiful piece of art,49,400,20","Megan","Music visualized with subtle color,17,200,20","2"
"14538","","survey-text","131","952230","0.0-130.0-0.0","A7WJHRZ37HC66","","","","{""Q0"":""Again a little kids art class painting""}","","","","","","","","","","","","","","","","","","","","","","",""
"2715","","image-slider-response","132","954946","0.0-131.0","A7WJHRZ37HC66","","","","","-4","","","","","","","","","","","","","","","","","","","","","",""
"null","","image-button-response","133","959952","0.0-132.0","A7WJHRZ37HC66","img_art/26.jpg","null","","","","","","","","","","","","","","","","","","","","","","","","",""
"3520","","image-button-response","134","963475","0.0-133.0","A7WJHRZ37HC66","img_art/26.jpg","3","","","","","","","","","","","","","","","","","","","","","","","","",""
"2798","","image-button-response","135","966274","0.0-134.0-0.0","A7WJHRZ37HC66","img_art/26.jpg","2","","","","","","","","","","","","","","","","","","","","","","","","",""
"4782","","image-button-response","136","971059","0.0-135.0-0.0","A7WJHRZ37HC66","img_art/26.jpg","0","","","","","","","","","","","","","","","","","","","","","","","","",""
"null","","html-keyboard-response","137","972563","0.0-136.0","A7WJHRZ37HC66","<p style=""font-size: 48px;"">+</p>","","","","","null","allTrialResponses","1500","1","13","img_art/26.jpg","-4","Again a little kids art class painting","Victoria,Kaitlin,Megan,Haley,Shelby,Leah","feels a tad old,30,400,20","i can feel the warmth,12,60,20","Washed out suburban scene with childish tones.,-24,200,20","It feels almost unfinished, but I like the color palette,9,220,20","Very pleasent little scene,40,240,20","Really like it, a very nice neighborhood scene to me,42,360,20","Haley","It feels almost unfinished, but I like the color palette,9,220,20","Megan","Washed out suburban scene with childish tones.,-24,200,20","Victoria","feels a tad old,30,400,20","2"
"24557","","survey-text","138","997127","0.0-137.0-0.0","A7WJHRZ37HC66","","","","{""Q0"":""This piece is insightful.  There is a lot to interpret""}","","","","","","","","","","","","","","","","","","","","","","",""
"2654.7999999970198","","image-slider-response","139","999783","0.0-138.0","A7WJHRZ37HC66","","","","","46","","","","","","","","","","","","","","","","","","","","","",""
"null","","image-button-response","140","1004793","0.0-139.0","A7WJHRZ37HC66","img_art/17.jpg","null","","","","","","","","","","","","","","","","","","","","","","","","",""
"8957","","image-button-response","141","1013751","0.0-140.0","A7WJHRZ37HC66","img_art/17.jpg","3","","","","","","","","","","","","","","","","","","","","","","","","",""
"1290","","image-button-response","142","1015043","0.0-141.0-0.0","A7WJHRZ37HC66","img_art/17.jpg","4","","","","","","","","","","","","","","","","","","","","","","","","",""
"1214","","image-button-response","143","1016259","0.0-142.0-0.0","A7WJHRZ37HC66","img_art/17.jpg","1","","","","","","","","","","","","","","","","","","","","","","","","",""
"null","","html-keyboard-response","144","1016761","0.0-143.0","A7WJHRZ37HC66","<p style=""font-size: 48px;"">+</p>","","","","","null","allTrialResponses","500","1","14","img_art/17.jpg","46","This piece is insightful.  There is a lot to interpret","Victoria,Kristen,Megan,Haley,Gabrielle,Hailey","love the wispyness of it,34,400,20","calm, tranquil, happy,50,280,20","2 paintings in 1 with shared colors,5,200,20","Colors and composition are beautiful. I would hang this in my home.,50,220,20","nice composition and colors, fairy land,28,160,20","soft and warm light colors are relaxing,12,200,20","Haley","Colors and composition are beautiful. I would hang this in my home.,50,220,20","Gabrielle","nice composition and colors, fairy land,28,160,20","Kristen","calm, tranquil, happy,50,280,20","2"
"15402","","survey-text","145","1032171","0.0-144.0-0.0","A7WJHRZ37HC66","","","","{""Q0"":""I can see this as Halloween Decor""}","","","","","","","","","","","","","","","","","","","","","","",""
"3042.199999988079","","image-slider-response","146","1035215","0.0-145.0","A7WJHRZ37HC66","","","","","31","","","","","","","","","","","","","","","","","","","","","",""
"null","","image-button-response","147","1040243","0.0-146.0","A7WJHRZ37HC66","img_art/25.jpg","null","","","","","","","","","","","","","","","","","","","","","","","","",""
"5619","","image-button-response","148","1045863","0.0-147.0","A7WJHRZ37HC66","img_art/25.jpg","1","","","","","","","","","","","","","","","","","","","","","","","","",""
"1550","","image-button-response","149","1047416","0.0-148.0-0.0","A7WJHRZ37HC66","img_art/25.jpg","0","","","","","","","","","","","","","","","","","","","","","","","","",""
"2142","","image-button-response","150","1049559","0.0-149.0-0.0","A7WJHRZ37HC66","img_art/25.jpg","4","","","","","","","","","","","","","","","","","","","","","","","","",""
"null","","html-keyboard-response","151","1050061","0.0-150.0","A7WJHRZ37HC66","<p style=""font-size: 48px;"">+</p>","","","","","null","allTrialResponses","500","1","15","img_art/25.jpg","31","I can see this as Halloween Decor","Alicia,Kristen,Autumn,Haley,Gabrielle,Jamie","death. childish nightmare.,-29,120,20","reminds me of the grim reaper,3,280,20","This is too simple,-22,340,20","I like the design but the brightness of the color feels almost blinding to me.,-3,220,20","interesting pattern and color choice, kind of unusual,2,160,20","Cool color scheme and appears to be a statue of some type of revered god,40,320,20","Kristen","reminds me of the grim reaper,3,280,20","Alicia","death. childish nightmare.,-29,120,20","Gabrielle","interesting pattern and color choice, kind of unusual,2,160,20","2"
"4419","","survey-text","152","1054487","0.0-151.0-0.0","A7WJHRZ37HC66","","","","{""Q0"":""course""}","","","","","","","","","","","","","","","","","","","","","","",""
"13419","","survey-text","153","1067907","0.0-152.0-0.0","A7WJHRZ37HC66","","","","{""Q0"":""WOW!  Looks at the colors""}","","","","","","","","","","","","","","","","","","","","","","",""
"2098.699999988079","","image-slider-response","154","1070007","0.0-153.0","A7WJHRZ37HC66","","","","","33","","","","","","","","","","","","","","","","","","","","","",""
"null","","image-button-response","155","1075019","0.0-154.0","A7WJHRZ37HC66","img_art/23.jpg","null","","","","","","","","","","","","","","","","","","","","","","","","",""
"13076","","image-button-response","156","1088095","0.0-155.0","A7WJHRZ37HC66","img_art/23.jpg","5","","","","","","","","","","","","","","","","","","","","","","","","",""
"2658","","image-button-response","157","1090755","0.0-156.0-0.0","A7WJHRZ37HC66","img_art/23.jpg","3","","","","","","","","","","","","","","","","","","","","","","","","",""
"1043","","image-button-response","158","1091799","0.0-157.0-0.0","A7WJHRZ37HC66","img_art/23.jpg","1","","","","","","","","","","","","","","","","","","","","","","","","",""
"null","","html-keyboard-response","159","1093315","0.0-158.0","A7WJHRZ37HC66","<p style=""font-size: 48px;"">+</p>","","","","","null","allTrialResponses","1500","1","16","img_art/23.jpg","33","WOW!  Looks at the colors","Alicia,Kristen,Laura,Rebecca,Gabrielle,Margaret","No reactions, childish.,-19,120,20","fsiries, happy, spiritual,16,280,20","teeth! dancing people, celebrations,-39,320,20","love the contrast (was this painted by a left-handed artist?),7,100,20","it's OK, but just OK, kind of interesting but I wouldn't spend money on it,4,160,20","white reminds me of screamo music band tshirts when they have their name in the unreadable lettering,-9,100,20","Margaret","white reminds me of screamo music band tshirts when they have their name in the unreadable lettering,-9,100,20","Rebecca","love the contrast (was this painted by a left-handed artist?),7,100,20","Kristen","fsiries, happy, spiritual,16,280,20","2"
"35043","","survey-text","160","1128367","0.0-159.0-0.0","A7WJHRZ37HC66","","","","{""Q0"":""I can see where this may have been good but it looks like too many layers were added""}","","","","","","","","","","","","","","","","","","","","","","",""
"2222.6000000089407","","image-slider-response","161","1130591","0.0-160.0","A7WJHRZ37HC66","","","","","-14","","","","","","","","","","","","","","","","","","","","","",""
"null","","image-button-response","162","1135598","0.0-161.0","A7WJHRZ37HC66","img_art/19.jpg","null","","","","","","","","","","","","","","","","","","","","","","","","",""
"2938","","image-button-response","163","1138539","0.0-162.0","A7WJHRZ37HC66","img_art/19.jpg","1","","","","","","","","","","","","","","","","","","","","","","","","",""
"734","","image-button-response","164","1139275","0.0-163.0-0.0","A7WJHRZ37HC66","img_art/19.jpg","5","","","","","","","","","","","","","","","","","","","","","","","","",""
"3294","","image-button-response","165","1142571","0.0-164.0-0.0","A7WJHRZ37HC66","img_art/19.jpg","4","","","","","","","","","","","","","","","","","","","","","","","","",""
"null","","html-keyboard-response","166","1143074","0.0-165.0","A7WJHRZ37HC66","<p style=""font-size: 48px;"">+</p>","","","","","null","allTrialResponses","500","1","17","img_art/19.jpg","-14","I can see where this may have been good but it looks like too many layers were added","Stephanie,Kristen,Amber,Rebecca,Monica,Margaret","A dreary town in the fall.,-4,300,20","city, stress of urbanism, slightly panicked,2,280,20","Reminds me of a busy village.,16,200,20","interesting take on depth (reminds me of those 1000 piece puzzles),2,100,20","The shapes make me recall a city scene but it looks dirty,-22,360,20","i think it is ugly and hate the colors,-35,100,20","Kristen","city, stress of urbanism, slightly panicked,2,280,20","Margaret","i think it is ugly and hate the colors,-35,100,20","Monica","The shapes make me recall a city scene but it looks dirty,-22,360,20","2"
"16626","","survey-text","167","1159703","0.0-166.0-0.0","A7WJHRZ37HC66","","","","{""Q0"":""Crime Scene""}","","","","","","","","","","","","","","","","","","","","","","",""
"2222.6000000089407","","image-slider-response","168","1161927","0.0-167.0","A7WJHRZ37HC66","","","","","15","","","","","","","","","","","","","","","","","","","","","",""
"null","","image-button-response","169","1166929","0.0-168.0","A7WJHRZ37HC66","img_art/29.jpg","null","","","","","","","","","","","","","","","","","","","","","","","","",""
"519","","image-button-response","170","1167451","0.0-169.0","A7WJHRZ37HC66","img_art/29.jpg","1","","","","","","","","","","","","","","","","","","","","","","","","",""
"10038","","image-button-response","171","1177491","0.0-170.0-0.0","A7WJHRZ37HC66","img_art/29.jpg","0","","","","","","","","","","","","","","","","","","","","","","","","",""
"766","","image-button-response","172","1178259","0.0-171.0-0.0","A7WJHRZ37HC66","img_art/29.jpg","2","","","","","","","","","","","","","","","","","","","","","","","","",""
"null","","html-keyboard-response","173","1179762","0.0-172.0","A7WJHRZ37HC66","<p style=""font-size: 48px;"">+</p>","","","","","null","allTrialResponses","1500","1","18","img_art/29.jpg","15","Crime Scene","Katie,Kristen,Isabella,Julia,Monica,Margaret","Don't get it! Too dark and random. Perhaps it was the start of something but the artist stopped and cancelled out the work.,-50,160,20","danger, crime scene,,10,280,20","Darkness and torment,-50,280,20","it looks like a top-down battle arena,26,40,20","There's too much black and it looks sloppy,-35,360,20","this does nothing for me. hate the colors. hate the design,-50,100,20","Kristen","danger, crime scene,,10,280,20","Katie","Don't get it! Too dark and random. Perhaps it was the start of something but the artist stopped and cancelled out the work.,-50,160,20","Isabella","Darkness and torment,-50,280,20","2"
"14868","","survey-text","174","1194635","0.0-173.0-0.0","A7WJHRZ37HC66","","","","{""Q0"":""No reaction""}","","","","","","","","","","","","","","","","","","","","","","",""
"4042.4000000059605","","image-slider-response","175","1198679","0.0-174.0","A7WJHRZ37HC66","","","","","2","","","","","","","","","","","","","","","","","","","","","",""
"null","","image-button-response","176","1203694","0.0-175.0","A7WJHRZ37HC66","img_art/28.jpg","null","","","","","","","","","","","","","","","","","","","","","","","","",""
"13099","","image-button-response","177","1216795","0.0-176.0","A7WJHRZ37HC66","img_art/28.jpg","3","","","","","","","","","","","","","","","","","","","","","","","","",""
"863","","image-button-response","178","1217659","0.0-177.0-0.0","A7WJHRZ37HC66","img_art/28.jpg","4","","","","","","","","","","","","","","","","","","","","","","","","",""
"430","","image-button-response","179","1218091","0.0-178.0-0.0","A7WJHRZ37HC66","img_art/28.jpg","5","","","","","","","","","","","","","","","","","","","","","","","","",""
"null","","html-keyboard-response","180","1219105","0.0-179.0","A7WJHRZ37HC66","<p style=""font-size: 48px;"">+</p>","","","","","null","allTrialResponses","1000","1","19","img_art/28.jpg","2","No reaction","Katie,Kristen,Isabella,Jenna,Meghan,Kathryn","Like the muted pink colors. However, the mood is sad because of the blurriness,22,160,20","almost reminds me of thomas becket getting his head cut off,21,280,20","This is also something I would see in a serious but safe environment,14,280,20","looks like humanoid figures in distress. I like it, but makes me slightly uncomfortable,35,360,20","I don't like the color choice,-30,220,20","My immediate reaction was to think of smog. It recalls choking on dirty air.,-20,140,20","Jenna","looks like humanoid figures in distress. I like it, but makes me slightly uncomfortable,35,360,20","Meghan","I don't like the color choice,-30,220,20","Kathryn","My immediate reaction was to think of smog. It recalls choking on dirty air.,-20,140,20","2"
"47208","","survey-text","181","1266319","0.0-180.0-0.0","A7WJHRZ37HC66","","","","{""Q0"":""I don't understand what this artist is trying to do.  Don't like the black choice but the blue in it kinda pops""}","","","","","","","","","","","","","","","","","","","","","","",""
"3590.7000000029802","","image-slider-response","182","1269911","0.0-181.0","A7WJHRZ37HC66","","","","","10","","","","","","","","","","","","","","","","","","","","","",""
"null","","image-button-response","183","1274920","0.0-182.0","A7WJHRZ37HC66","img_art/15.jpg","null","","","","","","","","","","","","","","","","","","","","","","","","",""
"6732","","image-button-response","184","1281655","0.0-183.0","A7WJHRZ37HC66","img_art/15.jpg","2","","","","","","","","","","","","","","","","","","","","","","","","",""
"1082","","image-button-response","185","1282739","0.0-184.0-0.0","A7WJHRZ37HC66","img_art/15.jpg","3","","","","","","","","","","","","","","","","","","","","","","","","",""
"1231","","image-button-response","186","1283971","0.0-185.0-0.0","A7WJHRZ37HC66","img_art/15.jpg","1","","","","","","","","","","","","","","","","","","","","","","","","",""
"null","","html-keyboard-response","187","1284974","0.0-186.0","A7WJHRZ37HC66","<p style=""font-size: 48px;"">+</p>","","","","","null","allTrialResponses","1000","1","20","img_art/15.jpg","10","I don't understand what this artist is trying to do.  Don't like the black choice but the blue in it kinda pops","Sabrina,Kaitlyn,Mikayla,Jenna,Meghan,Kathryn","Extreme darkness and sadness,-30,120,20","Simplicity of colors is nice,11,80,20","The dots are cool with the blue accents.,24,300,20","interesting technique. the blue is very pretty,18,360,20","I like the pattern of it,11,220,20","This is looking at a forest from above. I can see water and some pathways throughout. Nature.,20,140,20","Mikayla","The dots are cool with the blue accents.,24,300,20","Jenna","interesting technique. the blue is very pretty,18,360,20","Kaitlyn","Simplicity of colors is nice,11,80,20","2"
"3572","","survey-text","188","1288555","0.0-187.0-0.0","A7WJHRZ37HC66","","","","{""Q0"":""we""}","","","","","","","","","","","","","","","","","","","","","","",""
"18303","","survey-text","189","1306859","0.0-188.0-0.0","A7WJHRZ37HC66","","","","{""Q0"":""I like this take on a city/culture""}","","","","","","","","","","","","","","","","","","","","","","",""
"3282.5","","image-slider-response","190","1310143","0.0-189.0","A7WJHRZ37HC66","","","","","39","","","","","","","","","","","","","","","","","","","","","",""
"null","","image-button-response","191","1315151","0.0-190.0","A7WJHRZ37HC66","img_art/8.jpg","null","","","","","","","","","","","","","","","","","","","","","","","","",""
"1338","","image-button-response","192","1316491","0.0-191.0","A7WJHRZ37HC66","img_art/8.jpg","1","","","","","","","","","","","","","","","","","","","","","","","","",""
"4455","","image-button-response","193","1320947","0.0-192.0-0.0","A7WJHRZ37HC66","img_art/8.jpg","5","","","","","","","","","","","","","","","","","","","","","","","","",""
"1146","","image-button-response","194","1322095","0.0-193.0-0.0","A7WJHRZ37HC66","img_art/8.jpg","0","","","","","","","","","","","","","","","","","","","","","","","","",""
"null","","html-keyboard-response","195","1323107","0.0-194.0","A7WJHRZ37HC66","<p style=""font-size: 48px;"">+</p>","","","","","null","allTrialResponses","1000","1","21","img_art/8.jpg","39","I like this take on a city/culture","Natalie,Kaitlyn,Mikayla,Jenna,Grace,Kylie","looks nice, like the details,25,400,20","There are a lot of different interesting elements in the picture.,12,80,20","Its kinda like an optical illusion.,22,300,20","beautiful colors & details. love the surrealism & strange angle. the faces are interesting.,50,360,20","Like the colors & the imagery - old city, native peoples maybe.,20,180,20","Very abstract and seems symbolic,45,300,20","Kaitlyn","There are a lot of different interesting elements in the picture.,12,80,20","Kylie","Very abstract and seems symbolic,45,300,20","Natalie","looks nice, like the details,25,400,20","2"
"122058","","survey-text","196","1445171","0.0-195.0-0.0","A7WJHRZ37HC66","","","","{""Q0"":""I don't like color choice but it works.  The piece is beautiful""}","","","","","","","","","","","","","","","","","","","","","","",""
"1774.2999999970198","","image-slider-response","197","1446947","0.0-196.0","A7WJHRZ37HC66","","","","","28","","","","","","","","","","","","","","","","","","","","","",""
"null","","image-button-response","198","1451949","0.0-197.0","A7WJHRZ37HC66","img_art/11.jpg","null","","","","","","","","","","","","","","","","","","","","","","","","",""
"4136","","image-button-response","199","1456087","0.0-198.0","A7WJHRZ37HC66","img_art/11.jpg","4","","","","","","","","","","","","","","","","","","","","","","","","",""
"1691","","image-button-response","200","1457779","0.0-199.0-0.0","A7WJHRZ37HC66","img_art/11.jpg","5","","","","","","","","","","","","","","","","","","","","","","","","",""
"467","","image-button-response","201","1458247","0.0-200.0-0.0","A7WJHRZ37HC66","img_art/11.jpg","3","","","","","","","","","","","","","","","","","","","","","","","","",""
"null","","html-keyboard-response","202","1459256","0.0-201.0","A7WJHRZ37HC66","<p style=""font-size: 48px;"">+</p>","","","","","null","allTrialResponses","1000","1","22","img_art/11.jpg","28","I don't like color choice but it works.  The piece is beautiful","Natalie,Kaitlyn,Cheyenne,Heather,Alexandra,Kylie","pic looks alright,8,400,20","Interesting use of color,9,80,20","Very good use of colors,44,200,20","looks like highways and homes and lives intertwining.,27,260,20","I normally would not like this photo, but the design is nice.,21,60,20","This looks like a busy highway system along a suburban background,40,300,20","Alexandra","I normally would not like this photo, but the design is nice.,21,60,20","Kylie","This looks like a busy highway system along a suburban background,40,300,20","Heather","looks like highways and homes and lives intertwining.,27,260,20","2"
"9811","","survey-text","203","1469075","0.0-202.0-0.0","A7WJHRZ37HC66","","","","{""Q0"":""Kids art class""}","","","","","","","","","","","","","","","","","","","","","","",""
"3210.7999999970198","","image-slider-response","204","1472287","0.0-203.0","A7WJHRZ37HC66","","","","","18","","","","","","","","","","","","","","","","","","","","","",""
"null","","image-button-response","205","1477296","0.0-204.0","A7WJHRZ37HC66","img_art/1.jpg","null","","","","","","","","","","","","","","","","","","","","","","","","",""
"3897","","image-button-response","206","1481195","0.0-205.0","A7WJHRZ37HC66","img_art/1.jpg","1","","","","","","","","","","","","","","","","","","","","","","","","",""
"399","","image-button-response","207","1481595","0.0-206.0-0.0","A7WJHRZ37HC66","img_art/1.jpg","0","","","","","","","","","","","","","","","","","","","","","","","","",""
"1971","","image-button-response","208","1483567","0.0-207.0-0.0","A7WJHRZ37HC66","img_art/1.jpg","5","","","","","","","","","","","","","","","","","","","","","","","","",""
"null","","html-keyboard-response","209","1484577","0.0-208.0","A7WJHRZ37HC66","<p style=""font-size: 48px;"">+</p>","","","","","null","allTrialResponses","1000","1","23","img_art/1.jpg","18","Kids art class","Nicole,Gabriela,Mariah,Heather,Alexandra,Kylie","I love the colors but it's too intense sometimes,22,20,20","This photo reminds me of a fall afternoon, serene,11,140,20","Colors are pleasant, but feels incredibly generic.,9,140,20","the colors are vibrant and beautiful,1,260,20","I love the warm colors of the art,32,60,20","I don't know how I feel about this,1,300,20","Gabriela","This photo reminds me of a fall afternoon, serene,11,140,20","Nicole","I love the colors but it's too intense sometimes,22,20,20","Kylie","I don't know how I feel about this,1,300,20","2"
"13612","","survey-text","210","1498195","0.0-209.0-0.0","A7WJHRZ37HC66","","","","{""Q0"":""Love the color choice.  Love the splatters""}","","","","","","","","","","","","","","","","","","","","","","",""
"2034.699999988079","","image-slider-response","211","1500231","0.0-210.0","A7WJHRZ37HC66","","","","","36","","","","","","","","","","","","","","","","","","","","","",""
"null","","image-button-response","212","1505244","0.0-211.0","A7WJHRZ37HC66","img_art/13.jpg","null","","","","","","","","","","","","","","","","","","","","","","","","",""
"8870","","image-button-response","213","1514115","0.0-212.0","A7WJHRZ37HC66","img_art/13.jpg","2","","","","","","","","","","","","","","","","","","","","","","","","",""
"4275","","image-button-response","214","1518391","0.0-213.0-0.0","A7WJHRZ37HC66","img_art/13.jpg","0","","","","","","","","","","","","","","","","","","","","","","","","",""
"1455","","image-button-response","215","1519847","0.0-214.0-0.0","A7WJHRZ37HC66","img_art/13.jpg","5","","","","","","","","","","","","","","","","","","","","","","","","",""
"null","","html-keyboard-response","216","1520870","0.0-215.0","A7WJHRZ37HC66","<p style=""font-size: 48px;"">+</p>","","","","","null","allTrialResponses","1000","1","24","img_art/13.jpg","36","Love the color choice.  Love the splatters","Nicole,Gabriela,Sierra,Madison,Danielle,Kylie","It's pretty basic but it makes me feel like I'm looking at the ocean,30,20,20","It looks too common, is a bit boring,-41,140,20","the blues are soothing but the splatters are too much,-3,260,20","Pollock? Love the juxtaposition of colors. Soothing and stirring, a beautiful inexplicable paradox.,50,60,20","While it is a bit basic and doesn't speak to me much, I like the feeling it gives,40,340,20","Very abstract and soothing,40,300,20","Sierra","the blues are soothing but the splatters are too much,-3,260,20","Nicole","It's pretty basic but it makes me feel like I'm looking at the ocean,30,20,20","Kylie","Very abstract and soothing,40,300,20","2"
"12641","","survey-text","217","1533519","0.0-216.0-0.0","A7WJHRZ37HC66","","","","{""Q0"":""Bird on a pumpkin?""}","","","","","","","","","","","","","","","","","","","","","","",""
"2762.7999999970198","","image-slider-response","218","1536283","0.0-217.0","A7WJHRZ37HC66","","","","","-35","","","","","","","","","","","","","","","","","","","","","",""
"null","","image-button-response","219","1541290","0.0-218.0","A7WJHRZ37HC66","img_art/6.jpg","null","","","","","","","","","","","","","","","","","","","","","","","","",""
"5720","","image-button-response","220","1547012","0.0-219.0","A7WJHRZ37HC66","img_art/6.jpg","3","","","","","","","","","","","","","","","","","","","","","","","","",""
"942","","image-button-response","221","1547956","0.0-220.0-0.0","A7WJHRZ37HC66","img_art/6.jpg","4","","","","","","","","","","","","","","","","","","","","","","","","",""
"1142","","image-button-response","222","1549100","0.0-221.0-0.0","A7WJHRZ37HC66","img_art/6.jpg","5","","","","","","","","","","","","","","","","","","","","","","","","",""
"null","","html-keyboard-response","223","1550606","0.0-222.0","A7WJHRZ37HC66","<p style=""font-size: 48px;"">+</p>","","","","","null","allTrialResponses","1500","1","25","img_art/6.jpg","-35","Bird on a pumpkin?","Nicole,Erica,Sierra,Emily,Katelyn,Kylie","The colors and rough brush strokes make me nervous,-10,20,20","positive because of bright colours and a bird,20,80,20","simplistic. i love orange and green and i love the subject,50,260,20","Looks like a kid created it.,-50,40,20","Nothing grabs at me here,-11,100,20","Reminds me of feeling incomplete,1,300,20","Emily","Looks like a kid created it.,-50,40,20","Katelyn","Nothing grabs at me here,-11,100,20","Kylie","Reminds me of feeling incomplete,1,300,20","2"
"7455","","survey-text","224","1558068","0.0-223.0-0.0","A7WJHRZ37HC66","","","","{""Q0"":""table""}","","","","","","","","","","","","","","","","","","","","","","",""
"12070","","survey-text","225","1570140","0.0-224.0-0.0","A7WJHRZ37HC66","","","","{""Q0"":""Weird but pretty""}","","","","","","","","","","","","","","","","","","","","","","",""
"2082.5999999940395","","image-slider-response","226","1572224","0.0-225.0","A7WJHRZ37HC66","","","","","17","","","","","","","","","","","","","","","","","","","","","",""
"null","","image-button-response","227","1577242","0.0-226.0","A7WJHRZ37HC66","img_art/14.jpg","null","","","","","","","","","","","","","","","","","","","","","","","","",""
"9427","","image-button-response","228","1586672","0.0-227.0","A7WJHRZ37HC66","img_art/14.jpg","1","","","","","","","","","","","","","","","","","","","","","","","","",""
"966","","image-button-response","229","1587640","0.0-228.0-0.0","A7WJHRZ37HC66","img_art/14.jpg","5","","","","","","","","","","","","","","","","","","","","","","","","",""
"1226","","image-button-response","230","1588868","0.0-229.0-0.0","A7WJHRZ37HC66","img_art/14.jpg","3","","","","","","","","","","","","","","","","","","","","","","","","",""
"null","","html-keyboard-response","231","1589378","0.0-230.0","A7WJHRZ37HC66","<p style=""font-size: 48px;"">+</p>","","","","","null","allTrialResponses","500","1","26","img_art/14.jpg","17","Weird but pretty","Brooke,Erin,Molly,Emily,Katelyn,Kylie","cotton candy skies. pretty.,35,60,20","Looks childish and basic,-42,120,20","In my opinion it's spectacular.,35,340,20","Looks like there is some skill but also at the same time parts look unskilled.,-16,40,20","Its cute. Not striking but i would keep it in my home.,10,100,20","Confusion or an explosion,40,300,20","Erin","Looks childish and basic,-42,120,20","Kylie","Confusion or an explosion,40,300,20","Emily","Looks like there is some skill but also at the same time parts look unskilled.,-16,40,20","2"
"12264","","survey-text","232","1601655","0.0-231.0-0.0","A7WJHRZ37HC66","","","","{""Q0"":""Love the textured look""}","","","","","","","","","","","","","","","","","","","","","","",""
"2426.5999999940395","","image-slider-response","233","1604083","0.0-232.0","A7WJHRZ37HC66","","","","","30","","","","","","","","","","","","","","","","","","","","","",""
"null","","image-button-response","234","1609086","0.0-233.0","A7WJHRZ37HC66","img_art/7.jpg","null","","","","","","","","","","","","","","","","","","","","","","","","",""
"99","","image-button-response","235","1609187","0.0-234.0","A7WJHRZ37HC66","img_art/7.jpg","0","","","","","","","","","","","","","","","","","","","","","","","","",""
"4355","","image-button-response","236","1613543","0.0-235.0-0.0","A7WJHRZ37HC66","img_art/7.jpg","4","","","","","","","","","","","","","","","","","","","","","","","","",""
"1279","","image-button-response","237","1614823","0.0-236.0-0.0","A7WJHRZ37HC66","img_art/7.jpg","5","","","","","","","","","","","","","","","","","","","","","","","","",""
"null","","html-keyboard-response","238","1615334","0.0-237.0","A7WJHRZ37HC66","<p style=""font-size: 48px;"">+</p>","","","","","null","allTrialResponses","500","1","27","img_art/7.jpg","30","Love the textured look","Makayla,Erin,Andrea,Emily,Destiny,Kylie","It's just like sand from the beach,2,80,20","Color is bland and looks damaged,-37,120,20","Reminds me of mold. Repulsive.,-10,240,20","Ugly. I don't like the colors or the scattering.,-50,40,20","mars also crunchy leaves maybe a beehive,32,360,20","No particular reaction to this,10,300,20","Makayla","It's just like sand from the beach,2,80,20","Destiny","mars also crunchy leaves maybe a beehive,32,360,20","Kylie","No particular reaction to this,10,300,20","2"
"32190","","survey-text","239","1647535","0.0-238.0-0.0","A7WJHRZ37HC66","","","","{""Q0"":""Looks like a child drawing McDonald's french fries""}","","","","","","","","","","","","","","","","","","","","","","",""
"4582.5","","image-slider-response","240","1652119","0.0-239.0","A7WJHRZ37HC66","","","","","-46","","","","","","","","","","","","","","","","","","","","","",""
"null","","image-button-response","241","1657133","0.0-240.0","A7WJHRZ37HC66","img_art/4.jpg","null","","","","","","","","","","","","","","","","","","","","","","","","",""
"5032","","image-button-response","242","1662168","0.0-241.0","A7WJHRZ37HC66","img_art/4.jpg","4","","","","","","","","","","","","","","","","","","","","","","","","",""
"1254","","image-button-response","243","1663424","0.0-242.0-0.0","A7WJHRZ37HC66","img_art/4.jpg","5","","","","","","","","","","","","","","","","","","","","","","","","",""
"5810","","image-button-response","244","1669236","0.0-243.0-0.0","A7WJHRZ37HC66","img_art/4.jpg","0","","","","","","","","","","","","","","","","","","","","","","","","",""
"null","","html-keyboard-response","245","1669751","0.0-244.0","A7WJHRZ37HC66","<p style=""font-size: 48px;"">+</p>","","","","","null","allTrialResponses","500","1","28","img_art/4.jpg","-46","Looks like a child drawing McDonald's french fries","Makayla,Savannah,Paige,Jacqueline,Destiny,Kylie","Looks like poop on walks,-27,80,20","Colors are horrendous, look like bodily fluids have been smeared.,-50,200,20","the colors are calming,31,60,20","It looks like smeared poop.,-27,300,20","it looks like a preschooler just dragged his fingers around,-36,360,20","I just have no clue,26,300,20","Destiny","it looks like a preschooler just dragged his fingers around,-36,360,20","Kylie","I just have no clue,26,300,20","Makayla","Looks like poop on walks,-27,80,20","2"
"30402","","survey-text","246","1700164","0.0-245.0-0.0","A7WJHRZ37HC66","","","","{""Q0"":""Skilled artist.  I feel like I see a battle in the skies""}","","","","","","","","","","","","","","","","","","","","","","",""
"2818.7000000029802","","image-slider-response","247","1702984","0.0-246.0","A7WJHRZ37HC66","","","","","35","","","","","","","","","","","","","","","","","","","","","",""
"null","","image-button-response","248","1707989","0.0-247.0","A7WJHRZ37HC66","img_art/18.jpg","null","","","","","","","","","","","","","","","","","","","","","","","","",""
"532","","image-button-response","249","1708524","0.0-248.0","A7WJHRZ37HC66","img_art/18.jpg","1","","","","","","","","","","","","","","","","","","","","","","","","",""
"5731","","image-button-response","250","1714256","0.0-249.0-0.0","A7WJHRZ37HC66","img_art/18.jpg","2","","","","","","","","","","","","","","","","","","","","","","","","",""
"31479","","image-button-response","251","1745737","0.0-250.0-0.0","A7WJHRZ37HC66","img_art/18.jpg","4","","","","","","","","","","","","","","","","","","","","","","","","",""
"null","","html-keyboard-response","252","1747243","0.0-251.0","A7WJHRZ37HC66","<p style=""font-size: 48px;"">+</p>","","","","","null","allTrialResponses","1500","1","29","img_art/18.jpg","35","Skilled artist.  I feel like I see a battle in the skies","Makayla,Claire,Taylor,Jennifer,Destiny,Kylie","I'm not partial to the design, unsettling,2,80,20","reminds me of greek mythology,22,260,20","Another ominous painting,-10,340,20","I have no strong feelings about this image,1,380,20","Can't tell if I love it or hate it. That response warranted more than neutral so I gave it 20 but not sure,21,360,20","Kind of weird in a confusing way,10,300,20","Claire","reminds me of greek mythology,22,260,20","Taylor","Another ominous painting,-10,340,20","Destiny","Can't tell if I love it or hate it. That response warranted more than neutral so I gave it 20 but not sure,21,360,20","2"
"94871","","survey-text","253","1842120","0.0-252.0-0.0","A7WJHRZ37HC66","","","","{""Q0"":""Toddler got a hold of a marker on a wall""}","","","","","","","","","","","","","","","","","","","","","","",""
"2826.5999999940395","","image-slider-response","254","1844948","0.0-253.0","A7WJHRZ37HC66","","","","","-45","","","","","","","","","","","","","","","","","","","","","",""
"4606","","image-button-response","255","1849955","0.0-254.0","A7WJHRZ37HC66","img_art/3.jpg","1","","","","","","","","","","","","","","","","","","","","","","","","",""
"8338","","image-button-response","256","1858296","0.0-255.0","A7WJHRZ37HC66","img_art/3.jpg","2","","","","","","","","","","","","","","","","","","","","","","","","",""
"706","","image-button-response","257","1859004","0.0-256.0-0.0","A7WJHRZ37HC66","img_art/3.jpg","0","","","","","","","","","","","","","","","","","","","","","","","","",""
"1902","","image-button-response","258","1860908","0.0-257.0-0.0","A7WJHRZ37HC66","img_art/3.jpg","1","","","","","","","","","","","","","","","","","","","","","","","","",""
"null","","html-keyboard-response","259","1862426","0.0-258.0","A7WJHRZ37HC66","<p style=""font-size: 48px;"">+</p>","","","","","null","allTrialResponses","1500","1","30","img_art/3.jpg","-45","Toddler got a hold of a marker on a wall","Samantha,Claire,Taylor,Ashley,Destiny,Caroline","Too angry and scribbly,-43,140,20","looks like a kid scribbled with crayon,-35,260,20","It doesn't make me think of art,-20,340,20","Reminds of John Lenonn's art a bit.,27,320,20","im just getting more agitated and less appreciative of art. I have absolutely no scale to base on,-34,360,20","The red makes me think of blood which makes me think of pain,-50,100,20","Taylor","It doesn't make me think of art,-20,340,20","Samantha","Too angry and scribbly,-43,140,20","Claire","looks like a kid scribbled with crayon,-35,260,20","2"
"4142","","image-button-response_instructions","260","1866576","0.0-259.0","A7WJHRZ37HC66","","0","instructions","","","","","","","","","","","","","","","","","","","","","","","",""
"1155","","image-button-response","261","1867736","0.0-260.0","A7WJHRZ37HC66","","0","","","","","","","","","","","","","","","","","","","","","","","","",""
