"rt","url","trial_type","trial_index","time_elapsed","internal_node_id","participant_id","stimulus","button_pressed","Name","responses","response","key_press","variableName","fixationTime","condition","trial","photo","subjectRating","subjectResponse","agentsNames","agent_1_Response","agent_2_Response","agent_3_Response","agent_4_Response","agent_5_Response","agent_6_Response","kept_1_name","kept_1_response","kept_2_name","kept_2_response","kept_3_name","kept_3_response","errorCounter"
"8689","external_page_harvard.html","external-html","0","8806","0.0-0.0","A85NRZR9RYCUS","","","","","","","","","","","","","","","","","","","","","","","","","","",""
"1332","","image-button-response","1","10142","0.0-1.0","A85NRZR9RYCUS","","0","","","","","","","","","","","","","","","","","","","","","","","","",""
"1846","","image-button-response","2","12007","0.0-2.0-0.0","A85NRZR9RYCUS","","1","phone","","","","","","","","","","","","","","","","","","","","","","","",""
"6185","","survey-text","3","18195","0.0-3.0-0.0","A85NRZR9RYCUS","","","","{""Q0"":""A85NRZR9RYCUS""}","","","","","","","","","","","","","","","","","","","","","","",""
"29852","","image-button-response_instructions","4","48049","0.0-4.0","A85NRZR9RYCUS","","0","instructions","","","","","","","","","","","","","","","","","","","","","","","",""
"7934","","image-button-response_instructions","5","55987","0.0-5.0","A85NRZR9RYCUS","img_art/ins/popularity/ins1.png","0","instructions","","","","","","","","","","","","","","","","","","","","","","","",""
"3799","","image-button-response_instructions","6","59793","0.0-6.0","A85NRZR9RYCUS","img_art/ins/popularity/ins2.png","0","instructions","","","","","","","","","","","","","","","","","","","","","","","",""
"4793","","image-button-response_instructions","7","64590","0.0-7.0","A85NRZR9RYCUS","img_art/ins/popularity/ins2Extreme.png","0","instructions","","","","","","","","","","","","","","","","","","","","","","","",""
"9094","","image-button-response_instructions","8","73689","0.0-8.0","A85NRZR9RYCUS","img_art/ins/popularity/ins3KEEPpop.PNG","0","instructions","","","","","","","","","","","","","","","","","","","","","","","",""
"3435","","image-button-response_instructions","9","77130","0.0-9.0","A85NRZR9RYCUS","img_art/ins/popularity/ins3ANamepop.PNG","0","instructions","","","","","","","","","","","","","","","","","","","","","","","",""
"3638","","image-button-response_instructions","10","80774","0.0-10.0","A85NRZR9RYCUS","img_art/ins/popularity/ins3ARatingpop.png","0","instructions","","","","","","","","","","","","","","","","","","","","","","","",""
"3299","","image-button-response_instructions","11","84078","0.0-11.0","A85NRZR9RYCUS","img_art/ins/popularity/ins3ATextpop.png","0","instructions","","","","","","","","","","","","","","","","","","","","","","","",""
"3961","","image-button-response_instructions","12","88046","0.0-12.0","A85NRZR9RYCUS","img_art/ins/popularity/ins3ALikespop.png","0","instructions","","","","","","","","","","","","","","","","","","","","","","","",""
"6963","","image-button-response_instructions","13","95010","0.0-13.0","A85NRZR9RYCUS","img_art/ins/popularity/ins3KEEPpop.PNG","0","instructions","","","","","","","","","","","","","","","","","","","","","","","",""
"5449","","image-button-response_instructions","14","100464","0.0-14.0","A85NRZR9RYCUS","img_art/ins/popularity/ins3_5RED.png","0","instructions","","","","","","","","","","","","","","","","","","","","","","","",""
"3170","","image-button-response_instructions","15","103636","0.0-15.0","A85NRZR9RYCUS","img_art/ins/popularity/ins3KEEPpop.PNG","0","instructions","","","","","","","","","","","","","","","","","","","","","","","",""
"6284","","image-button-response_instructions","16","109926","0.0-16.0","A85NRZR9RYCUS","img_art/ins/popularity/ins4KEEPpop.PNG","0","instructions","","","","","","","","","","","","","","","","","","","","","","","",""
"1975","","image-button-response_instructions","17","111906","0.0-17.0","A85NRZR9RYCUS","img_art/ins/popularity/ins5KEEPpop.PNG","0","instructions","","","","","","","","","","","","","","","","","","","","","","","",""
"1328","","image-button-response_instructions","18","113236","0.0-18.0","A85NRZR9RYCUS","","0","instructions","","","","","","","","","","","","","","","","","","","","","","","",""
"5425","","survey-text","19","118710","0.0-19.0-0.0","A85NRZR9RYCUS","","","","{""Q0"":""but""}","","","","","","","","","","","","","","","","","","","","","","",""
"16328","","survey-text","20","135041","0.0-20.0-0.0","A85NRZR9RYCUS","","","","{""Q0"":""It's kind of cool. Looks like an irradescent ocean""}","","","","","","","","","","","","","","","","","","","","","","",""
"4005","","image-slider-response","21","139050","0.0-21.0","A85NRZR9RYCUS","","","","","28","","","","","","","","","","","","","","","","","","","","","",""
"null","","image-button-response","22","144056","0.0-22.0","A85NRZR9RYCUS","img_art/ins/1.jpg","null","","","","","","","","","","","","","","","","","","","","","","","","",""
"1297","","image-button-response","23","145355","0.0-23.0","A85NRZR9RYCUS","img_art/ins/1.jpg","3","","","","","","","","","","","","","","","","","","","","","","","","",""
"1858","","image-button-response","24","147219","0.0-24.0-0.0","A85NRZR9RYCUS","img_art/ins/1.jpg","1","","","","","","","","","","","","","","","","","","","","","","","","",""
"1444","","image-button-response","25","148665","0.0-25.0-0.0","A85NRZR9RYCUS","img_art/ins/1.jpg","5","","","","","","","","","","","","","","","","","","","","","","","","",""
"null","","html-keyboard-response","26","149670","0.0-26.0","A85NRZR9RYCUS","<p style=""font-size: 48px;"">+</p>","","","","","null","allTrialResponses","1000","1","-2","img_art/ins/1.jpg","28","It's kind of cool. Looks like an irradescent ocean","Adam,Alex,Ben,Carl,Daniel,Jack","Seems like doodles,-20,20,20","very creative work.,36,40,20","This color reminds me of poo,-46,60,20","very calming artwork,42,80,20","It looks like a murder scene.,-48,100,20","I like the sophisticated brushwork,40,120,20","Carl","very calming artwork,42,80,20","Alex","very creative work.,36,40,20","Jack","I like the sophisticated brushwork,40,120,20","0"
"8924","","survey-text","27","158606","0.0-27.0-0.0","A85NRZR9RYCUS","","","","{""Q0"":""Reminds me of strong mountains""}","","","","","","","","","","","","","","","","","","","","","","",""
"2716","","image-slider-response","28","161326","0.0-28.0","A85NRZR9RYCUS","","","","","21","","","","","","","","","","","","","","","","","","","","","",""
"3318","","image-button-response","29","166332","0.0-29.0","A85NRZR9RYCUS","img_art/ins/2.jpg","3","","","","","","","","","","","","","","","","","","","","","","","","",""
"2269","","image-button-response","30","168602","0.0-30.0","A85NRZR9RYCUS","img_art/ins/2.jpg","4","","","","","","","","","","","","","","","","","","","","","","","","",""
"1340","","image-button-response","31","169945","0.0-31.0-0.0","A85NRZR9RYCUS","img_art/ins/2.jpg","3","","","","","","","","","","","","","","","","","","","","","","","","",""
"2492","","image-button-response","32","172439","0.0-32.0-0.0","A85NRZR9RYCUS","img_art/ins/2.jpg","1","","","","","","","","","","","","","","","","","","","","","","","","",""
"null","","html-keyboard-response","33","172952","0.0-33.0","A85NRZR9RYCUS","<p style=""font-size: 48px;"">+</p>","","","","","null","allTrialResponses","500","1","-1","img_art/ins/2.jpg","21","Reminds me of strong mountains","James,Alex,Kyle,Carl,John,Jack","looks too angry,-50,140,20","I like the blocks of color arrangements,30,40,20","Idk, it is just annoying,-32,180,20","I can feel the artist's passion in it,45,80,20","love the texture of paint,48,160,20","I would never be able to compose a sophisticated pallete like this,48,120,20","John","love the texture of paint,48,160,20","Carl","I can feel the artist's passion in it,45,80,20","Alex","I like the blocks of color arrangements,30,40,20","0"
"8956","","survey-text","34","181922","0.0-34.0-0.0","A85NRZR9RYCUS","","","","{""Q0"":""Looks like a glacier, very cool""}","","","","","","","","","","","","","","","","","","","","","","",""
"4138","","image-slider-response","35","186063","0.0-35.0","A85NRZR9RYCUS","","","","","44","","","","","","","","","","","","","","","","","","","","","",""
"2508","","image-button-response","36","191069","0.0-36.0","A85NRZR9RYCUS","img_art/ins/3.jpg","0","","","","","","","","","","","","","","","","","","","","","","","","",""
"445","","image-button-response","37","191515","0.0-37.0","A85NRZR9RYCUS","img_art/ins/3.jpg","0","","","","","","","","","","","","","","","","","","","","","","","","",""
"1119","","image-button-response","38","192635","0.0-38.0-0.0","A85NRZR9RYCUS","img_art/ins/3.jpg","4","","","","","","","","","","","","","","","","","","","","","","","","",""
"3488","","image-button-response","39","196125","0.0-39.0-0.0","A85NRZR9RYCUS","img_art/ins/3.jpg","5","","","","","","","","","","","","","","","","","","","","","","","","",""
"null","","html-keyboard-response","40","197634","0.0-40.0","A85NRZR9RYCUS","<p style=""font-size: 48px;"">+</p>","","","","","null","allTrialResponses","1500","1","0","img_art/ins/3.jpg","44","Looks like a glacier, very cool","Mike,Alex,Ron,Carl,John,Sam","enjoy the different shades of blue,22,200,20","calming blue is very nice,36,40,20","It looks depressing,-26,220,20","It's an alright work,15,80,20","I like the overlapping of brushes,41,160,20","I can feel a rainy day from this painting,18,240,20","Mike","enjoy the different shades of blue,22,200,20","John","I like the overlapping of brushes,41,160,20","Sam","I can feel a rainy day from this painting,18,240,20","0"
"3418","","image-button-response_instructions","41","201061","0.0-41.0","A85NRZR9RYCUS","","0","instructions","","","","","","","","","","","","","","","","","","","","","","","",""
"10597","","survey-likert","42","211661","0.0-42.0-0.0","A85NRZR9RYCUS","","","","{""Q0"":"""",""Q1"":0,""Q2"":1}","","","","","","","","","","","","","","","","","","","","","","",""
"2896","","survey-text","43","214567","0.0-43.0-0.0","A85NRZR9RYCUS","","","","{""Q0"":""rock""}","","","","","","","","","","","","","","","","","","","","","","",""
"12350","","survey-text","44","226918","0.0-44.0-0.0","A85NRZR9RYCUS","","","","{""Q0"":""This looks kind of messy, like a murder scene""}","","","","","","","","","","","","","","","","","","","","","","",""
"2706","","image-slider-response","45","229627","0.0-45.0","A85NRZR9RYCUS","","","","","-29","","","","","","","","","","","","","","","","","","","","","",""
"3921","","image-button-response","46","234655","0.0-46.0","A85NRZR9RYCUS","img_art/3.jpg","1","","","","","","","","","","","","","","","","","","","","","","","","",""
"974","","image-button-response","47","235630","0.0-47.0","A85NRZR9RYCUS","img_art/3.jpg","3","","","","","","","","","","","","","","","","","","","","","","","","",""
"570","","image-button-response","48","236202","0.0-48.0-0.0","A85NRZR9RYCUS","img_art/3.jpg","4","","","","","","","","","","","","","","","","","","","","","","","","",""
"1314","","image-button-response","49","237517","0.0-49.0-0.0","A85NRZR9RYCUS","img_art/3.jpg","5","","","","","","","","","","","","","","","","","","","","","","","","",""
"null","","html-keyboard-response","50","238023","0.0-50.0","A85NRZR9RYCUS","<p style=""font-size: 48px;"">+</p>","","","","","null","allTrialResponses","500","1","1","img_art/3.jpg","-29","This looks kind of messy, like a murder scene","Malik,Mason,Lucas,Brandon,Ryan,Jacob","Unaure what the artist  was doing, needs context,11,40,20","scribbles in red. 2 minute piece.,-30,100,20","Mysterious, remarkable.,30,380,20","Just scribbles. Not a fan.,-40,320,20","Looks like someone threw blood at a wall,-50,380,20","Don't get the scribbles.,-13,340,20","Brandon","Just scribbles. Not a fan.,-40,320,20","Ryan","Looks like someone threw blood at a wall,-50,380,20","Jacob","Don't get the scribbles.,-13,340,20","0"
"8767","","survey-text","51","246799","0.0-51.0-0.0","A85NRZR9RYCUS","","","","{""Q0"":""Looks like a creepy cemetary""}","","","","","","","","","","","","","","","","","","","","","","",""
"3063","","image-slider-response","52","249864","0.0-52.0","A85NRZR9RYCUS","","","","","24","","","","","","","","","","","","","","","","","","","","","",""
"3176","","image-button-response","53","254880","0.0-53.0","A85NRZR9RYCUS","img_art/25.jpg","1","","","","","","","","","","","","","","","","","","","","","","","","",""
"667","","image-button-response","54","255548","0.0-54.0","A85NRZR9RYCUS","img_art/25.jpg","1","","","","","","","","","","","","","","","","","","","","","","","","",""
"1552","","image-button-response","55","257103","0.0-55.0-0.0","A85NRZR9RYCUS","img_art/25.jpg","0","","","","","","","","","","","","","","","","","","","","","","","","",""
"1728","","image-button-response","56","258834","0.0-56.0-0.0","A85NRZR9RYCUS","img_art/25.jpg","0","","","","","","","","","","","","","","","","","","","","","","","","",""
"4925","","image-button-response","57","267553","0.0-56.1-0.1","A85NRZR9RYCUS","img_art/25.jpg","2","","","","","","","","","","","","","","","","","","","","","","","","",""
"null","","html-keyboard-response","58","269059","0.0-57.0","A85NRZR9RYCUS","<p style=""font-size: 48px;"">+</p>","","","","","null","allTrialResponses","1500","1","2","img_art/25.jpg","24","Looks like a creepy cemetary","Jeremy,Eric,Vincent,Brandon,Ryan,Jacob","reminds me of ancient history which makes me happy,40,60,20","This piece gives me a lot of questions which I kind of like.,10,100,20","Iike this picture; it speaks to me on a personal level. But seems to scare the ones around me.,7,360,20","Reminds me of cave drawings,21,320,20","Reminds me of Mr. Burns on drugs in the Simpsons,-50,380,20","I really like how the lines form this piece.,8,340,20","Eric","This piece gives me a lot of questions which I kind of like.,10,100,20","Jeremy","reminds me of ancient history which makes me happy,40,60,20","Vincent","Iike this picture; it speaks to me on a personal level. But seems to scare the ones around me.,7,360,20","2"
"17003","","survey-text","59","286068","0.0-58.0-0.0","A85NRZR9RYCUS","","","","{""Q0"":""This looks very deep, like each time you look at is you notice something else""}","","","","","","","","","","","","","","","","","","","","","","",""
"2941","","image-slider-response","60","289011","0.0-59.0","A85NRZR9RYCUS","","","","","43","","","","","","","","","","","","","","","","","","","","","",""
"null","","image-button-response","61","294020","0.0-60.0","A85NRZR9RYCUS","img_art/21.jpg","null","","","","","","","","","","","","","","","","","","","","","","","","",""
"235","","image-button-response","62","294255","0.0-61.0","A85NRZR9RYCUS","img_art/21.jpg","4","","","","","","","","","","","","","","","","","","","","","","","","",""
"1419","","image-button-response","63","295678","0.0-62.0-0.0","A85NRZR9RYCUS","img_art/21.jpg","5","","","","","","","","","","","","","","","","","","","","","","","","",""
"3425","","image-button-response","64","299105","0.0-63.0-0.0","A85NRZR9RYCUS","img_art/21.jpg","2","","","","","","","","","","","","","","","","","","","","","","","","",""
"null","","html-keyboard-response","65","300116","0.0-64.0","A85NRZR9RYCUS","<p style=""font-size: 48px;"">+</p>","","","","","null","allTrialResponses","1000","1","3","img_art/21.jpg","43","This looks very deep, like each time you look at is you notice something else","Jeremy,Eric,Vincent,Luke,Juan,Christopher","the picture is boring,1,60,20","I love everything about this piece.,50,100,20","Love the colors have to say this is my favorite above all,37,360,20","the vast colors make me happy,15,20,20","The colors and softness work together to make something that's lovely.,42,260,20","I love the section of blues, the colors overall are really lovely,31,160,20","Juan","The colors and softness work together to make something that's lovely.,42,260,20","Christopher","I love the section of blues, the colors overall are really lovely,31,160,20","Vincent","Love the colors have to say this is my favorite above all,37,360,20","2"
"7513","","survey-text","66","307638","0.0-65.0-0.0","A85NRZR9RYCUS","","","","{""Q0"":""This reminds me of a rainy day""}","","","","","","","","","","","","","","","","","","","","","","",""
"2936","","image-slider-response","67","310576","0.0-66.0","A85NRZR9RYCUS","","","","","34","","","","","","","","","","","","","","","","","","","","","",""
"4354","","image-button-response","68","315587","0.0-67.0","A85NRZR9RYCUS","img_art/13.jpg","5","","","","","","","","","","","","","","","","","","","","","","","","",""
"1749","","image-button-response","69","317338","0.0-68.0","A85NRZR9RYCUS","img_art/13.jpg","4","","","","","","","","","","","","","","","","","","","","","","","","",""
"2868","","image-button-response","70","320208","0.0-69.0-0.0","A85NRZR9RYCUS","img_art/13.jpg","2","","","","","","","","","","","","","","","","","","","","","","","","",""
"2927","","image-button-response","71","323137","0.0-70.0-0.0","A85NRZR9RYCUS","img_art/13.jpg","1","","","","","","","","","","","","","","","","","","","","","","","","",""
"null","","html-keyboard-response","72","324147","0.0-71.0","A85NRZR9RYCUS","<p style=""font-size: 48px;"">+</p>","","","","","null","allTrialResponses","1000","1","4","img_art/13.jpg","34","This reminds me of a rainy day","Jose,Scott,Vincent,Dalton,Juan,Christopher","Best color combo. i love this.,50,200,20","I like the transition to other colors,24,20,20","I love the colors reminds me of a rainy day..it's calm and relaxing,32,360,20","rain in blue black and white,1,300,20","I love the colors and the contrast between the different blues.,21,260,20","this is an appealing mix of textures to me and the color scheme is harmonious,36,160,20","Juan","I love the colors and the contrast between the different blues.,21,260,20","Vincent","I love the colors reminds me of a rainy day..it's calm and relaxing,32,360,20","Scott","I like the transition to other colors,24,20,20","2"
"11190","","survey-text","73","335345","0.0-72.0-0.0","A85NRZR9RYCUS","","","","{""Q0"":""Looks kind of plain, kindergarten art""}","","","","","","","","","","","","","","","","","","","","","","",""
"2596","","image-slider-response","74","337943","0.0-73.0","A85NRZR9RYCUS","","","","","-36","","","","","","","","","","","","","","","","","","","","","",""
"3502","","image-button-response","75","342946","0.0-74.0","A85NRZR9RYCUS","img_art/2.jpg","1","","","","","","","","","","","","","","","","","","","","","","","","",""
"799","","image-button-response","76","343746","0.0-75.0","A85NRZR9RYCUS","img_art/2.jpg","4","","","","","","","","","","","","","","","","","","","","","","","","",""
"2937","","image-button-response","77","346684","0.0-76.0-0.0","A85NRZR9RYCUS","img_art/2.jpg","1","","","","","","","","","","","","","","","","","","","","","","","","",""
"1074","","image-button-response","78","347760","0.0-77.0-0.0","A85NRZR9RYCUS","img_art/2.jpg","3","","","","","","","","","","","","","","","","","","","","","","","","",""
"null","","html-keyboard-response","79","348272","0.0-78.0","A85NRZR9RYCUS","<p style=""font-size: 48px;"">+</p>","","","","","null","allTrialResponses","500","1","5","img_art/2.jpg","-36","Looks kind of plain, kindergarten art","John,Scott,Vincent,Jason,Juan,Thomas","Its meh. Doesnt illicit any strong feelings in me,1,120,20","looks like a child's artwork,-40,20,20","This reminds me of a peaceful day out alone shopping and spending some me time,41,360,20","Too jumbled and disorienting,-13,20,20","I don't like the abstract nature of this painting or the colors used.,-50,260,20","My first thought was that it looks like a children's art project,-30,220,20","Juan","I don't like the abstract nature of this painting or the colors used.,-50,260,20","Scott","looks like a child's artwork,-40,20,20","Jason","Too jumbled and disorienting,-13,20,20","2"
"3021","","survey-text","80","351306","0.0-79.0-0.0","A85NRZR9RYCUS","","","","{""Q0"":""sky""}","","","","","","","","","","","","","","","","","","","","","","",""
"17234","","survey-text","81","368542","0.0-80.0-0.0","A85NRZR9RYCUS","","","","{""Q0"":""I imagine a sail boat going into a volcano""}","","","","","","","","","","","","","","","","","","","","","","",""
"3176","","image-slider-response","82","371721","0.0-81.0","A85NRZR9RYCUS","","","","","25","","","","","","","","","","","","","","","","","","","","","",""
"null","","image-button-response","83","376729","0.0-82.0","A85NRZR9RYCUS","img_art/1.jpg","null","","","","","","","","","","","","","","","","","","","","","","","","",""
"1510","","image-button-response","84","378240","0.0-83.0","A85NRZR9RYCUS","img_art/1.jpg","3","","","","","","","","","","","","","","","","","","","","","","","","",""
"1150","","image-button-response","85","379393","0.0-84.0-0.0","A85NRZR9RYCUS","img_art/1.jpg","0","","","","","","","","","","","","","","","","","","","","","","","","",""
"853","","image-button-response","86","380253","0.0-85.0-0.0","A85NRZR9RYCUS","img_art/1.jpg","1","","","","","","","","","","","","","","","","","","","","","","","","",""
"null","","html-keyboard-response","87","380761","0.0-86.0","A85NRZR9RYCUS","<p style=""font-size: 48px;"">+</p>","","","","","null","allTrialResponses","500","1","6","img_art/1.jpg","25","I imagine a sail boat going into a volcano","Brendan,Scott,Brian,Jason,Juan,Caleb","a colorful piece of art,25,340,20","good colors and contrast,31,20,20","I don't feel like much is happening in this painting,-25,380,20","Interesting blend of colors,9,20,20","I don't like how this one makes me feel.,-32,260,20","Its simply okay.,3,40,20","Jason","Interesting blend of colors,9,20,20","Brendan","a colorful piece of art,25,340,20","Scott","good colors and contrast,31,20,20","2"
"12502","","survey-text","88","393269","0.0-87.0-0.0","A85NRZR9RYCUS","","","","{""Q0"":""I enjoy the contrasting brush strokes""}","","","","","","","","","","","","","","","","","","","","","","",""
"3095","","image-slider-response","89","396367","0.0-88.0","A85NRZR9RYCUS","","","","","43","","","","","","","","","","","","","","","","","","","","","",""
"null","","image-button-response","90","401377","0.0-89.0","A85NRZR9RYCUS","img_art/27.jpg","null","","","","","","","","","","","","","","","","","","","","","","","","",""
"2012","","image-button-response","91","403391","0.0-90.0","A85NRZR9RYCUS","img_art/27.jpg","4","","","","","","","","","","","","","","","","","","","","","","","","",""
"1327","","image-button-response","92","404721","0.0-91.0-0.0","A85NRZR9RYCUS","img_art/27.jpg","3","","","","","","","","","","","","","","","","","","","","","","","","",""
"1382","","image-button-response","93","406105","0.0-92.0-0.0","A85NRZR9RYCUS","img_art/27.jpg","0","","","","","","","","","","","","","","","","","","","","","","","","",""
"null","","html-keyboard-response","94","407620","0.0-93.0","A85NRZR9RYCUS","<p style=""font-size: 48px;"">+</p>","","","","","null","allTrialResponses","1500","1","7","img_art/27.jpg","43","I enjoy the contrasting brush strokes","Brendan,Scott,Trevor,Jason,Hunter,Michael","nice firestorm on desert,23,340,20","again looks like childrens artwork,-40,20,20","I like the orange but it's a little blah,1,280,20","The variation of orange is nice,9,20,20","reminds me of kandinsky,10,240,20","Anyone could do that.,-31,140,20","Hunter","reminds me of kandinsky,10,240,20","Jason","The variation of orange is nice,9,20,20","Brendan","nice firestorm on desert,23,340,20","2"
"12238","","survey-text","95","419865","0.0-94.0-0.0","A85NRZR9RYCUS","","","","{""Q0"":""Simple but elegant""}","","","","","","","","","","","","","","","","","","","","","","",""
"11972","","image-slider-response","96","431839","0.0-95.0","A85NRZR9RYCUS","","","","","30","","","","","","","","","","","","","","","","","","","","","",""
"null","","image-button-response","97","436847","0.0-96.0","A85NRZR9RYCUS","img_art/26.jpg","null","","","","","","","","","","","","","","","","","","","","","","","","",""
"13059","","image-button-response","98","449908","0.0-97.0","A85NRZR9RYCUS","img_art/26.jpg","0","","","","","","","","","","","","","","","","","","","","","","","","",""
"1228","","image-button-response","99","451138","0.0-98.0-0.0","A85NRZR9RYCUS","img_art/26.jpg","2","","","","","","","","","","","","","","","","","","","","","","","","",""
"1249","","image-button-response","100","452389","0.0-99.0-0.0","A85NRZR9RYCUS","img_art/26.jpg","5","","","","","","","","","","","","","","","","","","","","","","","","",""
"null","","html-keyboard-response","101","452895","0.0-100.0","A85NRZR9RYCUS","<p style=""font-size: 48px;"">+</p>","","","","","null","allTrialResponses","500","1","8","img_art/26.jpg","30","Simple but elegant","Brendan,Aaron,Jared,Jason,Hunter,Bradley","cool cozy town vibes,50,340,20","It looks like a watercolor I did when I was 6.,-30,20,20","soothing and subtle,1,400,20","The colors look faded and blurry,2,20,20","feels incomplete,-50,240,20","I like this. Looks like a city street and I can use my imagination to make it come alive.,15,300,20","Brendan","cool cozy town vibes,50,340,20","Jared","soothing and subtle,1,400,20","Bradley","I like this. Looks like a city street and I can use my imagination to make it come alive.,15,300,20","2"
"14449","","survey-text","102","467350","0.0-101.0-0.0","A85NRZR9RYCUS","","","","{""Q0"":""Not a fan of the color spots""}","","","","","","","","","","","","","","","","","","","","","","",""
"2288","","image-slider-response","103","469640","0.0-102.0","A85NRZR9RYCUS","","","","","-41","","","","","","","","","","","","","","","","","","","","","",""
"4003","","image-button-response","104","474648","0.0-103.0","A85NRZR9RYCUS","img_art/23.jpg","0","","","","","","","","","","","","","","","","","","","","","","","","",""
"861","","image-button-response","105","475510","0.0-104.0","A85NRZR9RYCUS","img_art/23.jpg","0","","","","","","","","","","","","","","","","","","","","","","","","",""
"1012","","image-button-response","106","476524","0.0-105.0-0.0","A85NRZR9RYCUS","img_art/23.jpg","2","","","","","","","","","","","","","","","","","","","","","","","","",""
"5217","","image-button-response","107","481744","0.0-106.0-0.0","A85NRZR9RYCUS","img_art/23.jpg","5","","","","","","","","","","","","","","","","","","","","","","","","",""
"null","","html-keyboard-response","108","482748","0.0-107.0","A85NRZR9RYCUS","<p style=""font-size: 48px;"">+</p>","","","","","null","allTrialResponses","1000","1","9","img_art/23.jpg","-41","Not a fan of the color spots","Brendan,Derek,Jared,Alejandro,Cole,Bradley","i completely dont get it,-47,340,20","Very colorful and wild. It's cool and I like it,32,360,20","it makes me aggitated,-21,400,20","I love the funky colors accompanied by perhaps dancing silhouettes. I love the white against the chaotic surroundings.,50,80,20","White in the middle look like people dancing naked,19,200,20","I like the contrast and the bright colors in this one.,6,300,20","Brendan","i completely dont get it,-47,340,20","Jared","it makes me aggitated,-21,400,20","Bradley","I like the contrast and the bright colors in this one.,6,300,20","2"
"15561","","survey-text","109","498318","0.0-108.0-0.0","A85NRZR9RYCUS","","","","{""Q0"":""I love the subtly of the bird""}","","","","","","","","","","","","","","","","","","","","","","",""
"2616","","image-slider-response","110","500936","0.0-109.0","A85NRZR9RYCUS","","","","","23","","","","","","","","","","","","","","","","","","","","","",""
"4037","","image-button-response","111","505939","0.0-110.0","A85NRZR9RYCUS","img_art/6.jpg","1","","","","","","","","","","","","","","","","","","","","","","","","",""
"9074","","image-button-response","112","515015","0.0-111.0","A85NRZR9RYCUS","img_art/6.jpg","2","","","","","","","","","","","","","","","","","","","","","","","","",""
"4049","","image-button-response","113","519067","0.0-112.0-0.0","A85NRZR9RYCUS","img_art/6.jpg","3","","","","","","","","","","","","","","","","","","","","","","","","",""
"927","","image-button-response","114","519995","0.0-113.0-0.0","A85NRZR9RYCUS","img_art/6.jpg","1","","","","","","","","","","","","","","","","","","","","","","","","",""
"null","","html-keyboard-response","115","520997","0.0-114.0","A85NRZR9RYCUS","<p style=""font-size: 48px;"">+</p>","","","","","null","allTrialResponses","1000","1","10","img_art/6.jpg","23","I love the subtly of the bird","Brendan,Adrian,Jared,Mitchell,Nathaniel,Bradley","just an another tree on a desert?,9,340,20","Simple, warm, hopeful.,12,60,20","simplistic. i love orange and green and i love the subject,50,400,20","Looking, searching at the same time being content.,30,180,20","Not my favorite, but I like the empty vibe and the imagination it invokes. A skinny girl with long legs, perhaps, looking over a cliff,9,220,20","It's okay. It kind of looks like a bird with his head buried in his feathers.,2,300,20","Jared","simplistic. i love orange and green and i love the subject,50,400,20","Mitchell","Looking, searching at the same time being content.,30,180,20","Adrian","Simple, warm, hopeful.,12,60,20","2"
"6733","","survey-text","116","527747","0.0-115.0-0.0","A85NRZR9RYCUS","","","","{""Q0"":""our""}","","","","","","","","","","","","","","","","","","","","","","",""
"13852","","survey-text","117","541601","0.0-116.0-0.0","A85NRZR9RYCUS","","","","{""Q0"":""I like the mysterious trees""}","","","","","","","","","","","","","","","","","","","","","","",""
"3021","","image-slider-response","118","544624","0.0-117.0","A85NRZR9RYCUS","","","","","32","","","","","","","","","","","","","","","","","","","","","",""
"null","","image-button-response","119","549635","0.0-118.0","A85NRZR9RYCUS","img_art/17.jpg","null","","","","","","","","","","","","","","","","","","","","","","","","",""
"27608","","image-button-response","120","577244","0.0-119.0","A85NRZR9RYCUS","img_art/17.jpg","2","","","","","","","","","","","","","","","","","","","","","","","","",""
"2506","","image-button-response","121","579752","0.0-120.0-0.0","A85NRZR9RYCUS","img_art/17.jpg","5","","","","","","","","","","","","","","","","","","","","","","","","",""
"1159","","image-button-response","122","580912","0.0-121.0-0.0","A85NRZR9RYCUS","img_art/17.jpg","3","","","","","","","","","","","","","","","","","","","","","","","","",""
"null","","html-keyboard-response","123","581917","0.0-122.0","A85NRZR9RYCUS","<p style=""font-size: 48px;"">+</p>","","","","","null","allTrialResponses","1000","1","11","img_art/17.jpg","32","I like the mysterious trees","Stephen,Adrian,Jared,Mitchell,Kenneth,Garrett","I like the colorfulness.,17,140,20","Pretty composition and I like the colors.,20,60,20","the colors, the arch and the wall,15,400,20","Nature coming to the inside of your space that you are locked into.,50,180,20","I really like this, especially the tree.,23,300,20","I like the way the colors were used behind the tree. Makes the image colorful and interesting.,30,180,20","Jared","the colors, the arch and the wall,15,400,20","Garrett","I like the way the colors were used behind the tree. Makes the image colorful and interesting.,30,180,20","Mitchell","Nature coming to the inside of your space that you are locked into.,50,180,20","2"
"37926","","survey-text","124","619849","0.0-123.0-0.0","A85NRZR9RYCUS","","","","{""Q0"":""The river looks so pretty""}","","","","","","","","","","","","","","","","","","","","","","",""
"3187","","image-slider-response","125","623039","0.0-124.0","A85NRZR9RYCUS","","","","","27","","","","","","","","","","","","","","","","","","","","","",""
"3007","","image-button-response","126","628054","0.0-125.0","A85NRZR9RYCUS","img_art/24.jpg","4","","","","","","","","","","","","","","","","","","","","","","","","",""
"5312","","image-button-response","127","633367","0.0-126.0","A85NRZR9RYCUS","img_art/24.jpg","4","","","","","","","","","","","","","","","","","","","","","","","","",""
"1233","","image-button-response","128","634603","0.0-127.0-0.0","A85NRZR9RYCUS","img_art/24.jpg","3","","","","","","","","","","","","","","","","","","","","","","","","",""
"2335","","image-button-response","129","636939","0.0-128.0-0.0","A85NRZR9RYCUS","img_art/24.jpg","0","","","","","","","","","","","","","","","","","","","","","","","","",""
"null","","html-keyboard-response","130","637445","0.0-129.0","A85NRZR9RYCUS","<p style=""font-size: 48px;"">+</p>","","","","","null","allTrialResponses","500","1","12","img_art/24.jpg","27","The river looks so pretty","William,Kyle,Jared,Mitchell,Benjamin,Garrett","very peaceful and serene,47,380,20","This one is nice because it reminds me of nature,18,340,20","i like that the water seems in motion,6,400,20","Nature, Peace, connected.,50,180,20","peaceful and calm yet joyous.,50,260,20","I like the way the colors are put together, and I can imagine this picture in real life.,40,180,20","Benjamin","peaceful and calm yet joyous.,50,260,20","Mitchell","Nature, Peace, connected.,50,180,20","William","very peaceful and serene,47,380,20","2"
"114261","","survey-text","131","751711","0.0-130.0-0.0","A85NRZR9RYCUS","","","","{""Q0"":""It looks like a lovely tree""}","","","","","","","","","","","","","","","","","","","","","","",""
"2770","","image-slider-response","132","754483","0.0-131.0","A85NRZR9RYCUS","","","","","26","","","","","","","","","","","","","","","","","","","","","",""
"1948","","image-button-response","133","759489","0.0-132.0","A85NRZR9RYCUS","img_art/14.jpg","1","","","","","","","","","","","","","","","","","","","","","","","","",""
"1059","","image-button-response","134","760550","0.0-133.0","A85NRZR9RYCUS","img_art/14.jpg","0","","","","","","","","","","","","","","","","","","","","","","","","",""
"1083","","image-button-response","135","761634","0.0-134.0-0.0","A85NRZR9RYCUS","img_art/14.jpg","1","","","","","","","","","","","","","","","","","","","","","","","","",""
"2540","","image-button-response","136","764177","0.0-135.0-0.0","A85NRZR9RYCUS","img_art/14.jpg","4","","","","","","","","","","","","","","","","","","","","","","","","",""
"null","","html-keyboard-response","137","765189","0.0-136.0","A85NRZR9RYCUS","<p style=""font-size: 48px;"">+</p>","","","","","null","allTrialResponses","1000","1","13","img_art/14.jpg","26","It looks like a lovely tree","William,Gabriel,Jesus,Mitchell,Benjamin,Travis","calming to look at,37,380,20","i like this one!,23,160,20","I like the combination of colors and textures.,35,100,20","Tornado, nature. trees falling and displaced creatures. Love the colors though.,1,180,20","Reminds me of the outdoors.,12,260,20","I kind of like it...I like the white back ground,11,260,20","William","calming to look at,37,380,20","Gabriel","i like this one!,23,160,20","Benjamin","Reminds me of the outdoors.,12,260,20","2"
"10009","","survey-text","138","775206","0.0-137.0-0.0","A85NRZR9RYCUS","","","","{""Q0"":""I sense a lot of struggle with this one""}","","","","","","","","","","","","","","","","","","","","","","",""
"2480","","image-slider-response","139","777688","0.0-138.0","A85NRZR9RYCUS","","","","","33","","","","","","","","","","","","","","","","","","","","","",""
"null","","image-button-response","140","782702","0.0-139.0","A85NRZR9RYCUS","img_art/18.jpg","null","","","","","","","","","","","","","","","","","","","","","","","","",""
"2298","","image-button-response","141","785001","0.0-140.0","A85NRZR9RYCUS","img_art/18.jpg","0","","","","","","","","","","","","","","","","","","","","","","","","",""
"4083","","image-button-response","142","789086","0.0-141.0-0.0","A85NRZR9RYCUS","img_art/18.jpg","5","","","","","","","","","","","","","","","","","","","","","","","","",""
"1245","","image-button-response","143","790332","0.0-142.0-0.0","A85NRZR9RYCUS","img_art/18.jpg","2","","","","","","","","","","","","","","","","","","","","","","","","",""
"null","","html-keyboard-response","144","791844","0.0-143.0","A85NRZR9RYCUS","<p style=""font-size: 48px;"">+</p>","","","","","null","allTrialResponses","1500","1","14","img_art/18.jpg","33","I sense a lot of struggle with this one","William,Gabriel,Nathan,Tyler,Benjamin,Adam","Makes me think of stormy oceans,20,380,20","its messy, it seems angry,-21,160,20","Doesn't really speak to me well but I can appreciate it,10,200,20","Pleasant design and composition, unpleasant theme and focus.,-19,320,20","ugly and lots of movement,-6,260,20","Colors are okay. Reminds me of cavalry.,10,40,20","William","Makes me think of stormy oceans,20,380,20","Adam","Colors are okay. Reminds me of cavalry.,10,40,20","Nathan","Doesn't really speak to me well but I can appreciate it,10,200,20","2"
"9342","","survey-text","145","801192","0.0-144.0-0.0","A85NRZR9RYCUS","","","","{""Q0"":""It looks like a trippy big city""}","","","","","","","","","","","","","","","","","","","","","","",""
"3375","","image-slider-response","146","804571","0.0-145.0","A85NRZR9RYCUS","","","","","10","","","","","","","","","","","","","","","","","","","","","",""
"null","","image-button-response","147","809575","0.0-146.0","A85NRZR9RYCUS","img_art/11.jpg","null","","","","","","","","","","","","","","","","","","","","","","","","",""
"1643","","image-button-response","148","811221","0.0-147.0","A85NRZR9RYCUS","img_art/11.jpg","5","","","","","","","","","","","","","","","","","","","","","","","","",""
"2183","","image-button-response","149","813405","0.0-148.0-0.0","A85NRZR9RYCUS","img_art/11.jpg","2","","","","","","","","","","","","","","","","","","","","","","","","",""
"1347","","image-button-response","150","814757","0.0-149.0-0.0","A85NRZR9RYCUS","img_art/11.jpg","0","","","","","","","","","","","","","","","","","","","","","","","","",""
"null","","html-keyboard-response","151","816262","0.0-150.0","A85NRZR9RYCUS","<p style=""font-size: 48px;"">+</p>","","","","","null","allTrialResponses","1500","1","15","img_art/11.jpg","10","It looks like a trippy big city","William,Anthony,Nathan,Andrew,Steven,Adam","reminds me of a rainy day in the city,32,380,20","The narrow groups of lines in the center make me feel uneasy for some reason,-31,200,20","Reminds me of some of post-apocalyptic view of street lights or maybe a city,30,200,20","It's a really cool painting, but it reminds me of bad traffic,-20,160,20","Oh, I love this one, it says to me that life is very busy,50,160,20","Kind of reminds me of DNA.,9,40,20","Adam","Kind of reminds me of DNA.,9,40,20","Nathan","Reminds me of some of post-apocalyptic view of street lights or maybe a city,30,200,20","William","reminds me of a rainy day in the city,32,380,20","2"
"2955","","survey-text","152","819232","0.0-151.0-0.0","A85NRZR9RYCUS","","","","{""Q0"":""course""}","","","","","","","","","","","","","","","","","","","","","","",""
"5164","","survey-text","153","824397","0.0-152.0-0.0","A85NRZR9RYCUS","","","","{""Q0"":""I don't get this one""}","","","","","","","","","","","","","","","","","","","","","","",""
"4316","","image-slider-response","154","828719","0.0-153.0","A85NRZR9RYCUS","","","","","-39","","","","","","","","","","","","","","","","","","","","","",""
"3980","","image-button-response","155","833736","0.0-154.0","A85NRZR9RYCUS","img_art/5.jpg","0","","","","","","","","","","","","","","","","","","","","","","","","",""
"890","","image-button-response","156","834627","0.0-155.0","A85NRZR9RYCUS","img_art/5.jpg","3","","","","","","","","","","","","","","","","","","","","","","","","",""
"950","","image-button-response","157","835580","0.0-156.0-0.0","A85NRZR9RYCUS","img_art/5.jpg","0","","","","","","","","","","","","","","","","","","","","","","","","",""
"1583","","image-button-response","158","837165","0.0-157.0-0.0","A85NRZR9RYCUS","img_art/5.jpg","2","","","","","","","","","","","","","","","","","","","","","","","","",""
"null","","html-keyboard-response","159","838679","0.0-158.0","A85NRZR9RYCUS","<p style=""font-size: 48px;"">+</p>","","","","","null","allTrialResponses","1500","1","16","img_art/5.jpg","-39","I don't get this one","William,Justin,Nathan,Jonathan,Victor,Adam","very boring and plain,-35,380,20","Although it's very simple, there's something about the colors that really draws the eye.,11,280,20","Not a fan of the themes,-30,200,20","I hate the shapes,-30,140,20","I like these colors together and the tiny splatters, but what is this?,7,340,20","Too loud. Dislike the bright yellow.,-5,40,20","Jonathan","I hate the shapes,-30,140,20","William","very boring and plain,-35,380,20","Nathan","Not a fan of the themes,-30,200,20","2"
"243561","","survey-text","160","1082250","0.0-159.0-0.0","A85NRZR9RYCUS","","","","{""Q0"":""This looks like a mess""}","","","","","","","","","","","","","","","","","","","","","","",""
"3520","","image-slider-response","161","1085772","0.0-160.0","A85NRZR9RYCUS","","","","","-45","","","","","","","","","","","","","","","","","","","","","",""
"null","","image-button-response","162","1090787","0.0-161.0","A85NRZR9RYCUS","img_art/29.jpg","null","","","","","","","","","","","","","","","","","","","","","","","","",""
"589","","image-button-response","163","1091377","0.0-162.0","A85NRZR9RYCUS","img_art/29.jpg","5","","","","","","","","","","","","","","","","","","","","","","","","",""
"891","","image-button-response","164","1092274","0.0-163.0-0.0","A85NRZR9RYCUS","img_art/29.jpg","2","","","","","","","","","","","","","","","","","","","","","","","","",""
"680","","image-button-response","165","1092956","0.0-164.0-0.0","A85NRZR9RYCUS","img_art/29.jpg","1","","","","","","","","","","","","","","","","","","","","","","","","",""
"null","","html-keyboard-response","166","1094458","0.0-165.0","A85NRZR9RYCUS","<p style=""font-size: 48px;"">+</p>","","","","","null","allTrialResponses","1500","1","17","img_art/29.jpg","-45","This looks like a mess","William,Chase,Nathan,Jonathan,Noah,Paul","makes me think of destruction,-20,380,20","This is ugly as fuck,-50,120,20","Quite ugly in my opinion,-30,200,20","This one feels scary in a good way,30,140,20","the mixed medium / collage annoys me,-19,260,20","There's too much black and it looks sloppy,-35,300,20","Paul","There's too much black and it looks sloppy,-35,300,20","Nathan","Quite ugly in my opinion,-30,200,20","Chase","This is ugly as fuck,-50,120,20","2"
"6458","","survey-text","167","1100923","0.0-166.0-0.0","A85NRZR9RYCUS","","","","{""Q0"":""This is stupid""}","","","","","","","","","","","","","","","","","","","","","","",""
"3283","","image-slider-response","168","1104210","0.0-167.0","A85NRZR9RYCUS","","","","","-50","","","","","","","","","","","","","","","","","","","","","",""
"null","","image-button-response","169","1109227","0.0-168.0","A85NRZR9RYCUS","img_art/16.jpg","null","","","","","","","","","","","","","","","","","","","","","","","","",""
"1495","","image-button-response","170","1110724","0.0-169.0","A85NRZR9RYCUS","img_art/16.jpg","3","","","","","","","","","","","","","","","","","","","","","","","","",""
"1513","","image-button-response","171","1112240","0.0-170.0-0.0","A85NRZR9RYCUS","img_art/16.jpg","1","","","","","","","","","","","","","","","","","","","","","","","","",""
"2189","","image-button-response","172","1114430","0.0-171.0-0.0","A85NRZR9RYCUS","img_art/16.jpg","0","","","","","","","","","","","","","","","","","","","","","","","","",""
"null","","html-keyboard-response","173","1115936","0.0-172.0","A85NRZR9RYCUS","<p style=""font-size: 48px;"">+</p>","","","","","null","allTrialResponses","1500","1","18","img_art/16.jpg","-50","This is stupid","Brett,Chase,Nathan,Antonio,Grant,Paul","Mixed feelings. Warm and comfy yet somewhat violent. A stark contrast,0,360,20","Seems very twisted and dark.,-35,120,20","I enjoy how slightly strange this is, while seeming to still have some message,20,200,20","Did not like at all. I think something sinister going on in the background and the bear a diversion,-50,220,20","This is making me feel nervous in an enjoyable way.,20,200,20","Don't know if there's a meaning but I like how seemingly random objects were stuck together and called art,20,300,20","Antonio","Did not like at all. I think something sinister going on in the background and the bear a diversion,-50,220,20","Chase","Seems very twisted and dark.,-35,120,20","Brett","Mixed feelings. Warm and comfy yet somewhat violent. A stark contrast,0,360,20","2"
"8050","","survey-text","174","1123992","0.0-173.0-0.0","A85NRZR9RYCUS","","","","{""Q0"":""Looks like a weird chimney""}","","","","","","","","","","","","","","","","","","","","","","",""
"2973","","image-slider-response","175","1126968","0.0-174.0","A85NRZR9RYCUS","","","","","-6","","","","","","","","","","","","","","","","","","","","","",""
"null","","image-button-response","176","1131972","0.0-175.0","A85NRZR9RYCUS","img_art/4.jpg","null","","","","","","","","","","","","","","","","","","","","","","","","",""
"2320","","image-button-response","177","1134292","0.0-176.0","A85NRZR9RYCUS","img_art/4.jpg","4","","","","","","","","","","","","","","","","","","","","","","","","",""
"2952","","image-button-response","178","1137247","0.0-177.0-0.0","A85NRZR9RYCUS","img_art/4.jpg","1","","","","","","","","","","","","","","","","","","","","","","","","",""
"1546","","image-button-response","179","1138795","0.0-178.0-0.0","A85NRZR9RYCUS","img_art/4.jpg","5","","","","","","","","","","","","","","","","","","","","","","","","",""
"null","","html-keyboard-response","180","1139807","0.0-179.0","A85NRZR9RYCUS","<p style=""font-size: 48px;"">+</p>","","","","","null","allTrialResponses","1000","1","19","img_art/4.jpg","-6","Looks like a weird chimney","Brett,Chase,Daniel,Antonio,Devin,Isaac","I just have no clue,26,360,20","It looks like smeared poop.,-27,120,20","Better version of a 7 year old who got lucky,-23,320,20","Blah feeling, nothing,-8,220,20","Not impressed really,-20,380,20","The colors remind me of McDonalds.,-41,280,20","Devin","Not impressed really,-20,380,20","Chase","It looks like smeared poop.,-27,120,20","Isaac","The colors remind me of McDonalds.,-41,280,20","2"
"10585","","survey-text","181","1150400","0.0-180.0-0.0","A85NRZR9RYCUS","","","","{""Q0"":""Look meh, I could probably do that""}","","","","","","","","","","","","","","","","","","","","","","",""
"2939","","image-slider-response","182","1153341","0.0-181.0","A85NRZR9RYCUS","","","","","-13","","","","","","","","","","","","","","","","","","","","","",""
"null","","image-button-response","183","1158355","0.0-182.0","A85NRZR9RYCUS","img_art/19.jpg","null","","","","","","","","","","","","","","","","","","","","","","","","",""
"2897","","image-button-response","184","1161252","0.0-183.0","A85NRZR9RYCUS","img_art/19.jpg","5","","","","","","","","","","","","","","","","","","","","","","","","",""
"1196","","image-button-response","185","1162453","0.0-184.0-0.0","A85NRZR9RYCUS","img_art/19.jpg","1","","","","","","","","","","","","","","","","","","","","","","","","",""
"710","","image-button-response","186","1163165","0.0-185.0-0.0","A85NRZR9RYCUS","img_art/19.jpg","0","","","","","","","","","","","","","","","","","","","","","","","","",""
"null","","html-keyboard-response","187","1164169","0.0-186.0","A85NRZR9RYCUS","<p style=""font-size: 48px;"">+</p>","","","","","null","allTrialResponses","1000","1","20","img_art/19.jpg","-13","Look meh, I could probably do that","Corey,Chase,Spencer,Edward,Devin,Isaac","i think it is ugly and hate the colors,-35,260,20","This is just a mess.,-30,120,20","Very abstract but I like it, it's busy, lots of colors,43,120,20","It's ok but it's nothing I would hang on my wall,11,60,20","Looks a bit too loose,-2,380,20","It is too busy.,-34,280,20","Isaac","It is too busy.,-34,280,20","Chase","This is just a mess.,-30,120,20","Corey","i think it is ugly and hate the colors,-35,260,20","2"
"2710","","survey-text","188","1166893","0.0-187.0-0.0","A85NRZR9RYCUS","","","","{""Q0"":""we""}","","","","","","","","","","","","","","","","","","","","","","",""
"9081","","survey-text","189","1175976","0.0-188.0-0.0","A85NRZR9RYCUS","","","","{""Q0"":""Looks like a bunch of watermelon seeds""}","","","","","","","","","","","","","","","","","","","","","","",""
"3567","","image-slider-response","190","1179547","0.0-189.0","A85NRZR9RYCUS","","","","","-33","","","","","","","","","","","","","","","","","","","","","",""
"2814","","image-button-response","191","1184551","0.0-190.0","A85NRZR9RYCUS","img_art/15.jpg","5","","","","","","","","","","","","","","","","","","","","","","","","",""
"744","","image-button-response","192","1185296","0.0-191.0","A85NRZR9RYCUS","img_art/15.jpg","4","","","","","","","","","","","","","","","","","","","","","","","","",""
"902","","image-button-response","193","1186199","0.0-192.0-0.0","A85NRZR9RYCUS","img_art/15.jpg","5","","","","","","","","","","","","","","","","","","","","","","","","",""
"1220","","image-button-response","194","1187421","0.0-193.0-0.0","A85NRZR9RYCUS","img_art/15.jpg","1","","","","","","","","","","","","","","","","","","","","","","","","",""
"null","","html-keyboard-response","195","1188924","0.0-194.0","A85NRZR9RYCUS","<p style=""font-size: 48px;"">+</p>","","","","","null","allTrialResponses","1500","1","21","img_art/15.jpg","-33","Looks like a bunch of watermelon seeds","Corey,Chase,Bryan,Alexander,Blake,Isaac","i like the pop of blue within all the black,8,260,20","I don't like how the black dots are aligned.,-20,120,20","Interesting. Reminds me of a biopsy slide.,21,400,20","Leafs spread on the ground.,27,120,20","ugly picture and don't like it,-22,280,20","The colors are too busy.,-39,280,20","Blake","ugly picture and don't like it,-22,280,20","Isaac","The colors are too busy.,-39,280,20","Chase","I don't like how the black dots are aligned.,-20,120,20","2"
"9483","","survey-text","196","1198415","0.0-195.0-0.0","A85NRZR9RYCUS","","","","{""Q0"":""A smeared violin""}","","","","","","","","","","","","","","","","","","","","","","",""
"2658","","image-slider-response","197","1201075","0.0-196.0","A85NRZR9RYCUS","","","","","-22","","","","","","","","","","","","","","","","","","","","","",""
"null","","image-button-response","198","1206091","0.0-197.0","A85NRZR9RYCUS","img_art/10.jpg","null","","","","","","","","","","","","","","","","","","","","","","","","",""
"6115","","image-button-response","199","1212206","0.0-198.0","A85NRZR9RYCUS","img_art/10.jpg","4","","","","","","","","","","","","","","","","","","","","","","","","",""
"1608","","image-button-response","200","1213816","0.0-199.0-0.0","A85NRZR9RYCUS","img_art/10.jpg","2","","","","","","","","","","","","","","","","","","","","","","","","",""
"2495","","image-button-response","201","1216314","0.0-200.0-0.0","A85NRZR9RYCUS","img_art/10.jpg","0","","","","","","","","","","","","","","","","","","","","","","","","",""
"null","","html-keyboard-response","202","1217819","0.0-201.0","A85NRZR9RYCUS","<p style=""font-size: 48px;"">+</p>","","","","","null","allTrialResponses","1500","1","22","img_art/10.jpg","-22","A smeared violin","Sean,Chase,Nicholas,Mark,Blake,Isaac","I see a rollercoaster,23,40,20","Seems more harmonic with the strokes and colors.,31,120,20","I like it but do not love it. It is sort of depressing,13,240,20","Kraken, and I love it.,39,80,20","a fast racetrack. go, go, go,5,280,20","It looks intricate.,15,280,20","Blake","a fast racetrack. go, go, go,5,280,20","Nicholas","I like it but do not love it. It is sort of depressing,13,240,20","Sean","I see a rollercoaster,23,40,20","2"
"128760","","survey-text","203","1346589","0.0-202.0-0.0","A85NRZR9RYCUS","","","","{""Q0"":""It's too blocky""}","","","","","","","","","","","","","","","","","","","","","","",""
"3377","","image-slider-response","204","1349970","0.0-203.0","A85NRZR9RYCUS","","","","","-8","","","","","","","","","","","","","","","","","","","","","",""
"null","","image-button-response","205","1354981","0.0-204.0","A85NRZR9RYCUS","img_art/8.jpg","null","","","","","","","","","","","","","","","","","","","","","","","","",""
"1091","","image-button-response","206","1356073","0.0-205.0","A85NRZR9RYCUS","img_art/8.jpg","3","","","","","","","","","","","","","","","","","","","","","","","","",""
"802","","image-button-response","207","1356876","0.0-206.0-0.0","A85NRZR9RYCUS","img_art/8.jpg","4","","","","","","","","","","","","","","","","","","","","","","","","",""
"1724","","image-button-response","208","1358602","0.0-207.0-0.0","A85NRZR9RYCUS","img_art/8.jpg","2","","","","","","","","","","","","","","","","","","","","","","","","",""
"null","","html-keyboard-response","209","1360117","0.0-208.0","A85NRZR9RYCUS","<p style=""font-size: 48px;"">+</p>","","","","","null","allTrialResponses","1500","1","23","img_art/8.jpg","-8","It's too blocky","Sean,Jack,Nicholas,Dylan,Blake,Samuel","looks nice, like the details,25,40,20","beautiful colors & details. love the surrealism & strange angle. the faces are interesting.,50,320,20","The face bothers me,-25,240,20","The colors are nice but the big face in the sky is creepy,-11,40,20","cold city controlled by evil gods,-17,280,20","being watched over,17,400,20","Dylan","The colors are nice but the big face in the sky is creepy,-11,40,20","Blake","cold city controlled by evil gods,-17,280,20","Nicholas","The face bothers me,-25,240,20","2"
"12789","","survey-text","210","1372913","0.0-209.0-0.0","A85NRZR9RYCUS","","","","{""Q0"":""Its too busy and uniteresting""}","","","","","","","","","","","","","","","","","","","","","","",""
"7369","","image-slider-response","211","1380285","0.0-210.0","A85NRZR9RYCUS","","","","","-25","","","","","","","","","","","","","","","","","","","","","",""
"null","","image-button-response","212","1385289","0.0-211.0","A85NRZR9RYCUS","img_art/28.jpg","null","","","","","","","","","","","","","","","","","","","","","","","","",""
"727","","image-button-response","213","1386016","0.0-212.0","A85NRZR9RYCUS","img_art/28.jpg","3","","","","","","","","","","","","","","","","","","","","","","","","",""
"1253","","image-button-response","214","1387271","0.0-213.0-0.0","A85NRZR9RYCUS","img_art/28.jpg","4","","","","","","","","","","","","","","","","","","","","","","","","",""
"979","","image-button-response","215","1388253","0.0-214.0-0.0","A85NRZR9RYCUS","img_art/28.jpg","5","","","","","","","","","","","","","","","","","","","","","","","","",""
"null","","html-keyboard-response","216","1389763","0.0-215.0","A85NRZR9RYCUS","<p style=""font-size: 48px;"">+</p>","","","","","null","allTrialResponses","1500","1","24","img_art/28.jpg","-25","Its too busy and uniteresting","Jordan,Robert,Nicholas,Dylan,Blake,Patrick","A messy bed room,-7,160,20","The colors are neutral but I see a mother helping her child,31,360,20","Interesting and weird. Perfect conversational piece,33,240,20","Boring, looks like it belongs in a coffee shop,-20,40,20","an old woman in a wheelchair. sad,-35,280,20","This swirly drawing i snot my type I get confused and dizzy,-20,280,20","Dylan","Boring, looks like it belongs in a coffee shop,-20,40,20","Blake","an old woman in a wheelchair. sad,-35,280,20","Patrick","This swirly drawing i snot my type I get confused and dizzy,-20,280,20","2"
"21611","","survey-text","217","1411381","0.0-216.0-0.0","A85NRZR9RYCUS","","","","{""Q0"":""I nice painting with a red smear""}","","","","","","","","","","","","","","","","","","","","","","",""
"38758","","image-slider-response","218","1450141","0.0-217.0","A85NRZR9RYCUS","","","","","-22","","","","","","","","","","","","","","","","","","","","","",""
"3791","","image-button-response","219","1455159","0.0-218.0","A85NRZR9RYCUS","img_art/30.jpg","4","","","","","","","","","","","","","","","","","","","","","","","","",""
"2737","","image-button-response","220","1457898","0.0-219.0","A85NRZR9RYCUS","img_art/30.jpg","1","","","","","","","","","","","","","","","","","","","","","","","","",""
"730","","image-button-response","221","1458632","0.0-220.0-0.0","A85NRZR9RYCUS","img_art/30.jpg","2","","","","","","","","","","","","","","","","","","","","","","","","",""
"928","","image-button-response","222","1459561","0.0-221.0-0.0","A85NRZR9RYCUS","img_art/30.jpg","5","","","","","","","","","","","","","","","","","","","","","","","","",""
"null","","html-keyboard-response","223","1460074","0.0-222.0","A85NRZR9RYCUS","<p style=""font-size: 48px;"">+</p>","","","","","null","allTrialResponses","500","1","25","img_art/30.jpg","-22","I nice painting with a red smear","Zachary,Ethan,Elijah,Dylan,Blake,Patrick","I like this one because I am a mom and it reminds me of a child finger-painting.,20,400,20","I hate this piece. It looks like a child created it. The colors are awful.,-46,120,20","Paint scribbled on canvas,-25,80,20","I really love the pastel colors and the 3D design in this,43,40,20","snakes in the grass, I don't like it,-17,280,20","I don't like the blended colors,-20,280,20","Ethan","I hate this piece. It looks like a child created it. The colors are awful.,-46,120,20","Elijah","Paint scribbled on canvas,-25,80,20","Patrick","I don't like the blended colors,-20,280,20","2"
"5664","","survey-text","224","1465756","0.0-223.0-0.0","A85NRZR9RYCUS","","","","{""Q0"":""table""}","","","","","","","","","","","","","","","","","","","","","","",""
"10589","","survey-text","225","1476346","0.0-224.0-0.0","A85NRZR9RYCUS","","","","{""Q0"":""Blocky but doesn't look good""}","","","","","","","","","","","","","","","","","","","","","","",""
"4447","","image-slider-response","226","1480796","0.0-225.0","A85NRZR9RYCUS","","","","","-24","","","","","","","","","","","","","","","","","","","","","",""
"null","","image-button-response","227","1485809","0.0-226.0","A85NRZR9RYCUS","img_art/22.jpg","null","","","","","","","","","","","","","","","","","","","","","","","","",""
"6050","","image-button-response","228","1491861","0.0-227.0","A85NRZR9RYCUS","img_art/22.jpg","2","","","","","","","","","","","","","","","","","","","","","","","","",""
"917","","image-button-response","229","1492780","0.0-228.0-0.0","A85NRZR9RYCUS","img_art/22.jpg","1","","","","","","","","","","","","","","","","","","","","","","","","",""
"1817","","image-button-response","230","1494599","0.0-229.0-0.0","A85NRZR9RYCUS","img_art/22.jpg","0","","","","","","","","","","","","","","","","","","","","","","","","",""
"null","","html-keyboard-response","231","1496114","0.0-230.0","A85NRZR9RYCUS","<p style=""font-size: 48px;"">+</p>","","","","","null","allTrialResponses","1500","1","26","img_art/22.jpg","-24","Blocky but doesn't look good","Marcus,Ethan,Elijah,James,Joshua,Patrick","Like the colors. I enjoy looking at this one.,15,60,20","I do not like the color combo. This piece is too much the same throughout.,-1,120,20","Makes me feel a bit anxious,6,80,20","Like the black key and the rainbow color theme.,31,380,20","This one would work in the right frame. It's nice.,20,240,20","Looks like a warm sunset to me i like it,42,280,20","Elijah","Makes me feel a bit anxious,6,80,20","Ethan","I do not like the color combo. This piece is too much the same throughout.,-1,120,20","Marcus","Like the colors. I enjoy looking at this one.,15,60,20","2"
"12073","","survey-text","232","1508199","0.0-231.0-0.0","A85NRZR9RYCUS","","","","{""Q0"":""Way to busy, doesn't look like much""}","","","","","","","","","","","","","","","","","","","","","","",""
"3255","","image-slider-response","233","1511457","0.0-232.0","A85NRZR9RYCUS","","","","","-15","","","","","","","","","","","","","","","","","","","","","",""
"2637","","image-button-response","234","1516464","0.0-233.0","A85NRZR9RYCUS","img_art/9.jpg","0","","","","","","","","","","","","","","","","","","","","","","","","",""
"3098","","image-button-response","235","1519563","0.0-234.0","A85NRZR9RYCUS","img_art/9.jpg","2","","","","","","","","","","","","","","","","","","","","","","","","",""
"811","","image-button-response","236","1520377","0.0-235.0-0.0","A85NRZR9RYCUS","img_art/9.jpg","0","","","","","","","","","","","","","","","","","","","","","","","","",""
"2811","","image-button-response","237","1523191","0.0-236.0-0.0","A85NRZR9RYCUS","img_art/9.jpg","4","","","","","","","","","","","","","","","","","","","","","","","","",""
"null","","html-keyboard-response","238","1524694","0.0-237.0","A85NRZR9RYCUS","<p style=""font-size: 48px;"">+</p>","","","","","null","allTrialResponses","1500","1","27","img_art/9.jpg","-15","Way to busy, doesn't look like much","Marcus,Ethan,Elijah,Christian,Shawn,Kevin","This painting feels too jumbled for me to like it.,-12,60,20","How neat is this piece?  I love the angry expressive lines. Emotion is captured in it.,26,120,20","It's a mix of paint splash and scribbling,-33,80,20","love the color palette, but I'm gonna be honest, I don't really understand it,14,140,20","Cheesy. Looks unprofessional,-20,100,20","This is a picture of a scary mans head sideways.,-24,320,20","Elijah","It's a mix of paint splash and scribbling,-33,80,20","Marcus","This painting feels too jumbled for me to like it.,-12,60,20","Shawn","Cheesy. Looks unprofessional,-20,100,20","2"
"13962","","survey-text","239","1538665","0.0-238.0-0.0","A85NRZR9RYCUS","","","","{""Q0"":""Too blocky and choppy""}","","","","","","","","","","","","","","","","","","","","","","",""
"5813","","image-slider-response","240","1544482","0.0-239.0","A85NRZR9RYCUS","","","","","-26","","","","","","","","","","","","","","","","","","","","","",""
"null","","image-button-response","241","1549496","0.0-240.0","A85NRZR9RYCUS","img_art/12.jpg","null","","","","","","","","","","","","","","","","","","","","","","","","",""
"10580","","image-button-response","242","1560078","0.0-241.0","A85NRZR9RYCUS","img_art/12.jpg","2","","","","","","","","","","","","","","","","","","","","","","","","",""
"1385","","image-button-response","243","1561464","0.0-242.0-0.0","A85NRZR9RYCUS","img_art/12.jpg","5","","","","","","","","","","","","","","","","","","","","","","","","",""
"3364","","image-button-response","244","1564830","0.0-243.0-0.0","A85NRZR9RYCUS","img_art/12.jpg","0","","","","","","","","","","","","","","","","","","","","","","","","",""
"null","","html-keyboard-response","245","1565344","0.0-244.0","A85NRZR9RYCUS","<p style=""font-size: 48px;"">+</p>","","","","","null","allTrialResponses","500","1","28","img_art/12.jpg","-26","Too blocky and choppy","Marcus,Alexis,Elijah,Tristan,Shawn,Devon","I like the colors in the bottom half of the painting,10,60,20","In my opinion, this photo has an old school vibe,22,140,20","It makes me feel confused,-15,80,20","Quite lovely with depth and possibility.,21,300,20","Nice hallway art for a hotel.,21,100,20","too much - just overcrowded,-20,400,20","Elijah","It makes me feel confused,-15,80,20","Devon","too much - just overcrowded,-20,400,20","Marcus","I like the colors in the bottom half of the painting,10,60,20","2"
"28749","","survey-text","246","1594102","0.0-245.0-0.0","A85NRZR9RYCUS","","","","{""Q0"":""Looks like a bad western""}","","","","","","","","","","","","","","","","","","","","","","",""
"3872","","image-slider-response","247","1597976","0.0-246.0","A85NRZR9RYCUS","","","","","-14","","","","","","","","","","","","","","","","","","","","","",""
"null","","image-button-response","248","1602980","0.0-247.0","A85NRZR9RYCUS","img_art/20.jpg","null","","","","","","","","","","","","","","","","","","","","","","","","",""
"15165","","image-button-response","249","1618145","0.0-248.0","A85NRZR9RYCUS","img_art/20.jpg","4","","","","","","","","","","","","","","","","","","","","","","","","",""
"2263","","image-button-response","250","1620410","0.0-249.0-0.0","A85NRZR9RYCUS","img_art/20.jpg","1","","","","","","","","","","","","","","","","","","","","","","","","",""
"4817","","image-button-response","251","1625231","0.0-250.0-0.0","A85NRZR9RYCUS","img_art/20.jpg","5","","","","","","","","","","","","","","","","","","","","","","","","",""
"null","","html-keyboard-response","252","1626238","0.0-251.0","A85NRZR9RYCUS","<p style=""font-size: 48px;"">+</p>","","","","","null","allTrialResponses","1000","1","29","img_art/20.jpg","-14","Looks like a bad western","Marcus,Jake,Elijah,Joseph,Timothy,Devon","I like the blues, and the sense of foreboding it makes me feel.,20,60,20","It's too brash and loud and ugly.,-21,360,20","Makes me feel impressed,9,80,20","Something fell over and is burning, but it's kinda dope, you know?,14,220,20","Makes me think if a car crash or some sort of disaster,-20,240,20","i can feel the intensity in this,11,400,20","Timothy","Makes me think if a car crash or some sort of disaster,-20,240,20","Jake","It's too brash and loud and ugly.,-21,360,20","Devon","i can feel the intensity in this,11,400,20","2"
"9405","","survey-text","253","1635652","0.0-252.0-0.0","A85NRZR9RYCUS","","","","{""Q0"":""Looks like a rocky dessert""}","","","","","","","","","","","","","","","","","","","","","","",""
"2520","","image-slider-response","254","1638175","0.0-253.0","A85NRZR9RYCUS","","","","","-8","","","","","","","","","","","","","","","","","","","","","",""
"null","","image-button-response","255","1643191","0.0-254.0","A85NRZR9RYCUS","img_art/7.jpg","null","","","","","","","","","","","","","","","","","","","","","","","","",""
"5885","","image-button-response","256","1649077","0.0-255.0","A85NRZR9RYCUS","img_art/7.jpg","1","","","","","","","","","","","","","","","","","","","","","","","","",""
"2567","","image-button-response","257","1651645","0.0-256.0-0.0","A85NRZR9RYCUS","img_art/7.jpg","5","","","","","","","","","","","","","","","","","","","","","","","","",""
"6418","","image-button-response","258","1658066","0.0-257.0-0.0","A85NRZR9RYCUS","img_art/7.jpg","2","","","","","","","","","","","","","","","","","","","","","","","","",""
"null","","html-keyboard-response","259","1659578","0.0-258.0","A85NRZR9RYCUS","<p style=""font-size: 48px;"">+</p>","","","","","null","allTrialResponses","1500","1","30","img_art/7.jpg","-8","Looks like a rocky dessert","Bryce,Jake,Jorge,Isaiah,Timothy,Devon","I love the texture.,20,20,20","This is vague and ugly.,-3,360,20","time and change,1,180,20","I feel relaxed and a little nostalgic, like I'm exploring the wall of a very old building.,18,300,20","This feels very earthy and grounded,20,240,20","I'm not too sure about this one,-10,400,20","Jake","This is vague and ugly.,-3,360,20","Devon","I'm not too sure about this one,-10,400,20","Jorge","time and change,1,180,20","2"
"3104","","image-button-response_instructions","260","1662692","0.0-259.0","A85NRZR9RYCUS","","0","instructions","","","","","","","","","","","","","","","","","","","","","","","",""
