"rt","url","trial_type","trial_index","time_elapsed","internal_node_id","participant_id","stimulus","button_pressed","Name","responses","response","key_press","variableName","fixationTime","condition","trial","photo","subjectRating","subjectResponse","agentsNames","agent_1_Response","agent_2_Response","agent_3_Response","agent_4_Response","agent_5_Response","agent_6_Response","kept_1_name","kept_1_response","kept_2_name","kept_2_response","kept_3_name","kept_3_response","errorCounter"
"4801","external_page_harvard.html","external-html","0","4894","0.0-0.0","A88CZ5CYKL5BJ","","","","","","","","","","","","","","","","","","","","","","","","","","",""
"3982","","image-button-response","1","8876","0.0-1.0","A88CZ5CYKL5BJ","","0","","","","","","","","","","","","","","","","","","","","","","","","",""
"2861","","image-button-response","2","11740","0.0-2.0-0.0","A88CZ5CYKL5BJ","","1","phone","","","","","","","","","","","","","","","","","","","","","","","",""
"6174","","survey-text","3","17916","0.0-3.0-0.0","A88CZ5CYKL5BJ","","","","{""Q0"":""A88CZ5CYKL5BJ""}","","","","","","","","","","","","","","","","","","","","","","",""
"3320","","image-button-response_instructions","4","21237","0.0-4.0","A88CZ5CYKL5BJ","","0","instructions","","","","","","","","","","","","","","","","","","","","","","","",""
"8502","","image-button-response_instructions","5","29740","0.0-5.0","A88CZ5CYKL5BJ","img_art/ins/popularity/ins1.png","0","instructions","","","","","","","","","","","","","","","","","","","","","","","",""
"2150","","image-button-response_instructions","6","31892","0.0-6.0","A88CZ5CYKL5BJ","img_art/ins/popularity/ins2.png","0","instructions","","","","","","","","","","","","","","","","","","","","","","","",""
"74835","","image-button-response_instructions","7","106732","0.0-7.0","A88CZ5CYKL5BJ","img_art/ins/popularity/ins2Extreme.png","0","instructions","","","","","","","","","","","","","","","","","","","","","","","",""
"3767","","image-button-response_instructions","8","110500","0.0-8.0","A88CZ5CYKL5BJ","img_art/ins/popularity/ins3KEEPpop.PNG","0","instructions","","","","","","","","","","","","","","","","","","","","","","","",""
"2359","","image-button-response_instructions","9","112860","0.0-9.0","A88CZ5CYKL5BJ","img_art/ins/popularity/ins3ANamepop.PNG","0","instructions","","","","","","","","","","","","","","","","","","","","","","","",""
"2327","","image-button-response_instructions","10","115188","0.0-10.0","A88CZ5CYKL5BJ","img_art/ins/popularity/ins3ARatingpop.png","0","instructions","","","","","","","","","","","","","","","","","","","","","","","",""
"1487","","image-button-response_instructions","11","116677","0.0-11.0","A88CZ5CYKL5BJ","img_art/ins/popularity/ins3ATextpop.png","0","instructions","","","","","","","","","","","","","","","","","","","","","","","",""
"4571","","image-button-response_instructions","12","121248","0.0-12.0","A88CZ5CYKL5BJ","img_art/ins/popularity/ins3ALikespop.png","0","instructions","","","","","","","","","","","","","","","","","","","","","","","",""
"9363","","image-button-response_instructions","13","130612","0.0-13.0","A88CZ5CYKL5BJ","img_art/ins/popularity/ins3KEEPpop.PNG","0","instructions","","","","","","","","","","","","","","","","","","","","","","","",""
"2975","","image-button-response_instructions","14","133588","0.0-14.0","A88CZ5CYKL5BJ","img_art/ins/popularity/ins3_5RED.png","0","instructions","","","","","","","","","","","","","","","","","","","","","","","",""
"2408","","image-button-response_instructions","15","135996","0.0-15.0","A88CZ5CYKL5BJ","img_art/ins/popularity/ins3KEEPpop.PNG","0","instructions","","","","","","","","","","","","","","","","","","","","","","","",""
"6495","","image-button-response_instructions","16","142493","0.0-16.0","A88CZ5CYKL5BJ","img_art/ins/popularity/ins4KEEPpop.PNG","0","instructions","","","","","","","","","","","","","","","","","","","","","","","",""
"2503","","image-button-response_instructions","17","144996","0.0-17.0","A88CZ5CYKL5BJ","img_art/ins/popularity/ins5KEEPpop.PNG","0","instructions","","","","","","","","","","","","","","","","","","","","","","","",""
"751","","image-button-response_instructions","18","145748","0.0-18.0","A88CZ5CYKL5BJ","","0","instructions","","","","","","","","","","","","","","","","","","","","","","","",""
"4801","","survey-text","19","150564","0.0-19.0-0.0","A88CZ5CYKL5BJ","","","","{""Q0"":""but""}","","","","","","","","","","","","","","","","","","","","","","",""
"7599","","survey-text","20","158164","0.0-20.0-0.0","A88CZ5CYKL5BJ","","","","{""Q0"":""It has some nice colors""}","","","","","","","","","","","","","","","","","","","","","","",""
"3631","","image-slider-response","21","161796","0.0-21.0","A88CZ5CYKL5BJ","","","","","-9","","","","","","","","","","","","","","","","","","","","","",""
"null","","image-button-response","22","166812","0.0-22.0","A88CZ5CYKL5BJ","img_art/ins/1.jpg","null","","","","","","","","","","","","","","","","","","","","","","","","",""
"3544","","image-button-response","23","170356","0.0-23.0","A88CZ5CYKL5BJ","img_art/ins/1.jpg","4","","","","","","","","","","","","","","","","","","","","","","","","",""
"4071","","image-button-response","24","174428","0.0-24.0-0.0","A88CZ5CYKL5BJ","img_art/ins/1.jpg","5","","","","","","","","","","","","","","","","","","","","","","","","",""
"1087","","image-button-response","25","175516","0.0-25.0-0.0","A88CZ5CYKL5BJ","img_art/ins/1.jpg","3","","","","","","","","","","","","","","","","","","","","","","","","",""
"null","","html-keyboard-response","26","177018","0.0-26.0","A88CZ5CYKL5BJ","<p style=""font-size: 48px;"">+</p>","","","","","null","allTrialResponses","1500","1","-2","img_art/ins/1.jpg","-9","It has some nice colors","Adam,Alex,Ben,Carl,Daniel,Jack","Seems like doodles,-20,20,20","very creative work.,36,40,20","This color reminds me of poo,-46,60,20","very calming artwork,42,80,20","It looks like a murder scene.,-48,100,20","I like the sophisticated brushwork,40,120,20","Daniel","It looks like a murder scene.,-48,100,20","Jack","I like the sophisticated brushwork,40,120,20","Carl","very calming artwork,42,80,20","0"
"16927","","survey-text","27","193949","0.0-27.0-0.0","A88CZ5CYKL5BJ","","","","{""Q0"":""Very blocky, maybe like houses""}","","","","","","","","","","","","","","","","","","","","","","",""
"3271","","image-slider-response","28","197221","0.0-28.0","A88CZ5CYKL5BJ","","","","","-11","","","","","","","","","","","","","","","","","","","","","",""
"null","","image-button-response","29","202228","0.0-29.0","A88CZ5CYKL5BJ","img_art/ins/2.jpg","null","","","","","","","","","","","","","","","","","","","","","","","","",""
"2024","","image-button-response","30","204253","0.0-30.0","A88CZ5CYKL5BJ","img_art/ins/2.jpg","0","","","","","","","","","","","","","","","","","","","","","","","","",""
"551","","image-button-response","31","204804","0.0-31.0-0.0","A88CZ5CYKL5BJ","img_art/ins/2.jpg","1","","","","","","","","","","","","","","","","","","","","","","","","",""
"2487","","image-button-response","32","207292","0.0-32.0-0.0","A88CZ5CYKL5BJ","img_art/ins/2.jpg","4","","","","","","","","","","","","","","","","","","","","","","","","",""
"null","","html-keyboard-response","33","208307","0.0-33.0","A88CZ5CYKL5BJ","<p style=""font-size: 48px;"">+</p>","","","","","null","allTrialResponses","1000","1","-1","img_art/ins/2.jpg","-11","Very blocky, maybe like houses","James,John,Kyle,Carl,Daniel,Jack","looks too angry,-50,140,20","love the texture of paint,48,160,20","Idk, it is just annoying,-32,180,20","I can feel the artist's passion in it,45,80,20","One of my pet peevs,-48,100,20","I would never be able to compose a sophisticated pallete like this,48,120,20","James","looks too angry,-50,140,20","John","love the texture of paint,48,160,20","Daniel","One of my pet peevs,-48,100,20","0"
"10286","","survey-text","34","218596","0.0-34.0-0.0","A88CZ5CYKL5BJ","","","","{""Q0"":""Looks chilly, and sharp""}","","","","","","","","","","","","","","","","","","","","","","",""
"3968","","image-slider-response","35","222564","0.0-35.0","A88CZ5CYKL5BJ","","","","","-2","","","","","","","","","","","","","","","","","","","","","",""
"4607","","image-button-response","36","227574","0.0-36.0","A88CZ5CYKL5BJ","img_art/ins/3.jpg","3","","","","","","","","","","","","","","","","","","","","","","","","",""
"2941","","image-button-response","37","230516","0.0-37.0","A88CZ5CYKL5BJ","img_art/ins/3.jpg","5","","","","","","","","","","","","","","","","","","","","","","","","",""
"623","","image-button-response","38","231140","0.0-38.0-0.0","A88CZ5CYKL5BJ","img_art/ins/3.jpg","3","","","","","","","","","","","","","","","","","","","","","","","","",""
"2391","","image-button-response","39","233532","0.0-39.0-0.0","A88CZ5CYKL5BJ","img_art/ins/3.jpg","1","","","","","","","","","","","","","","","","","","","","","","","","",""
"null","","html-keyboard-response","40","234045","0.0-40.0","A88CZ5CYKL5BJ","<p style=""font-size: 48px;"">+</p>","","","","","null","allTrialResponses","500","1","0","img_art/ins/3.jpg","-2","Looks chilly, and sharp","James,John,Ron,Mike,Daniel,Sam","My worst nightmare,-42,140,20","I like the overlapping of brushes,41,160,20","It looks depressing,-26,220,20","enjoy the different shades of blue,22,200,20","looks like a murder room,-35,100,20","I can feel a rainy day from this painting,18,240,20","Sam","I can feel a rainy day from this painting,18,240,20","Mike","enjoy the different shades of blue,22,200,20","John","I like the overlapping of brushes,41,160,20","0"
"5005","","image-button-response_instructions","41","239053","0.0-41.0","A88CZ5CYKL5BJ","","0","instructions","","","","","","","","","","","","","","","","","","","","","","","",""
"9368","","survey-likert","42","248423","0.0-42.0-0.0","A88CZ5CYKL5BJ","","","","{""Q0"":"""",""Q1"":0,""Q2"":1}","","","","","","","","","","","","","","","","","","","","","","",""
"3235","","survey-text","43","251660","0.0-43.0-0.0","A88CZ5CYKL5BJ","","","","{""Q0"":""rock""}","","","","","","","","","","","","","","","","","","","","","","",""
"10992","","survey-text","44","262652","0.0-44.0-0.0","A88CZ5CYKL5BJ","","","","{""Q0"":""It's like a mutated city""}","","","","","","","","","","","","","","","","","","","","","","",""
"3326","","image-slider-response","45","265980","0.0-45.0","A88CZ5CYKL5BJ","","","","","15","","","","","","","","","","","","","","","","","","","","","",""
"2640","","image-button-response","46","270990","0.0-46.0","A88CZ5CYKL5BJ","img_art/20.jpg","3","","","","","","","","","","","","","","","","","","","","","","","","",""
"557","","image-button-response","47","271548","0.0-47.0","A88CZ5CYKL5BJ","img_art/20.jpg","3","","","","","","","","","","","","","","","","","","","","","","","","",""
"5751","","image-button-response","48","277300","0.0-48.0-0.0","A88CZ5CYKL5BJ","img_art/20.jpg","2","","","","","","","","","","","","","","","","","","","","","","","","",""
"1839","","image-button-response","49","279140","0.0-49.0-0.0","A88CZ5CYKL5BJ","img_art/20.jpg","0","","","","","","","","","","","","","","","","","","","","","","","","",""
"null","","html-keyboard-response","50","279649","0.0-50.0","A88CZ5CYKL5BJ","<p style=""font-size: 48px;"">+</p>","","","","","null","allTrialResponses","500","1","1","img_art/20.jpg","15","It's like a mutated city","Isaiah,Noah,Gabriel,Alexander,Daniel,Ethan","I feel powerful, like I am looking out a window at this machine, that I am in charge.,17,300,20","just feels generic,-18,260,20","i almost feel like i can recognize what this is,-6,160,20","The beach and industry.,12,120,20","Fails to capture what similar styles do,-12,320,20","I can tell this artist has experience. I just don't care for the color combo.,7,120,20","Alexander","The beach and industry.,12,120,20","Gabriel","i almost feel like i can recognize what this is,-6,160,20","Isaiah","I feel powerful, like I am looking out a window at this machine, that I am in charge.,17,300,20","0"
"14406","","survey-text","51","294060","0.0-51.0-0.0","A88CZ5CYKL5BJ","","","","{""Q0"":""Something is erupting, and it's gross.""}","","","","","","","","","","","","","","","","","","","","","","",""
"3238","","image-slider-response","52","297300","0.0-52.0","A88CZ5CYKL5BJ","","","","","-35","","","","","","","","","","","","","","","","","","","","","",""
"null","","image-button-response","53","302302","0.0-53.0","A88CZ5CYKL5BJ","img_art/5.jpg","null","","","","","","","","","","","","","","","","","","","","","","","","",""
"547","","image-button-response","54","302850","0.0-54.0","A88CZ5CYKL5BJ","img_art/5.jpg","1","","","","","","","","","","","","","","","","","","","","","","","","",""
"2377","","image-button-response","55","305228","0.0-55.0-0.0","A88CZ5CYKL5BJ","img_art/5.jpg","2","","","","","","","","","","","","","","","","","","","","","","","","",""
"2551","","image-button-response","56","307780","0.0-56.0-0.0","A88CZ5CYKL5BJ","img_art/5.jpg","3","","","","","","","","","","","","","","","","","","","","","","","","",""
"null","","html-keyboard-response","57","308786","0.0-57.0","A88CZ5CYKL5BJ","<p style=""font-size: 48px;"">+</p>","","","","","null","allTrialResponses","1000","1","2","img_art/5.jpg","-35","Something is erupting, and it's gross.","Isaiah,Antonio,Gabriel,Alexander,Edward,Brendan","I feel nothing looking at this.,-5,300,20","Too much angular things happening, makes me think of stabbing something which makes me uncomfortable,-50,220,20","too abstract, looks like a pyramid,-22,160,20","Dull pyramid that says nothing.,7,120,20","Pretty simple, I'm not sure what it's supposed to mean,14,60,20","a volcano erruption,21,340,20","Antonio","Too much angular things happening, makes me think of stabbing something which makes me uncomfortable,-50,220,20","Gabriel","too abstract, looks like a pyramid,-22,160,20","Alexander","Dull pyramid that says nothing.,7,120,20","0"
"13287","","survey-text","58","322076","0.0-58.0-0.0","A88CZ5CYKL5BJ","","","","{""Q0"":""Looks like random splotches.""}","","","","","","","","","","","","","","","","","","","","","","",""
"2374","","image-slider-response","59","324452","0.0-59.0","A88CZ5CYKL5BJ","","","","","-35","","","","","","","","","","","","","","","","","","","","","",""
"null","","image-button-response","60","329459","0.0-60.0","A88CZ5CYKL5BJ","img_art/2.jpg","null","","","","","","","","","","","","","","","","","","","","","","","","",""
"1178","","image-button-response","61","330637","0.0-61.0","A88CZ5CYKL5BJ","img_art/2.jpg","1","","","","","","","","","","","","","","","","","","","","","","","","",""
"838","","image-button-response","62","331477","0.0-62.0-0.0","A88CZ5CYKL5BJ","img_art/2.jpg","2","","","","","","","","","","","","","","","","","","","","","","","","",""
"2934","","image-button-response","63","334413","0.0-63.0-0.0","A88CZ5CYKL5BJ","img_art/2.jpg","3","","","","","","","","","","","","","","","","","","","","","","","","",""
"null","","html-keyboard-response","64","335916","0.0-64.0","A88CZ5CYKL5BJ","<p style=""font-size: 48px;"">+</p>","","","","","null","allTrialResponses","1500","1","3","img_art/2.jpg","-35","Looks like random splotches.","Nicholas,Antonio,Gabriel,Alexander,Luke,Jason","Cute and happy,22,240,20","Colors are drab and cause a sense of blandness,-28,220,20","i dont like it, no thank you,-28,160,20","Old, dull, messy.,-10,120,20","too abstract and confusing,-19,20,20","Too jumbled and disorienting,-13,20,20","Antonio","Colors are drab and cause a sense of blandness,-28,220,20","Gabriel","i dont like it, no thank you,-28,160,20","Alexander","Old, dull, messy.,-10,120,20","0"
"24476","","survey-text","65","360397","0.0-65.0-0.0","A88CZ5CYKL5BJ","","","","{""Q0"":""Interesting, the dots and lines are very different.""}","","","","","","","","","","","","","","","","","","","","","","",""
"3198","","image-slider-response","66","363596","0.0-66.0","A88CZ5CYKL5BJ","","","","","10","","","","","","","","","","","","","","","","","","","","","",""
"null","","image-button-response","67","368611","0.0-67.0","A88CZ5CYKL5BJ","img_art/23.jpg","null","","","","","","","","","","","","","","","","","","","","","","","","",""
"3792","","image-button-response","68","372404","0.0-68.0","A88CZ5CYKL5BJ","img_art/23.jpg","4","","","","","","","","","","","","","","","","","","","","","","","","",""
"2055","","image-button-response","69","374460","0.0-69.0-0.0","A88CZ5CYKL5BJ","img_art/23.jpg","2","","","","","","","","","","","","","","","","","","","","","","","","",""
"575","","image-button-response","70","375036","0.0-70.0-0.0","A88CZ5CYKL5BJ","img_art/23.jpg","1","","","","","","","","","","","","","","","","","","","","","","","","",""
"null","","html-keyboard-response","71","376542","0.0-71.0","A88CZ5CYKL5BJ","<p style=""font-size: 48px;"">+</p>","","","","","null","allTrialResponses","1500","1","4","img_art/23.jpg","10","Interesting, the dots and lines are very different.","Steven,Antonio,Gabriel,Alexander,Taylor,Joshua","NO, I don't get it,-50,160,20","Like the colors and made me feel happy,23,220,20","i think this ones okay,10,160,20","Unicorns flying through a colorful space.,25,120,20","SOME thought was put into this one.,5,200,20","This one is interesting. Looks like people with maybe musical instruments?,11,240,20","Taylor","SOME thought was put into this one.,5,200,20","Gabriel","i think this ones okay,10,160,20","Antonio","Like the colors and made me feel happy,23,220,20","0"
"16979","","survey-text","72","393524","0.0-72.0-0.0","A88CZ5CYKL5BJ","","","","{""Q0"":""An ancient city, but very messy""}","","","","","","","","","","","","","","","","","","","","","","",""
"3039","","image-slider-response","73","396565","0.0-73.0","A88CZ5CYKL5BJ","","","","","-28","","","","","","","","","","","","","","","","","","","","","",""
"null","","image-button-response","74","401577","0.0-74.0","A88CZ5CYKL5BJ","img_art/19.jpg","null","","","","","","","","","","","","","","","","","","","","","","","","",""
"1250","","image-button-response","75","402828","0.0-75.0","A88CZ5CYKL5BJ","img_art/19.jpg","3","","","","","","","","","","","","","","","","","","","","","","","","",""
"1599","","image-button-response","76","404428","0.0-76.0-0.0","A88CZ5CYKL5BJ","img_art/19.jpg","1","","","","","","","","","","","","","","","","","","","","","","","","",""
"2623","","image-button-response","77","407052","0.0-77.0-0.0","A88CZ5CYKL5BJ","img_art/19.jpg","0","","","","","","","","","","","","","","","","","","","","","","","","",""
"null","","html-keyboard-response","78","408564","0.0-78.0","A88CZ5CYKL5BJ","<p style=""font-size: 48px;"">+</p>","","","","","null","allTrialResponses","1500","1","5","img_art/19.jpg","-28","An ancient city, but very messy","Peter,Antonio,Gabriel,Robert,Taylor,Hunter","Looks like hustle and bustle ,,3,320,20","Chaotic. Too much going on in the picture,14,220,20","not sure if i like it or not,1,160,20","A dreary town in the fall.,-4,360,20","Looks like a homeless man and this painting should be too.,-5,200,20","feels free and loose,3,240,20","Robert","A dreary town in the fall.,-4,360,20","Antonio","Chaotic. Too much going on in the picture,14,220,20","Peter","Looks like hustle and bustle ,,3,320,20","0"
"2905","","survey-text","79","411476","0.0-79.0-0.0","A88CZ5CYKL5BJ","","","","{""Q0"":""sky""}","","","","","","","","","","","","","","","","","","","","","","",""
"12975","","survey-text","80","424452","0.0-80.0-0.0","A88CZ5CYKL5BJ","","","","{""Q0"":""Drab, maybe two people talking to each other""}","","","","","","","","","","","","","","","","","","","","","","",""
"2278","","image-slider-response","81","426732","0.0-81.0","A88CZ5CYKL5BJ","","","","","-33","","","","","","","","","","","","","","","","","","","","","",""
"4646","","image-button-response","82","431747","0.0-82.0","A88CZ5CYKL5BJ","img_art/28.jpg","4","","","","","","","","","","","","","","","","","","","","","","","","",""
"664","","image-button-response","83","432412","0.0-83.0","A88CZ5CYKL5BJ","img_art/28.jpg","4","","","","","","","","","","","","","","","","","","","","","","","","",""
"2511","","image-button-response","84","434924","0.0-84.0-0.0","A88CZ5CYKL5BJ","img_art/28.jpg","1","","","","","","","","","","","","","","","","","","","","","","","","",""
"4255","","image-button-response","85","439180","0.0-85.0-0.0","A88CZ5CYKL5BJ","img_art/28.jpg","0","","","","","","","","","","","","","","","","","","","","","","","","",""
"null","","html-keyboard-response","86","440688","0.0-86.0","A88CZ5CYKL5BJ","<p style=""font-size: 48px;"">+</p>","","","","","null","allTrialResponses","1500","1","6","img_art/28.jpg","-33","Drab, maybe two people talking to each other","Peter,Antonio,David,Robert,Lucas,Marcus","The earthy colors smeared around looks like prison food tray,-17,320,20","Colors are pleasing. Made me think of two people kneeling and talking. A curious feeling.,15,220,20","I feel that the image is invoking a sense of negativity.,-15,340,20","The colors are neutral but I see a mother helping her child,31,360,20","This painting is mysterious, it makes me curious.,5,380,20","This reminds me of internal organs.,-10,60,20","Lucas","This painting is mysterious, it makes me curious.,5,380,20","Antonio","Colors are pleasing. Made me think of two people kneeling and talking. A curious feeling.,15,220,20","Peter","The earthy colors smeared around looks like prison food tray,-17,320,20","0"
"26545","","survey-text","87","467237","0.0-87.0-0.0","A88CZ5CYKL5BJ","","","","{""Q0"":""The shiny spot in the middle makes this look like a bad photo of a bad painting""}","","","","","","","","","","","","","","","","","","","","","","",""
"3621","","image-slider-response","88","470860","0.0-88.0","A88CZ5CYKL5BJ","","","","","-21","","","","","","","","","","","","","","","","","","","","","",""
"4631","","image-button-response","89","475868","0.0-89.0","A88CZ5CYKL5BJ","img_art/29.jpg","1","","","","","","","","","","","","","","","","","","","","","","","","",""
"1583","","image-button-response","90","477453","0.0-90.0","A88CZ5CYKL5BJ","img_art/29.jpg","1","","","","","","","","","","","","","","","","","","","","","","","","",""
"4207","","image-button-response","91","481661","0.0-91.0-0.0","A88CZ5CYKL5BJ","img_art/29.jpg","2","","","","","","","","","","","","","","","","","","","","","","","","",""
"1478","","image-button-response","92","483141","0.0-92.0-0.0","A88CZ5CYKL5BJ","img_art/29.jpg","5","","","","","","","","","","","","","","","","","","","","","","","","",""
"null","","html-keyboard-response","93","484643","0.0-93.0","A88CZ5CYKL5BJ","<p style=""font-size: 48px;"">+</p>","","","","","null","allTrialResponses","1500","1","7","img_art/29.jpg","-21","The shiny spot in the middle makes this look like a bad photo of a bad painting","Peter,Antonio,James,Bryce,Lucas,Devin","Looks like a jail cell,-15,320,20","Depressing and with that big red x on it just makes me not like it.,-33,220,20","It has a red X on there, and x's mean bad in my perspective,-29,380,20","Its kinda scary,-35,20,20","Looks kinda scary.,25,380,20","Looks a bit messy,-13,380,20","Antonio","Depressing and with that big red x on it just makes me not like it.,-33,220,20","James","It has a red X on there, and x's mean bad in my perspective,-29,380,20","Devin","Looks a bit messy,-13,380,20","0"
"13572","","survey-text","94","498220","0.0-94.0-0.0","A88CZ5CYKL5BJ","","","","{""Q0"":""A very square cave, or maybe a TV.""}","","","","","","","","","","","","","","","","","","","","","","",""
"1992","","image-slider-response","95","500213","0.0-95.0","A88CZ5CYKL5BJ","","","","","-28","","","","","","","","","","","","","","","","","","","","","",""
"null","","image-button-response","96","505227","0.0-96.0","A88CZ5CYKL5BJ","img_art/9.jpg","null","","","","","","","","","","","","","","","","","","","","","","","","",""
"2552","","image-button-response","97","507780","0.0-97.0","A88CZ5CYKL5BJ","img_art/9.jpg","3","","","","","","","","","","","","","","","","","","","","","","","","",""
"959","","image-button-response","98","508741","0.0-98.0-0.0","A88CZ5CYKL5BJ","img_art/9.jpg","0","","","","","","","","","","","","","","","","","","","","","","","","",""
"2630","","image-button-response","99","511373","0.0-99.0-0.0","A88CZ5CYKL5BJ","img_art/9.jpg","1","","","","","","","","","","","","","","","","","","","","","","","","",""
"null","","html-keyboard-response","100","511878","0.0-100.0","A88CZ5CYKL5BJ","<p style=""font-size: 48px;"">+</p>","","","","","null","allTrialResponses","500","1","8","img_art/9.jpg","-28","A very square cave, or maybe a TV.","Blake,Antonio,James,Brett,Jeremy,Devin","looks like a woman in bed and its ok,8,280,20","Stirs up emotions of watching someone sleep which is relaxing,11,220,20","This has some of my favorite colors, and I like it,21,380,20","Peaceful dreaming,40,360,20","I feel this incites anger,-16,60,20","I really like the colors and details.,8,380,20","Brett","Peaceful dreaming,40,360,20","Blake","looks like a woman in bed and its ok,8,280,20","Antonio","Stirs up emotions of watching someone sleep which is relaxing,11,220,20","0"
"14473","","survey-text","101","526357","0.0-101.0-0.0","A88CZ5CYKL5BJ","","","","{""Q0"":""The splatters don't match the columns of color""}","","","","","","","","","","","","","","","","","","","","","","",""
"3345","","image-slider-response","102","529703","0.0-102.0","A88CZ5CYKL5BJ","","","","","-19","","","","","","","","","","","","","","","","","","","","","",""
"4851","","image-button-response","103","534709","0.0-103.0","A88CZ5CYKL5BJ","img_art/13.jpg","2","","","","","","","","","","","","","","","","","","","","","","","","",""
"1590","","image-button-response","104","536300","0.0-104.0","A88CZ5CYKL5BJ","img_art/13.jpg","2","","","","","","","","","","","","","","","","","","","","","","","","",""
"1263","","image-button-response","105","537564","0.0-105.0-0.0","A88CZ5CYKL5BJ","img_art/13.jpg","0","","","","","","","","","","","","","","","","","","","","","","","","",""
"1366","","image-button-response","106","538932","0.0-106.0-0.0","A88CZ5CYKL5BJ","img_art/13.jpg","0","","","","","","","","","","","","","","","","","","","","","","","","",""
"3915","","image-button-response","107","545733","0.0-106.1-0.1","A88CZ5CYKL5BJ","img_art/13.jpg","1","","","","","","","","","","","","","","","","","","","","","","","","",""
"null","","html-keyboard-response","108","546737","0.0-107.0","A88CZ5CYKL5BJ","<p style=""font-size: 48px;"">+</p>","","","","","null","allTrialResponses","1000","1","9","img_art/13.jpg","-19","The splatters don't match the columns of color","Blake,Antonio,Grant,Brett,Anthony,Benjamin","warm splash of salt water from ocean,16,280,20","Pretty but didnt cause a reaction,33,220,20","This elicits no reaction in me.,0,200,20","Very abstract and soothing,40,360,20","I like the color scheme,41,200,20","Reminds me of rain running down a window.,35,260,20","Grant","This elicits no reaction in me.,0,200,20","Blake","warm splash of salt water from ocean,16,280,20","Antonio","Pretty but didnt cause a reaction,33,220,20","2"
"14726","","survey-text","109","561468","0.0-108.0-0.0","A88CZ5CYKL5BJ","","","","{""Q0"":""A warmness full of mystery""}","","","","","","","","","","","","","","","","","","","","","","",""
"1912","","image-slider-response","110","563380","0.0-109.0","A88CZ5CYKL5BJ","","","","","-10","","","","","","","","","","","","","","","","","","","","","",""
"null","","image-button-response","111","568391","0.0-110.0","A88CZ5CYKL5BJ","img_art/1.jpg","null","","","","","","","","","","","","","","","","","","","","","","","","",""
"3461","","image-button-response","112","571852","0.0-111.0","A88CZ5CYKL5BJ","img_art/1.jpg","5","","","","","","","","","","","","","","","","","","","","","","","","",""
"2607","","image-button-response","113","574461","0.0-112.0-0.0","A88CZ5CYKL5BJ","img_art/1.jpg","2","","","","","","","","","","","","","","","","","","","","","","","","",""
"2014","","image-button-response","114","576476","0.0-113.0-0.0","A88CZ5CYKL5BJ","img_art/1.jpg","0","","","","","","","","","","","","","","","","","","","","","","","","",""
"null","","html-keyboard-response","115","577984","0.0-114.0","A88CZ5CYKL5BJ","<p style=""font-size: 48px;"">+</p>","","","","","null","allTrialResponses","1500","1","10","img_art/1.jpg","-10","A warmness full of mystery","Blake,Antonio,Grant,Seth,Jorge,Brian","colors that are fairly warm. its ok,8,280,20","Felt nothing in response to this painting,3,220,20","The use of reds, blues, and yellows together reminds me of fire. Very interesting to look at.,40,200,20","Might be a person rowing their boat across the lake. Not sure if the background is trees or not.,12,60,20","fishing on the lake surrounded by trees,42,180,20","I don't feel like much is happening in this painting,-25,380,20","Brian","I don't feel like much is happening in this painting,-25,380,20","Grant","The use of reds, blues, and yellows together reminds me of fire. Very interesting to look at.,40,200,20","Blake","colors that are fairly warm. its ok,8,280,20","2"
"3315","","survey-text","116","581308","0.0-115.0-0.0","A88CZ5CYKL5BJ","","","","{""Q0"":""our""}","","","","","","","","","","","","","","","","","","","","","","",""
"24367","","survey-text","117","605676","0.0-116.0-0.0","A88CZ5CYKL5BJ","","","","{""Q0"":""Looking up at a cliff, there's a mysterious figure on top""}","","","","","","","","","","","","","","","","","","","","","","",""
"2415","","image-slider-response","118","608093","0.0-117.0","A88CZ5CYKL5BJ","","","","","7","","","","","","","","","","","","","","","","","","","","","",""
"null","","image-button-response","119","613104","0.0-118.0","A88CZ5CYKL5BJ","img_art/21.jpg","null","","","","","","","","","","","","","","","","","","","","","","","","",""
"1244","","image-button-response","120","614349","0.0-119.0","A88CZ5CYKL5BJ","img_art/21.jpg","2","","","","","","","","","","","","","","","","","","","","","","","","",""
"734","","image-button-response","121","615085","0.0-120.0-0.0","A88CZ5CYKL5BJ","img_art/21.jpg","1","","","","","","","","","","","","","","","","","","","","","","","","",""
"2998","","image-button-response","122","618085","0.0-121.0-0.0","A88CZ5CYKL5BJ","img_art/21.jpg","5","","","","","","","","","","","","","","","","","","","","","","","","",""
"null","","html-keyboard-response","123","618590","0.0-122.0","A88CZ5CYKL5BJ","<p style=""font-size: 48px;"">+</p>","","","","","null","allTrialResponses","500","1","11","img_art/21.jpg","7","Looking up at a cliff, there's a mysterious figure on top","Blake,Jesse,Grant,Andrew,Eric,Brian","ocean and rocks at the beach,11,280,20","I dont like how nothing is defined and the colors dont work for me,-5,80,20","The colors make me think of a perilous scene at sea, and are pretty interesting.,15,200,20","I love the contrasting tones between the two sides,36,160,20","I love everything about this piece.,50,100,20","there's not enough fine detail in this one,-27,380,20","Grant","The colors make me think of a perilous scene at sea, and are pretty interesting.,15,200,20","Jesse","I dont like how nothing is defined and the colors dont work for me,-5,80,20","Brian","there's not enough fine detail in this one,-27,380,20","2"
"19986","","survey-text","124","638580","0.0-123.0-0.0","A88CZ5CYKL5BJ","","","","{""Q0"":""Looks very easy to make, seems like random colors""}","","","","","","","","","","","","","","","","","","","","","","",""
"2574","","image-slider-response","125","641156","0.0-124.0","A88CZ5CYKL5BJ","","","","","-33","","","","","","","","","","","","","","","","","","","","","",""
"null","","image-button-response","126","646163","0.0-125.0","A88CZ5CYKL5BJ","img_art/30.jpg","null","","","","","","","","","","","","","","","","","","","","","","","","",""
"2512","","image-button-response","127","648677","0.0-126.0","A88CZ5CYKL5BJ","img_art/30.jpg","4","","","","","","","","","","","","","","","","","","","","","","","","",""
"5846","","image-button-response","128","654524","0.0-127.0-0.0","A88CZ5CYKL5BJ","img_art/30.jpg","5","","","","","","","","","","","","","","","","","","","","","","","","",""
"1855","","image-button-response","129","656380","0.0-128.0-0.0","A88CZ5CYKL5BJ","img_art/30.jpg","3","","","","","","","","","","","","","","","","","","","","","","","","",""
"null","","html-keyboard-response","130","657893","0.0-129.0","A88CZ5CYKL5BJ","<p style=""font-size: 48px;"">+</p>","","","","","null","allTrialResponses","1500","1","12","img_art/30.jpg","-33","Looks very easy to make, seems like random colors","Jesus,Jesse,Grant,Tyler,Trevor,Brian","I like the forefront design.,10,100,20","I do like the multi-dimensional aspect of this piece,10,80,20","The brush strokes are appealing, and make me want to look at this longer.,11,200,20","Interesting brushstroke work, but not particularly memorable.,21,320,20","it looks like some thing I could make it my garage,-18,280,20","this is probably part of a neat series, but the abstraction doesn't speak to me,-17,380,20","Trevor","it looks like some thing I could make it my garage,-18,280,20","Brian","this is probably part of a neat series, but the abstraction doesn't speak to me,-17,380,20","Tyler","Interesting brushstroke work, but not particularly memorable.,21,320,20","2"
"22578","","survey-text","131","680476","0.0-130.0-0.0","A88CZ5CYKL5BJ","","","","{""Q0"":""Little cells, rotated in random ways, some have people in them""}","","","","","","","","","","","","","","","","","","","","","","",""
"2854","","image-slider-response","132","683333","0.0-131.0","A88CZ5CYKL5BJ","","","","","19","","","","","","","","","","","","","","","","","","","","","",""
"null","","image-button-response","133","688335","0.0-132.0","A88CZ5CYKL5BJ","img_art/12.jpg","null","","","","","","","","","","","","","","","","","","","","","","","","",""
"1325","","image-button-response","134","689660","0.0-133.0","A88CZ5CYKL5BJ","img_art/12.jpg","2","","","","","","","","","","","","","","","","","","","","","","","","",""
"3487","","image-button-response","135","693150","0.0-134.0-0.0","A88CZ5CYKL5BJ","img_art/12.jpg","3","","","","","","","","","","","","","","","","","","","","","","","","",""
"8014","","image-button-response","136","701164","0.0-135.0-0.0","A88CZ5CYKL5BJ","img_art/12.jpg","0","","","","","","","","","","","","","","","","","","","","","","","","",""
"null","","html-keyboard-response","137","702677","0.0-136.0","A88CZ5CYKL5BJ","<p style=""font-size: 48px;"">+</p>","","","","","null","allTrialResponses","1500","1","13","img_art/12.jpg","19","Little cells, rotated in random ways, some have people in them","Jack,Adam,Paul,Tyler,Trevor,Brian","interesting, but feels like someone cut up a picture and pasted it together wrong. want to see the original,15,320,20","Minimalist colors and shapes.,-5,40,20","Reminds me of collages we made in elementary school. I like the contrast of the colors from top to bottom,43,300,20","Different enough to be memorable. The gradient of hues is appealing and appeasing.,32,320,20","way too 90s/80s for me,-9,280,20","this is pretty, but I wouldn't hang it on my wall.,15,380,20","Paul","Reminds me of collages we made in elementary school. I like the contrast of the colors from top to bottom,43,300,20","Tyler","Different enough to be memorable. The gradient of hues is appealing and appeasing.,32,320,20","Jack","interesting, but feels like someone cut up a picture and pasted it together wrong. want to see the original,15,320,20","2"
"19000","","survey-text","138","721685","0.0-137.0-0.0","A88CZ5CYKL5BJ","","","","{""Q0"":""Candle smoke, but weirdly loopy""}","","","","","","","","","","","","","","","","","","","","","","",""
"3271","","image-slider-response","139","724957","0.0-138.0","A88CZ5CYKL5BJ","","","","","-18","","","","","","","","","","","","","","","","","","","","","",""
"3695","","image-button-response","140","729963","0.0-139.0","A88CZ5CYKL5BJ","img_art/4.jpg","1","","","","","","","","","","","","","","","","","","","","","","","","",""
"497","","image-button-response","141","730461","0.0-140.0","A88CZ5CYKL5BJ","img_art/4.jpg","1","","","","","","","","","","","","","","","","","","","","","","","","",""
"4919","","image-button-response","142","735381","0.0-141.0-0.0","A88CZ5CYKL5BJ","img_art/4.jpg","3","","","","","","","","","","","","","","","","","","","","","","","","",""
"2535","","image-button-response","143","737917","0.0-142.0-0.0","A88CZ5CYKL5BJ","img_art/4.jpg","5","","","","","","","","","","","","","","","","","","","","","","","","",""
"null","","html-keyboard-response","144","739421","0.0-143.0","A88CZ5CYKL5BJ","<p style=""font-size: 48px;"">+</p>","","","","","null","allTrialResponses","1500","1","14","img_art/4.jpg","-18","Candle smoke, but weirdly loopy","Jack,Alejandro,Paul,Tyler,Sean,Kyle","creepy, looks like a deformed hand, but the background is pretty,5,320,20","Looks like finger nails from the Guinness world record book.,-30,80,20","The dark yellow color makes me think of mustard, which I dislike,-27,300,20","This is what makes suburban dads say, ""my 4-year-old can do that."",-49,320,20","dont know what im looking at,1,40,20","It's quite meh to me,0,340,20","Alejandro","Looks like finger nails from the Guinness world record book.,-30,80,20","Tyler","This is what makes suburban dads say, ""my 4-year-old can do that."",-49,320,20","Kyle","It's quite meh to me,0,340,20","2"
"21739","","survey-text","145","761165","0.0-144.0-0.0","A88CZ5CYKL5BJ","","","","{""Q0"":""The bear looks shocked, is that a monster on the right?""}","","","","","","","","","","","","","","","","","","","","","","",""
"5415","","image-slider-response","146","766580","0.0-145.0","A88CZ5CYKL5BJ","","","","","-31","","","","","","","","","","","","","","","","","","","","","",""
"null","","image-button-response","147","771593","0.0-146.0","A88CZ5CYKL5BJ","img_art/16.jpg","null","","","","","","","","","","","","","","","","","","","","","","","","",""
"1659","","image-button-response","148","773253","0.0-147.0","A88CZ5CYKL5BJ","img_art/16.jpg","2","","","","","","","","","","","","","","","","","","","","","","","","",""
"1766","","image-button-response","149","775021","0.0-148.0-0.0","A88CZ5CYKL5BJ","img_art/16.jpg","1","","","","","","","","","","","","","","","","","","","","","","","","",""
"3765","","image-button-response","150","778789","0.0-149.0-0.0","A88CZ5CYKL5BJ","img_art/16.jpg","4","","","","","","","","","","","","","","","","","","","","","","","","",""
"null","","html-keyboard-response","151","779290","0.0-150.0","A88CZ5CYKL5BJ","<p style=""font-size: 48px;"">+</p>","","","","","null","allTrialResponses","500","1","15","img_art/16.jpg","-31","The bear looks shocked, is that a monster on the right?","Spencer,Alejandro,Luis,Tyler,Richard,Kyle","Know it is a piece relating to children and gun violence. Sad,-30,120,20","Garble and nonsense,-50,80,20","Kind of an edgy teenager vibe,32,400,20","Pop art, Tate Modern horse dung.,-50,320,20","nonsense art, not really art,-44,340,20","I like it because it's quite different from the rest,23,340,20","Luis","Kind of an edgy teenager vibe,32,400,20","Alejandro","Garble and nonsense,-50,80,20","Richard","nonsense art, not really art,-44,340,20","2"
"4023","","survey-text","152","783325","0.0-151.0-0.0","A88CZ5CYKL5BJ","","","","{""Q0"":""course""}","","","","","","","","","","","","","","","","","","","","","","",""
"19830","","survey-text","153","803157","0.0-152.0-0.0","A88CZ5CYKL5BJ","","","","{""Q0"":""Something about it looks powerful""}","","","","","","","","","","","","","","","","","","","","","","",""
"4198","","image-slider-response","154","807356","0.0-153.0","A88CZ5CYKL5BJ","","","","","31","","","","","","","","","","","","","","","","","","","","","",""
"null","","image-button-response","155","812371","0.0-154.0","A88CZ5CYKL5BJ","img_art/18.jpg","null","","","","","","","","","","","","","","","","","","","","","","","","",""
"10784","","image-button-response","156","823156","0.0-155.0","A88CZ5CYKL5BJ","img_art/18.jpg","0","","","","","","","","","","","","","","","","","","","","","","","","",""
"6166","","image-button-response","157","829326","0.0-156.0-0.0","A88CZ5CYKL5BJ","img_art/18.jpg","4","","","","","","","","","","","","","","","","","","","","","","","","",""
"3910","","image-button-response","158","833237","0.0-157.0-0.0","A88CZ5CYKL5BJ","img_art/18.jpg","2","","","","","","","","","","","","","","","","","","","","","","","","",""
"null","","html-keyboard-response","159","834248","0.0-158.0","A88CZ5CYKL5BJ","<p style=""font-size: 48px;"">+</p>","","","","","null","allTrialResponses","1000","1","16","img_art/18.jpg","31","Something about it looks powerful","Tristan,Alejandro,Luis,Logan,Richard,Jacob","So much going on. Frightening and tumultous, brave and inspiring. I'd like to spend the rest of my life interpreting it.,30,300,20","I love this because abstractly depicts the apocalypse. The white horse and its rider as Death, described in religious texts and pop culture. ""He rode a pale horse and his name was death."",50,80,20","I love the battle vibe in this,50,400,20","Can't tell if I love it or hate it. That response warranted more than neutral so I gave it 20 but not sure,21,360,20","interesting piece, I like the horse and people inserted in spots,22,340,20","I think this looks pretty cool, I can see what's kind of going on here.,22,340,20","Tristan","So much going on. Frightening and tumultous, brave and inspiring. I'd like to spend the rest of my life interpreting it.,30,300,20","Richard","interesting piece, I like the horse and people inserted in spots,22,340,20","Luis","I love the battle vibe in this,50,400,20","2"
"15990","","survey-text","160","850244","0.0-159.0-0.0","A88CZ5CYKL5BJ","","","","{""Q0"":""Something a child would scribble on the wall""}","","","","","","","","","","","","","","","","","","","","","","",""
"2247","","image-slider-response","161","852493","0.0-160.0","A88CZ5CYKL5BJ","","","","","-31","","","","","","","","","","","","","","","","","","","","","",""
"4383","","image-button-response","162","857497","0.0-161.0","A88CZ5CYKL5BJ","img_art/3.jpg","2","","","","","","","","","","","","","","","","","","","","","","","","",""
"595","","image-button-response","163","858093","0.0-162.0","A88CZ5CYKL5BJ","img_art/3.jpg","2","","","","","","","","","","","","","","","","","","","","","","","","",""
"2479","","image-button-response","164","860573","0.0-163.0-0.0","A88CZ5CYKL5BJ","img_art/3.jpg","3","","","","","","","","","","","","","","","","","","","","","","","","",""
"1967","","image-button-response","165","862541","0.0-164.0-0.0","A88CZ5CYKL5BJ","img_art/3.jpg","4","","","","","","","","","","","","","","","","","","","","","","","","",""
"null","","html-keyboard-response","166","863045","0.0-165.0","A88CZ5CYKL5BJ","<p style=""font-size: 48px;"">+</p>","","","","","null","allTrialResponses","500","1","17","img_art/3.jpg","-31","Something a child would scribble on the wall","Tristan,Shawn,Luis,Justin,Richard,Zachary","i like the colors particulairly the contrast of foreground to background. Exciting and thoughtful.,10,300,20","Powerful lines but seems incomplete,-10,100,20","I dont really feel anything from this, i cant see or understand any of it,-20,400,20","I don't care for art that looks like it was just scribbled.,-19,280,20","7th grade art, not much effort to do this.,-39,340,20","Too red and chaotic. Not calming.,-41,400,20","Luis","I dont really feel anything from this, i cant see or understand any of it,-20,400,20","Justin","I don't care for art that looks like it was just scribbled.,-19,280,20","Richard","7th grade art, not much effort to do this.,-39,340,20","2"
"21956","","survey-text","167","885005","0.0-166.0-0.0","A88CZ5CYKL5BJ","","","","{""Q0"":""A city scene with some trees, relaxing but weird colors""}","","","","","","","","","","","","","","","","","","","","","","",""
"2631","","image-slider-response","168","887637","0.0-167.0","A88CZ5CYKL5BJ","","","","","-12","","","","","","","","","","","","","","","","","","","","","",""
"null","","image-button-response","169","892647","0.0-168.0","A88CZ5CYKL5BJ","img_art/26.jpg","null","","","","","","","","","","","","","","","","","","","","","","","","",""
"2172","","image-button-response","170","894821","0.0-169.0","A88CZ5CYKL5BJ","img_art/26.jpg","1","","","","","","","","","","","","","","","","","","","","","","","","",""
"1942","","image-button-response","171","896764","0.0-170.0-0.0","A88CZ5CYKL5BJ","img_art/26.jpg","3","","","","","","","","","","","","","","","","","","","","","","","","",""
"2143","","image-button-response","172","898909","0.0-171.0-0.0","A88CZ5CYKL5BJ","img_art/26.jpg","5","","","","","","","","","","","","","","","","","","","","","","","","",""
"null","","html-keyboard-response","173","899919","0.0-172.0","A88CZ5CYKL5BJ","<p style=""font-size: 48px;"">+</p>","","","","","null","allTrialResponses","1000","1","18","img_art/26.jpg","-12","A city scene with some trees, relaxing but weird colors","Christopher,Jose,Luis,Justin,Richard,Corey","too hard to figure out if it's meant to be actual objects or impressions,-36,160,20","This style of objects that are supposed to be something but then are blurry is interesting.,38,200,20","I dont see any expression,-29,400,20","It looks boring and too rough.,-9,280,20","subtle use of colors, city street view?,8,340,20","its boring and i dont like the color palette,3,260,20","Jose","This style of objects that are supposed to be something but then are blurry is interesting.,38,200,20","Justin","It looks boring and too rough.,-9,280,20","Corey","its boring and i dont like the color palette,3,260,20","2"
"28239","","survey-text","174","928164","0.0-173.0-0.0","A88CZ5CYKL5BJ","","","","{""Q0"":""Almost a city scene and its reflection in the water, but the black stick figures ruin it""}","","","","","","","","","","","","","","","","","","","","","","",""
"2445","","image-slider-response","175","930612","0.0-174.0","A88CZ5CYKL5BJ","","","","","-27","","","","","","","","","","","","","","","","","","","","","",""
"null","","image-button-response","176","935629","0.0-175.0","A88CZ5CYKL5BJ","img_art/22.jpg","null","","","","","","","","","","","","","","","","","","","","","","","","",""
"1239","","image-button-response","177","936868","0.0-176.0","A88CZ5CYKL5BJ","img_art/22.jpg","2","","","","","","","","","","","","","","","","","","","","","","","","",""
"3791","","image-button-response","178","940660","0.0-177.0-0.0","A88CZ5CYKL5BJ","img_art/22.jpg","4","","","","","","","","","","","","","","","","","","","","","","","","",""
"687","","image-button-response","179","941348","0.0-178.0-0.0","A88CZ5CYKL5BJ","img_art/22.jpg","3","","","","","","","","","","","","","","","","","","","","","","","","",""
"null","","html-keyboard-response","180","941852","0.0-179.0","A88CZ5CYKL5BJ","<p style=""font-size: 48px;"">+</p>","","","","","null","allTrialResponses","500","1","19","img_art/22.jpg","-27","Almost a city scene and its reflection in the water, but the black stick figures ruin it","Thomas,Jose,Derek,Justin,Timothy,Corey","Beautiful. I love the color contrast and gradients.,50,220,20","Cool squares but what's the circle?,38,200,20","Really pretty. Love the colors.,30,360,20","It reminds me of sunsets and dusks.,22,280,20","This painting has a very nostalgic feel,20,240,20","i feel like this is a a basic art piece that a school would have on the wall,-24,260,20","Derek","Really pretty. Love the colors.,30,360,20","Timothy","This painting has a very nostalgic feel,20,240,20","Justin","It reminds me of sunsets and dusks.,22,280,20","2"
"20067","","survey-text","181","961924","0.0-180.0-0.0","A88CZ5CYKL5BJ","","","","{""Q0"":""A headless crow on a giant peach, looks unfinished""}","","","","","","","","","","","","","","","","","","","","","","",""
"3119","","image-slider-response","182","965044","0.0-181.0","A88CZ5CYKL5BJ","","","","","-22","","","","","","","","","","","","","","","","","","","","","",""
"4375","","image-button-response","183","970053","0.0-182.0","A88CZ5CYKL5BJ","img_art/6.jpg","0","","","","","","","","","","","","","","","","","","","","","","","","",""
"471","","image-button-response","184","970524","0.0-183.0","A88CZ5CYKL5BJ","img_art/6.jpg","0","","","","","","","","","","","","","","","","","","","","","","","","",""
"2272","","image-button-response","185","972797","0.0-184.0-0.0","A88CZ5CYKL5BJ","img_art/6.jpg","3","","","","","","","","","","","","","","","","","","","","","","","","",""
"3743","","image-button-response","186","976541","0.0-185.0-0.0","A88CZ5CYKL5BJ","img_art/6.jpg","2","","","","","","","","","","","","","","","","","","","","","","","","",""
"null","","html-keyboard-response","187","978046","0.0-186.0","A88CZ5CYKL5BJ","<p style=""font-size: 48px;"">+</p>","","","","","null","allTrialResponses","1500","1","20","img_art/6.jpg","-22","A headless crow on a giant peach, looks unfinished","Matthew,Malik,Derek,Justin,Timothy,Mitchell","A lot of people will lvoe this, I do not.,1,120,20","Lonesome in nature,13,40,20","Too basic for me,-20,360,20","It's alright. I imagined the peach from James and the Giant Peach.,1,280,20","I dont feel much of a responce or connection to this one,0,240,20","Looking, searching at the same time being content.,30,180,20","Matthew","A lot of people will lvoe this, I do not.,1,120,20","Justin","It's alright. I imagined the peach from James and the Giant Peach.,1,280,20","Derek","Too basic for me,-20,360,20","2"
"2339","","survey-text","188","980397","0.0-187.0-0.0","A88CZ5CYKL5BJ","","","","{""Q0"":""we""}","","","","","","","","","","","","","","","","","","","","","","",""
"20007","","survey-text","189","1000405","0.0-188.0-0.0","A88CZ5CYKL5BJ","","","","{""Q0"":""A river and waterfalls, lush colors, has energy""}","","","","","","","","","","","","","","","","","","","","","","",""
"2269","","image-slider-response","190","1002677","0.0-189.0","A88CZ5CYKL5BJ","","","","","6","","","","","","","","","","","","","","","","","","","","","",""
"null","","image-button-response","191","1007688","0.0-190.0","A88CZ5CYKL5BJ","img_art/24.jpg","null","","","","","","","","","","","","","","","","","","","","","","","","",""
"483","","image-button-response","192","1008173","0.0-191.0","A88CZ5CYKL5BJ","img_art/24.jpg","1","","","","","","","","","","","","","","","","","","","","","","","","",""
"2174","","image-button-response","193","1010348","0.0-192.0-0.0","A88CZ5CYKL5BJ","img_art/24.jpg","4","","","","","","","","","","","","","","","","","","","","","","","","",""
"3168","","image-button-response","194","1013517","0.0-193.0-0.0","A88CZ5CYKL5BJ","img_art/24.jpg","0","","","","","","","","","","","","","","","","","","","","","","","","",""
"null","","html-keyboard-response","195","1015033","0.0-194.0","A88CZ5CYKL5BJ","<p style=""font-size: 48px;"">+</p>","","","","","null","allTrialResponses","1500","1","21","img_art/24.jpg","6","A river and waterfalls, lush colors, has energy","Matthew,Jonathan,Derek,Justin,Tanner,Miguel","NOt quite Bob Ross, but still good.,30,120,20","The colors and brush strokes make it feel adventurous,20,140,20","I absolutely adore this painting. The colors, designs, everything. It's phenomenal,50,360,20","Nice colors, but doesn't do much for me.,1,280,20","calm, nature, safe, happy place,,50,180,20","Very cute amateur piece.,18,160,20","Jonathan","The colors and brush strokes make it feel adventurous,20,140,20","Tanner","calm, nature, safe, happy place,,50,180,20","Matthew","NOt quite Bob Ross, but still good.,30,120,20","2"
"19715","","survey-text","196","1034757","0.0-195.0-0.0","A88CZ5CYKL5BJ","","","","{""Q0"":""Chaotic power line, bending space, feels dangerous""}","","","","","","","","","","","","","","","","","","","","","","",""
"3639","","image-slider-response","197","1038397","0.0-196.0","A88CZ5CYKL5BJ","","","","","19","","","","","","","","","","","","","","","","","","","","","",""
"null","","image-button-response","198","1043411","0.0-197.0","A88CZ5CYKL5BJ","img_art/11.jpg","null","","","","","","","","","","","","","","","","","","","","","","","","",""
"5832","","image-button-response","199","1049245","0.0-198.0","A88CZ5CYKL5BJ","img_art/11.jpg","5","","","","","","","","","","","","","","","","","","","","","","","","",""
"2526","","image-button-response","200","1051773","0.0-199.0-0.0","A88CZ5CYKL5BJ","img_art/11.jpg","0","","","","","","","","","","","","","","","","","","","","","","","","",""
"1350","","image-button-response","201","1053125","0.0-200.0-0.0","A88CZ5CYKL5BJ","img_art/11.jpg","1","","","","","","","","","","","","","","","","","","","","","","","","",""
"null","","html-keyboard-response","202","1054639","0.0-201.0","A88CZ5CYKL5BJ","<p style=""font-size: 48px;"">+</p>","","","","","null","allTrialResponses","1500","1","22","img_art/11.jpg","19","Chaotic power line, bending space, feels dangerous","Matthew,Jonathan,Adrian,Elijah,Tanner,Juan","Dark but bright, city but ocean, musical scales.,50,120,20","Those vertical strokes are to die for and I love these colors !!!,50,140,20","Not a fan of the colors but it looks interesting.,-31,60,20","Very cool, makes me feel good,39,80,20","small town, friendly. calm,35,180,20","It makes me think of a rainy day and I like the colors. Also like the wavy lines.,22,260,20","Juan","It makes me think of a rainy day and I like the colors. Also like the wavy lines.,22,260,20","Matthew","Dark but bright, city but ocean, musical scales.,50,120,20","Jonathan","Those vertical strokes are to die for and I love these colors !!!,50,140,20","2"
"14567","","survey-text","203","1069213","0.0-202.0-0.0","A88CZ5CYKL5BJ","","","","{""Q0"":""A tree in a park, calming""}","","","","","","","","","","","","","","","","","","","","","","",""
"1776","","image-slider-response","204","1070989","0.0-203.0","A88CZ5CYKL5BJ","","","","","-5","","","","","","","","","","","","","","","","","","","","","",""
"4574","","image-button-response","205","1075993","0.0-204.0","A88CZ5CYKL5BJ","img_art/14.jpg","0","","","","","","","","","","","","","","","","","","","","","","","","",""
"594","","image-button-response","206","1076590","0.0-205.0","A88CZ5CYKL5BJ","img_art/14.jpg","0","","","","","","","","","","","","","","","","","","","","","","","","",""
"1429","","image-button-response","207","1078020","0.0-206.0-0.0","A88CZ5CYKL5BJ","img_art/14.jpg","5","","","","","","","","","","","","","","","","","","","","","","","","",""
"983","","image-button-response","208","1079004","0.0-207.0-0.0","A88CZ5CYKL5BJ","img_art/14.jpg","2","","","","","","","","","","","","","","","","","","","","","","","","",""
"null","","html-keyboard-response","209","1079515","0.0-208.0","A88CZ5CYKL5BJ","<p style=""font-size: 48px;"">+</p>","","","","","null","allTrialResponses","500","1","23","img_art/14.jpg","-5","A tree in a park, calming","Matthew,Jonathan,Caleb,Mark,Shane,Juan","I like the color tone, it's kind of disturbing.,35,120,20","This reminds me of the Lion King somehow! Feels inspiring,30,140,20","Again. This is pretty neutral, leaning dislike.,-18,40,20","Cute little plant.,15,80,20","Feels like a camp fire among friends,22,80,20","I don't like the colors, but I espeically don't like all the negative space.,-20,260,20","Matthew","I like the color tone, it's kind of disturbing.,35,120,20","Juan","I don't like the colors, but I espeically don't like all the negative space.,-20,260,20","Caleb","Again. This is pretty neutral, leaning dislike.,-18,40,20","2"
"15147","","survey-text","210","1094668","0.0-209.0-0.0","A88CZ5CYKL5BJ","","","","{""Q0"":""An out of control fern, a sense of danger""}","","","","","","","","","","","","","","","","","","","","","","",""
"2383","","image-slider-response","211","1097052","0.0-210.0","A88CZ5CYKL5BJ","","","","","-6","","","","","","","","","","","","","","","","","","","","","",""
"null","","image-button-response","212","1102059","0.0-211.0","A88CZ5CYKL5BJ","img_art/17.jpg","null","","","","","","","","","","","","","","","","","","","","","","","","",""
"616","","image-button-response","213","1102677","0.0-212.0","A88CZ5CYKL5BJ","img_art/17.jpg","1","","","","","","","","","","","","","","","","","","","","","","","","",""
"4087","","image-button-response","214","1106766","0.0-213.0-0.0","A88CZ5CYKL5BJ","img_art/17.jpg","4","","","","","","","","","","","","","","","","","","","","","","","","",""
"885","","image-button-response","215","1107653","0.0-214.0-0.0","A88CZ5CYKL5BJ","img_art/17.jpg","5","","","","","","","","","","","","","","","","","","","","","","","","",""
"null","","html-keyboard-response","216","1108668","0.0-215.0","A88CZ5CYKL5BJ","<p style=""font-size: 48px;"">+</p>","","","","","null","allTrialResponses","1000","1","24","img_art/17.jpg","-6","An out of control fern, a sense of danger","Matthew,Charles,Caleb,Dakota,Austin,Juan","taste the rainbow, feel the flavor.,23,120,20","I like the trees, but the doors less so,19,100,20","Not even abstract to me, very clear meaning.,44,40,20","home - reminds me of fond memories of the Barnes Museum courtyard (looks just like it),30,280,20","Has a unique vibe to it,50,240,20","I want to know more about this picture and where it leads if you could get inside it.,27,260,20","Charles","I like the trees, but the doors less so,19,100,20","Austin","Has a unique vibe to it,50,240,20","Juan","I want to know more about this picture and where it leads if you could get inside it.,27,260,20","2"
"12024","","survey-text","217","1120701","0.0-216.0-0.0","A88CZ5CYKL5BJ","","","","{""Q0"":""A train crash, ruin and smoke""}","","","","","","","","","","","","","","","","","","","","","","",""
"2302","","image-slider-response","218","1123004","0.0-217.0","A88CZ5CYKL5BJ","","","","","3","","","","","","","","","","","","","","","","","","","","","",""
"null","","image-button-response","219","1128007","0.0-218.0","A88CZ5CYKL5BJ","img_art/10.jpg","null","","","","","","","","","","","","","","","","","","","","","","","","",""
"2622","","image-button-response","220","1130629","0.0-219.0","A88CZ5CYKL5BJ","img_art/10.jpg","5","","","","","","","","","","","","","","","","","","","","","","","","",""
"1231","","image-button-response","221","1131861","0.0-220.0-0.0","A88CZ5CYKL5BJ","img_art/10.jpg","4","","","","","","","","","","","","","","","","","","","","","","","","",""
"2791","","image-button-response","222","1134654","0.0-221.0-0.0","A88CZ5CYKL5BJ","img_art/10.jpg","1","","","","","","","","","","","","","","","","","","","","","","","","",""
"null","","html-keyboard-response","223","1135661","0.0-222.0","A88CZ5CYKL5BJ","<p style=""font-size: 48px;"">+</p>","","","","","null","allTrialResponses","1000","1","25","img_art/10.jpg","3","A train crash, ruin and smoke","Nathan,Charles,Mason,Victor,Austin,Juan","Seems very lovecraftian, which I love that style,25,200,20","Also too all over the place, I don't see any pattern or anything that's supposed to stand out,-19,100,20","It's art. (for some),7,100,20","Looks like someone just smeared some paint and called it good. Do not like.,-6,340,20","Has an air of mystery around it,39,240,20","It's interesting and my eyes keep being drawn to different parts of the picture.,11,260,20","Juan","It's interesting and my eyes keep being drawn to different parts of the picture.,11,260,20","Austin","Has an air of mystery around it,39,240,20","Charles","Also too all over the place, I don't see any pattern or anything that's supposed to stand out,-19,100,20","2"
"2997","","survey-text","224","1138669","0.0-223.0-0.0","A88CZ5CYKL5BJ","","","","{""Q0"":""table""}","","","","","","","","","","","","","","","","","","","","","","",""
"10166","","survey-text","225","1148836","0.0-224.0-0.0","A88CZ5CYKL5BJ","","","","{""Q0"":""Mars, remote and desolate""}","","","","","","","","","","","","","","","","","","","","","","",""
"2072","","image-slider-response","226","1150909","0.0-225.0","A88CZ5CYKL5BJ","","","","","-7","","","","","","","","","","","","","","","","","","","","","",""
"null","","image-button-response","227","1155924","0.0-226.0","A88CZ5CYKL5BJ","img_art/7.jpg","null","","","","","","","","","","","","","","","","","","","","","","","","",""
"665","","image-button-response","228","1156589","0.0-227.0","A88CZ5CYKL5BJ","img_art/7.jpg","2","","","","","","","","","","","","","","","","","","","","","","","","",""
"1719","","image-button-response","229","1158309","0.0-228.0-0.0","A88CZ5CYKL5BJ","img_art/7.jpg","4","","","","","","","","","","","","","","","","","","","","","","","","",""
"1262","","image-button-response","230","1159573","0.0-229.0-0.0","A88CZ5CYKL5BJ","img_art/7.jpg","3","","","","","","","","","","","","","","","","","","","","","","","","",""
"null","","html-keyboard-response","231","1161087","0.0-230.0","A88CZ5CYKL5BJ","<p style=""font-size: 48px;"">+</p>","","","","","null","allTrialResponses","1500","1","26","img_art/7.jpg","-7","Mars, remote and desolate","Aaron,Charles,Carlos,Angel,Austin,Juan","It's kind of ugly but I like the texture.,10,20,20","Looks like a bad picture of a beach,-21,100,20","The dried bottom of a puddle in July.,-41,80,20","It's off-putting because it reminds me of walking over rough sand/rocks or having scabs on my skin.,-10,180,20","The picture is just random,-8,240,20","This is borning and lifeless.,-50,260,20","Carlos","The dried bottom of a puddle in July.,-41,80,20","Austin","The picture is just random,-8,240,20","Angel","It's off-putting because it reminds me of walking over rough sand/rocks or having scabs on my skin.,-10,180,20","2"
"19257","","survey-text","232","1180349","0.0-231.0-0.0","A88CZ5CYKL5BJ","","","","{""Q0"":""A dark tree with blue fruit perhaps? Kinda boring""}","","","","","","","","","","","","","","","","","","","","","","",""
"1830","","image-slider-response","233","1182181","0.0-232.0","A88CZ5CYKL5BJ","","","","","-23","","","","","","","","","","","","","","","","","","","","","",""
"null","","image-button-response","234","1187184","0.0-233.0","A88CZ5CYKL5BJ","img_art/15.jpg","null","","","","","","","","","","","","","","","","","","","","","","","","",""
"700","","image-button-response","235","1187885","0.0-234.0","A88CZ5CYKL5BJ","img_art/15.jpg","0","","","","","","","","","","","","","","","","","","","","","","","","",""
"1935","","image-button-response","236","1189821","0.0-235.0-0.0","A88CZ5CYKL5BJ","img_art/15.jpg","5","","","","","","","","","","","","","","","","","","","","","","","","",""
"1270","","image-button-response","237","1191093","0.0-236.0-0.0","A88CZ5CYKL5BJ","img_art/15.jpg","1","","","","","","","","","","","","","","","","","","","","","","","","",""
"null","","html-keyboard-response","238","1191603","0.0-237.0","A88CZ5CYKL5BJ","<p style=""font-size: 48px;"">+</p>","","","","","null","allTrialResponses","500","1","27","img_art/15.jpg","-23","A dark tree with blue fruit perhaps? Kinda boring","Michael,Dylan,Carlos,Angel,Austin,Nathaniel","Looks incomplete.,-19,140,20","This is sort of ugly, but I do like the design.,10,40,20","It is visually appealing, stark and simple but natural.,41,80,20","This is looking at a forest from above. I can see water and some pathways throughout. Nature.,20,180,20","Perfect Abstract painting,50,240,20","This is passable, but personally it just has nothing I'd like to see.,-14,220,20","Michael","Looks incomplete.,-19,140,20","Nathaniel","This is passable, but personally it just has nothing I'd like to see.,-14,220,20","Dylan","This is sort of ugly, but I do like the design.,10,40,20","2"
"13354","","survey-text","239","1204964","0.0-238.0-0.0","A88CZ5CYKL5BJ","","","","{""Q0"":""A meeting of the clouds. Vast and aloof.""}","","","","","","","","","","","","","","","","","","","","","","",""
"3223","","image-slider-response","240","1208189","0.0-239.0","A88CZ5CYKL5BJ","","","","","6","","","","","","","","","","","","","","","","","","","","","",""
"null","","image-button-response","241","1213197","0.0-240.0","A88CZ5CYKL5BJ","img_art/27.jpg","null","","","","","","","","","","","","","","","","","","","","","","","","",""
"3166","","image-button-response","242","1216365","0.0-241.0","A88CZ5CYKL5BJ","img_art/27.jpg","1","","","","","","","","","","","","","","","","","","","","","","","","",""
"655","","image-button-response","243","1217021","0.0-242.0-0.0","A88CZ5CYKL5BJ","img_art/27.jpg","2","","","","","","","","","","","","","","","","","","","","","","","","",""
"991","","image-button-response","244","1218013","0.0-243.0-0.0","A88CZ5CYKL5BJ","img_art/27.jpg","3","","","","","","","","","","","","","","","","","","","","","","","","",""
"null","","html-keyboard-response","245","1219521","0.0-244.0","A88CZ5CYKL5BJ","<p style=""font-size: 48px;"">+</p>","","","","","null","allTrialResponses","1500","1","28","img_art/27.jpg","6","A meeting of the clouds. Vast and aloof.","Michael,Dylan,Jordan,Devon,Scott,Nathaniel","Anyone could do that.,-31,140,20","This is ugly and looks like a child did this,-36,40,20","Looks like a little kids drawing,20,160,20","this reminds me of simpler time,31,400,20","again looks like childrens artwork,-40,20,20","Looks like a splash of different colors and designs without purpose,-44,220,20","Dylan","This is ugly and looks like a child did this,-36,40,20","Jordan","Looks like a little kids drawing,20,160,20","Devon","this reminds me of simpler time,31,400,20","2"
"11319","","survey-text","246","1230845","0.0-245.0-0.0","A88CZ5CYKL5BJ","","","","{""Q0"":""Ominous skeletal creature""}","","","","","","","","","","","","","","","","","","","","","","",""
"3381","","image-slider-response","247","1234229","0.0-246.0","A88CZ5CYKL5BJ","","","","","-10","","","","","","","","","","","","","","","","","","","","","",""
"null","","image-button-response","248","1239231","0.0-247.0","A88CZ5CYKL5BJ","img_art/25.jpg","null","","","","","","","","","","","","","","","","","","","","","","","","",""
"1773","","image-button-response","249","1241005","0.0-248.0","A88CZ5CYKL5BJ","img_art/25.jpg","2","","","","","","","","","","","","","","","","","","","","","","","","",""
"4397","","image-button-response","250","1245405","0.0-249.0-0.0","A88CZ5CYKL5BJ","img_art/25.jpg","4","","","","","","","","","","","","","","","","","","","","","","","","",""
"471","","image-button-response","251","1245877","0.0-250.0-0.0","A88CZ5CYKL5BJ","img_art/25.jpg","5","","","","","","","","","","","","","","","","","","","","","","","","",""
"null","","html-keyboard-response","252","1246379","0.0-251.0","A88CZ5CYKL5BJ","<p style=""font-size: 48px;"">+</p>","","","","","null","allTrialResponses","500","1","29","img_art/25.jpg","-10","Ominous skeletal creature","Kenneth,Dylan,Jordan,Devon,Alex,Bradley","I love the color. I don't know what exactly is going on but I like it.,24,300,20","This is too dark and creepy. I also hate the color,-30,40,20","This is creepy and I dont like it,-28,160,20","i feel a bit dull, a bit scared,-20,400,20","I can get behind this but only because I like the green. it reminds me of a graveyard,11,100,20","This one just has a dark feeling to me.,-50,300,20","Jordan","This is creepy and I dont like it,-28,160,20","Alex","I can get behind this but only because I like the green. it reminds me of a graveyard,11,100,20","Bradley","This one just has a dark feeling to me.,-50,300,20","2"
"16609","","survey-text","253","1262997","0.0-252.0-0.0","A88CZ5CYKL5BJ","","","","{""Q0"":""A city from many sides, chaotic and swirling""}","","","","","","","","","","","","","","","","","","","","","","",""
"2023","","image-slider-response","254","1265020","0.0-253.0","A88CZ5CYKL5BJ","","","","","-12","","","","","","","","","","","","","","","","","","","","","",""
"null","","image-button-response","255","1270029","0.0-254.0","A88CZ5CYKL5BJ","img_art/8.jpg","null","","","","","","","","","","","","","","","","","","","","","","","","",""
"960","","image-button-response","256","1270989","0.0-255.0","A88CZ5CYKL5BJ","img_art/8.jpg","2","","","","","","","","","","","","","","","","","","","","","","","","",""
"1847","","image-button-response","257","1272837","0.0-256.0-0.0","A88CZ5CYKL5BJ","img_art/8.jpg","4","","","","","","","","","","","","","","","","","","","","","","","","",""
"439","","image-button-response","258","1273277","0.0-257.0-0.0","A88CZ5CYKL5BJ","img_art/8.jpg","5","","","","","","","","","","","","","","","","","","","","","","","","",""
"null","","html-keyboard-response","259","1274786","0.0-258.0","A88CZ5CYKL5BJ","<p style=""font-size: 48px;"">+</p>","","","","","null","allTrialResponses","1500","1","30","img_art/8.jpg","-12","A city from many sides, chaotic and swirling","Ian,Connor,Jordan,Samuel,Alex,Bradley","I like this, the longer I look at in the more details I see.,41,260,20","Lots of depth, faces, city, arch,3,240,20","I did not like the face,-10,160,20","being watched over,17,400,20","I appreciate the complexity of this piece but it's too cubist for me,3,100,20","Interesting but it has a bit of a dark feel to it.,6,300,20","Jordan","I did not like the face,-10,160,20","Alex","I appreciate the complexity of this piece but it's too cubist for me,3,100,20","Bradley","Interesting but it has a bit of a dark feel to it.,6,300,20","2"
"1726","","image-button-response_instructions","260","1276517","0.0-259.0","A88CZ5CYKL5BJ","","0","instructions","","","","","","","","","","","","","","","","","","","","","","","",""
