"rt","url","trial_type","trial_index","time_elapsed","internal_node_id","participant_id","stimulus","button_pressed","Name","responses","response","key_press","variableName","fixationTime","condition","trial","photo","subjectRating","subjectResponse","agentsNames","agent_1_Response","agent_2_Response","agent_3_Response","agent_4_Response","agent_5_Response","agent_6_Response","kept_1_name","kept_1_response","kept_2_name","kept_2_response","kept_3_name","kept_3_response","errorCounter"
"18367","external_page_harvard.html","external-html","0","18784","0.0-0.0","A8MNBLIV99SXV","","","","","","","","","","","","","","","","","","","","","","","","","","",""
"3316","","image-button-response","1","22120","0.0-1.0","A8MNBLIV99SXV","","1","","","","","","","","","","","","","","","","","","","","","","","","",""
"2065","","image-button-response","2","24204","0.0-2.0-0.0","A8MNBLIV99SXV","","1","phone","","","","","","","","","","","","","","","","","","","","","","","",""
"5161","","survey-text","3","29371","0.0-3.0-0.0","A8MNBLIV99SXV","","","","{""Q0"":""A8MNBLIV99SXV""}","","","","","","","","","","","","","","","","","","","","","","",""
"2197","","image-button-response_instructions","4","31575","0.0-4.0","A8MNBLIV99SXV","","0","instructions","","","","","","","","","","","","","","","","","","","","","","","",""
"28027","","image-button-response_instructions","5","59606","0.0-5.0","A8MNBLIV99SXV","img_art/ins/popularity/ins1.png","0","instructions","","","","","","","","","","","","","","","","","","","","","","","",""
"24478","","image-button-response_instructions","6","84087","0.0-6.0","A8MNBLIV99SXV","img_art/ins/popularity/ins2.png","0","instructions","","","","","","","","","","","","","","","","","","","","","","","",""
"31999","","image-button-response_instructions","7","116090","0.0-7.0","A8MNBLIV99SXV","img_art/ins/popularity/ins2Extreme.png","0","instructions","","","","","","","","","","","","","","","","","","","","","","","",""
"13406","","image-button-response_instructions","8","129499","0.0-8.0","A8MNBLIV99SXV","img_art/ins/popularity/ins3KEEPpop.PNG","0","instructions","","","","","","","","","","","","","","","","","","","","","","","",""
"6969","","image-button-response_instructions","9","136471","0.0-9.0","A8MNBLIV99SXV","img_art/ins/popularity/ins3ANamepop.PNG","0","instructions","","","","","","","","","","","","","","","","","","","","","","","",""
"5191","","image-button-response_instructions","10","141665","0.0-10.0","A8MNBLIV99SXV","img_art/ins/popularity/ins3ARatingpop.png","0","instructions","","","","","","","","","","","","","","","","","","","","","","","",""
"3286","","image-button-response_instructions","11","144954","0.0-11.0","A8MNBLIV99SXV","img_art/ins/popularity/ins3ATextpop.png","0","instructions","","","","","","","","","","","","","","","","","","","","","","","",""
"1881","","image-button-response_instructions","12","146838","0.0-12.0","A8MNBLIV99SXV","img_art/ins/popularity/ins3ALikespop.png","0","instructions","","","","","","","","","","","","","","","","","","","","","","","",""
"25270","","image-button-response_instructions","13","172111","0.0-13.0","A8MNBLIV99SXV","img_art/ins/popularity/ins3KEEPpop.PNG","0","instructions","","","","","","","","","","","","","","","","","","","","","","","",""
"24991","","image-button-response_instructions","14","197105","0.0-14.0","A8MNBLIV99SXV","img_art/ins/popularity/ins3_5RED.png","0","instructions","","","","","","","","","","","","","","","","","","","","","","","",""
"10826","","image-button-response_instructions","15","207934","0.0-15.0","A8MNBLIV99SXV","img_art/ins/popularity/ins3KEEPpop.PNG","0","instructions","","","","","","","","","","","","","","","","","","","","","","","",""
"11698","","image-button-response_instructions","16","219635","0.0-16.0","A8MNBLIV99SXV","img_art/ins/popularity/ins4KEEPpop.PNG","0","instructions","","","","","","","","","","","","","","","","","","","","","","","",""
"16580","","image-button-response_instructions","17","236219","0.0-17.0","A8MNBLIV99SXV","img_art/ins/popularity/ins5KEEPpop.PNG","0","instructions","","","","","","","","","","","","","","","","","","","","","","","",""
"3828","","image-button-response_instructions","18","240050","0.0-18.0","A8MNBLIV99SXV","","0","instructions","","","","","","","","","","","","","","","","","","","","","","","",""
"12404","","survey-text","19","252546","0.0-19.0-0.0","A8MNBLIV99SXV","","","","{""Q0"":""but""}","","","","","","","","","","","","","","","","","","","","","","",""
"30143","","survey-text","20","282694","0.0-20.0-0.0","A8MNBLIV99SXV","","","","{""Q0"":""Interesting art work.  Very abstract.""}","","","","","","","","","","","","","","","","","","","","","","",""
"8307.39999999106","","image-slider-response","21","291060","0.0-21.0","A8MNBLIV99SXV","","","","","13","","","","","","","","","","","","","","","","","","","","","",""
"null","","image-button-response","22","296070","0.0-22.0","A8MNBLIV99SXV","img_art/ins/1.jpg","null","","","","","","","","","","","","","","","","","","","","","","","","",""
"612","","image-button-response","23","296687","0.0-23.0","A8MNBLIV99SXV","img_art/ins/1.jpg","0","","","","","","","","","","","","","","","","","","","","","","","","",""
"6037","","image-button-response","24","302731","0.0-24.0-0.0","A8MNBLIV99SXV","img_art/ins/1.jpg","4","","","","","","","","","","","","","","","","","","","","","","","","",""
"5245","","image-button-response","25","307986","0.0-25.0-0.0","A8MNBLIV99SXV","img_art/ins/1.jpg","5","","","","","","","","","","","","","","","","","","","","","","","","",""
"null","","html-keyboard-response","26","309001","0.0-26.0","A8MNBLIV99SXV","<p style=""font-size: 48px;"">+</p>","","","","","null","allTrialResponses","1000","1","-2","img_art/ins/1.jpg","13","Interesting art work.  Very abstract.","Allison,Ashley,Beth,Dora,Erika,Jen","looks like a lot of things going on in the mist,20,20,20","I just don't get why these type of art would be popular,-32,40,20","This color reminds me of poo,-46,60,20","looks like what my niece in 3rd grade did this afternoon,-50,80,20","I like the sophisticated brushwork,40,100,20","It reminds me of a candy land dream I had,36,120,20","Allison","looks like a lot of things going on in the mist,20,20,20","Erika","I like the sophisticated brushwork,40,100,20","Jen","It reminds me of a candy land dream I had,36,120,20","0"
"22529","","survey-text","27","331539","0.0-27.0-0.0","A8MNBLIV99SXV","","","","{""Q0"":""Beautiful! I really like this piece!""}","","","","","","","","","","","","","","","","","","","","","","",""
"5019.5","","image-slider-response","28","336563","0.0-28.0","A8MNBLIV99SXV","","","","","50","","","","","","","","","","","","","","","","","","","","","",""
"4318","","image-button-response","29","341574","0.0-29.0","A8MNBLIV99SXV","img_art/ins/2.jpg","0","","","","","","","","","","","","","","","","","","","","","","","","",""
"1735","","image-button-response","30","343313","0.0-30.0","A8MNBLIV99SXV","img_art/ins/2.jpg","0","","","","","","","","","","","","","","","","","","","","","","","","",""
"2281","","image-button-response","31","345598","0.0-31.0-0.0","A8MNBLIV99SXV","img_art/ins/2.jpg","1","","","","","","","","","","","","","","","","","","","","","","","","",""
"3999","","image-button-response","32","349603","0.0-32.0-0.0","A8MNBLIV99SXV","img_art/ins/2.jpg","4","","","","","","","","","","","","","","","","","","","","","","","","",""
"null","","html-keyboard-response","33","351118","0.0-33.0","A8MNBLIV99SXV","<p style=""font-size: 48px;"">+</p>","","","","","null","allTrialResponses","1500","1","-1","img_art/ins/2.jpg","50","Beautiful! I really like this piece!","Allison,Kara,Katie,Jenna,Erika,Jen","I don't have strong feelings about this,10,20,20","I like the blocks of color arrangements,30,160,20","too much color!,-28,180,20","One of my pet peevs,-48,140,20","I would never be able to compose a sophisticated pallete like this,48,100,20","It reminds me of a fireplace,36,120,20","Allison","I don't have strong feelings about this,10,20,20","Kara","I like the blocks of color arrangements,30,160,20","Erika","I would never be able to compose a sophisticated pallete like this,48,100,20","0"
"31469","","survey-text","34","382598","0.0-34.0-0.0","A8MNBLIV99SXV","","","","{""Q0"":""This is nice! I love blue.  Reminds me of birds in flight.""}","","","","","","","","","","","","","","","","","","","","","","",""
"6135.600000008941","","image-slider-response","35","388738","0.0-35.0","A8MNBLIV99SXV","","","","","21","","","","","","","","","","","","","","","","","","","","","",""
"4326","","image-button-response","36","393745","0.0-36.0","A8MNBLIV99SXV","img_art/ins/3.jpg","1","","","","","","","","","","","","","","","","","","","","","","","","",""
"1525","","image-button-response","37","395273","0.0-37.0","A8MNBLIV99SXV","img_art/ins/3.jpg","0","","","","","","","","","","","","","","","","","","","","","","","","",""
"1782","","image-button-response","38","397059","0.0-38.0-0.0","A8MNBLIV99SXV","img_art/ins/3.jpg","1","","","","","","","","","","","","","","","","","","","","","","","","",""
"9633","","image-button-response","39","406697","0.0-39.0-0.0","A8MNBLIV99SXV","img_art/ins/3.jpg","2","","","","","","","","","","","","","","","","","","","","","","","","",""
"null","","html-keyboard-response","40","407210","0.0-40.0","A8MNBLIV99SXV","<p style=""font-size: 48px;"">+</p>","","","","","null","allTrialResponses","500","1","0","img_art/ins/3.jpg","21","This is nice! I love blue.  Reminds me of birds in flight.","Allison,Kara,Mary,Leslie,Erika,Rose","enjoy the different shades of blue,22,20,20","calming blue is very nice,36,160,20","I like the overlapping of brushes,41,220,20","It's an alright work,15,200,20","I feel connected to the artist,40,100,20","My daily routine, it's depressing,-20,240,20","Allison","enjoy the different shades of blue,22,20,20","Kara","calming blue is very nice,36,160,20","Mary","I like the overlapping of brushes,41,220,20","0"
"10945","","image-button-response_instructions","41","418165","0.0-41.0","A8MNBLIV99SXV","","0","instructions","","","","","","","","","","","","","","","","","","","","","","","",""
"19114","","survey-likert","42","437285","0.0-42.0-0.0","A8MNBLIV99SXV","","","","{""Q0"":"""",""Q1"":1,""Q2"":1}","","","","","","","","","","","","","","","","","","","","","","",""
"7026","","survey-likert","43","447352","0.0-42.1-0.1","A8MNBLIV99SXV","","","","{""Q0"":"""",""Q1"":0,""Q2"":1}","","","","","","","","","","","","","","","","","","","","","","",""
"5565","","survey-text","44","452933","0.0-43.0-0.0","A8MNBLIV99SXV","","","","{""Q0"":""rock""}","","","","","","","","","","","","","","","","","","","","","","",""
"35871","","survey-text","45","488808","0.0-44.0-0.0","A8MNBLIV99SXV","","","","{""Q0"":""Interesting piece of art!  Looks like a waterfall.""}","","","","","","","","","","","","","","","","","","","","","","",""
"7014.0999999940395","","image-slider-response","46","495826","0.0-45.0","A8MNBLIV99SXV","","","","","9","","","","","","","","","","","","","","","","","","","","","",""
"3479","","image-button-response","47","500915","0.0-46.0","A8MNBLIV99SXV","img_art/24.jpg","0","","","","","","","","","","","","","","","","","","","","","","","","",""
"1160","","image-button-response","48","502078","0.0-47.0","A8MNBLIV99SXV","img_art/24.jpg","0","","","","","","","","","","","","","","","","","","","","","","","","",""
"1929","","image-button-response","49","504013","0.0-48.0-0.0","A8MNBLIV99SXV","img_art/24.jpg","1","","","","","","","","","","","","","","","","","","","","","","","","",""
"3337","","image-button-response","50","507356","0.0-49.0-0.0","A8MNBLIV99SXV","img_art/24.jpg","3","","","","","","","","","","","","","","","","","","","","","","","","",""
"null","","html-keyboard-response","51","508864","0.0-50.0","A8MNBLIV99SXV","<p style=""font-size: 48px;"">+</p>","","","","","null","allTrialResponses","1500","1","1","img_art/24.jpg","9","Interesting piece of art!  Looks like a waterfall.","Katelyn,Erica,Heather,Shannon,Claire,Shelby","Love the colors and contrast. Feels peaceful.,33,100,20","Very refreshing and vigorous,19,80,20","i feel peace and wanting. i love waterfalls,50,260,20","I like the way the colors are put together, and I can imagine this picture in real life.,40,220,20","reminds me of a beautiful waterfall,50,260,20","Earthy wonderful, love everything about it,50,240,20","Katelyn","Love the colors and contrast. Feels peaceful.,33,100,20","Erica","Very refreshing and vigorous,19,80,20","Shannon","I like the way the colors are put together, and I can imagine this picture in real life.,40,220,20","1"
"41619","","survey-text","52","550494","0.0-51.0-0.0","A8MNBLIV99SXV","","","","{""Q0"":""A nice blend of brown in this art.""}","","","","","","","","","","","","","","","","","","","","","","",""
"15661.89999999106","","image-slider-response","53","566161","0.0-52.0","A8MNBLIV99SXV","","","","","6","","","","","","","","","","","","","","","","","","","","","",""
"null","","image-button-response","54","571167","0.0-53.0","A8MNBLIV99SXV","img_art/7.jpg","null","","","","","","","","","","","","","","","","","","","","","","","","",""
"6324","","image-button-response","55","577495","0.0-54.0","A8MNBLIV99SXV","img_art/7.jpg","0","","","","","","","","","","","","","","","","","","","","","","","","",""
"16279","","image-button-response","56","593779","0.0-55.0-0.0","A8MNBLIV99SXV","img_art/7.jpg","1","","","","","","","","","","","","","","","","","","","","","","","","",""
"1543","","image-button-response","57","595327","0.0-56.0-0.0","A8MNBLIV99SXV","img_art/7.jpg","0","","","","","","","","","","","","","","","","","","","","","","","","",""
"6590","","image-button-response","58","605792","0.0-56.1-0.1","A8MNBLIV99SXV","img_art/7.jpg","4","","","","","","","","","","","","","","","","","","","","","","","","",""
"null","","html-keyboard-response","59","607298","0.0-57.0","A8MNBLIV99SXV","<p style=""font-size: 48px;"">+</p>","","","","","null","allTrialResponses","1500","1","2","img_art/7.jpg","6","A nice blend of brown in this art.","Katelyn,Erica,Margaret,Shannon,Brianna,Gabrielle","Makes me think of the beach which makes me happy,14,100,20","No not cause many emotions,1,80,20","looks like a close up of irritated skin under a microscope,-49,100,20","I don't like the repetitiveness of the colors, and I think there should be more colors.,-50,220,20","Looks plain and dull, sorry.,-31,20,20","looks like wallpaper,-6,160,20","Katelyn","Makes me think of the beach which makes me happy,14,100,20","Erica","No not cause many emotions,1,80,20","Brianna","Looks plain and dull, sorry.,-31,20,20","3"
"25786","","survey-text","60","633095","0.0-58.0-0.0","A8MNBLIV99SXV","","","","{""Q0"":""Looks like overgrown fingers.""}","","","","","","","","","","","","","","","","","","","","","","",""
"9073.39999999106","","image-slider-response","61","642174","0.0-59.0","A8MNBLIV99SXV","","","","","-29","","","","","","","","","","","","","","","","","","","","","",""
"null","","image-button-response","62","647179","0.0-60.0","A8MNBLIV99SXV","img_art/4.jpg","null","","","","","","","","","","","","","","","","","","","","","","","","",""
"17213","","image-button-response","63","664397","0.0-61.0","A8MNBLIV99SXV","img_art/4.jpg","4","","","","","","","","","","","","","","","","","","","","","","","","",""
"2472","","image-button-response","64","666875","0.0-62.0-0.0","A8MNBLIV99SXV","img_art/4.jpg","3","","","","","","","","","","","","","","","","","","","","","","","","",""
"17302","","image-button-response","65","684184","0.0-63.0-0.0","A8MNBLIV99SXV","img_art/4.jpg","5","","","","","","","","","","","","","","","","","","","","","","","","",""
"null","","html-keyboard-response","66","685190","0.0-64.0","A8MNBLIV99SXV","<p style=""font-size: 48px;"">+</p>","","","","","null","allTrialResponses","1000","1","3","img_art/4.jpg","-29","Looks like overgrown fingers.","Katelyn,Erica,Michelle,Mikayla,Brianna,Christina","I like the warmth in the colors. Its reassuring.,9,100,20","Easy and relaxing,23,80,20","Looks like more paint smearing but at least there is structure,-5,280,20","Not very interesting to look at.,-34,300,20","Really don't care for the yellowish brown color in the center.,-19,20,20","not enough color and too yellow for me. Not my favorite colors,-10,240,20","Brianna","Really don't care for the yellowish brown color in the center.,-19,20,20","Mikayla","Not very interesting to look at.,-34,300,20","Christina","not enough color and too yellow for me. Not my favorite colors,-10,240,20","3"
"34387","","survey-text","67","719588","0.0-65.0-0.0","A8MNBLIV99SXV","","","","{""Q0"":""Looks like a piece someone would have in a gameroom.""}","","","","","","","","","","","","","","","","","","","","","","",""
"5294.5999999940395","","image-slider-response","68","724887","0.0-66.0","A8MNBLIV99SXV","","","","","24","","","","","","","","","","","","","","","","","","","","","",""
"null","","image-button-response","69","729896","0.0-67.0","A8MNBLIV99SXV","img_art/29.jpg","null","","","","","","","","","","","","","","","","","","","","","","","","",""
"26728","","image-button-response","70","756628","0.0-68.0","A8MNBLIV99SXV","img_art/29.jpg","0","","","","","","","","","","","","","","","","","","","","","","","","",""
"11839","","image-button-response","71","768474","0.0-69.0-0.0","A8MNBLIV99SXV","img_art/29.jpg","5","","","","","","","","","","","","","","","","","","","","","","","","",""
"13512","","image-button-response","72","781994","0.0-70.0-0.0","A8MNBLIV99SXV","img_art/29.jpg","4","","","","","","","","","","","","","","","","","","","","","","","","",""
"null","","html-keyboard-response","73","783502","0.0-71.0","A8MNBLIV99SXV","<p style=""font-size: 48px;"">+</p>","","","","","null","allTrialResponses","1500","1","4","img_art/29.jpg","24","Looks like a piece someone would have in a gameroom.","Briana,Breanna,Makayla,Mikayla,Brianna,Christina","Looks like someone trying to make something they dont understand,-36,400,20","Makes me feel untidy,-9,380,20","Looks like a jail cell,-15,80,20","Its kinda scary,-35,300,20","It has a red X on there, and x's mean bad in my perspective,-29,20,20","It's too on trend with the gray and doesn't look like a lasting piece,-4,240,20","Briana","Looks like someone trying to make something they dont understand,-36,400,20","Christina","It's too on trend with the gray and doesn't look like a lasting piece,-4,240,20","Brianna","It has a red X on there, and x's mean bad in my perspective,-29,20,20","3"
"47948","","survey-text","74","831463","0.0-72.0-0.0","A8MNBLIV99SXV","","","","{""Q0"":""Very diverse color pattern here. Lots going on.""}","","","","","","","","","","","","","","","","","","","","","","",""
"7599.29999999702","","image-slider-response","75","839068","0.0-73.0","A8MNBLIV99SXV","","","","","-11","","","","","","","","","","","","","","","","","","","","","",""
"null","","image-button-response","76","844074","0.0-74.0","A8MNBLIV99SXV","img_art/21.jpg","null","","","","","","","","","","","","","","","","","","","","","","","","",""
"3399","","image-button-response","77","847477","0.0-75.0","A8MNBLIV99SXV","img_art/21.jpg","1","","","","","","","","","","","","","","","","","","","","","","","","",""
"3248","","image-button-response","78","850729","0.0-76.0-0.0","A8MNBLIV99SXV","img_art/21.jpg","3","","","","","","","","","","","","","","","","","","","","","","","","",""
"10217","","image-button-response","79","860952","0.0-77.0-0.0","A8MNBLIV99SXV","img_art/21.jpg","4","","","","","","","","","","","","","","","","","","","","","","","","",""
"null","","html-keyboard-response","80","861963","0.0-78.0","A8MNBLIV99SXV","<p style=""font-size: 48px;"">+</p>","","","","","null","allTrialResponses","1000","1","5","img_art/21.jpg","-11","Very diverse color pattern here. Lots going on.","Briana,Alyssa,Amanda,Madison,Brianna,Christina","Unfinished. Confusing to look at,-12,400,20","I like the colors that were used and the stark contrast between the two sides,25,160,20","Very calming and nice to look at,30,180,20","War! But then, what? And then, what of it? Intention seems incomplete, or not fully committed to.,-19,60,20","Don't really lean either way.,1,20,20","it has a lot of happy colors and it's very classic looking,35,240,20","Alyssa","I like the colors that were used and the stark contrast between the two sides,25,160,20","Madison","War! But then, what? And then, what of it? Intention seems incomplete, or not fully committed to.,-19,60,20","Brianna","Don't really lean either way.,1,20,20","3"
"7464","","survey-text","81","869449","0.0-79.0-0.0","A8MNBLIV99SXV","","","","{""Q0"":""sky""}","","","","","","","","","","","","","","","","","","","","","","",""
"76438","","survey-text","82","945891","0.0-80.0-0.0","A8MNBLIV99SXV","","","","{""Q0"":""Very complex and abstract.  Looks like a battle of some sort.""}","","","","","","","","","","","","","","","","","","","","","","",""
"20988.5","","image-slider-response","83","966884","0.0-81.0","A8MNBLIV99SXV","","","","","13","","","","","","","","","","","","","","","","","","","","","",""
"null","","image-button-response","84","971890","0.0-82.0","A8MNBLIV99SXV","img_art/18.jpg","null","","","","","","","","","","","","","","","","","","","","","","","","",""
"1533","","image-button-response","85","973429","0.0-83.0","A8MNBLIV99SXV","img_art/18.jpg","3","","","","","","","","","","","","","","","","","","","","","","","","",""
"1958","","image-button-response","86","975393","0.0-84.0-0.0","A8MNBLIV99SXV","img_art/18.jpg","4","","","","","","","","","","","","","","","","","","","","","","","","",""
"6046","","image-button-response","87","981445","0.0-85.0-0.0","A8MNBLIV99SXV","img_art/18.jpg","2","","","","","","","","","","","","","","","","","","","","","","","","",""
"null","","html-keyboard-response","88","981951","0.0-86.0","A8MNBLIV99SXV","<p style=""font-size: 48px;"">+</p>","","","","","null","allTrialResponses","500","1","6","img_art/18.jpg","13","Very complex and abstract.  Looks like a battle of some sort.","Alexandria,Alyssa,Allison,Madison,Brianna,Molly","the harsh lines with the smooth lines makes me think of wild animals,20,80,20","There are alot of elements to this painting and a good mix of colors,32,160,20","Colors are okay. Reminds me of cavalry.,10,140,20","Pleasant design and composition, unpleasant theme and focus.,-19,60,20","Very eerie and it's spooky,11,20,20","White and yellow look awesome and the picture's dynamics are wonderful.,30,340,20","Madison","Pleasant design and composition, unpleasant theme and focus.,-19,60,20","Brianna","Very eerie and it's spooky,11,20,20","Allison","Colors are okay. Reminds me of cavalry.,10,140,20","3"
"26635","","survey-text","89","1008599","0.0-87.0-0.0","A8MNBLIV99SXV","","","","{""Q0"":""A lovely piece! Love the color blends.""}","","","","","","","","","","","","","","","","","","","","","","",""
"7354.9000000059605","","image-slider-response","90","1015959","0.0-88.0","A8MNBLIV99SXV","","","","","41","","","","","","","","","","","","","","","","","","","","","",""
"null","","image-button-response","91","1020979","0.0-89.0","A8MNBLIV99SXV","img_art/17.jpg","null","","","","","","","","","","","","","","","","","","","","","","","","",""
"1035","","image-button-response","92","1022018","0.0-90.0","A8MNBLIV99SXV","img_art/17.jpg","0","","","","","","","","","","","","","","","","","","","","","","","","",""
"9866","","image-button-response","93","1031888","0.0-91.0-0.0","A8MNBLIV99SXV","img_art/17.jpg","5","","","","","","","","","","","","","","","","","","","","","","","","",""
"30738","","image-button-response","94","1062632","0.0-92.0-0.0","A8MNBLIV99SXV","img_art/17.jpg","4","","","","","","","","","","","","","","","","","","","","","","","","",""
"null","","html-keyboard-response","95","1064146","0.0-93.0","A8MNBLIV99SXV","<p style=""font-size: 48px;"">+</p>","","","","","null","allTrialResponses","1500","1","7","img_art/17.jpg","41","A lovely piece! Love the color blends.","Emily,Caroline,Allison,Madison,Brianna,Sydney","There is better structure and direction in this one.,19,40,20","Beautiful colors. Made me feel soft and feminine,50,100,20","Very washed out.,-10,140,20","No strong reaction. Beautiful design, but hue appears taciturn. Bad photograph?,1,60,20","It's nice and realistic looking.,12,20,20","This picture is calming to me, and I love the colors.,45,320,20","Emily","There is better structure and direction in this one.,19,40,20","Sydney","This picture is calming to me, and I love the colors.,45,320,20","Brianna","It's nice and realistic looking.,12,20,20","3"
"34075","","survey-text","96","1098233","0.0-94.0-0.0","A8MNBLIV99SXV","","","","{""Q0"":""This looks like art in the middle of a child's drawing.""}","","","","","","","","","","","","","","","","","","","","","","",""
"10377","","image-slider-response","97","1108616","0.0-95.0","A8MNBLIV99SXV","","","","","-35","","","","","","","","","","","","","","","","","","","","","",""
"2301","","image-button-response","98","1113622","0.0-96.0","A8MNBLIV99SXV","img_art/9.jpg","0","","","","","","","","","","","","","","","","","","","","","","","","",""
"12628","","image-button-response","99","1126254","0.0-97.0","A8MNBLIV99SXV","img_art/9.jpg","2","","","","","","","","","","","","","","","","","","","","","","","","",""
"2853","","image-button-response","100","1129112","0.0-98.0-0.0","A8MNBLIV99SXV","img_art/9.jpg","3","","","","","","","","","","","","","","","","","","","","","","","","",""
"9104","","image-button-response","101","1138222","0.0-99.0-0.0","A8MNBLIV99SXV","img_art/9.jpg","0","","","","","","","","","","","","","","","","","","","","","","","","",""
"null","","html-keyboard-response","102","1139241","0.0-100.0","A8MNBLIV99SXV","<p style=""font-size: 48px;"">+</p>","","","","","null","allTrialResponses","1000","1","8","img_art/9.jpg","-35","This looks like art in the middle of a child's drawing.","Emily,Mary,Taylor,Nicole,Brianna,Sydney","Looks like a young child drew it.,-45,40,20","How neat is this piece?  I love the angry expressive lines. Emotion is captured in it.,26,180,20","The peacock theme gives me negative connotations of my ex-sister-in-law,-10,340,20","It's peaceful and relaxing,24,20,20","This has some of my favorite colors, and I like it,21,20,20","I see some of my favorite colors which I like, but I don't like what's portrayed.,35,320,20","Taylor","The peacock theme gives me negative connotations of my ex-sister-in-law,-10,340,20","Nicole","It's peaceful and relaxing,24,20,20","Emily","Looks like a young child drew it.,-45,40,20","3"
"20693","","survey-text","103","1159946","0.0-101.0-0.0","A8MNBLIV99SXV","","","","{""Q0"":""I don't like this one at all.""}","","","","","","","","","","","","","","","","","","","","","","",""
"7728.5","","image-slider-response","104","1167678","0.0-102.0","A8MNBLIV99SXV","","","","","-47","","","","","","","","","","","","","","","","","","","","","",""
"null","","image-button-response","105","1172695","0.0-103.0","A8MNBLIV99SXV","img_art/3.jpg","null","","","","","","","","","","","","","","","","","","","","","","","","",""
"1207","","image-button-response","106","1173909","0.0-104.0","A8MNBLIV99SXV","img_art/3.jpg","3","","","","","","","","","","","","","","","","","","","","","","","","",""
"5399","","image-button-response","107","1179312","0.0-105.0-0.0","A8MNBLIV99SXV","img_art/3.jpg","4","","","","","","","","","","","","","","","","","","","","","","","","",""
"20446","","image-button-response","108","1199764","0.0-106.0-0.0","A8MNBLIV99SXV","img_art/3.jpg","2","","","","","","","","","","","","","","","","","","","","","","","","",""
"null","","html-keyboard-response","109","1201278","0.0-107.0","A8MNBLIV99SXV","<p style=""font-size: 48px;"">+</p>","","","","","null","allTrialResponses","1500","1","9","img_art/3.jpg","-47","I don't like this one at all.","Emily,Samantha,Taylor,Nicole,Vanessa,Marissa","Looks like someone mentalyl unstable drew and is ready to go a a killing spree.,-50,40,20","Too angry and scribbly,-43,140,20","It doesn't make me think of art,-20,340,20","Something I'd paint when I'm mad. I feel that,20,20,20","It makes me think of just an angry scribble. There's no beauty to it for me.,-50,380,20","It feels like a half assed and failed imitation of Japanese signatures on old paintings,-22,160,20","Nicole","Something I'd paint when I'm mad. I feel that,20,20,20","Vanessa","It makes me think of just an angry scribble. There's no beauty to it for me.,-50,380,20","Taylor","It doesn't make me think of art,-20,340,20","3"
"34205","","survey-text","110","1235493","0.0-108.0-0.0","A8MNBLIV99SXV","","","","{""Q0"":""This is not a favorite for me.  ""}","","","","","","","","","","","","","","","","","","","","","","",""
"4997.29999999702","","image-slider-response","111","1240495","0.0-109.0","A8MNBLIV99SXV","","","","","-30","","","","","","","","","","","","","","","","","","","","","",""
"2636","","image-button-response","112","1245512","0.0-110.0","A8MNBLIV99SXV","img_art/6.jpg","0","","","","","","","","","","","","","","","","","","","","","","","","",""
"15057","","image-button-response","113","1260574","0.0-111.0","A8MNBLIV99SXV","img_art/6.jpg","2","","","","","","","","","","","","","","","","","","","","","","","","",""
"1706","","image-button-response","114","1262285","0.0-112.0-0.0","A8MNBLIV99SXV","img_art/6.jpg","0","","","","","","","","","","","","","","","","","","","","","","","","",""
"2734","","image-button-response","115","1265025","0.0-113.0-0.0","A8MNBLIV99SXV","img_art/6.jpg","3","","","","","","","","","","","","","","","","","","","","","","","","",""
"null","","html-keyboard-response","116","1266538","0.0-114.0","A8MNBLIV99SXV","<p style=""font-size: 48px;"">+</p>","","","","","null","allTrialResponses","1500","1","10","img_art/6.jpg","-30","This is not a favorite for me.  ","Bailey,Kelly,Taylor,Nicole,Vanessa,Sabrina","Not my favorite, but I like the empty vibe and the imagination it invokes. A skinny girl with long legs, perhaps, looking over a cliff,9,360,20","Simple and pretty.,18,220,20","Reminds me of my friend's bird,21,340,20","The colors and rough brush strokes make me nervous,-10,20,20","I don't like the colors and the dark shape at the top makes me think of a buzzard.,-28,380,20","I love the representation of death and life.,50,120,20","Taylor","Reminds me of my friend's bird,21,340,20","Bailey","Not my favorite, but I like the empty vibe and the imagination it invokes. A skinny girl with long legs, perhaps, looking over a cliff,9,360,20","Nicole","The colors and rough brush strokes make me nervous,-10,20,20","3"
"8170","","survey-text","117","1274735","0.0-115.0-0.0","A8MNBLIV99SXV","","","","{""Q0"":""our""}","","","","","","","","","","","","","","","","","","","","","","",""
"23305","","survey-text","118","1298043","0.0-116.0-0.0","A8MNBLIV99SXV","","","","{""Q0"":""I don't love it, but I don't hate it either.""}","","","","","","","","","","","","","","","","","","","","","","",""
"5286.600000008941","","image-slider-response","119","1303334","0.0-117.0","A8MNBLIV99SXV","","","","","-25","","","","","","","","","","","","","","","","","","","","","",""
"null","","image-button-response","120","1308356","0.0-118.0","A8MNBLIV99SXV","img_art/15.jpg","null","","","","","","","","","","","","","","","","","","","","","","","","",""
"3130","","image-button-response","121","1311491","0.0-119.0","A8MNBLIV99SXV","img_art/15.jpg","1","","","","","","","","","","","","","","","","","","","","","","","","",""
"9133","","image-button-response","122","1320629","0.0-120.0-0.0","A8MNBLIV99SXV","img_art/15.jpg","0","","","","","","","","","","","","","","","","","","","","","","","","",""
"9304","","image-button-response","123","1329939","0.0-121.0-0.0","A8MNBLIV99SXV","img_art/15.jpg","5","","","","","","","","","","","","","","","","","","","","","","","","",""
"null","","html-keyboard-response","124","1330446","0.0-122.0","A8MNBLIV99SXV","<p style=""font-size: 48px;"">+</p>","","","","","null","allTrialResponses","500","1","11","img_art/15.jpg","-25","I don't love it, but I don't hate it either.","Bailey,Emma,Taylor,Nicole,Katie,Stephanie","This is passable, but personally it just has nothing I'd like to see.,-14,360,20","Don't love it but it's cute,16,60,20","The blues are soothing,21,340,20","Very cool, i want it in my living room,50,20,20","Too much black. I see weeds or dead/dying flowers.,-40,160,20","This piece is too dark,-42,300,20","Emma","Don't love it but it's cute,16,60,20","Bailey","This is passable, but personally it just has nothing I'd like to see.,-14,360,20","Stephanie","This piece is too dark,-42,300,20","3"
"50762","","survey-text","125","1381221","0.0-123.0-0.0","A8MNBLIV99SXV","","","","{""Q0"":""I like it some, but there is aspects I don't like as well.""}","","","","","","","","","","","","","","","","","","","","","","",""
"5836.899999991059","","image-slider-response","126","1387063","0.0-124.0","A8MNBLIV99SXV","","","","","9","","","","","","","","","","","","","","","","","","","","","",""
"null","","image-button-response","127","1392069","0.0-125.0","A8MNBLIV99SXV","img_art/19.jpg","null","","","","","","","","","","","","","","","","","","","","","","","","",""
"281","","image-button-response","128","1392356","0.0-126.0","A8MNBLIV99SXV","img_art/19.jpg","1","","","","","","","","","","","","","","","","","","","","","","","","",""
"2190","","image-button-response","129","1394549","0.0-127.0-0.0","A8MNBLIV99SXV","img_art/19.jpg","3","","","","","","","","","","","","","","","","","","","","","","","","",""
"3036","","image-button-response","130","1397593","0.0-128.0-0.0","A8MNBLIV99SXV","img_art/19.jpg","3","","","","","","","","","","","","","","","","","","","","","","","","",""
"1827","","image-button-response","131","1407162","0.0-128.1-0.1","A8MNBLIV99SXV","img_art/19.jpg","4","","","","","","","","","","","","","","","","","","","","","","","","",""
"null","","html-keyboard-response","132","1408669","0.0-129.0","A8MNBLIV99SXV","<p style=""font-size: 48px;"">+</p>","","","","","null","allTrialResponses","1500","1","12","img_art/19.jpg","9","I like it some, but there is aspects I don't like as well.","Bailey,Emma,Olivia,Kristen,Julia,Stephanie","Horrible. Squiggly lines everywhere.,-50,360,20","Interesting, leaves you wondering what it is,40,60,20","city life energy,8,40,20","city, stress of urbanism, slightly panicked,2,280,20","I like this style but don't really like the specific setting of the landscape,-7,40,20","A dreary town in the fall.,-4,300,20","Emma","Interesting, leaves you wondering what it is,40,60,20","Kristen","city, stress of urbanism, slightly panicked,2,280,20","Julia","I like this style but don't really like the specific setting of the landscape,-7,40,20","5"
"26209","","survey-text","133","1434892","0.0-130.0-0.0","A8MNBLIV99SXV","","","","{""Q0"":""This is an eerie piece.""}","","","","","","","","","","","","","","","","","","","","","","",""
"7704.79999999702","","image-slider-response","134","1442601","0.0-131.0","A8MNBLIV99SXV","","","","","-25","","","","","","","","","","","","","","","","","","","","","",""
"4159","","image-button-response","135","1447608","0.0-132.0","A8MNBLIV99SXV","img_art/25.jpg","0","","","","","","","","","","","","","","","","","","","","","","","","",""
"502","","image-button-response","136","1448114","0.0-133.0","A8MNBLIV99SXV","img_art/25.jpg","0","","","","","","","","","","","","","","","","","","","","","","","","",""
"1557","","image-button-response","137","1449676","0.0-134.0-0.0","A8MNBLIV99SXV","img_art/25.jpg","3","","","","","","","","","","","","","","","","","","","","","","","","",""
"2775","","image-button-response","138","1452460","0.0-135.0-0.0","A8MNBLIV99SXV","img_art/25.jpg","5","","","","","","","","","","","","","","","","","","","","","","","","",""
"null","","html-keyboard-response","139","1453978","0.0-136.0","A8MNBLIV99SXV","<p style=""font-size: 48px;"">+</p>","","","","","null","allTrialResponses","1500","1","13","img_art/25.jpg","-25","This is an eerie piece.","Alexandra,Emma,Paige,Kristen,Julia,Jennifer","This is too dark and creepy. I also hate the color,-30,60,20","Like the colors and the figure,30,60,20","reminds me of ancient history which makes me happy,40,60,20","reminds me of the grim reaper,3,280,20","the color is pleasing and draws out the contrast of the lines,10,40,20","Spooky, but in a good way. I like the green and black color palette.,42,380,20","Alexandra","This is too dark and creepy. I also hate the color,-30,60,20","Kristen","reminds me of the grim reaper,3,280,20","Jennifer","Spooky, but in a good way. I like the green and black color palette.,42,380,20","5"
"13831","","survey-text","140","1467821","0.0-137.0-0.0","A8MNBLIV99SXV","","","","{""Q0"":""I love this! Very well done!""}","","","","","","","","","","","","","","","","","","","","","","",""
"6907.600000008941","","image-slider-response","141","1474733","0.0-138.0","A8MNBLIV99SXV","","","","","48","","","","","","","","","","","","","","","","","","","","","",""
"null","","image-button-response","142","1479740","0.0-139.0","A8MNBLIV99SXV","img_art/8.jpg","null","","","","","","","","","","","","","","","","","","","","","","","","",""
"2599","","image-button-response","143","1482344","0.0-140.0","A8MNBLIV99SXV","img_art/8.jpg","1","","","","","","","","","","","","","","","","","","","","","","","","",""
"5650","","image-button-response","144","1488000","0.0-141.0-0.0","A8MNBLIV99SXV","img_art/8.jpg","2","","","","","","","","","","","","","","","","","","","","","","","","",""
"6033","","image-button-response","145","1494039","0.0-142.0-0.0","A8MNBLIV99SXV","img_art/8.jpg","5","","","","","","","","","","","","","","","","","","","","","","","","",""
"null","","html-keyboard-response","146","1495053","0.0-143.0","A8MNBLIV99SXV","<p style=""font-size: 48px;"">+</p>","","","","","null","allTrialResponses","1000","1","14","img_art/8.jpg","48","I love this! Very well done!","Alexandra,Kylie,Lauren,Kristen,Laura,Jennifer","The colors are nice but the big face in the sky is creepy,-11,60,20","Very abstract and seems symbolic,45,300,20","I like how the piece is showcasing emotion in relation to something.,25,340,20","mothe nature/godess, watching over you,21,280,20","chaotic and disassembled,-8,320,20","Not my favorite but has an interesting concept,32,380,20","Kylie","Very abstract and seems symbolic,45,300,20","Lauren","I like how the piece is showcasing emotion in relation to something.,25,340,20","Jennifer","Not my favorite but has an interesting concept,32,380,20","5"
"27493","","survey-text","147","1522560","0.0-144.0-0.0","A8MNBLIV99SXV","","","","{""Q0"":""Very nice use of patterns and colors.""}","","","","","","","","","","","","","","","","","","","","","","",""
"5775.5","","image-slider-response","148","1528340","0.0-145.0","A8MNBLIV99SXV","","","","","44","","","","","","","","","","","","","","","","","","","","","",""
"null","","image-button-response","149","1533348","0.0-146.0","A8MNBLIV99SXV","img_art/12.jpg","null","","","","","","","","","","","","","","","","","","","","","","","","",""
"2711","","image-button-response","150","1536063","0.0-147.0","A8MNBLIV99SXV","img_art/12.jpg","1","","","","","","","","","","","","","","","","","","","","","","","","",""
"2560","","image-button-response","151","1538632","0.0-148.0-0.0","A8MNBLIV99SXV","img_art/12.jpg","4","","","","","","","","","","","","","","","","","","","","","","","","",""
"25263","","image-button-response","152","1563901","0.0-149.0-0.0","A8MNBLIV99SXV","img_art/12.jpg","2","","","","","","","","","","","","","","","","","","","","","","","","",""
"null","","html-keyboard-response","153","1564405","0.0-150.0","A8MNBLIV99SXV","<p style=""font-size: 48px;"">+</p>","","","","","null","allTrialResponses","500","1","15","img_art/12.jpg","44","Very nice use of patterns and colors.","Maria,Kylie,Lauren,Miranda,Grace,Jennifer","evokes the 80s, and not in a necessarily good way,-10,120,20","Night and day, light and dark,35,300,20","This doesn't invoke anything. Just a mosaic of random images.,0,340,20","This is like going to a really old mcdoanlds in a tiny town and it's never been renovated so it's breaking down,-31,320,20","Love the colors & the abstractness.,31,180,20","This piece doesn't provoke any kind of reaction,0,380,20","Kylie","Night and day, light and dark,35,300,20","Grace","Love the colors & the abstractness.,31,180,20","Lauren","This doesn't invoke anything. Just a mosaic of random images.,0,340,20","5"
"4977","","survey-text","154","1569412","0.0-151.0-0.0","A8MNBLIV99SXV","","","","{""Q0"":""course""}","","","","","","","","","","","","","","","","","","","","","","",""
"39819","","survey-text","155","1609234","0.0-152.0-0.0","A8MNBLIV99SXV","","","","{""Q0"":""This piece is just confusing to me.""}","","","","","","","","","","","","","","","","","","","","","","",""
"6059","","image-slider-response","156","1615297","0.0-153.0","A8MNBLIV99SXV","","","","","-48","","","","","","","","","","","","","","","","","","","","","",""
"4333","","image-button-response","157","1620303","0.0-154.0","A8MNBLIV99SXV","img_art/27.jpg","3","","","","","","","","","","","","","","","","","","","","","","","","",""
"1447","","image-button-response","158","1621755","0.0-155.0","A8MNBLIV99SXV","img_art/27.jpg","3","","","","","","","","","","","","","","","","","","","","","","","","",""
"1186","","image-button-response","159","1622946","0.0-156.0-0.0","A8MNBLIV99SXV","img_art/27.jpg","4","","","","","","","","","","","","","","","","","","","","","","","","",""
"1592","","image-button-response","160","1624545","0.0-157.0-0.0","A8MNBLIV99SXV","img_art/27.jpg","1","","","","","","","","","","","","","","","","","","","","","","","","",""
"null","","html-keyboard-response","161","1625562","0.0-158.0","A8MNBLIV99SXV","<p style=""font-size: 48px;"">+</p>","","","","","null","allTrialResponses","1000","1","16","img_art/27.jpg","-48","This piece is just confusing to me.","Jordan,Kylie,Lauren,Abigail,Grace,Autumn","two warring cities, separated by a small desert,50,20,20","Soothing in the middle of some confusion,40,300,20","Not a fan of the green; gives off the impression that someone else drew on it.,-20,340,20","Looks like a little kids drawing,20,20,20","Not fond of the bad pencil drawing mixed with the drab colors.,-21,180,20","Adult contemporary painting with child.,-33,340,20","Abigail","Looks like a little kids drawing,20,20,20","Grace","Not fond of the bad pencil drawing mixed with the drab colors.,-21,180,20","Kylie","Soothing in the middle of some confusion,40,300,20","5"
"37488","","survey-text","162","1663064","0.0-159.0-0.0","A8MNBLIV99SXV","","","","{""Q0"":""There are no words for this one.""}","","","","","","","","","","","","","","","","","","","","","","",""
"5389.0999999940395","","image-slider-response","163","1668457","0.0-160.0","A8MNBLIV99SXV","","","","","-37","","","","","","","","","","","","","","","","","","","","","",""
"2783","","image-button-response","164","1673465","0.0-161.0","A8MNBLIV99SXV","img_art/28.jpg","0","","","","","","","","","","","","","","","","","","","","","","","","",""
"7836","","image-button-response","165","1681306","0.0-162.0","A8MNBLIV99SXV","img_art/28.jpg","5","","","","","","","","","","","","","","","","","","","","","","","","",""
"2886","","image-button-response","166","1684199","0.0-163.0-0.0","A8MNBLIV99SXV","img_art/28.jpg","0","","","","","","","","","","","","","","","","","","","","","","","","",""
"7270","","image-button-response","167","1691475","0.0-164.0-0.0","A8MNBLIV99SXV","img_art/28.jpg","2","","","","","","","","","","","","","","","","","","","","","","","","",""
"null","","html-keyboard-response","168","1692986","0.0-165.0","A8MNBLIV99SXV","<p style=""font-size: 48px;"">+</p>","","","","","null","allTrialResponses","1500","1","17","img_art/28.jpg","-37","There are no words for this one.","Brittany,Kylie,Caitlin,Abigail,Grace,Cassidy","I don't like the colors or the design.,-20,40,20","Overpopulated city,35,300,20","Bug meets bug in a dark alley.,-20,80,20","A messy bed room,-7,20,20","A meeting in Old Jerusalem.,11,180,20","Almost looks like child's artwork, sloppy and chaotic,6,140,20","Cassidy","Almost looks like child's artwork, sloppy and chaotic,6,140,20","Brittany","I don't like the colors or the design.,-20,40,20","Caitlin","Bug meets bug in a dark alley.,-20,80,20","5"
"39814","","survey-text","169","1732813","0.0-166.0-0.0","A8MNBLIV99SXV","","","","{""Q0"":""This looks confusing and dreary.""}","","","","","","","","","","","","","","","","","","","","","","",""
"4937","","image-slider-response","170","1737754","0.0-167.0","A8MNBLIV99SXV","","","","","-45","","","","","","","","","","","","","","","","","","","","","",""
"null","","image-button-response","171","1742770","0.0-168.0","A8MNBLIV99SXV","img_art/10.jpg","null","","","","","","","","","","","","","","","","","","","","","","","","",""
"6914","","image-button-response","172","1749688","0.0-169.0","A8MNBLIV99SXV","img_art/10.jpg","5","","","","","","","","","","","","","","","","","","","","","","","","",""
"4390","","image-button-response","173","1754085","0.0-170.0-0.0","A8MNBLIV99SXV","img_art/10.jpg","2","","","","","","","","","","","","","","","","","","","","","","","","",""
"7828","","image-button-response","174","1761919","0.0-171.0-0.0","A8MNBLIV99SXV","img_art/10.jpg","1","","","","","","","","","","","","","","","","","","","","","","","","",""
"null","","html-keyboard-response","175","1763436","0.0-172.0","A8MNBLIV99SXV","<p style=""font-size: 48px;"">+</p>","","","","","null","allTrialResponses","1500","1","18","img_art/10.jpg","-45","This looks confusing and dreary.","Brittany,Lindsey,Caitlin,Anna,Megan,Cassidy","The design is dynamic and interesting.,14,40,20","Looks like a violin. Not a fan of the smudges and smears, but my initial reaction was positive.,11,400,20","The roller coaster from hell !!!,-10,80,20","I like how simple but intricate it is.,30,300,20","Music visualized with subtle color,17,200,20","Looks like someone just smeared some paint and called it good. Do not like.,-6,140,20","Cassidy","Looks like someone just smeared some paint and called it good. Do not like.,-6,140,20","Caitlin","The roller coaster from hell !!!,-10,80,20","Lindsey","Looks like a violin. Not a fan of the smudges and smears, but my initial reaction was positive.,11,400,20","5"
"29312","","survey-text","176","1792763","0.0-173.0-0.0","A8MNBLIV99SXV","","","","{""Q0"":""I like the colors mostly.   It's not bad.""}","","","","","","","","","","","","","","","","","","","","","","",""
"9533.09999999404","","image-slider-response","177","1802300","0.0-174.0","A8MNBLIV99SXV","","","","","5","","","","","","","","","","","","","","","","","","","","","",""
"null","","image-button-response","178","1807316","0.0-175.0","A8MNBLIV99SXV","img_art/1.jpg","null","","","","","","","","","","","","","","","","","","","","","","","","",""
"7977","","image-button-response","179","1815298","0.0-176.0","A8MNBLIV99SXV","img_art/1.jpg","2","","","","","","","","","","","","","","","","","","","","","","","","",""
"4391","","image-button-response","180","1819695","0.0-177.0-0.0","A8MNBLIV99SXV","img_art/1.jpg","5","","","","","","","","","","","","","","","","","","","","","","","","",""
"3579","","image-button-response","181","1823280","0.0-178.0-0.0","A8MNBLIV99SXV","img_art/1.jpg","0","","","","","","","","","","","","","","","","","","","","","","","","",""
"null","","html-keyboard-response","182","1823790","0.0-179.0","A8MNBLIV99SXV","<p style=""font-size: 48px;"">+</p>","","","","","null","allTrialResponses","500","1","19","img_art/1.jpg","5","I like the colors mostly.   It's not bad.","Erika,Lindsey,Caitlin,Alexis,Angelica,Cassidy","Vague and directionless,-14,100,20","Not a fan of the colors. Makes me think of the Australian bush fires.,-5,400,20","Deja vu. Haven't I seen this one before? Not bad for those living in the backwoods.,10,80,20","Taco Bell wallpaper. Doesn't really make me feel anything,3,100,20","This is ugly with bad colors.,-6,280,20","I like the colors and layers,25,140,20","Caitlin","Deja vu. Haven't I seen this one before? Not bad for those living in the backwoods.,10,80,20","Cassidy","I like the colors and layers,25,140,20","Erika","Vague and directionless,-14,100,20","5"
"42239","","survey-text","183","1866042","0.0-180.0-0.0","A8MNBLIV99SXV","","","","{""Q0"":""This looks chaotic.""}","","","","","","","","","","","","","","","","","","","","","","",""
"5321.100000008941","","image-slider-response","184","1871367","0.0-181.0","A8MNBLIV99SXV","","","","","-33","","","","","","","","","","","","","","","","","","","","","",""
"2420","","image-button-response","185","1876373","0.0-182.0","A8MNBLIV99SXV","img_art/20.jpg","0","","","","","","","","","","","","","","","","","","","","","","","","",""
"1217","","image-button-response","186","1877595","0.0-183.0","A8MNBLIV99SXV","img_art/20.jpg","1","","","","","","","","","","","","","","","","","","","","","","","","",""
"5328","","image-button-response","187","1882929","0.0-184.0-0.0","A8MNBLIV99SXV","img_art/20.jpg","3","","","","","","","","","","","","","","","","","","","","","","","","",""
"15386","","image-button-response","188","1898321","0.0-185.0-0.0","A8MNBLIV99SXV","img_art/20.jpg","0","","","","","","","","","","","","","","","","","","","","","","","","",""
"null","","html-keyboard-response","189","1899337","0.0-186.0","A8MNBLIV99SXV","<p style=""font-size: 48px;"">+</p>","","","","","null","allTrialResponses","1000","1","20","img_art/20.jpg","-33","This looks chaotic.","Erika,Jamie,Caitlin,Leah,Tiffany,Cassidy","The artist had very strong feelings, bold colors,28,100,20","Looks like some type of future dystopian civilization,35,320,20","Not bad for all the southwestern people.,15,80,20","A sad past town, pollution, guess I like happier scenes,-30,360,20","I feel powerful, like I am looking out a window at this machine, that I am in charge.,17,360,20","sort of pleasant to look at, but can't tell if it's supposed to be something,13,140,20","Jamie","Looks like some type of future dystopian civilization,35,320,20","Leah","A sad past town, pollution, guess I like happier scenes,-30,360,20","Erika","The artist had very strong feelings, bold colors,28,100,20","5"
"5698","","survey-text","190","1905075","0.0-187.0-0.0","A8MNBLIV99SXV","","","","{""Q0"":""we""}","","","","","","","","","","","","","","","","","","","","","","",""
"34516","","survey-text","191","1939596","0.0-188.0-0.0","A8MNBLIV99SXV","","","","{""Q0"":""Interesting, looks like a neighborhood stroll.""}","","","","","","","","","","","","","","","","","","","","","","",""
"6417","","image-slider-response","192","1946017","0.0-189.0","A8MNBLIV99SXV","","","","","9","","","","","","","","","","","","","","","","","","","","","",""
"4794","","image-button-response","193","1951032","0.0-190.0","A8MNBLIV99SXV","img_art/26.jpg","1","","","","","","","","","","","","","","","","","","","","","","","","",""
"1171","","image-button-response","194","1952207","0.0-191.0","A8MNBLIV99SXV","img_art/26.jpg","1","","","","","","","","","","","","","","","","","","","","","","","","",""
"1883","","image-button-response","195","1954097","0.0-192.0-0.0","A8MNBLIV99SXV","img_art/26.jpg","3","","","","","","","","","","","","","","","","","","","","","","","","",""
"5529","","image-button-response","196","1959632","0.0-193.0-0.0","A8MNBLIV99SXV","img_art/26.jpg","2","","","","","","","","","","","","","","","","","","","","","","","","",""
"null","","html-keyboard-response","197","1960642","0.0-194.0","A8MNBLIV99SXV","<p style=""font-size: 48px;"">+</p>","","","","","null","allTrialResponses","1000","1","21","img_art/26.jpg","9","Interesting, looks like a neighborhood stroll.","Erika,Jamie,Michaela,Leah,Cassandra,Sarah","Feels like still life,-13,100,20","Street corner on a sunny day,5,320,20","Elevator art but the watercolors are good,29,260,20","Really like it, a very nice neighborhood scene to me,42,360,20","Neutral...nothing to say.,3,120,20","too hard to figure out if it's meant to be actual objects or impressions,-36,180,20","Jamie","Street corner on a sunny day,5,320,20","Leah","Really like it, a very nice neighborhood scene to me,42,360,20","Michaela","Elevator art but the watercolors are good,29,260,20","5"
"38788","","survey-text","198","1999447","0.0-195.0-0.0","A8MNBLIV99SXV","","","","{""Q0"":""Very abstract.  Not sure what to say.""}","","","","","","","","","","","","","","","","","","","","","","",""
"11349.09999999404","","image-slider-response","199","2010800","0.0-196.0","A8MNBLIV99SXV","","","","","-5","","","","","","","","","","","","","","","","","","","","","",""
"null","","image-button-response","200","2015815","0.0-197.0","A8MNBLIV99SXV","img_art/22.jpg","null","","","","","","","","","","","","","","","","","","","","","","","","",""
"2294","","image-button-response","201","2018114","0.0-198.0","A8MNBLIV99SXV","img_art/22.jpg","3","","","","","","","","","","","","","","","","","","","","","","","","",""
"8038","","image-button-response","202","2026157","0.0-199.0-0.0","A8MNBLIV99SXV","img_art/22.jpg","2","","","","","","","","","","","","","","","","","","","","","","","","",""
"1986","","image-button-response","203","2028150","0.0-200.0-0.0","A8MNBLIV99SXV","img_art/22.jpg","0","","","","","","","","","","","","","","","","","","","","","","","","",""
"null","","html-keyboard-response","204","2029158","0.0-201.0","A8MNBLIV99SXV","<p style=""font-size: 48px;"">+</p>","","","","","null","allTrialResponses","1000","1","22","img_art/22.jpg","-5","Very abstract.  Not sure what to say.","Morgan,Jamie,Michaela,Leah,Catherine,Brooke","Glowing city of many emotions.,10,380,20","Like the mix of warm and cool colors,15,320,20","I like the use of primary colors in an interesting way,29,260,20","Pretty colors but too blocky for me,-19,360,20","Scary monsters lurking causing confusion.,-40,160,20","Like this one, like a sunset,30,60,20","Leah","Pretty colors but too blocky for me,-19,360,20","Michaela","I like the use of primary colors in an interesting way,29,260,20","Morgan","Glowing city of many emotions.,10,380,20","5"
"37869","","survey-text","205","2067098","0.0-202.0-0.0","A8MNBLIV99SXV","","","","{""Q0"":""I like the use of colors without the white parts.""}","","","","","","","","","","","","","","","","","","","","","","",""
"5337.29999999702","","image-slider-response","206","2072439","0.0-203.0","A8MNBLIV99SXV","","","","","14","","","","","","","","","","","","","","","","","","","","","",""
"2688","","image-button-response","207","2077453","0.0-204.0","A8MNBLIV99SXV","img_art/23.jpg","1","","","","","","","","","","","","","","","","","","","","","","","","",""
"1961","","image-button-response","208","2079418","0.0-205.0","A8MNBLIV99SXV","img_art/23.jpg","4","","","","","","","","","","","","","","","","","","","","","","","","",""
"6184","","image-button-response","209","2085607","0.0-206.0-0.0","A8MNBLIV99SXV","img_art/23.jpg","5","","","","","","","","","","","","","","","","","","","","","","","","",""
"20345","","image-button-response","210","2105961","0.0-207.0-0.0","A8MNBLIV99SXV","img_art/23.jpg","2","","","","","","","","","","","","","","","","","","","","","","","","",""
"null","","html-keyboard-response","211","2107480","0.0-208.0","A8MNBLIV99SXV","<p style=""font-size: 48px;"">+</p>","","","","","null","allTrialResponses","1500","1","23","img_art/23.jpg","14","I like the use of colors without the white parts.","Morgan,Jenna,Michaela,Leah,Erin,Sophia","Unicorns flying through a colorful space.,25,380,20","awesome colors. love the white drawing the eye to the center. oddly comforting.,50,360,20","This would make a great mural,37,260,20","Interesting, want to look at it more to identify,25,360,20","Confetti dancer,-7,120,20","I like the contrast and the bright colors in this one.,6,280,20","Erin","Confetti dancer,-7,120,20","Sophia","I like the contrast and the bright colors in this one.,6,280,20","Michaela","This would make a great mural,37,260,20","5"
"18890","","survey-text","212","2126387","0.0-209.0-0.0","A8MNBLIV99SXV","","","","{""Q0"":""This looks like it represents abuse.""}","","","","","","","","","","","","","","","","","","","","","","",""
"6311.100000008941","","image-slider-response","213","2132702","0.0-210.0","A8MNBLIV99SXV","","","","","-50","","","","","","","","","","","","","","","","","","","","","",""
"4868","","image-button-response","214","2137724","0.0-211.0","A8MNBLIV99SXV","img_art/16.jpg","1","","","","","","","","","","","","","","","","","","","","","","","","",""
"9213","","image-button-response","215","2146942","0.0-212.0","A8MNBLIV99SXV","img_art/16.jpg","5","","","","","","","","","","","","","","","","","","","","","","","","",""
"6488","","image-button-response","216","2153436","0.0-213.0-0.0","A8MNBLIV99SXV","img_art/16.jpg","1","","","","","","","","","","","","","","","","","","","","","","","","",""
"26194","","image-button-response","217","2179636","0.0-214.0-0.0","A8MNBLIV99SXV","img_art/16.jpg","2","","","","","","","","","","","","","","","","","","","","","","","","",""
"null","","html-keyboard-response","218","2181144","0.0-215.0","A8MNBLIV99SXV","<p style=""font-size: 48px;"">+</p>","","","","","null","allTrialResponses","1500","1","24","img_art/16.jpg","-50","This looks like it represents abuse.","Amber,Kayla,Michaela,Jessica,Erin,Sophia","Don't like the teddy bear. It takes away from the painting.,-39,200,20","Looks upsetting. Like it's actually graphic violence but you can't tell.,-24,180,20","It feels lazily done,-9,260,20","Cool but the bear creeps me out?,8,400,20","Not original. Bear is odd,-50,120,20","This feels like there's some kind of pedofile thing going on here.,-50,280,20","Sophia","This feels like there's some kind of pedofile thing going on here.,-50,280,20","Kayla","Looks upsetting. Like it's actually graphic violence but you can't tell.,-24,180,20","Michaela","It feels lazily done,-9,260,20","5"
"34292","","survey-text","219","2215452","0.0-216.0-0.0","A8MNBLIV99SXV","","","","{""Q0"":""This is very nice! Very unique! ""}","","","","","","","","","","","","","","","","","","","","","","",""
"5327.899999991059","","image-slider-response","220","2220785","0.0-217.0","A8MNBLIV99SXV","","","","","49","","","","","","","","","","","","","","","","","","","","","",""
"4660","","image-button-response","221","2225797","0.0-218.0","A8MNBLIV99SXV","img_art/11.jpg","0","","","","","","","","","","","","","","","","","","","","","","","","",""
"1405","","image-button-response","222","2227206","0.0-219.0","A8MNBLIV99SXV","img_art/11.jpg","0","","","","","","","","","","","","","","","","","","","","","","","","",""
"2666","","image-button-response","223","2229878","0.0-220.0-0.0","A8MNBLIV99SXV","img_art/11.jpg","4","","","","","","","","","","","","","","","","","","","","","","","","",""
"4346","","image-button-response","224","2234229","0.0-221.0-0.0","A8MNBLIV99SXV","img_art/11.jpg","1","","","","","","","","","","","","","","","","","","","","","","","","",""
"null","","html-keyboard-response","225","2234736","0.0-222.0","A8MNBLIV99SXV","<p style=""font-size: 48px;"">+</p>","","","","","null","allTrialResponses","500","1","25","img_art/11.jpg","49","This is very nice! Very unique! ","Elizabeth,Kayla,Michaela,Kelsey,Kaitlin,Sophia","Very unique piece of art,50,20,20","I like that it could be train tracks, or telephone wires, etc. It's always a means of getting from a to b.,15,180,20","Reminds me of a city and how chaotic it can be,22,260,20","its like telephone wires, or mountains,-17,240,20","a beautiful piece of art,33,60,20","WOW!  I love how the ships and the seas become one in this piece.,50,280,20","Elizabeth","Very unique piece of art,50,20,20","Kaitlin","a beautiful piece of art,33,60,20","Kayla","I like that it could be train tracks, or telephone wires, etc. It's always a means of getting from a to b.,15,180,20","5"
"6023","","survey-text","226","2240789","0.0-223.0-0.0","A8MNBLIV99SXV","","","","{""Q0"":""table""}","","","","","","","","","","","","","","","","","","","","","","",""
"37734","","survey-text","227","2278527","0.0-224.0-0.0","A8MNBLIV99SXV","","","","{""Q0"":""This one is okay.  I like the colors.""}","","","","","","","","","","","","","","","","","","","","","","",""
"8431.40000000596","","image-slider-response","228","2286964","0.0-225.0","A8MNBLIV99SXV","","","","","4","","","","","","","","","","","","","","","","","","","","","",""
"4108","","image-button-response","229","2291969","0.0-226.0","A8MNBLIV99SXV","img_art/2.jpg","3","","","","","","","","","","","","","","","","","","","","","","","","",""
"1023","","image-button-response","230","2292996","0.0-227.0","A8MNBLIV99SXV","img_art/2.jpg","0","","","","","","","","","","","","","","","","","","","","","","","","",""
"1551","","image-button-response","231","2294551","0.0-228.0-0.0","A8MNBLIV99SXV","img_art/2.jpg","3","","","","","","","","","","","","","","","","","","","","","","","","",""
"1713","","image-button-response","232","2296270","0.0-229.0-0.0","A8MNBLIV99SXV","img_art/2.jpg","4","","","","","","","","","","","","","","","","","","","","","","","","",""
"null","","html-keyboard-response","233","2296790","0.0-230.0","A8MNBLIV99SXV","<p style=""font-size: 48px;"">+</p>","","","","","null","allTrialResponses","500","1","26","img_art/2.jpg","4","This one is okay.  I like the colors.","Elizabeth,Kayla,Alicia,Alexa,Kaitlin,Mariah","Good color pallette,12,20,20","Different cultures. I like that it brings differences together.,4,180,20","retro, amateurish, not a fan of the colors together.,-10,120,20","Not my favorite but I can see this being hung in a art museum,25,40,20","another confusing piece of art,-12,60,20","The colors are soothing, but the composition feels thoughtless.,-11,140,20","Elizabeth","Good color pallette,12,20,20","Alexa","Not my favorite but I can see this being hung in a art museum,25,40,20","Kaitlin","another confusing piece of art,-12,60,20","5"
"69974","","survey-text","234","2366781","0.0-231.0-0.0","A8MNBLIV99SXV","","","","{""Q0"":""This reminds me of a beach setting, but not my favorite piece of art.""}","","","","","","","","","","","","","","","","","","","","","","",""
"4512.100000008941","","image-slider-response","235","2371297","0.0-232.0","A8MNBLIV99SXV","","","","","-15","","","","","","","","","","","","","","","","","","","","","",""
"null","","image-button-response","236","2376304","0.0-233.0","A8MNBLIV99SXV","img_art/14.jpg","null","","","","","","","","","","","","","","","","","","","","","","","","",""
"4856","","image-button-response","237","2381165","0.0-234.0","A8MNBLIV99SXV","img_art/14.jpg","2","","","","","","","","","","","","","","","","","","","","","","","","",""
"2977","","image-button-response","238","2384146","0.0-235.0-0.0","A8MNBLIV99SXV","img_art/14.jpg","1","","","","","","","","","","","","","","","","","","","","","","","","",""
"3379","","image-button-response","239","2387532","0.0-236.0-0.0","A8MNBLIV99SXV","img_art/14.jpg","5","","","","","","","","","","","","","","","","","","","","","","","","",""
"null","","html-keyboard-response","240","2388540","0.0-237.0","A8MNBLIV99SXV","<p style=""font-size: 48px;"">+</p>","","","","","null","allTrialResponses","1000","1","27","img_art/14.jpg","-15","This reminds me of a beach setting, but not my favorite piece of art.","Elizabeth,Kaylee,Madeline,Alexa,Kaitlin,Dominique","Love the abstractness of this painting,39,20,20","it looks like a tree on desert,23,200,20","It looks nice colorwise but detail is lacking,18,40,20","Very abstract and colorful,40,40,20","this would make a very beautiful art project,22,60,20","Reminds me of the old days with my family and my grandma,41,400,20","Madeline","It looks nice colorwise but detail is lacking,18,40,20","Kaylee","it looks like a tree on desert,23,200,20","Dominique","Reminds me of the old days with my family and my grandma,41,400,20","5"
"23048","","survey-text","241","2411606","0.0-238.0-0.0","A8MNBLIV99SXV","","","","{""Q0"":""I love this! I would buy this!""}","","","","","","","","","","","","","","","","","","","","","","",""
"4866.70000000298","","image-slider-response","242","2416478","0.0-239.0","A8MNBLIV99SXV","","","","","50","","","","","","","","","","","","","","","","","","","","","",""
"3374","","image-button-response","243","2421483","0.0-240.0","A8MNBLIV99SXV","img_art/13.jpg","3","","","","","","","","","","","","","","","","","","","","","","","","",""
"6619","","image-button-response","244","2428107","0.0-241.0","A8MNBLIV99SXV","img_art/13.jpg","5","","","","","","","","","","","","","","","","","","","","","","","","",""
"1228","","image-button-response","245","2429344","0.0-242.0-0.0","A8MNBLIV99SXV","img_art/13.jpg","2","","","","","","","","","","","","","","","","","","","","","","","","",""
"2157","","image-button-response","246","2431508","0.0-243.0-0.0","A8MNBLIV99SXV","img_art/13.jpg","3","","","","","","","","","","","","","","","","","","","","","","","","",""
"null","","html-keyboard-response","247","2433014","0.0-244.0","A8MNBLIV99SXV","<p style=""font-size: 48px;"">+</p>","","","","","null","allTrialResponses","1500","1","28","img_art/13.jpg","50","I love this! I would buy this!","Isabella,Kaylee,Madeline,Kaitlyn,Destiny,Dominique","Rain drops on a window,35,280,20","its crazy to the point that i cant get it,-28,200,20","Really love the colors,11,40,20","Like the color choices,7,80,20","so simple and stupid this looks like what I did to my cousins wall when we repainted it for her 13th bday,0,360,20","I love the colors reminds me of a rainy day..it's calm and relaxing,32,400,20","Dominique","I love the colors reminds me of a rainy day..it's calm and relaxing,32,400,20","Madeline","Really love the colors,11,40,20","Kaitlyn","Like the color choices,7,80,20","5"
"18674","","survey-text","248","2451712","0.0-245.0-0.0","A8MNBLIV99SXV","","","","{""Q0"":""This just looks lazy.  Just something to do.""}","","","","","","","","","","","","","","","","","","","","","","",""
"4549","","image-slider-response","249","2456265","0.0-246.0","A8MNBLIV99SXV","","","","","-45","","","","","","","","","","","","","","","","","","","","","",""
"4259","","image-button-response","250","2461271","0.0-247.0","A8MNBLIV99SXV","img_art/30.jpg","4","","","","","","","","","","","","","","","","","","","","","","","","",""
"504","","image-button-response","251","2461778","0.0-248.0","A8MNBLIV99SXV","img_art/30.jpg","3","","","","","","","","","","","","","","","","","","","","","","","","",""
"903","","image-button-response","252","2462687","0.0-249.0-0.0","A8MNBLIV99SXV","img_art/30.jpg","4","","","","","","","","","","","","","","","","","","","","","","","","",""
"10945","","image-button-response","253","2473638","0.0-250.0-0.0","A8MNBLIV99SXV","img_art/30.jpg","2","","","","","","","","","","","","","","","","","","","","","","","","",""
"null","","html-keyboard-response","254","2474157","0.0-251.0","A8MNBLIV99SXV","<p style=""font-size: 48px;"">+</p>","","","","","null","allTrialResponses","500","1","29","img_art/30.jpg","-45","This just looks lazy.  Just something to do.","Danielle,Rebecca,Madeline,Kaitlyn,Chelsea,Dominique","It's okay. It should either have stuck to the grey-blue, or added more red. Seems unorganized (maybe that's the point?),-9,340,20","don't know but it somehow speaks to me,29,100,20","A bit haphazard looking and lacking in vision,2,40,20","Do not like the streaks,-14,80,20","It looks like it was painted in 5 minutes.,-32,180,20","Personal , calming conservative signature business ideal.,32,400,20","Kaitlyn","Do not like the streaks,-14,80,20","Chelsea","It looks like it was painted in 5 minutes.,-32,180,20","Madeline","A bit haphazard looking and lacking in vision,2,40,20","5"
"53410","","survey-text","255","2527584","0.0-252.0-0.0","A8MNBLIV99SXV","","","","{""Q0"":""This does nothing for me.  Too plain.""}","","","","","","","","","","","","","","","","","","","","","","",""
"5729.699999988079","","image-slider-response","256","2533319","0.0-253.0","A8MNBLIV99SXV","","","","","-49","","","","","","","","","","","","","","","","","","","","","",""
"3135","","image-button-response","257","2538324","0.0-254.0","A8MNBLIV99SXV","img_art/5.jpg","1","","","","","","","","","","","","","","","","","","","","","","","","",""
"541","","image-button-response","258","2538870","0.0-255.0","A8MNBLIV99SXV","img_art/5.jpg","4","","","","","","","","","","","","","","","","","","","","","","","","",""
"2198","","image-button-response","259","2541072","0.0-256.0-0.0","A8MNBLIV99SXV","img_art/5.jpg","1","","","","","","","","","","","","","","","","","","","","","","","","",""
"5374","","image-button-response","260","2546451","0.0-257.0-0.0","A8MNBLIV99SXV","img_art/5.jpg","2","","","","","","","","","","","","","","","","","","","","","","","","",""
"null","","html-keyboard-response","261","2546956","0.0-258.0","A8MNBLIV99SXV","<p style=""font-size: 48px;"">+</p>","","","","","null","allTrialResponses","500","1","30","img_art/5.jpg","-49","This does nothing for me.  Too plain.","Mackenzie,Jacqueline,Madeline,Kaitlyn,Chelsea,Kimberly","Overpowering colors.,-26,20,20","Seems very basic and uninteresting.,-15,300,20","A bit too messy in my eyes,-4,40,20","Wish the background had been kept clean; distracts from main object,11,80,20","I'm not sure what is going on here.,-46,180,20","It feels positive and kind of uplifting,24,260,20","Chelsea","I'm not sure what is going on here.,-46,180,20","Jacqueline","Seems very basic and uninteresting.,-15,300,20","Madeline","A bit too messy in my eyes,-4,40,20","5"
"2598","","image-button-response_instructions","262","2549575","0.0-259.0","A8MNBLIV99SXV","","0","instructions","","","","","","","","","","","","","","","","","","","","","","","",""
"2080","","image-button-response","263","2551674","0.0-260.0","A8MNBLIV99SXV","","0","","","","","","","","","","","","","","","","","","","","","","","","",""
