"rt","url","trial_type","trial_index","time_elapsed","internal_node_id","participant_id","stimulus","button_pressed","Name","responses","response","key_press","variableName","fixationTime","condition","trial","photo","subjectRating","subjectResponse","agentsNames","agent_1_Response","agent_2_Response","agent_3_Response","agent_4_Response","agent_5_Response","agent_6_Response","kept_1_name","kept_1_response","kept_2_name","kept_2_response","kept_3_name","kept_3_response","errorCounter"
"14434","external_page_harvard.html","external-html","0","14486","0.0-0.0","A8TOXZCLDP72G","","","","","","","","","","","","","","","","","","","","","","","","","","",""
"2507","","image-button-response","1","16996","0.0-1.0","A8TOXZCLDP72G","","1","","","","","","","","","","","","","","","","","","","","","","","","",""
"5383","","image-button-response","2","22386","0.0-2.0-0.0","A8TOXZCLDP72G","","1","phone","","","","","","","","","","","","","","","","","","","","","","","",""
"6892","","survey-text","3","29280","0.0-3.0-0.0","A8TOXZCLDP72G","","","","{""Q0"":""A8TOXZCLDP72G""}","","","","","","","","","","","","","","","","","","","","","","",""
"13947","","image-button-response_instructions","4","43229","0.0-4.0","A8TOXZCLDP72G","","0","instructions","","","","","","","","","","","","","","","","","","","","","","","",""
"24594","","image-button-response_instructions","5","67825","0.0-5.0","A8TOXZCLDP72G","img_art/ins/popularity/ins1.png","0","instructions","","","","","","","","","","","","","","","","","","","","","","","",""
"8231","","image-button-response_instructions","6","76058","0.0-6.0","A8TOXZCLDP72G","img_art/ins/popularity/ins2.png","0","instructions","","","","","","","","","","","","","","","","","","","","","","","",""
"9241","","image-button-response_instructions","7","85300","0.0-7.0","A8TOXZCLDP72G","img_art/ins/popularity/ins2Extreme.png","0","instructions","","","","","","","","","","","","","","","","","","","","","","","",""
"23125","","image-button-response_instructions","8","108427","0.0-8.0","A8TOXZCLDP72G","img_art/ins/popularity/ins3KEEPpop.PNG","0","instructions","","","","","","","","","","","","","","","","","","","","","","","",""
"4910","","image-button-response_instructions","9","113339","0.0-9.0","A8TOXZCLDP72G","img_art/ins/popularity/ins3ANamepop.PNG","0","instructions","","","","","","","","","","","","","","","","","","","","","","","",""
"5604","","image-button-response_instructions","10","118945","0.0-10.0","A8TOXZCLDP72G","img_art/ins/popularity/ins3ARatingpop.png","0","instructions","","","","","","","","","","","","","","","","","","","","","","","",""
"3686","","image-button-response_instructions","11","122632","0.0-11.0","A8TOXZCLDP72G","img_art/ins/popularity/ins3ATextpop.png","0","instructions","","","","","","","","","","","","","","","","","","","","","","","",""
"11060","","image-button-response_instructions","12","133693","0.0-12.0","A8TOXZCLDP72G","img_art/ins/popularity/ins3ALikespop.png","0","instructions","","","","","","","","","","","","","","","","","","","","","","","",""
"18204","","image-button-response_instructions","13","151899","0.0-13.0","A8TOXZCLDP72G","img_art/ins/popularity/ins3KEEPpop.PNG","0","instructions","","","","","","","","","","","","","","","","","","","","","","","",""
"26802","","image-button-response_instructions","14","178703","0.0-14.0","A8TOXZCLDP72G","img_art/ins/popularity/ins3_5RED.png","0","instructions","","","","","","","","","","","","","","","","","","","","","","","",""
"10655","","image-button-response_instructions","15","189359","0.0-15.0","A8TOXZCLDP72G","img_art/ins/popularity/ins3KEEPpop.PNG","0","instructions","","","","","","","","","","","","","","","","","","","","","","","",""
"12522","","image-button-response_instructions","16","201883","0.0-16.0","A8TOXZCLDP72G","img_art/ins/popularity/ins4KEEPpop.PNG","0","instructions","","","","","","","","","","","","","","","","","","","","","","","",""
"6791","","image-button-response_instructions","17","208676","0.0-17.0","A8TOXZCLDP72G","img_art/ins/popularity/ins5KEEPpop.PNG","0","instructions","","","","","","","","","","","","","","","","","","","","","","","",""
"2979","","image-button-response_instructions","18","211656","0.0-18.0","A8TOXZCLDP72G","","0","instructions","","","","","","","","","","","","","","","","","","","","","","","",""
"12374","","survey-text","19","224069","0.0-19.0-0.0","A8TOXZCLDP72G","","","","{""Q0"":""but""}","","","","","","","","","","","","","","","","","","","","","","",""
"19077","","survey-text","20","243147","0.0-20.0-0.0","A8TOXZCLDP72G","","","","{""Q0"":""very child like""}","","","","","","","","","","","","","","","","","","","","","","",""
"9227.5","","image-slider-response","21","252378","0.0-21.0","A8TOXZCLDP72G","","","","","-47","","","","","","","","","","","","","","","","","","","","","",""
"4681","","image-button-response","22","257396","0.0-22.0","A8TOXZCLDP72G","img_art/ins/1.jpg","3","","","","","","","","","","","","","","","","","","","","","","","","",""
"9991","","image-button-response","23","267392","0.0-23.0","A8TOXZCLDP72G","img_art/ins/1.jpg","1","","","","","","","","","","","","","","","","","","","","","","","","",""
"3444","","image-button-response","24","270839","0.0-24.0-0.0","A8TOXZCLDP72G","img_art/ins/1.jpg","3","","","","","","","","","","","","","","","","","","","","","","","","",""
"14013","","image-button-response","25","284856","0.0-25.0-0.0","A8TOXZCLDP72G","img_art/ins/1.jpg","2","","","","","","","","","","","","","","","","","","","","","","","","",""
"null","","html-keyboard-response","26","285872","0.0-26.0","A8TOXZCLDP72G","<p style=""font-size: 48px;"">+</p>","","","","","null","allTrialResponses","1000","1","-2","img_art/ins/1.jpg","-47","very child like","Allison,Ashley,Beth,Dora,Erika,Jen","looks like a lot of things going on in the mist,20,20,20","I just don't get why these type of art would be popular,-32,40,20","This color reminds me of poo,-46,60,20","looks like what my niece in 3rd grade did this afternoon,-50,80,20","I like the sophisticated brushwork,40,100,20","It reminds me of a candy land dream I had,36,120,20","Ashley","I just don't get why these type of art would be popular,-32,40,20","Dora","looks like what my niece in 3rd grade did this afternoon,-50,80,20","Beth","This color reminds me of poo,-46,60,20","0"
"15769","","survey-text","27","301654","0.0-27.0-0.0","A8TOXZCLDP72G","","","","{""Q0"":""bold and colorful""}","","","","","","","","","","","","","","","","","","","","","","",""
"7676.199999988079","","image-slider-response","28","309333","0.0-28.0","A8TOXZCLDP72G","","","","","-29","","","","","","","","","","","","","","","","","","","","","",""
"null","","image-button-response","29","314348","0.0-29.0","A8TOXZCLDP72G","img_art/ins/2.jpg","null","","","","","","","","","","","","","","","","","","","","","","","","",""
"5463","","image-button-response","30","319816","0.0-30.0","A8TOXZCLDP72G","img_art/ins/2.jpg","3","","","","","","","","","","","","","","","","","","","","","","","","",""
"8939","","image-button-response","31","328757","0.0-31.0-0.0","A8TOXZCLDP72G","img_art/ins/2.jpg","4","","","","","","","","","","","","","","","","","","","","","","","","",""
"7625","","image-button-response","32","336386","0.0-32.0-0.0","A8TOXZCLDP72G","img_art/ins/2.jpg","2","","","","","","","","","","","","","","","","","","","","","","","","",""
"null","","html-keyboard-response","33","337893","0.0-33.0","A8TOXZCLDP72G","<p style=""font-size: 48px;"">+</p>","","","","","null","allTrialResponses","1500","1","-1","img_art/ins/2.jpg","-29","bold and colorful","Jenna,Ashley,Beth,Dora,Kara,Katie","One of my pet peevs,-48,140,20","Idk, it is just annoying,-32,40,20","meaningless painting,-45,60,20","looks too angry,-50,80,20","I like the blocks of color arrangements,30,160,20","too much color!,-28,180,20","Dora","looks too angry,-50,80,20","Kara","I like the blocks of color arrangements,30,160,20","Beth","meaningless painting,-45,60,20","0"
"24293","","survey-text","34","362202","0.0-34.0-0.0","A8TOXZCLDP72G","","","","{""Q0"":""vibrant colors""}","","","","","","","","","","","","","","","","","","","","","","",""
"8144.400000035763","","image-slider-response","35","370349","0.0-35.0","A8TOXZCLDP72G","","","","","34","","","","","","","","","","","","","","","","","","","","","",""
"null","","image-button-response","36","375353","0.0-36.0","A8TOXZCLDP72G","img_art/ins/3.jpg","null","","","","","","","","","","","","","","","","","","","","","","","","",""
"2444","","image-button-response","37","377801","0.0-37.0","A8TOXZCLDP72G","img_art/ins/3.jpg","4","","","","","","","","","","","","","","","","","","","","","","","","",""
"5049","","image-button-response","38","382853","0.0-38.0-0.0","A8TOXZCLDP72G","img_art/ins/3.jpg","0","","","","","","","","","","","","","","","","","","","","","","","","",""
"2409","","image-button-response","39","385265","0.0-39.0-0.0","A8TOXZCLDP72G","img_art/ins/3.jpg","0","","","","","","","","","","","","","","","","","","","","","","","","",""
"9522","","image-button-response","40","412433","0.0-39.1-0.1","A8TOXZCLDP72G","img_art/ins/3.jpg","0","","","","","","","","","","","","","","","","","","","","","","","","",""
"2372","","image-button-response","41","421302","0.0-39.2-0.2","A8TOXZCLDP72G","img_art/ins/3.jpg","4","","","","","","","","","","","","","","","","","","","","","","","","",""
"2348","","image-button-response","42","440692","0.0-39.3-0.3","A8TOXZCLDP72G","img_art/ins/3.jpg","4","","","","","","","","","","","","","","","","","","","","","","","","",""
"2095","","image-button-response","43","448360","0.0-39.4-0.4","A8TOXZCLDP72G","img_art/ins/3.jpg","1","","","","","","","","","","","","","","","","","","","","","","","","",""
"null","","html-keyboard-response","44","448875","0.0-40.0","A8TOXZCLDP72G","<p style=""font-size: 48px;"">+</p>","","","","","null","allTrialResponses","500","1","0","img_art/ins/3.jpg","34","vibrant colors","Mary,Leslie,Beth,Dora,Kara,Rose","I like the overlapping of brushes,41,220,20","It's an alright work,15,200,20","This thing gives me anxiety,-41,60,20","My worst nightmare,-42,80,20","calming blue is very nice,36,160,20","My daily routine, it's depressing,-20,240,20","Kara","calming blue is very nice,36,160,20","Mary","I like the overlapping of brushes,41,220,20","Leslie","It's an alright work,15,200,20","8"
"5747","","image-button-response_instructions","45","454637","0.0-41.0","A8TOXZCLDP72G","","0","instructions","","","","","","","","","","","","","","","","","","","","","","","",""
"20654","","survey-likert","46","475293","0.0-42.0-0.0","A8TOXZCLDP72G","","","","{""Q0"":"""",""Q1"":0,""Q2"":1}","","","","","","","","","","","","","","","","","","","","","","",""
"5346","","survey-text","47","480646","0.0-43.0-0.0","A8TOXZCLDP72G","","","","{""Q0"":""rock""}","","","","","","","","","","","","","","","","","","","","","","",""
"21158","","survey-text","48","501806","0.0-44.0-0.0","A8TOXZCLDP72G","","","","{""Q0"":""odd yet interesting""}","","","","","","","","","","","","","","","","","","","","","","",""
"8814","","image-slider-response","49","510623","0.0-45.0","A8TOXZCLDP72G","","","","","-26","","","","","","","","","","","","","","","","","","","","","",""
"null","","image-button-response","50","515666","0.0-46.0","A8TOXZCLDP72G","img_art/2.jpg","null","","","","","","","","","","","","","","","","","","","","","","","","",""
"6029","","image-button-response","51","521701","0.0-47.0","A8TOXZCLDP72G","img_art/2.jpg","5","","","","","","","","","","","","","","","","","","","","","","","","",""
"8372","","image-button-response","52","530076","0.0-48.0-0.0","A8TOXZCLDP72G","img_art/2.jpg","3","","","","","","","","","","","","","","","","","","","","","","","","",""
"11480","","image-button-response","53","541559","0.0-49.0-0.0","A8TOXZCLDP72G","img_art/2.jpg","1","","","","","","","","","","","","","","","","","","","","","","","","",""
"null","","html-keyboard-response","54","542073","0.0-50.0","A8TOXZCLDP72G","<p style=""font-size: 48px;"">+</p>","","","","","null","allTrialResponses","500","1","1","img_art/2.jpg","-26","odd yet interesting","Kaylee,Sara,Abigail,Taylor,Erika,Christina","its ugly af to be honest,-50,200,20","Dark tone feels sad,-30,160,20","Reminds me of my baby brother,11,20,20","Doesn't give me a reaction,10,340,20","Indistinct and too bright,-21,100,20","It looks like a little kids primary color picture,3,240,20","Christina","It looks like a little kids primary color picture,3,240,20","Taylor","Doesn't give me a reaction,10,340,20","Sara","Dark tone feels sad,-30,160,20","8"
"13381","","survey-text","55","555469","0.0-51.0-0.0","A8TOXZCLDP72G","","","","{""Q0"":""love the colors""}","","","","","","","","","","","","","","","","","","","","","","",""
"6529","","image-slider-response","56","562000","0.0-52.0","A8TOXZCLDP72G","","","","","42","","","","","","","","","","","","","","","","","","","","","",""
"null","","image-button-response","57","567004","0.0-53.0","A8TOXZCLDP72G","img_art/28.jpg","null","","","","","","","","","","","","","","","","","","","","","","","","",""
"13031","","image-button-response","58","580040","0.0-54.0","A8TOXZCLDP72G","img_art/28.jpg","3","","","","","","","","","","","","","","","","","","","","","","","","",""
"7096","","image-button-response","59","587139","0.0-55.0-0.0","A8TOXZCLDP72G","img_art/28.jpg","2","","","","","","","","","","","","","","","","","","","","","","","","",""
"2915","","image-button-response","60","590057","0.0-56.0-0.0","A8TOXZCLDP72G","img_art/28.jpg","1","","","","","","","","","","","","","","","","","","","","","","","","",""
"null","","html-keyboard-response","61","591059","0.0-57.0","A8TOXZCLDP72G","<p style=""font-size: 48px;"">+</p>","","","","","null","allTrialResponses","1000","1","2","img_art/28.jpg","42","love the colors","Kristen,Sara,Lindsey,Taylor,Shelby,Christina","almost reminds me of thomas becket getting his head cut off,21,280,20","This swirly drawing i snot my type I get confused and dizzy,-20,160,20","Not a fan of the drab colors but it looks a little bit interesting.,-7,400,20","Doesn't give me an emotional response,0,340,20","This one gives me an uneasy feeling,-10,240,20","very blah colors and it's not fun,-27,240,20","Taylor","Doesn't give me an emotional response,0,340,20","Lindsey","Not a fan of the drab colors but it looks a little bit interesting.,-7,400,20","Sara","This swirly drawing i snot my type I get confused and dizzy,-20,160,20","8"
"24467","","survey-text","62","615538","0.0-58.0-0.0","A8TOXZCLDP72G","","","","{""Q0"":""reminds me an ancient carving""}","","","","","","","","","","","","","","","","","","","","","","",""
"6112.099999964237","","image-slider-response","63","621652","0.0-59.0","A8TOXZCLDP72G","","","","","42","","","","","","","","","","","","","","","","","","","","","",""
"null","","image-button-response","64","626657","0.0-60.0","A8TOXZCLDP72G","img_art/25.jpg","null","","","","","","","","","","","","","","","","","","","","","","","","",""
"5413","","image-button-response","65","632075","0.0-61.0","A8TOXZCLDP72G","img_art/25.jpg","2","","","","","","","","","","","","","","","","","","","","","","","","",""
"2700","","image-button-response","66","634779","0.0-62.0-0.0","A8TOXZCLDP72G","img_art/25.jpg","4","","","","","","","","","","","","","","","","","","","","","","","","",""
"10846","","image-button-response","67","645629","0.0-63.0-0.0","A8TOXZCLDP72G","img_art/25.jpg","0","","","","","","","","","","","","","","","","","","","","","","","","",""
"null","","html-keyboard-response","68","647139","0.0-64.0","A8TOXZCLDP72G","<p style=""font-size: 48px;"">+</p>","","","","","null","allTrialResponses","1500","1","3","img_art/25.jpg","42","reminds me an ancient carving","Victoria,Sara,Lindsey,Taylor,Sarah,Melissa","makes me think of a scary movie,-20,400,20","Green color is not my thing,-29,160,20","This piece makes me think of oppression and fighting it. Makes me feel calm, sad and strong.,11,400,20","It makes me feel a little uneasy, but I like the painting,11,340,20","green is really cool, and the pieces in black fit together and are interesting,20,180,20","do not like that color of green,-11,240,20","Lindsey","This piece makes me think of oppression and fighting it. Makes me feel calm, sad and strong.,11,400,20","Sarah","green is really cool, and the pieces in black fit together and are interesting,20,180,20","Victoria","makes me think of a scary movie,-20,400,20","8"
"23352","","survey-text","69","670503","0.0-65.0-0.0","A8TOXZCLDP72G","","","","{""Q0"":""rather calming""}","","","","","","","","","","","","","","","","","","","","","","",""
"6263.699999988079","","image-slider-response","70","676769","0.0-66.0","A8TOXZCLDP72G","","","","","44","","","","","","","","","","","","","","","","","","","","","",""
"4103","","image-button-response","71","681775","0.0-67.0","A8TOXZCLDP72G","img_art/21.jpg","0","","","","","","","","","","","","","","","","","","","","","","","","",""
"6359","","image-button-response","72","688139","0.0-68.0","A8TOXZCLDP72G","img_art/21.jpg","4","","","","","","","","","","","","","","","","","","","","","","","","",""
"3321","","image-button-response","73","691461","0.0-69.0-0.0","A8TOXZCLDP72G","img_art/21.jpg","0","","","","","","","","","","","","","","","","","","","","","","","","",""
"6717","","image-button-response","74","698181","0.0-70.0-0.0","A8TOXZCLDP72G","img_art/21.jpg","1","","","","","","","","","","","","","","","","","","","","","","","","",""
"null","","html-keyboard-response","75","699194","0.0-71.0","A8TOXZCLDP72G","<p style=""font-size: 48px;"">+</p>","","","","","null","allTrialResponses","1000","1","4","img_art/21.jpg","44","rather calming","Victoria,Maria,Lindsey,Brittany,Sarah,Emily","like the colors,30,400,20","brings up imagery of the sea and clashing, though not in a negative way,31,120,20","I like this piece more the more I look at. Still wouldn't want it in my home, though.,8,400,20","Alright. I like the colors.,5,40,20","I love the section of blues, the colors overall are really lovely,31,180,20","What's the point?,-30,40,20","Sarah","I love the section of blues, the colors overall are really lovely,31,180,20","Victoria","like the colors,30,400,20","Maria","brings up imagery of the sea and clashing, though not in a negative way,31,120,20","8"
"22932","","survey-text","76","722143","0.0-72.0-0.0","A8TOXZCLDP72G","","","","{""Q0"":""a bit confusing, but pretty colors""}","","","","","","","","","","","","","","","","","","","","","","",""
"8348","","image-slider-response","77","730493","0.0-73.0","A8TOXZCLDP72G","","","","","-21","","","","","","","","","","","","","","","","","","","","","",""
"null","","image-button-response","78","735510","0.0-74.0","A8TOXZCLDP72G","img_art/27.jpg","null","","","","","","","","","","","","","","","","","","","","","","","","",""
"7169","","image-button-response","79","742683","0.0-75.0","A8TOXZCLDP72G","img_art/27.jpg","0","","","","","","","","","","","","","","","","","","","","","","","","",""
"5606","","image-button-response","80","748292","0.0-76.0-0.0","A8TOXZCLDP72G","img_art/27.jpg","1","","","","","","","","","","","","","","","","","","","","","","","","",""
"4228","","image-button-response","81","752522","0.0-77.0-0.0","A8TOXZCLDP72G","img_art/27.jpg","3","","","","","","","","","","","","","","","","","","","","","","","","",""
"null","","html-keyboard-response","82","753534","0.0-78.0","A8TOXZCLDP72G","<p style=""font-size: 48px;"">+</p>","","","","","null","allTrialResponses","1000","1","5","img_art/27.jpg","-21","a bit confusing, but pretty colors","Victoria,Maria,Molly,Kaitlin,Sarah,Sophia","reminds me of fall,33,400,20","I generally enjoy the style, but I'm finding the green lines grating,-9,120,20","No clue what to say.,0,340,20","this reminds me of simpler time,31,60,20","i don't think i should like this one because it's a little chaotic and simple but I do,6,180,20","Yikes. I think I made this in kindergarten.,-20,280,20","Victoria","reminds me of fall,33,400,20","Maria","I generally enjoy the style, but I'm finding the green lines grating,-9,120,20","Kaitlin","this reminds me of simpler time,31,60,20","8"
"4556","","survey-text","83","758117","0.0-79.0-0.0","A8TOXZCLDP72G","","","","{""Q0"":""sky""}","","","","","","","","","","","","","","","","","","","","","","",""
"20464","","survey-text","84","778583","0.0-80.0-0.0","A8TOXZCLDP72G","","","","{""Q0"":""not sure what to make of this""}","","","","","","","","","","","","","","","","","","","","","","",""
"9018.199999988079","","image-slider-response","85","787602","0.0-81.0","A8TOXZCLDP72G","","","","","-48","","","","","","","","","","","","","","","","","","","","","",""
"4873","","image-button-response","86","792618","0.0-82.0","A8TOXZCLDP72G","img_art/5.jpg","3","","","","","","","","","","","","","","","","","","","","","","","","",""
"2507","","image-button-response","87","795132","0.0-83.0","A8TOXZCLDP72G","img_art/5.jpg","3","","","","","","","","","","","","","","","","","","","","","","","","",""
"6679","","image-button-response","88","801813","0.0-84.0-0.0","A8TOXZCLDP72G","img_art/5.jpg","0","","","","","","","","","","","","","","","","","","","","","","","","",""
"4469","","image-button-response","89","806286","0.0-85.0-0.0","A8TOXZCLDP72G","img_art/5.jpg","2","","","","","","","","","","","","","","","","","","","","","","","","",""
"null","","html-keyboard-response","90","807301","0.0-86.0","A8TOXZCLDP72G","<p style=""font-size: 48px;"">+</p>","","","","","null","allTrialResponses","1000","1","6","img_art/5.jpg","-48","not sure what to make of this","Victoria,Maria,Emma,Kaitlin,Laura,Erin","very boring and plain,-35,400,20","this feels like something I should like, but I'm not feeling the execution,-10,120,20","Kind of ugly ....,-21,60,20","a bit confused about this picture,-9,60,20","fresh and fun - bright and active,16,320,20","Flame, candle, wind,30,120,20","Kaitlin","a bit confused about this picture,-9,60,20","Victoria","very boring and plain,-35,400,20","Emma","Kind of ugly ....,-21,60,20","8"
"16429","","survey-text","91","823746","0.0-87.0-0.0","A8TOXZCLDP72G","","","","{""Q0"":""too much going on""}","","","","","","","","","","","","","","","","","","","","","","",""
"10331.600000023842","","image-slider-response","92","834079","0.0-88.0","A8TOXZCLDP72G","","","","","-29","","","","","","","","","","","","","","","","","","","","","",""
"4686","","image-button-response","93","839085","0.0-89.0","A8TOXZCLDP72G","img_art/19.jpg","0","","","","","","","","","","","","","","","","","","","","","","","","",""
"1875","","image-button-response","94","840965","0.0-90.0","A8TOXZCLDP72G","img_art/19.jpg","0","","","","","","","","","","","","","","","","","","","","","","","","",""
"4889","","image-button-response","95","845856","0.0-91.0-0.0","A8TOXZCLDP72G","img_art/19.jpg","3","","","","","","","","","","","","","","","","","","","","","","","","",""
"5303","","image-button-response","96","851162","0.0-92.0-0.0","A8TOXZCLDP72G","img_art/19.jpg","2","","","","","","","","","","","","","","","","","","","","","","","","",""
"null","","html-keyboard-response","97","852673","0.0-93.0","A8TOXZCLDP72G","<p style=""font-size: 48px;"">+</p>","","","","","null","allTrialResponses","1500","1","7","img_art/19.jpg","-29","too much going on","Victoria,Alexis,Emma,Kaitlin,Destiny,Briana","to much going on,-22,400,20","Not a fan of the blobbiness,-22,100,20","Interesting, leaves you wondering what it is,40,60,20","this looks like a busy city lifestyle,24,60,20","this flow I just really like how everything blends but also doesn't,45,360,20","Its simple and the colors i like. It reminds me of chagall,34,400,20","Victoria","to much going on,-22,400,20","Kaitlin","this looks like a busy city lifestyle,24,60,20","Emma","Interesting, leaves you wondering what it is,40,60,20","8"
"25219","","survey-text","98","877906","0.0-94.0-0.0","A8TOXZCLDP72G","","","","{""Q0"":""beautiful and artistic""}","","","","","","","","","","","","","","","","","","","","","","",""
"6795.100000023842","","image-slider-response","99","884704","0.0-95.0","A8TOXZCLDP72G","","","","","50","","","","","","","","","","","","","","","","","","","","","",""
"null","","image-button-response","100","889708","0.0-96.0","A8TOXZCLDP72G","img_art/13.jpg","null","","","","","","","","","","","","","","","","","","","","","","","","",""
"7662","","image-button-response","101","897374","0.0-97.0","A8TOXZCLDP72G","img_art/13.jpg","1","","","","","","","","","","","","","","","","","","","","","","","","",""
"8865","","image-button-response","102","906242","0.0-98.0-0.0","A8TOXZCLDP72G","img_art/13.jpg","2","","","","","","","","","","","","","","","","","","","","","","","","",""
"5554","","image-button-response","103","911799","0.0-99.0-0.0","A8TOXZCLDP72G","img_art/13.jpg","3","","","","","","","","","","","","","","","","","","","","","","","","",""
"null","","html-keyboard-response","104","912814","0.0-100.0","A8TOXZCLDP72G","<p style=""font-size: 48px;"">+</p>","","","","","null","allTrialResponses","1000","1","8","img_art/13.jpg","50","beautiful and artistic","Victoria,Savannah,Emma,Kaitlin,Cynthia,Caroline","reminds me of rain,36,400,20","Lots of depth and character.,30,200,20","It's pretty ...........,41,60,20","I like this picture. The choice of colors are good,31,60,20","It reminds me of rain,11,320,20","Pretty but didnt cause a reaction,33,100,20","Savannah","Lots of depth and character.,30,200,20","Emma","It's pretty ...........,41,60,20","Kaitlin","I like this picture. The choice of colors are good,31,60,20","8"
"13685","","survey-text","105","926513","0.0-101.0-0.0","A8TOXZCLDP72G","","","","{""Q0"":""depressing colors""}","","","","","","","","","","","","","","","","","","","","","","",""
"6391","","image-slider-response","106","932906","0.0-102.0","A8TOXZCLDP72G","","","","","-29","","","","","","","","","","","","","","","","","","","","","",""
"null","","image-button-response","107","937924","0.0-103.0","A8TOXZCLDP72G","img_art/22.jpg","null","","","","","","","","","","","","","","","","","","","","","","","","",""
"10854","","image-button-response","108","948783","0.0-104.0","A8TOXZCLDP72G","img_art/22.jpg","5","","","","","","","","","","","","","","","","","","","","","","","","",""
"3849","","image-button-response","109","952635","0.0-105.0-0.0","A8TOXZCLDP72G","img_art/22.jpg","1","","","","","","","","","","","","","","","","","","","","","","","","",""
"5732","","image-button-response","110","958370","0.0-106.0-0.0","A8TOXZCLDP72G","img_art/22.jpg","2","","","","","","","","","","","","","","","","","","","","","","","","",""
"null","","html-keyboard-response","111","959388","0.0-107.0","A8TOXZCLDP72G","<p style=""font-size: 48px;"">+</p>","","","","","null","allTrialResponses","1000","1","9","img_art/22.jpg","-29","depressing colors","Cassidy,Savannah,Emma,Kaitlin,Dominique,Kelsey","I don't really know why, I just like looking at it,10,140,20","Seems too simple.,-19,200,20","Love the use of color,50,60,20","This represents the hopes in my life.,21,60,20","Can fit with anyone. And in any home a great piece of art,35,400,20","its messy, like a child painted it,-14,240,20","Kelsey","its messy, like a child painted it,-14,240,20","Savannah","Seems too simple.,-19,200,20","Emma","Love the use of color,50,60,20","8"
"11411","","survey-text","112","970812","0.0-108.0-0.0","A8TOXZCLDP72G","","","","{""Q0"":""too busy""}","","","","","","","","","","","","","","","","","","","","","","",""
"6680.400000035763","","image-slider-response","113","977494","0.0-109.0","A8TOXZCLDP72G","","","","","-40","","","","","","","","","","","","","","","","","","","","","",""
"null","","image-button-response","114","982509","0.0-110.0","A8TOXZCLDP72G","img_art/12.jpg","null","","","","","","","","","","","","","","","","","","","","","","","","",""
"3799","","image-button-response","115","986313","0.0-111.0","A8TOXZCLDP72G","img_art/12.jpg","5","","","","","","","","","","","","","","","","","","","","","","","","",""
"7060","","image-button-response","116","993375","0.0-112.0-0.0","A8TOXZCLDP72G","img_art/12.jpg","4","","","","","","","","","","","","","","","","","","","","","","","","",""
"1450","","image-button-response","117","994827","0.0-113.0-0.0","A8TOXZCLDP72G","img_art/12.jpg","3","","","","","","","","","","","","","","","","","","","","","","","","",""
"null","","html-keyboard-response","118","995335","0.0-114.0","A8TOXZCLDP72G","<p style=""font-size: 48px;"">+</p>","","","","","null","allTrialResponses","500","1","10","img_art/12.jpg","-40","too busy","Rachel,Savannah,Emma,Kimberly,Gabriela,Kelsey","I like how it's split into tiny squares, but otherwise, not very intriguing.,-18,80,20","Almost natural flowing between abstract sections.,27,200,20","Pretty but not a huge fan of the colors,20,60,20","Just not a fan, I can't figure out why,-17,260,20","In my opinion, this photo has an old school vibe,22,140,20","dont like the squares,-16,240,20","Kelsey","dont like the squares,-16,240,20","Gabriela","In my opinion, this photo has an old school vibe,22,140,20","Kimberly","Just not a fan, I can't figure out why,-17,260,20","8"
"5228","","survey-text","119","1000588","0.0-115.0-0.0","A8TOXZCLDP72G","","","","{""Q0"":""our""}","","","","","","","","","","","","","","","","","","","","","","",""
"16775","","survey-text","120","1017365","0.0-116.0-0.0","A8TOXZCLDP72G","","","","{""Q0"":""reminds me of Fall""}","","","","","","","","","","","","","","","","","","","","","","",""
"5809.5","","image-slider-response","121","1023177","0.0-117.0","A8TOXZCLDP72G","","","","","25","","","","","","","","","","","","","","","","","","","","","",""
"null","","image-button-response","122","1028181","0.0-118.0","A8TOXZCLDP72G","img_art/1.jpg","null","","","","","","","","","","","","","","","","","","","","","","","","",""
"803","","image-button-response","123","1028988","0.0-119.0","A8TOXZCLDP72G","img_art/1.jpg","2","","","","","","","","","","","","","","","","","","","","","","","","",""
"6529","","image-button-response","124","1035520","0.0-120.0-0.0","A8TOXZCLDP72G","img_art/1.jpg","4","","","","","","","","","","","","","","","","","","","","","","","","",""
"10672","","image-button-response","125","1046195","0.0-121.0-0.0","A8TOXZCLDP72G","img_art/1.jpg","5","","","","","","","","","","","","","","","","","","","","","","","","",""
"null","","html-keyboard-response","126","1047198","0.0-122.0","A8TOXZCLDP72G","<p style=""font-size: 48px;"">+</p>","","","","","null","allTrialResponses","1000","1","11","img_art/1.jpg","25","reminds me of Fall","Natalie,Alicia,Hannah,Kimberly,Gabriela,Kelsey","my reaction is that the picture is that Ive seen it before,-14,400,20","just colors mixed together. not interesting.,5,120,20","Reminds me of fall.,7,240,20","It's like being out on a psychedelic lake,32,260,20","This photo reminds me of a fall afternoon, serene,11,140,20","this ones alright,10,240,20","Hannah","Reminds me of fall.,7,240,20","Gabriela","This photo reminds me of a fall afternoon, serene,11,140,20","Kelsey","this ones alright,10,240,20","8"
"20672","","survey-text","127","1067884","0.0-123.0-0.0","A8TOXZCLDP72G","","","","{""Q0"":""very interesting; I like it!""}","","","","","","","","","","","","","","","","","","","","","","",""
"8712.100000023842","","image-slider-response","128","1076598","0.0-124.0","A8TOXZCLDP72G","","","","","45","","","","","","","","","","","","","","","","","","","","","",""
"null","","image-button-response","129","1081604","0.0-125.0","A8TOXZCLDP72G","img_art/29.jpg","null","","","","","","","","","","","","","","","","","","","","","","","","",""
"5651","","image-button-response","130","1087259","0.0-126.0","A8TOXZCLDP72G","img_art/29.jpg","2","","","","","","","","","","","","","","","","","","","","","","","","",""
"2006","","image-button-response","131","1089268","0.0-127.0-0.0","A8TOXZCLDP72G","img_art/29.jpg","1","","","","","","","","","","","","","","","","","","","","","","","","",""
"13247","","image-button-response","132","1102517","0.0-128.0-0.0","A8TOXZCLDP72G","img_art/29.jpg","4","","","","","","","","","","","","","","","","","","","","","","","","",""
"null","","html-keyboard-response","133","1104034","0.0-129.0","A8TOXZCLDP72G","<p style=""font-size: 48px;"">+</p>","","","","","null","allTrialResponses","1500","1","12","img_art/29.jpg","45","very interesting; I like it!","Autumn,Amanda,Hannah,Grace,Gabriela,Kelsey","It's too messy.,-25,340,20","Once again, very modern, activists will love,27,180,20","I don't like the red X through it.,-20,240,20","Doesn't do much for me. I like some of the colors but not much else.,-10,180,20","I like that it looks like a scene from perhaps a failed painted project,10,140,20","dont like this one,-20,240,20","Hannah","I don't like the red X through it.,-20,240,20","Amanda","Once again, very modern, activists will love,27,180,20","Gabriela","I like that it looks like a scene from perhaps a failed painted project,10,140,20","8"
"11694","","survey-text","134","1115742","0.0-130.0-0.0","A8TOXZCLDP72G","","","","{""Q0"":""pretty muted colors""}","","","","","","","","","","","","","","","","","","","","","","",""
"6047.699999988079","","image-slider-response","135","1121792","0.0-131.0","A8TOXZCLDP72G","","","","","32","","","","","","","","","","","","","","","","","","","","","",""
"null","","image-button-response","136","1126810","0.0-132.0","A8TOXZCLDP72G","img_art/14.jpg","null","","","","","","","","","","","","","","","","","","","","","","","","",""
"8240","","image-button-response","137","1135056","0.0-133.0","A8TOXZCLDP72G","img_art/14.jpg","5","","","","","","","","","","","","","","","","","","","","","","","","",""
"2246","","image-button-response","138","1137304","0.0-134.0-0.0","A8TOXZCLDP72G","img_art/14.jpg","0","","","","","","","","","","","","","","","","","","","","","","","","",""
"1273","","image-button-response","139","1138580","0.0-135.0-0.0","A8TOXZCLDP72G","img_art/14.jpg","1","","","","","","","","","","","","","","","","","","","","","","","","",""
"null","","html-keyboard-response","140","1139585","0.0-136.0","A8TOXZCLDP72G","<p style=""font-size: 48px;"">+</p>","","","","","null","allTrialResponses","1000","1","13","img_art/14.jpg","32","pretty muted colors","Sydney,Amanda,Hannah,Danielle,Gabriela,Michaela","I'm imagining a flower bouquet with pretty colors which I like.,35,320,20","Gorgeous use of water color,50,180,20","This doesn't speak to me on an emotional level,-6,240,20","Too much yellow in this image, i'm not a fan of art that is overly-saturated with yellow,-30,340,20","It looks like a table centerpiece,-22,140,20","I just really like light and wispy things,33,260,20","Michaela","I just really like light and wispy things,33,260,20","Sydney","I'm imagining a flower bouquet with pretty colors which I like.,35,320,20","Amanda","Gorgeous use of water color,50,180,20","8"
"20226","","survey-text","141","1159838","0.0-137.0-0.0","A8TOXZCLDP72G","","","","{""Q0"":""color choices are interesting""}","","","","","","","","","","","","","","","","","","","","","","",""
"6176.299999952316","","image-slider-response","142","1166017","0.0-138.0","A8TOXZCLDP72G","","","","","-24","","","","","","","","","","","","","","","","","","","","","",""
"null","","image-button-response","143","1171020","0.0-139.0","A8TOXZCLDP72G","img_art/9.jpg","null","","","","","","","","","","","","","","","","","","","","","","","","",""
"893","","image-button-response","144","1171917","0.0-140.0","A8TOXZCLDP72G","img_art/9.jpg","0","","","","","","","","","","","","","","","","","","","","","","","","",""
"5519","","image-button-response","145","1177439","0.0-141.0-0.0","A8TOXZCLDP72G","img_art/9.jpg","4","","","","","","","","","","","","","","","","","","","","","","","","",""
"1109","","image-button-response","146","1178551","0.0-142.0-0.0","A8TOXZCLDP72G","img_art/9.jpg","5","","","","","","","","","","","","","","","","","","","","","","","","",""
"null","","html-keyboard-response","147","1179566","0.0-143.0","A8TOXZCLDP72G","<p style=""font-size: 48px;"">+</p>","","","","","null","allTrialResponses","1000","1","14","img_art/9.jpg","-24","color choices are interesting","Sydney,Amanda,Diana,Jordan,Jamie,Michaela","I see some of my favorite colors which I like, but I don't like what's portrayed.,35,320,20","Makes me feel angry, its not very clear,-50,180,20","I think it's sleeping beauty but I'm not sure. I didn't care for this piece.,-30,380,20","I just dont like it, no reaction from me at all,-50,20,20","Mash up of colors and designs don't really go together,-5,320,20","The colors remind me of peacocks,24,260,20","Sydney","I see some of my favorite colors which I like, but I don't like what's portrayed.,35,320,20","Jamie","Mash up of colors and designs don't really go together,-5,320,20","Michaela","The colors remind me of peacocks,24,260,20","8"
"13243","","survey-text","148","1192826","0.0-144.0-0.0","A8TOXZCLDP72G","","","","{""Q0"":""a bit strange""}","","","","","","","","","","","","","","","","","","","","","","",""
"9384.300000011921","","image-slider-response","149","1202213","0.0-145.0","A8TOXZCLDP72G","","","","","-42","","","","","","","","","","","","","","","","","","","","","",""
"null","","image-button-response","150","1207223","0.0-146.0","A8TOXZCLDP72G","img_art/6.jpg","null","","","","","","","","","","","","","","","","","","","","","","","","",""
"8896","","image-button-response","151","1216124","0.0-147.0","A8TOXZCLDP72G","img_art/6.jpg","2","","","","","","","","","","","","","","","","","","","","","","","","",""
"7452","","image-button-response","152","1223579","0.0-148.0-0.0","A8TOXZCLDP72G","img_art/6.jpg","5","","","","","","","","","","","","","","","","","","","","","","","","",""
"1323","","image-button-response","153","1224905","0.0-149.0-0.0","A8TOXZCLDP72G","img_art/6.jpg","1","","","","","","","","","","","","","","","","","","","","","","","","",""
"null","","html-keyboard-response","154","1225911","0.0-150.0","A8TOXZCLDP72G","<p style=""font-size: 48px;"">+</p>","","","","","null","allTrialResponses","1000","1","15","img_art/6.jpg","-42","a bit strange","Sydney,Alexa,Shannon,Gabrielle,Jamie,Michaela","This piece reminds me of the lorax.,5,320,20","Too basic for me,-20,40,20","I can't tell what this image is, but it's boring because of lack of color variety and nothing in it,-41,220,20","simplistic but reminds me of a crow in a field,-10,160,20","Tree growing in a desert. Gives me feelings of hope,5,320,20","It looks like a bird looking away,32,260,20","Shannon","I can't tell what this image is, but it's boring because of lack of color variety and nothing in it,-41,220,20","Michaela","It looks like a bird looking away,32,260,20","Alexa","Too basic for me,-20,40,20","8"
"8378","","survey-text","155","1234318","0.0-151.0-0.0","A8TOXZCLDP72G","","","","{""Q0"":""course""}","","","","","","","","","","","","","","","","","","","","","","",""
"13480","","survey-text","156","1247800","0.0-152.0-0.0","A8TOXZCLDP72G","","","","{""Q0"":""a bit confusing""}","","","","","","","","","","","","","","","","","","","","","","",""
"5946.699999988079","","image-slider-response","157","1253749","0.0-153.0","A8TOXZCLDP72G","","","","","-45","","","","","","","","","","","","","","","","","","","","","",""
"null","","image-button-response","158","1258755","0.0-154.0","A8TOXZCLDP72G","img_art/4.jpg","null","","","","","","","","","","","","","","","","","","","","","","","","",""
"3201","","image-button-response","159","1261960","0.0-155.0","A8TOXZCLDP72G","img_art/4.jpg","0","","","","","","","","","","","","","","","","","","","","","","","","",""
"2057","","image-button-response","160","1264020","0.0-156.0-0.0","A8TOXZCLDP72G","img_art/4.jpg","4","","","","","","","","","","","","","","","","","","","","","","","","",""
"1717","","image-button-response","161","1265739","0.0-157.0-0.0","A8TOXZCLDP72G","img_art/4.jpg","5","","","","","","","","","","","","","","","","","","","","","","","","",""
"null","","html-keyboard-response","162","1266751","0.0-158.0","A8TOXZCLDP72G","<p style=""font-size: 48px;"">+</p>","","","","","null","allTrialResponses","1000","1","16","img_art/4.jpg","-45","a bit confusing","Brianna,Alexa,Shannon,Jacqueline,Kaitlyn,Michaela","Really don't care for the yellowish brown color in the center.,-19,20,20","A bit too plain for my tastes,-10,40,20","I think that this picture is too boring in terms of color and it looks ugly.,-41,220,20","It looks like smeared poop.,-27,300,20","I don't understand this at all,3,80,20","It reminds me of something a kid would make for their parents,13,260,20","Brianna","Really don't care for the yellowish brown color in the center.,-19,20,20","Kaitlyn","I don't understand this at all,3,80,20","Michaela","It reminds me of something a kid would make for their parents,13,260,20","8"
"18427","","survey-text","163","1285196","0.0-159.0-0.0","A8TOXZCLDP72G","","","","{""Q0"":""reminds me of a bee swarm""}","","","","","","","","","","","","","","","","","","","","","","",""
"5798.800000011921","","image-slider-response","164","1290997","0.0-160.0","A8TOXZCLDP72G","","","","","-42","","","","","","","","","","","","","","","","","","","","","",""
"null","","image-button-response","165","1296009","0.0-161.0","A8TOXZCLDP72G","img_art/15.jpg","null","","","","","","","","","","","","","","","","","","","","","","","","",""
"14427","","image-button-response","166","1310442","0.0-162.0","A8TOXZCLDP72G","img_art/15.jpg","1","","","","","","","","","","","","","","","","","","","","","","","","",""
"5267","","image-button-response","167","1315712","0.0-163.0-0.0","A8TOXZCLDP72G","img_art/15.jpg","3","","","","","","","","","","","","","","","","","","","","","","","","",""
"1588","","image-button-response","168","1317303","0.0-164.0-0.0","A8TOXZCLDP72G","img_art/15.jpg","4","","","","","","","","","","","","","","","","","","","","","","","","",""
"null","","html-keyboard-response","169","1317818","0.0-165.0","A8TOXZCLDP72G","<p style=""font-size: 48px;"">+</p>","","","","","null","allTrialResponses","500","1","17","img_art/15.jpg","-42","reminds me of a bee swarm","Brianna,Morgan,Mikayla,Cheyenne,Kaitlyn,Michaela","No opinion truthfully,1,20,20","Leafs spread on the ground.,27,380,20","The dots are cool with the blue accents.,24,300,20","I like how the black and blue clash.,14,200,20","Simplicity of colors is nice,11,80,20","Reminds me of lilacs,26,260,20","Morgan","Leafs spread on the ground.,27,380,20","Cheyenne","I like how the black and blue clash.,14,200,20","Kaitlyn","Simplicity of colors is nice,11,80,20","8"
"22492","","survey-text","170","1340324","0.0-166.0-0.0","A8TOXZCLDP72G","","","","{""Q0"":""colors are too bland for my liking""}","","","","","","","","","","","","","","","","","","","","","","",""
"7009.200000047684","","image-slider-response","171","1347335","0.0-167.0","A8TOXZCLDP72G","","","","","14","","","","","","","","","","","","","","","","","","","","","",""
"null","","image-button-response","172","1352341","0.0-168.0","A8TOXZCLDP72G","img_art/26.jpg","null","","","","","","","","","","","","","","","","","","","","","","","","",""
"11683","","image-button-response","173","1364029","0.0-169.0","A8TOXZCLDP72G","img_art/26.jpg","4","","","","","","","","","","","","","","","","","","","","","","","","",""
"2359","","image-button-response","174","1366391","0.0-170.0-0.0","A8TOXZCLDP72G","img_art/26.jpg","2","","","","","","","","","","","","","","","","","","","","","","","","",""
"1489","","image-button-response","175","1367883","0.0-171.0-0.0","A8TOXZCLDP72G","img_art/26.jpg","1","","","","","","","","","","","","","","","","","","","","","","","","",""
"null","","html-keyboard-response","176","1368889","0.0-172.0","A8TOXZCLDP72G","<p style=""font-size: 48px;"">+</p>","","","","","null","allTrialResponses","1000","1","18","img_art/26.jpg","14","colors are too bland for my liking","Kayla,Morgan,Michelle,Cheyenne,Kaitlyn,Alyssa","Looks like the suburbs. I live in those.,13,180,20","Confusing park picture.,8,380,20","I can make out a street view and I am a fan of watercolors but still too boring,15,280,20","No strong reaction but the color scheme is nice,10,200,20","The colors look faded and blurry,2,80,20","Its pretty.And a nice use of water colors.,25,160,20","Kaitlyn","The colors look faded and blurry,2,80,20","Michelle","I can make out a street view and I am a fan of watercolors but still too boring,15,280,20","Morgan","Confusing park picture.,8,380,20","8"
"13270","","survey-text","177","1382173","0.0-173.0-0.0","A8TOXZCLDP72G","","","","{""Q0"":""reminds me of a rollercoaster""}","","","","","","","","","","","","","","","","","","","","","","",""
"5393.199999988079","","image-slider-response","178","1387569","0.0-174.0","A8TOXZCLDP72G","","","","","19","","","","","","","","","","","","","","","","","","","","","",""
"3548","","image-button-response","179","1392574","0.0-175.0","A8TOXZCLDP72G","img_art/10.jpg","1","","","","","","","","","","","","","","","","","","","","","","","","",""
"1345","","image-button-response","180","1393924","0.0-176.0","A8TOXZCLDP72G","img_art/10.jpg","1","","","","","","","","","","","","","","","","","","","","","","","","",""
"17182","","image-button-response","181","1411109","0.0-177.0-0.0","A8TOXZCLDP72G","img_art/10.jpg","3","","","","","","","","","","","","","","","","","","","","","","","","",""
"3193","","image-button-response","182","1414305","0.0-178.0-0.0","A8TOXZCLDP72G","img_art/10.jpg","4","","","","","","","","","","","","","","","","","","","","","","","","",""
"null","","html-keyboard-response","183","1414815","0.0-179.0","A8TOXZCLDP72G","<p style=""font-size: 48px;"">+</p>","","","","","null","allTrialResponses","500","1","19","img_art/10.jpg","19","reminds me of a rollercoaster","Monica,Morgan,Michelle,Rebecca,Kaitlyn,Leslie","It doesn't look pleasing to the eye, it kind of looks like an animal but a dirty one,-38,360,20","Roller coaster on an island.,9,380,20","This could be a guitar, or it could be a completely random shape.,-3,280,20","gives a sense of a roller coaster unit splashed in water. it's not but i love it nevertheless,44,100,20","Picture looks smudged,-7,80,20","I love the chaotic feel of the brush strokes.,35,380,20","Morgan","Roller coaster on an island.,9,380,20","Rebecca","gives a sense of a roller coaster unit splashed in water. it's not but i love it nevertheless,44,100,20","Kaitlyn","Picture looks smudged,-7,80,20","8"
"10186","","survey-text","184","1425019","0.0-180.0-0.0","A8TOXZCLDP72G","","","","{""Q0"":""scary""}","","","","","","","","","","","","","","","","","","","","","","",""
"9524","","survey-text","185","1439638","0.0-180.1-0.1","A8TOXZCLDP72G","","","","{""Q0"":""scary and confused""}","","","","","","","","","","","","","","","","","","","","","","",""
"5810.300000011921","","image-slider-response","186","1445451","0.0-181.0","A8TOXZCLDP72G","","","","","-48","","","","","","","","","","","","","","","","","","","","","",""
"null","","image-button-response","187","1450464","0.0-182.0","A8TOXZCLDP72G","img_art/3.jpg","null","","","","","","","","","","","","","","","","","","","","","","","","",""
"4750","","image-button-response","188","1455219","0.0-183.0","A8TOXZCLDP72G","img_art/3.jpg","5","","","","","","","","","","","","","","","","","","","","","","","","",""
"3270","","image-button-response","189","1458492","0.0-184.0-0.0","A8TOXZCLDP72G","img_art/3.jpg","0","","","","","","","","","","","","","","","","","","","","","","","","",""
"6947","","image-button-response","190","1465442","0.0-185.0-0.0","A8TOXZCLDP72G","img_art/3.jpg","1","","","","","","","","","","","","","","","","","","","","","","","","",""
"null","","html-keyboard-response","191","1466959","0.0-186.0","A8TOXZCLDP72G","<p style=""font-size: 48px;"">+</p>","","","","","null","allTrialResponses","1500","1","20","img_art/3.jpg","-48","scary and confused","Cassandra,Morgan,Crystal,Rebecca,Kaitlyn,Heather","I hate this...just a scribble of red.,-50,120,20","Somewhere between a child's art and a poorly drawn battle map.,8,380,20","I like the abstract flowing lines. It lacks hard rigid marks and flow nicely into a piece of calamity.,32,300,20","sorry do not understand,-26,100,20","Too much red; very bland,-26,80,20","Blood splatter and one black spot.,1,260,20","Heather","Blood splatter and one black spot.,1,260,20","Cassandra","I hate this...just a scribble of red.,-50,120,20","Morgan","Somewhere between a child's art and a poorly drawn battle map.,8,380,20","8"
"3859","","survey-text","192","1470850","0.0-187.0-0.0","A8TOXZCLDP72G","","","","{""Q0"":""we""}","","","","","","","","","","","","","","","","","","","","","","",""
"44450","","survey-text","193","1515302","0.0-188.0-0.0","A8TOXZCLDP72G","","","","{""Q0"":""reminds me of people playing musical instruments under a starry sky""}","","","","","","","","","","","","","","","","","","","","","","",""
"7315.100000023842","","image-slider-response","194","1522619","0.0-189.0","A8TOXZCLDP72G","","","","","44","","","","","","","","","","","","","","","","","","","","","",""
"null","","image-button-response","195","1527630","0.0-190.0","A8TOXZCLDP72G","img_art/23.jpg","null","","","","","","","","","","","","","","","","","","","","","","","","",""
"8629","","image-button-response","196","1536264","0.0-191.0","A8TOXZCLDP72G","img_art/23.jpg","2","","","","","","","","","","","","","","","","","","","","","","","","",""
"16802","","image-button-response","197","1553069","0.0-192.0-0.0","A8TOXZCLDP72G","img_art/23.jpg","5","","","","","","","","","","","","","","","","","","","","","","","","",""
"3939","","image-button-response","198","1557011","0.0-193.0-0.0","A8TOXZCLDP72G","img_art/23.jpg","0","","","","","","","","","","","","","","","","","","","","","","","","",""
"null","","html-keyboard-response","199","1558013","0.0-194.0","A8TOXZCLDP72G","<p style=""font-size: 48px;"">+</p>","","","","","null","allTrialResponses","1000","1","21","img_art/23.jpg","44","reminds me of people playing musical instruments under a starry sky","Cassandra,Morgan,Elizabeth,Katie,Makayla,Heather","I had a very neutral feeling to this,no feelings at all.,1,120,20","Unicorns flying through a colorful space.,25,380,20","Fantastic blend of color and forms,43,20,20","I don't get it! the white in the middle of the speckled rainbow is confusing.,-10,160,20","Reminds me of disco/70's, not my favorite design,-12,80,20","illegible wording with a graffiti background,1,260,20","Elizabeth","Fantastic blend of color and forms,43,20,20","Heather","illegible wording with a graffiti background,1,260,20","Cassandra","I had a very neutral feeling to this,no feelings at all.,1,120,20","8"
"32805","","survey-text","200","1590836","0.0-195.0-0.0","A8TOXZCLDP72G","","","","{""Q0"":""beautiful colors and amazing artistic form""}","","","","","","","","","","","","","","","","","","","","","","",""
"7289","","image-slider-response","201","1598128","0.0-196.0","A8TOXZCLDP72G","","","","","50","","","","","","","","","","","","","","","","","","","","","",""
"null","","image-button-response","202","1603146","0.0-197.0","A8TOXZCLDP72G","img_art/17.jpg","null","","","","","","","","","","","","","","","","","","","","","","","","",""
"1410","","image-button-response","203","1604561","0.0-198.0","A8TOXZCLDP72G","img_art/17.jpg","0","","","","","","","","","","","","","","","","","","","","","","","","",""
"2753","","image-button-response","204","1607316","0.0-199.0-0.0","A8TOXZCLDP72G","img_art/17.jpg","5","","","","","","","","","","","","","","","","","","","","","","","","",""
"5771","","image-button-response","205","1613091","0.0-200.0-0.0","A8TOXZCLDP72G","img_art/17.jpg","2","","","","","","","","","","","","","","","","","","","","","","","","",""
"null","","html-keyboard-response","206","1614603","0.0-201.0","A8TOXZCLDP72G","<p style=""font-size: 48px;"">+</p>","","","","","null","allTrialResponses","1500","1","22","img_art/17.jpg","50","beautiful colors and amazing artistic form","Cassandra,Angela,Elizabeth,Lauren,Sabrina,Heather","Very pretty...the colors and good and flow well.,33,120,20","I like this, but it's a bit bland.,10,260,20","Has a unique vibe to it,50,20,20","I like how the image gives an impression of gaseous tree.,15,340,20","Messy shadow of loss and love,50,120,20","Beautiful simply beautiful. i would love this,,50,260,20","Cassandra","Very pretty...the colors and good and flow well.,33,120,20","Heather","Beautiful simply beautiful. i would love this,,50,260,20","Elizabeth","Has a unique vibe to it,50,20,20","8"
"15089","","survey-text","207","1629710","0.0-202.0-0.0","A8TOXZCLDP72G","","","","{""Q0"":""surface of the moon?""}","","","","","","","","","","","","","","","","","","","","","","",""
"7327.5","","image-slider-response","208","1637040","0.0-203.0","A8TOXZCLDP72G","","","","","27","","","","","","","","","","","","","","","","","","","","","",""
"null","","image-button-response","209","1642047","0.0-204.0","A8TOXZCLDP72G","img_art/7.jpg","null","","","","","","","","","","","","","","","","","","","","","","","","",""
"1021","","image-button-response","210","1643072","0.0-205.0","A8TOXZCLDP72G","img_art/7.jpg","1","","","","","","","","","","","","","","","","","","","","","","","","",""
"8417","","image-button-response","211","1651490","0.0-206.0-0.0","A8TOXZCLDP72G","img_art/7.jpg","4","","","","","","","","","","","","","","","","","","","","","","","","",""
"4105","","image-button-response","212","1655599","0.0-207.0-0.0","A8TOXZCLDP72G","img_art/7.jpg","0","","","","","","","","","","","","","","","","","","","","","","","","",""
"null","","html-keyboard-response","213","1656606","0.0-208.0","A8TOXZCLDP72G","<p style=""font-size: 48px;"">+</p>","","","","","null","allTrialResponses","1000","1","23","img_art/7.jpg","27","surface of the moon?","Cassandra,Caitlin,Elizabeth,Haley,Julia,Heather","Just neutral...looks like sand at the beach.,3,120,20","Looks like a photo taken from the moon.,-6,80,20","The picture is just random,-8,20,20","Confusion, mild aversion,-36,220,20","I would like this more if I could pretend it was the moon.,-26,40,20","i dont like it. it looks like rocks,-40,260,20","Caitlin","Looks like a photo taken from the moon.,-6,80,20","Julia","I would like this more if I could pretend it was the moon.,-26,40,20","Cassandra","Just neutral...looks like sand at the beach.,3,120,20","8"
"24799","","survey-text","214","1681428","0.0-209.0-0.0","A8TOXZCLDP72G","","","","{""Q0"":""reminds me of highway congestion ""}","","","","","","","","","","","","","","","","","","","","","","",""
"10234.300000011921","","image-slider-response","215","1691665","0.0-210.0","A8TOXZCLDP72G","","","","","5","","","","","","","","","","","","","","","","","","","","","",""
"null","","image-button-response","216","1696679","0.0-211.0","A8TOXZCLDP72G","img_art/11.jpg","null","","","","","","","","","","","","","","","","","","","","","","","","",""
"9553","","image-button-response","217","1706237","0.0-212.0","A8TOXZCLDP72G","img_art/11.jpg","2","","","","","","","","","","","","","","","","","","","","","","","","",""
"2070","","image-button-response","218","1708310","0.0-213.0-0.0","A8TOXZCLDP72G","img_art/11.jpg","1","","","","","","","","","","","","","","","","","","","","","","","","",""
"5507","","image-button-response","219","1713819","0.0-214.0-0.0","A8TOXZCLDP72G","img_art/11.jpg","3","","","","","","","","","","","","","","","","","","","","","","","","",""
"null","","html-keyboard-response","220","1714325","0.0-215.0","A8TOXZCLDP72G","<p style=""font-size: 48px;"">+</p>","","","","","null","allTrialResponses","500","1","24","img_art/11.jpg","5","reminds me of highway congestion ","Cassandra,Caitlin,Jessica,Megan,Julia,Hailey","I liked it it looked like an roller coasters at an amusment park.,16,120,20","Busy, busy oceanside city.,-10,80,20","This looks cool, and definitely comes to life in a way,36,400,20","Some interesting color but scratchy train mess.,-14,200,20","this looks like a beautiful rainy day in a hellish urban mountain city,14,40,20","a train going around the country,14,200,20","Jessica","This looks cool, and definitely comes to life in a way,36,400,20","Caitlin","Busy, busy oceanside city.,-10,80,20","Megan","Some interesting color but scratchy train mess.,-14,200,20","8"
"14388","","survey-text","221","1728731","0.0-216.0-0.0","A8TOXZCLDP72G","","","","{""Q0"":""love the use of colors""}","","","","","","","","","","","","","","","","","","","","","","",""
"46757.30000001192","","image-slider-response","222","1775490","0.0-217.0","A8TOXZCLDP72G","","","","","48","","","","","","","","","","","","","","","","","","","","","",""
"null","","image-button-response","223","1780506","0.0-218.0","A8TOXZCLDP72G","img_art/18.jpg","null","","","","","","","","","","","","","","","","","","","","","","","","",""
"33316","","image-button-response","224","1813827","0.0-219.0","A8TOXZCLDP72G","img_art/18.jpg","2","","","","","","","","","","","","","","","","","","","","","","","","",""
"4660","","image-button-response","225","1818489","0.0-220.0-0.0","A8TOXZCLDP72G","img_art/18.jpg","3","","","","","","","","","","","","","","","","","","","","","","","","",""
"7098","","image-button-response","226","1825590","0.0-221.0-0.0","A8TOXZCLDP72G","img_art/18.jpg","1","","","","","","","","","","","","","","","","","","","","","","","","",""
"null","","html-keyboard-response","227","1827103","0.0-222.0","A8TOXZCLDP72G","<p style=""font-size: 48px;"">+</p>","","","","","null","allTrialResponses","1500","1","25","img_art/18.jpg","48","love the use of colors","Olivia,Caitlin,Jessica,Megan,Madeline,Breanna","death rides in life,-25,40,20","Bad guys are after the good guy.,-10,80,20","I think this looks pretty cool, I can see what's kind of going on here.,22,400,20","Nice palette with complexity becoming nice at the center,34,200,20","Good concept but then scribbled on a bit?,15,40,20","Makes me feel confused,16,380,20","Jessica","I think this looks pretty cool, I can see what's kind of going on here.,22,400,20","Megan","Nice palette with complexity becoming nice at the center,34,200,20","Caitlin","Bad guys are after the good guy.,-10,80,20","8"
"5116","","survey-text","228","1832249","0.0-223.0-0.0","A8TOXZCLDP72G","","","","{""Q0"":""table""}","","","","","","","","","","","","","","","","","","","","","","",""
"22579","","survey-text","229","1854830","0.0-224.0-0.0","A8TOXZCLDP72G","","","","{""Q0"":""nice colors, but a bit confusing""}","","","","","","","","","","","","","","","","","","","","","","",""
"5783","","image-slider-response","230","1860616","0.0-225.0","A8TOXZCLDP72G","","","","","-25","","","","","","","","","","","","","","","","","","","","","",""
"null","","image-button-response","231","1865619","0.0-226.0","A8TOXZCLDP72G","img_art/30.jpg","null","","","","","","","","","","","","","","","","","","","","","","","","",""
"3043","","image-button-response","232","1868667","0.0-227.0","A8TOXZCLDP72G","img_art/30.jpg","2","","","","","","","","","","","","","","","","","","","","","","","","",""
"3130","","image-button-response","233","1871801","0.0-228.0-0.0","A8TOXZCLDP72G","img_art/30.jpg","5","","","","","","","","","","","","","","","","","","","","","","","","",""
"4356","","image-button-response","234","1876160","0.0-229.0-0.0","A8TOXZCLDP72G","img_art/30.jpg","3","","","","","","","","","","","","","","","","","","","","","","","","",""
"null","","html-keyboard-response","235","1877670","0.0-230.0","A8TOXZCLDP72G","<p style=""font-size: 48px;"">+</p>","","","","","null","allTrialResponses","1500","1","26","img_art/30.jpg","-25","nice colors, but a bit confusing","Marissa,Caitlin,Jessica,Megan,Andrea,Samantha","I really like the broad and colorful strokes,21,160,20","My kid drew this same picture at daycare!!!,5,80,20","Looks cool , but no meaning,1,400,20","10 year old 10 minute project ""Fun with Painting"",-42,200,20","It feels like graffiti and the dark colors do nothing for the mood.,-5,240,20","Too much like childrens finger paint. I dont like the smear of blended colors,-50,140,20","Jessica","Looks cool , but no meaning,1,400,20","Samantha","Too much like childrens finger paint. I dont like the smear of blended colors,-50,140,20","Megan","10 year old 10 minute project ""Fun with Painting"",-42,200,20","8"
"22793","","survey-text","236","1900481","0.0-231.0-0.0","A8TOXZCLDP72G","","","","{""Q0"":""dark colors. Seems a bit sad""}","","","","","","","","","","","","","","","","","","","","","","",""
"7149.5","","image-slider-response","237","1907633","0.0-232.0","A8TOXZCLDP72G","","","","","-47","","","","","","","","","","","","","","","","","","","","","",""
"null","","image-button-response","238","1912639","0.0-233.0","A8TOXZCLDP72G","img_art/20.jpg","null","","","","","","","","","","","","","","","","","","","","","","","","",""
"6831","","image-button-response","239","1919474","0.0-234.0","A8TOXZCLDP72G","img_art/20.jpg","5","","","","","","","","","","","","","","","","","","","","","","","","",""
"11157","","image-button-response","240","1930633","0.0-235.0-0.0","A8TOXZCLDP72G","img_art/20.jpg","0","","","","","","","","","","","","","","","","","","","","","","","","",""
"2233","","image-button-response","241","1932870","0.0-236.0-0.0","A8TOXZCLDP72G","img_art/20.jpg","3","","","","","","","","","","","","","","","","","","","","","","","","",""
"null","","html-keyboard-response","242","1933873","0.0-237.0","A8TOXZCLDP72G","<p style=""font-size: 48px;"">+</p>","","","","","null","allTrialResponses","1000","1","27","img_art/20.jpg","-47","dark colors. Seems a bit sad","Madison,Ashley,Jessica,Megan,Bailey,Samantha","This is not abstract art, it is representative.,0,60,20","Painting within a painting, abstract.,32,320,20","It looks painted really nicely.,5,400,20","Fails to capture what similar styles do,-12,200,20","A bit hectic, but it does have a bit of coolness to it,6,360,20","Use of white on foreground is too big and steals eyes away from rest of painting,2,140,20","Samantha","Use of white on foreground is too big and steals eyes away from rest of painting,2,140,20","Madison","This is not abstract art, it is representative.,0,60,20","Megan","Fails to capture what similar styles do,-12,200,20","8"
"24138","","survey-text","243","1958031","0.0-238.0-0.0","A8TOXZCLDP72G","","","","{""Q0"":""looks like the bear lost his stuffing""}","","","","","","","","","","","","","","","","","","","","","","",""
"6165.300000011921","","image-slider-response","244","1964198","0.0-239.0","A8TOXZCLDP72G","","","","","-44","","","","","","","","","","","","","","","","","","","","","",""
"null","","image-button-response","245","1969207","0.0-240.0","A8TOXZCLDP72G","img_art/16.jpg","null","","","","","","","","","","","","","","","","","","","","","","","","",""
"5525","","image-button-response","246","1974738","0.0-241.0","A8TOXZCLDP72G","img_art/16.jpg","3","","","","","","","","","","","","","","","","","","","","","","","","",""
"2966","","image-button-response","247","1977706","0.0-242.0-0.0","A8TOXZCLDP72G","img_art/16.jpg","4","","","","","","","","","","","","","","","","","","","","","","","","",""
"3359","","image-button-response","248","1981068","0.0-243.0-0.0","A8TOXZCLDP72G","img_art/16.jpg","1","","","","","","","","","","","","","","","","","","","","","","","","",""
"null","","html-keyboard-response","249","1982071","0.0-244.0","A8TOXZCLDP72G","<p style=""font-size: 48px;"">+</p>","","","","","null","allTrialResponses","1000","1","28","img_art/16.jpg","-44","looks like the bear lost his stuffing","Madison,Paige,Anna,Megan,Amy,Samantha","Pop art, Tate Modern horse dung.,-50,60,20","very disturbed seening a gun in the same picture as a teddy bear,-50,60,20","It's edgy but cool,10,300,20","Ugly, broken up and mismatched,-50,200,20","visceral and a little disturbing.,10,220,20","Creepy teddybear,-50,140,20","Megan","Ugly, broken up and mismatched,-50,200,20","Amy","visceral and a little disturbing.,10,220,20","Paige","very disturbed seening a gun in the same picture as a teddy bear,-50,60,20","8"
"38921","","survey-text","250","2021016","0.0-245.0-0.0","A8TOXZCLDP72G","","","","{""Q0"":""Has an Aztec look about it. Pretty cool. ""}","","","","","","","","","","","","","","","","","","","","","","",""
"6240.699999988079","","image-slider-response","251","2027258","0.0-246.0","A8TOXZCLDP72G","","","","","41","","","","","","","","","","","","","","","","","","","","","",""
"null","","image-button-response","252","2032268","0.0-247.0","A8TOXZCLDP72G","img_art/8.jpg","null","","","","","","","","","","","","","","","","","","","","","","","","",""
"5350","","image-button-response","253","2037622","0.0-248.0","A8TOXZCLDP72G","img_art/8.jpg","3","","","","","","","","","","","","","","","","","","","","","","","","",""
"4887","","image-button-response","254","2042512","0.0-249.0-0.0","A8TOXZCLDP72G","img_art/8.jpg","0","","","","","","","","","","","","","","","","","","","","","","","","",""
"5898","","image-button-response","255","2048413","0.0-250.0-0.0","A8TOXZCLDP72G","img_art/8.jpg","2","","","","","","","","","","","","","","","","","","","","","","","","",""
"null","","html-keyboard-response","256","2048919","0.0-251.0","A8TOXZCLDP72G","<p style=""font-size: 48px;"">+</p>","","","","","null","allTrialResponses","500","1","29","img_art/8.jpg","41","Has an Aztec look about it. Pretty cool. ","Jasmine,Paige,Erica,Megan,Amy,Alexandra","Not too bad despite the chaos.,16,340,20","Nervous like being up high,10,60,20","Very busy, I want to look at it and investigate,23,80,20","Cortez's influence with fair color choices,10,200,20","The definition and the colors give make this painting accessible and thought provoking.,30,220,20","The colors are nice but the big face in the sky is creepy,-11,60,20","Megan","Cortez's influence with fair color choices,10,200,20","Jasmine","Not too bad despite the chaos.,16,340,20","Erica","Very busy, I want to look at it and investigate,23,80,20","8"
"27363","","survey-text","257","2076304","0.0-252.0-0.0","A8TOXZCLDP72G","","","","{""Q0"":""Reminds me of a waterfall""}","","","","","","","","","","","","","","","","","","","","","","",""
"6125.700000047684","","image-slider-response","258","2082432","0.0-253.0","A8TOXZCLDP72G","","","","","6","","","","","","","","","","","","","","","","","","","","","",""
"3661","","image-button-response","259","2087436","0.0-254.0","A8TOXZCLDP72G","img_art/24.jpg","1","","","","","","","","","","","","","","","","","","","","","","","","",""
"1194","","image-button-response","260","2088636","0.0-255.0","A8TOXZCLDP72G","img_art/24.jpg","1","","","","","","","","","","","","","","","","","","","","","","","","",""
"5785","","image-button-response","261","2094424","0.0-256.0-0.0","A8TOXZCLDP72G","img_art/24.jpg","4","","","","","","","","","","","","","","","","","","","","","","","","",""
"2031","","image-button-response","262","2096458","0.0-257.0-0.0","A8TOXZCLDP72G","img_art/24.jpg","5","","","","","","","","","","","","","","","","","","","","","","","","",""
"null","","html-keyboard-response","263","2096970","0.0-258.0","A8TOXZCLDP72G","<p style=""font-size: 48px;"">+</p>","","","","","null","allTrialResponses","500","1","30","img_art/24.jpg","6","Reminds me of a waterfall","Jasmine,Claire,Erica,Megan,Catherine,Brooke","This one is nice because it reminds me of nature,18,340,20","reminds me of a beautiful waterfall,50,260,20","Very refreshing and vigorous,19,80,20","Classic palette lacks real world 3d construction,19,200,20","Nature, Peace, connected.,50,160,20","Mountain stream pineapple texture?,30,60,20","Claire","reminds me of a beautiful waterfall,50,260,20","Catherine","Nature, Peace, connected.,50,160,20","Brooke","Mountain stream pineapple texture?,30,60,20","8"
"4710","","image-button-response_instructions","264","2101701","0.0-259.0","A8TOXZCLDP72G","","0","instructions","","","","","","","","","","","","","","","","","","","","","","","",""
"3280","","image-button-response","265","2104989","0.0-260.0","A8TOXZCLDP72G","","0","","","","","","","","","","","","","","","","","","","","","","","","",""
