"rt","url","trial_type","trial_index","time_elapsed","internal_node_id","participant_id","stimulus","button_pressed","Name","responses","response","key_press","variableName","fixationTime","condition","trial","photo","subjectRating","subjectResponse","agentsNames","agent_1_Response","agent_2_Response","agent_3_Response","agent_4_Response","agent_5_Response","agent_6_Response","kept_1_name","kept_1_response","kept_2_name","kept_2_response","kept_3_name","kept_3_response","errorCounter"
"31776","external_page_harvard.html","external-html","0","32007","0.0-0.0","A9YFEPJW62N8U","","","","","","","","","","","","","","","","","","","","","","","","","","",""
"4137","","image-button-response","1","36150","0.0-1.0","A9YFEPJW62N8U","","0","","","","","","","","","","","","","","","","","","","","","","","","",""
"3280","","image-button-response","2","39445","0.0-2.0-0.0","A9YFEPJW62N8U","","1","phone","","","","","","","","","","","","","","","","","","","","","","","",""
"17422","","survey-text","3","56872","0.0-3.0-0.0","A9YFEPJW62N8U","","","","{""Q0"":""A9YFEPJW62N8U""}","","","","","","","","","","","","","","","","","","","","","","",""
"12528","","image-button-response_instructions","4","69404","0.0-4.0","A9YFEPJW62N8U","","0","instructions","","","","","","","","","","","","","","","","","","","","","","","",""
"98940","","image-button-response_instructions","5","168348","0.0-5.0","A9YFEPJW62N8U","img_art/ins/popularity/ins1.png","0","instructions","","","","","","","","","","","","","","","","","","","","","","","",""
"27568","","image-button-response_instructions","6","195921","0.0-6.0","A9YFEPJW62N8U","img_art/ins/popularity/ins2.png","0","instructions","","","","","","","","","","","","","","","","","","","","","","","",""
"13119","","image-button-response_instructions","7","209045","0.0-7.0","A9YFEPJW62N8U","img_art/ins/popularity/ins2Extreme.png","0","instructions","","","","","","","","","","","","","","","","","","","","","","","",""
"16398","","image-button-response_instructions","8","225446","0.0-8.0","A9YFEPJW62N8U","img_art/ins/popularity/ins3KEEPpop.PNG","0","instructions","","","","","","","","","","","","","","","","","","","","","","","",""
"13643","","image-button-response_instructions","9","239094","0.0-9.0","A9YFEPJW62N8U","img_art/ins/popularity/ins3ANamepop.PNG","0","instructions","","","","","","","","","","","","","","","","","","","","","","","",""
"8885","","image-button-response_instructions","10","247982","0.0-10.0","A9YFEPJW62N8U","img_art/ins/popularity/ins3ARatingpop.png","0","instructions","","","","","","","","","","","","","","","","","","","","","","","",""
"7197","","image-button-response_instructions","11","255182","0.0-11.0","A9YFEPJW62N8U","img_art/ins/popularity/ins3ATextpop.png","0","instructions","","","","","","","","","","","","","","","","","","","","","","","",""
"19797","","image-button-response_instructions","12","274983","0.0-12.0","A9YFEPJW62N8U","img_art/ins/popularity/ins3ALikespop.png","0","instructions","","","","","","","","","","","","","","","","","","","","","","","",""
"22670","","image-button-response_instructions","13","297655","0.0-13.0","A9YFEPJW62N8U","img_art/ins/popularity/ins3KEEPpop.PNG","0","instructions","","","","","","","","","","","","","","","","","","","","","","","",""
"27669","","image-button-response_instructions","14","325327","0.0-14.0","A9YFEPJW62N8U","img_art/ins/popularity/ins3_5RED.png","0","instructions","","","","","","","","","","","","","","","","","","","","","","","",""
"4409","","image-button-response_instructions","15","329738","0.0-15.0","A9YFEPJW62N8U","img_art/ins/popularity/ins3KEEPpop.PNG","0","instructions","","","","","","","","","","","","","","","","","","","","","","","",""
"16380","","image-button-response_instructions","16","346121","0.0-16.0","A9YFEPJW62N8U","img_art/ins/popularity/ins4KEEPpop.PNG","0","instructions","","","","","","","","","","","","","","","","","","","","","","","",""
"8299","","image-button-response_instructions","17","354422","0.0-17.0","A9YFEPJW62N8U","img_art/ins/popularity/ins5KEEPpop.PNG","0","instructions","","","","","","","","","","","","","","","","","","","","","","","",""
"3745","","image-button-response_instructions","18","358169","0.0-18.0","A9YFEPJW62N8U","","0","instructions","","","","","","","","","","","","","","","","","","","","","","","",""
"23968","","survey-text","19","382194","0.0-19.0-0.0","A9YFEPJW62N8U","","","","{""Q0"":""but""}","","","","","","","","","","","","","","","","","","","","","","",""
"36290","","survey-text","20","418486","0.0-20.0-0.0","A9YFEPJW62N8U","","","","{""Q0"":""seems like a lot of confusion""}","","","","","","","","","","","","","","","","","","","","","","",""
"5636","","image-slider-response","21","424132","0.0-21.0","A9YFEPJW62N8U","","","","","-13","","","","","","","","","","","","","","","","","","","","","",""
"null","","image-button-response","22","429152","0.0-22.0","A9YFEPJW62N8U","img_art/ins/1.jpg","null","","","","","","","","","","","","","","","","","","","","","","","","",""
"5723","","image-button-response","23","434876","0.0-23.0","A9YFEPJW62N8U","img_art/ins/1.jpg","0","","","","","","","","","","","","","","","","","","","","","","","","",""
"9610","","image-button-response","24","444489","0.0-24.0-0.0","A9YFEPJW62N8U","img_art/ins/1.jpg","2","","","","","","","","","","","","","","","","","","","","","","","","",""
"5098","","image-button-response","25","449594","0.0-25.0-0.0","A9YFEPJW62N8U","img_art/ins/1.jpg","2","","","","","","","","","","","","","","","","","","","","","","","","",""
"4271","","image-button-response","26","459855","0.0-25.1-0.1","A9YFEPJW62N8U","img_art/ins/1.jpg","4","","","","","","","","","","","","","","","","","","","","","","","","",""
"null","","html-keyboard-response","27","460367","0.0-26.0","A9YFEPJW62N8U","<p style=""font-size: 48px;"">+</p>","","","","","null","allTrialResponses","500","1","-2","img_art/ins/1.jpg","-13","seems like a lot of confusion","Adam,Alex,Ben,Carl,Daniel,Jack","Seems like doodles,-20,20,20","very creative work.,36,40,20","This color reminds me of poo,-46,60,20","very calming artwork,42,80,20","It looks like a murder scene.,-48,100,20","I like the sophisticated brushwork,40,120,20","Adam","Seems like doodles,-20,20,20","Ben","This color reminds me of poo,-46,60,20","Daniel","It looks like a murder scene.,-48,100,20","2"
"33612","","survey-text","28","493991","0.0-27.0-0.0","A9YFEPJW62N8U","","","","{""Q0"":""looks like an escape tunnel""}","","","","","","","","","","","","","","","","","","","","","","",""
"6797","","image-slider-response","29","500792","0.0-28.0","A9YFEPJW62N8U","","","","","11","","","","","","","","","","","","","","","","","","","","","",""
"null","","image-button-response","30","505804","0.0-29.0","A9YFEPJW62N8U","img_art/ins/2.jpg","null","","","","","","","","","","","","","","","","","","","","","","","","",""
"6818","","image-button-response","31","512624","0.0-30.0","A9YFEPJW62N8U","img_art/ins/2.jpg","4","","","","","","","","","","","","","","","","","","","","","","","","",""
"3322","","image-button-response","32","515950","0.0-31.0-0.0","A9YFEPJW62N8U","img_art/ins/2.jpg","1","","","","","","","","","","","","","","","","","","","","","","","","",""
"3292","","image-button-response","33","519246","0.0-32.0-0.0","A9YFEPJW62N8U","img_art/ins/2.jpg","0","","","","","","","","","","","","","","","","","","","","","","","","",""
"null","","html-keyboard-response","34","520263","0.0-33.0","A9YFEPJW62N8U","<p style=""font-size: 48px;"">+</p>","","","","","null","allTrialResponses","1000","1","-1","img_art/ins/2.jpg","11","looks like an escape tunnel","Adam,John,Ben,James,Daniel,Kyle","too much color,-18,20,20","love the texture of paint,48,160,20","meaningless painting,-45,60,20","looks too angry,-50,140,20","One of my pet peevs,-48,100,20","Idk, it is just annoying,-32,180,20","Daniel","One of my pet peevs,-48,100,20","John","love the texture of paint,48,160,20","Adam","too much color,-18,20,20","2"
"20287","","survey-text","35","540559","0.0-34.0-0.0","A9YFEPJW62N8U","","","","{""Q0"":""seems like an ice storm""}","","","","","","","","","","","","","","","","","","","","","","",""
"5845","","image-slider-response","36","546408","0.0-35.0","A9YFEPJW62N8U","","","","","10","","","","","","","","","","","","","","","","","","","","","",""
"null","","image-button-response","37","551414","0.0-36.0","A9YFEPJW62N8U","img_art/ins/3.jpg","null","","","","","","","","","","","","","","","","","","","","","","","","",""
"1968","","image-button-response","38","553384","0.0-37.0","A9YFEPJW62N8U","img_art/ins/3.jpg","1","","","","","","","","","","","","","","","","","","","","","","","","",""
"2292","","image-button-response","39","555679","0.0-38.0-0.0","A9YFEPJW62N8U","img_art/ins/3.jpg","5","","","","","","","","","","","","","","","","","","","","","","","","",""
"1385","","image-button-response","40","557068","0.0-39.0-0.0","A9YFEPJW62N8U","img_art/ins/3.jpg","3","","","","","","","","","","","","","","","","","","","","","","","","",""
"null","","html-keyboard-response","41","558574","0.0-40.0","A9YFEPJW62N8U","<p style=""font-size: 48px;"">+</p>","","","","","null","allTrialResponses","1500","1","0","img_art/ins/3.jpg","10","seems like an ice storm","Adam,John,Ron,Mike,Daniel,Sam","My daily routine, it's depressing,-20,20,20","I like the overlapping of brushes,41,160,20","It looks depressing,-26,220,20","enjoy the different shades of blue,22,200,20","looks like a murder room,-35,100,20","I can feel a rainy day from this painting,18,240,20","John","I like the overlapping of brushes,41,160,20","Sam","I can feel a rainy day from this painting,18,240,20","Mike","enjoy the different shades of blue,22,200,20","2"
"9804","","image-button-response_instructions","42","568385","0.0-41.0","A9YFEPJW62N8U","","0","instructions","","","","","","","","","","","","","","","","","","","","","","","",""
"19446","","survey-likert","43","587835","0.0-42.0-0.0","A9YFEPJW62N8U","","","","{""Q0"":"""",""Q1"":0,""Q2"":1}","","","","","","","","","","","","","","","","","","","","","","",""
"7236","","survey-text","44","595081","0.0-43.0-0.0","A9YFEPJW62N8U","","","","{""Q0"":""rock""}","","","","","","","","","","","","","","","","","","","","","","",""
"26341","","survey-text","45","621424","0.0-44.0-0.0","A9YFEPJW62N8U","","","","{""Q0"":""a bird in the sand""}","","","","","","","","","","","","","","","","","","","","","","",""
"4837","","image-slider-response","46","626266","0.0-45.0","A9YFEPJW62N8U","","","","","32","","","","","","","","","","","","","","","","","","","","","",""
"4097","","image-button-response","47","631303","0.0-46.0","A9YFEPJW62N8U","img_art/6.jpg","1","","","","","","","","","","","","","","","","","","","","","","","","",""
"4448","","image-button-response","48","635756","0.0-47.0","A9YFEPJW62N8U","img_art/6.jpg","2","","","","","","","","","","","","","","","","","","","","","","","","",""
"1596","","image-button-response","49","637356","0.0-48.0-0.0","A9YFEPJW62N8U","img_art/6.jpg","1","","","","","","","","","","","","","","","","","","","","","","","","",""
"13712","","image-button-response","50","651072","0.0-49.0-0.0","A9YFEPJW62N8U","img_art/6.jpg","4","","","","","","","","","","","","","","","","","","","","","","","","",""
"null","","html-keyboard-response","51","652083","0.0-50.0","A9YFEPJW62N8U","<p style=""font-size: 48px;"">+</p>","","","","","null","allTrialResponses","1000","1","1","img_art/6.jpg","32","a bird in the sand","Robert,Kevin,Joshua,Michael,Patrick,Justin","Nevermore!  A black raven sitting on a pumpkin. Halloween,-35,360,20","Its the headless bird. But why?,21,320,20","Looks like a bird. It's fine.,7,240,20","Looks like a kid created it.,-50,140,20","It looks sad and scary at the same time,11,280,20","It's alright. I imagined the peach from James and the Giant Peach.,1,280,20","Joshua","Looks like a bird. It's fine.,7,240,20","Kevin","Its the headless bird. But why?,21,320,20","Patrick","It looks sad and scary at the same time,11,280,20","2"
"17266","","survey-text","52","669359","0.0-51.0-0.0","A9YFEPJW62N8U","","","","{""Q0"":""a cactus in a pot""}","","","","","","","","","","","","","","","","","","","","","","",""
"3993","","image-slider-response","53","673357","0.0-52.0","A9YFEPJW62N8U","","","","","22","","","","","","","","","","","","","","","","","","","","","",""
"null","","image-button-response","54","678364","0.0-53.0","A9YFEPJW62N8U","img_art/4.jpg","null","","","","","","","","","","","","","","","","","","","","","","","","",""
"7010","","image-button-response","55","685376","0.0-54.0","A9YFEPJW62N8U","img_art/4.jpg","5","","","","","","","","","","","","","","","","","","","","","","","","",""
"8875","","image-button-response","56","694255","0.0-55.0-0.0","A9YFEPJW62N8U","img_art/4.jpg","1","","","","","","","","","","","","","","","","","","","","","","","","",""
"978","","image-button-response","57","695238","0.0-56.0-0.0","A9YFEPJW62N8U","img_art/4.jpg","2","","","","","","","","","","","","","","","","","","","","","","","","",""
"null","","html-keyboard-response","58","696244","0.0-57.0","A9YFEPJW62N8U","<p style=""font-size: 48px;"">+</p>","","","","","null","allTrialResponses","1000","1","2","img_art/4.jpg","22","a cactus in a pot","Adrian,Kevin,Joshua,Dustin,Patrick,David","Looks like feces smeared on the canvas. I hate it.,-50,60,20","A leaning trophy,-9,320,20","looks very rudimentary and too simple.,-14,240,20","Warm colors, but too random. I feel like I'm seeing something mangled. It is unpleasant.,-30,20,20","Random swirls again,-30,280,20","I like the design. It can be interpreted in various ways, such as a hand of horror or still piece.,15,340,20","David","I like the design. It can be interpreted in various ways, such as a hand of horror or still piece.,15,340,20","Kevin","A leaning trophy,-9,320,20","Joshua","looks very rudimentary and too simple.,-14,240,20","2"
"22348","","survey-text","59","718598","0.0-58.0-0.0","A9YFEPJW62N8U","","","","{""Q0"":""n overturned truck in an accident""}","","","","","","","","","","","","","","","","","","","","","","",""
"6163","","image-slider-response","60","724766","0.0-59.0","A9YFEPJW62N8U","","","","","-6","","","","","","","","","","","","","","","","","","","","","",""
"null","","image-button-response","61","729784","0.0-60.0","A9YFEPJW62N8U","img_art/20.jpg","null","","","","","","","","","","","","","","","","","","","","","","","","",""
"13493","","image-button-response","62","743279","0.0-61.0","A9YFEPJW62N8U","img_art/20.jpg","3","","","","","","","","","","","","","","","","","","","","","","","","",""
"2994","","image-button-response","63","746277","0.0-62.0-0.0","A9YFEPJW62N8U","img_art/20.jpg","1","","","","","","","","","","","","","","","","","","","","","","","","",""
"684","","image-button-response","64","746965","0.0-63.0-0.0","A9YFEPJW62N8U","img_art/20.jpg","2","","","","","","","","","","","","","","","","","","","","","","","","",""
"null","","html-keyboard-response","65","747470","0.0-64.0","A9YFEPJW62N8U","<p style=""font-size: 48px;"">+</p>","","","","","null","allTrialResponses","500","1","3","img_art/20.jpg","-6","n overturned truck in an accident","Spencer,Kevin,Joshua,Travis,Mitchell,David","A sad past town, pollution, guess I like happier scenes,-30,120,20","The beast is running after you.,33,320,20","Reminds me of the Southwest; i.e. New Mexico or Arizona. It's interesting.,12,240,20","I liked this...I liked the blue and the black and I liked the smoothness to it.,31,260,20","Interesting. Empty place, wondering what happened, leaving what you used to know.,10,180,20","I like how the image is depicting a scene.,10,340,20","Travis","I liked this...I liked the blue and the black and I liked the smoothness to it.,31,260,20","Kevin","The beast is running after you.,33,320,20","Joshua","Reminds me of the Southwest; i.e. New Mexico or Arizona. It's interesting.,12,240,20","2"
"19892","","survey-text","66","767373","0.0-65.0-0.0","A9YFEPJW62N8U","","","","{""Q0"":""fall in the local town""}","","","","","","","","","","","","","","","","","","","","","","",""
"3376","","image-slider-response","67","770753","0.0-66.0","A9YFEPJW62N8U","","","","","42","","","","","","","","","","","","","","","","","","","","","",""
"null","","image-button-response","68","775773","0.0-67.0","A9YFEPJW62N8U","img_art/27.jpg","null","","","","","","","","","","","","","","","","","","","","","","","","",""
"14656","","image-button-response","69","790431","0.0-68.0","A9YFEPJW62N8U","img_art/27.jpg","0","","","","","","","","","","","","","","","","","","","","","","","","",""
"1488","","image-button-response","70","791921","0.0-69.0-0.0","A9YFEPJW62N8U","img_art/27.jpg","1","","","","","","","","","","","","","","","","","","","","","","","","",""
"4604","","image-button-response","71","796529","0.0-70.0-0.0","A9YFEPJW62N8U","img_art/27.jpg","5","","","","","","","","","","","","","","","","","","","","","","","","",""
"null","","html-keyboard-response","72","798033","0.0-71.0","A9YFEPJW62N8U","<p style=""font-size: 48px;"">+</p>","","","","","null","allTrialResponses","1500","1","4","img_art/27.jpg","42","fall in the local town","Jeffrey,Kevin,Joshua,Travis,Logan,Matthew","I like the pictures but it is a lot of going on,10,40,20","A fall mess going on here,2,320,20","Reminds me of something I'd see in a gold frame from the Eighties.,-9,240,20","I don't like any of it...just scibbles.,-37,260,20","demon vs angel brawl over lemon lime sprite,-10,360,20","Lots of activity, layers, imagination at work here.,29,120,20","Jeffrey","I like the pictures but it is a lot of going on,10,40,20","Kevin","A fall mess going on here,2,320,20","Matthew","Lots of activity, layers, imagination at work here.,29,120,20","2"
"26763","","survey-text","73","824805","0.0-72.0-0.0","A9YFEPJW62N8U","","","","{""Q0"":""artwok on a building wall""}","","","","","","","","","","","","","","","","","","","","","","",""
"6515","","image-slider-response","74","831324","0.0-73.0","A9YFEPJW62N8U","","","","","20","","","","","","","","","","","","","","","","","","","","","",""
"null","","image-button-response","75","836333","0.0-74.0","A9YFEPJW62N8U","img_art/30.jpg","null","","","","","","","","","","","","","","","","","","","","","","","","",""
"219","","image-button-response","76","836556","0.0-75.0","A9YFEPJW62N8U","img_art/30.jpg","1","","","","","","","","","","","","","","","","","","","","","","","","",""
"3284","","image-button-response","77","839843","0.0-76.0-0.0","A9YFEPJW62N8U","img_art/30.jpg","2","","","","","","","","","","","","","","","","","","","","","","","","",""
"2798","","image-button-response","78","842646","0.0-77.0-0.0","A9YFEPJW62N8U","img_art/30.jpg","4","","","","","","","","","","","","","","","","","","","","","","","","",""
"null","","html-keyboard-response","79","844164","0.0-78.0","A9YFEPJW62N8U","<p style=""font-size: 48px;"">+</p>","","","","","null","allTrialResponses","1500","1","5","img_art/30.jpg","20","artwok on a building wall","Jeffrey,Kevin,Daniel,Bryce,Vincent,Matthew","calming and relaxing,14,40,20","Some people dancing.,-7,320,20","10 year old 10 minute project ""Fun with Painting"",-42,320,20","Very colorful! Wow!,22,20,20","Personal , calming conservative signature business ideal.,32,360,20","Decent abstract art, ncie colors.,23,120,20","Kevin","Some people dancing.,-7,320,20","Daniel","10 year old 10 minute project ""Fun with Painting"",-42,320,20","Vincent","Personal , calming conservative signature business ideal.,32,360,20","2"
"6204","","survey-text","80","850386","0.0-79.0-0.0","A9YFEPJW62N8U","","","","{""Q0"":""sky""}","","","","","","","","","","","","","","","","","","","","","","",""
"17054","","survey-text","81","867442","0.0-80.0-0.0","A9YFEPJW62N8U","","","","{""Q0"":""a spider web""}","","","","","","","","","","","","","","","","","","","","","","",""
"7351","","image-slider-response","82","874798","0.0-81.0","A9YFEPJW62N8U","","","","","-16","","","","","","","","","","","","","","","","","","","","","",""
"4002","","image-button-response","83","879803","0.0-82.0","A9YFEPJW62N8U","img_art/3.jpg","1","","","","","","","","","","","","","","","","","","","","","","","","",""
"1169","","image-button-response","84","880975","0.0-83.0","A9YFEPJW62N8U","img_art/3.jpg","1","","","","","","","","","","","","","","","","","","","","","","","","",""
"4347","","image-button-response","85","885326","0.0-84.0-0.0","A9YFEPJW62N8U","img_art/3.jpg","2","","","","","","","","","","","","","","","","","","","","","","","","",""
"6384","","image-button-response","86","891714","0.0-85.0-0.0","A9YFEPJW62N8U","img_art/3.jpg","5","","","","","","","","","","","","","","","","","","","","","","","","",""
"null","","html-keyboard-response","87","892732","0.0-86.0","A9YFEPJW62N8U","<p style=""font-size: 48px;"">+</p>","","","","","null","allTrialResponses","1000","1","6","img_art/3.jpg","-16","a spider web","Kyle,Kevin,Daniel,Paul,Vincent,Victor","I don't really have a strong reaction to this one,0,340,20","That just looks like a mess..,-18,320,20","5 min scribble by a 3 year old,-46,320,20","It looks like random scribbles by a child and not appealing,-38,300,20","Iike this one it's a piece that I need to spend more time with to understand how i feel about it,20,360,20","Again, looks like a child's work. I don't get these types of pieces. Too simple,-47,340,20","Kevin","That just looks like a mess..,-18,320,20","Daniel","5 min scribble by a 3 year old,-46,320,20","Victor","Again, looks like a child's work. I don't get these types of pieces. Too simple,-47,340,20","2"
"19300","","survey-text","88","912041","0.0-87.0-0.0","A9YFEPJW62N8U","","","","{""Q0"":""grapes on a vine""}","","","","","","","","","","","","","","","","","","","","","","",""
"3793","","image-slider-response","89","915838","0.0-88.0","A9YFEPJW62N8U","","","","","40","","","","","","","","","","","","","","","","","","","","","",""
"null","","image-button-response","90","920844","0.0-89.0","A9YFEPJW62N8U","img_art/15.jpg","null","","","","","","","","","","","","","","","","","","","","","","","","",""
"5184","","image-button-response","91","926028","0.0-90.0","A9YFEPJW62N8U","img_art/15.jpg","5","","","","","","","","","","","","","","","","","","","","","","","","",""
"6189","","image-button-response","92","932222","0.0-91.0-0.0","A9YFEPJW62N8U","img_art/15.jpg","2","","","","","","","","","","","","","","","","","","","","","","","","",""
"1042","","image-button-response","93","933268","0.0-92.0-0.0","A9YFEPJW62N8U","img_art/15.jpg","3","","","","","","","","","","","","","","","","","","","","","","","","",""
"null","","html-keyboard-response","94","934273","0.0-93.0","A9YFEPJW62N8U","<p style=""font-size: 48px;"">+</p>","","","","","null","allTrialResponses","1000","1","7","img_art/15.jpg","40","grapes on a vine","Ian,Kevin,Daniel,Anthony,Tanner,Victor","This gives a skin crawling feeling. Like something that you could see under a mircoscope,10,260,20","Weird fuzzball bush.,22,320,20","Dark, drab asymmetrical floral piece,-26,320,20","This piece isn't particularly attractive, but it's not ugly either.,1,200,20","darkness, hatred, fear,-29,180,20","I like the random blue dabs to break up the black, but it looks unfinished.,4,340,20","Victor","I like the random blue dabs to break up the black, but it looks unfinished.,4,340,20","Daniel","Dark, drab asymmetrical floral piece,-26,320,20","Anthony","This piece isn't particularly attractive, but it's not ugly either.,1,200,20","2"
"40281","","survey-text","95","974563","0.0-94.0-0.0","A9YFEPJW62N8U","","","","{""Q0"":""two people talking to each other""}","","","","","","","","","","","","","","","","","","","","","","",""
"3704","","image-slider-response","96","978272","0.0-95.0","A9YFEPJW62N8U","","","","","25","","","","","","","","","","","","","","","","","","","","","",""
"null","","image-button-response","97","983283","0.0-96.0","A9YFEPJW62N8U","img_art/28.jpg","null","","","","","","","","","","","","","","","","","","","","","","","","",""
"4825","","image-button-response","98","988111","0.0-97.0","A9YFEPJW62N8U","img_art/28.jpg","4","","","","","","","","","","","","","","","","","","","","","","","","",""
"3042","","image-button-response","99","991156","0.0-98.0-0.0","A9YFEPJW62N8U","img_art/28.jpg","2","","","","","","","","","","","","","","","","","","","","","","","","",""
"785","","image-button-response","100","991945","0.0-99.0-0.0","A9YFEPJW62N8U","img_art/28.jpg","0","","","","","","","","","","","","","","","","","","","","","","","","",""
"null","","html-keyboard-response","101","992963","0.0-100.0","A9YFEPJW62N8U","<p style=""font-size: 48px;"">+</p>","","","","","null","allTrialResponses","1000","1","8","img_art/28.jpg","25","two people talking to each other","Cole,Scott,Daniel,Anthony,Bradley,Victor","Is this anything?,-20,200,20","I don't like the color choice,-30,20,20","Compact grey mess lack negative space,-10,320,20","This picture doesn't really stand out to me,1,200,20","I think this may have to do with humpty dumpty?,-7,300,20","Almost looks like child's artwork, sloppy and chaotic,6,340,20","Bradley","I think this may have to do with humpty dumpty?,-7,300,20","Daniel","Compact grey mess lack negative space,-10,320,20","Cole","Is this anything?,-20,200,20","2"
"20597","","survey-text","102","1013569","0.0-101.0-0.0","A9YFEPJW62N8U","","","","{""Q0"":""a city by the river""}","","","","","","","","","","","","","","","","","","","","","","",""
"5172","","image-slider-response","103","1018744","0.0-102.0","A9YFEPJW62N8U","","","","","27","","","","","","","","","","","","","","","","","","","","","",""
"null","","image-button-response","104","1023759","0.0-103.0","A9YFEPJW62N8U","img_art/11.jpg","null","","","","","","","","","","","","","","","","","","","","","","","","",""
"2091","","image-button-response","105","1025852","0.0-104.0","A9YFEPJW62N8U","img_art/11.jpg","3","","","","","","","","","","","","","","","","","","","","","","","","",""
"3119","","image-button-response","106","1028974","0.0-105.0-0.0","A9YFEPJW62N8U","img_art/11.jpg","4","","","","","","","","","","","","","","","","","","","","","","","","",""
"2089","","image-button-response","107","1031067","0.0-106.0-0.0","A9YFEPJW62N8U","img_art/11.jpg","5","","","","","","","","","","","","","","","","","","","","","","","","",""
"null","","html-keyboard-response","108","1032570","0.0-107.0","A9YFEPJW62N8U","<p style=""font-size: 48px;"">+</p>","","","","","null","allTrialResponses","1500","1","9","img_art/11.jpg","27","a city by the river","Cole,Carlos,Daniel,Cody,Bradley,Trevor","Grays arent my thing,-25,200,20","The colors are lovely. February getting ready to yield to March.,41,80,20","Some interesting color but scratchy train mess.,-14,320,20","Pretty, interesting, feels like a city, feels like home,50,180,20","WOW!  I love how the ships and the seas become one in this piece.,50,300,20","I like how it looks like buildings but i'm not a fan of colors,20,280,20","Cody","Pretty, interesting, feels like a city, feels like home,50,180,20","Bradley","WOW!  I love how the ships and the seas become one in this piece.,50,300,20","Trevor","I like how it looks like buildings but i'm not a fan of colors,20,280,20","2"
"24949","","survey-text","109","1057529","0.0-108.0-0.0","A9YFEPJW62N8U","","","","{""Q0"":""a town  sidewalk""}","","","","","","","","","","","","","","","","","","","","","","",""
"4073","","image-slider-response","110","1061606","0.0-109.0","A9YFEPJW62N8U","","","","","31","","","","","","","","","","","","","","","","","","","","","",""
"3418","","image-button-response","111","1066613","0.0-110.0","A9YFEPJW62N8U","img_art/26.jpg","1","","","","","","","","","","","","","","","","","","","","","","","","",""
"909","","image-button-response","112","1067523","0.0-111.0","A9YFEPJW62N8U","img_art/26.jpg","1","","","","","","","","","","","","","","","","","","","","","","","","",""
"2873","","image-button-response","113","1070400","0.0-112.0-0.0","A9YFEPJW62N8U","img_art/26.jpg","2","","","","","","","","","","","","","","","","","","","","","","","","",""
"7094","","image-button-response","114","1077496","0.0-113.0-0.0","A9YFEPJW62N8U","img_art/26.jpg","4","","","","","","","","","","","","","","","","","","","","","","","","",""
"null","","html-keyboard-response","115","1079003","0.0-114.0","A9YFEPJW62N8U","<p style=""font-size: 48px;"">+</p>","","","","","null","allTrialResponses","1500","1","10","img_art/26.jpg","31","a town  sidewalk","Evan,Devon,John,Cody,Bradley,Trevor","It feels simple and pretty,12,140,20","i can feel the warmth,12,400,20","Its pretty.And a nice use of water colors.,25,120,20","Looks unfinished,-31,180,20","I like this. Looks like a city street and I can use my imagination to make it come alive.,15,300,20","looks like a little kids painting,-17,280,20","Devon","i can feel the warmth,12,400,20","John","Its pretty.And a nice use of water colors.,25,120,20","Bradley","I like this. Looks like a city street and I can use my imagination to make it come alive.,15,300,20","2"
"6290","","survey-text","116","1085314","0.0-115.0-0.0","A9YFEPJW62N8U","","","","{""Q0"":""our""}","","","","","","","","","","","","","","","","","","","","","","",""
"25036","","survey-text","117","1110354","0.0-116.0-0.0","A9YFEPJW62N8U","","","","{""Q0"":""sleeping in bed""}","","","","","","","","","","","","","","","","","","","","","","",""
"3009","","image-slider-response","118","1113368","0.0-117.0","A9YFEPJW62N8U","","","","","12","","","","","","","","","","","","","","","","","","","","","",""
"3144","","image-button-response","119","1118384","0.0-118.0","A9YFEPJW62N8U","img_art/9.jpg","0","","","","","","","","","","","","","","","","","","","","","","","","",""
"1128","","image-button-response","120","1119514","0.0-119.0","A9YFEPJW62N8U","img_art/9.jpg","0","","","","","","","","","","","","","","","","","","","","","","","","",""
"2059","","image-button-response","121","1121576","0.0-120.0-0.0","A9YFEPJW62N8U","img_art/9.jpg","0","","","","","","","","","","","","","","","","","","","","","","","","",""
"1060","","image-button-response","122","1126191","0.0-120.1-0.1","A9YFEPJW62N8U","img_art/9.jpg","0","","","","","","","","","","","","","","","","","","","","","","","","",""
"6053","","image-button-response","123","1135421","0.0-120.2-0.2","A9YFEPJW62N8U","img_art/9.jpg","1","","","","","","","","","","","","","","","","","","","","","","","","",""
"4369","","image-button-response","124","1139794","0.0-121.0-0.0","A9YFEPJW62N8U","img_art/9.jpg","4","","","","","","","","","","","","","","","","","","","","","","","","",""
"null","","html-keyboard-response","125","1140811","0.0-122.0","A9YFEPJW62N8U","<p style=""font-size: 48px;"">+</p>","","","","","null","allTrialResponses","1000","1","11","img_art/9.jpg","12","sleeping in bed","Luis,Devon,John,Jake,Bradley,Grant","Calming and relaxing,42,400,20","this looks to be a child nightmare,-10,400,20","Unpleasant, alot of dark colors and strange lines,-26,120,20","The colors and image is ugly.,-7,360,20","Yikes. I'm not sure what to make of this one.,-14,300,20","The colors are pretty, and remind me of a circus.,5,200,20","Luis","Calming and relaxing,42,400,20","Devon","this looks to be a child nightmare,-10,400,20","Bradley","Yikes. I'm not sure what to make of this one.,-14,300,20","6"
"19541","","survey-text","126","1160363","0.0-123.0-0.0","A9YFEPJW62N8U","","","","{""Q0"":""a storm in the distance""}","","","","","","","","","","","","","","","","","","","","","","",""
"2977","","image-slider-response","127","1163345","0.0-124.0","A9YFEPJW62N8U","","","","","21","","","","","","","","","","","","","","","","","","","","","",""
"4659","","image-button-response","128","1168351","0.0-125.0","A9YFEPJW62N8U","img_art/21.jpg","1","","","","","","","","","","","","","","","","","","","","","","","","",""
"754","","image-button-response","129","1169108","0.0-126.0","A9YFEPJW62N8U","img_art/21.jpg","1","","","","","","","","","","","","","","","","","","","","","","","","",""
"989","","image-button-response","130","1170100","0.0-127.0-0.0","A9YFEPJW62N8U","img_art/21.jpg","2","","","","","","","","","","","","","","","","","","","","","","","","",""
"6803","","image-button-response","131","1176907","0.0-128.0-0.0","A9YFEPJW62N8U","img_art/21.jpg","3","","","","","","","","","","","","","","","","","","","","","","","","",""
"null","","html-keyboard-response","132","1177921","0.0-129.0","A9YFEPJW62N8U","<p style=""font-size: 48px;"">+</p>","","","","","null","allTrialResponses","1000","1","12","img_art/21.jpg","21","a storm in the distance","Luis,Devon,Samuel,Zachary,Bradley,Kenneth","I like the representation of love and hate in this,43,400,20","waterpaint is attractive,13,400,20","feels like a wave coming into light,9,400,20","Looks like a body of water during a sunset. I like this piece.,21,400,20","Indifferent toward this one.,6,300,20","It actually reminded me of a place I've been to. So I had a positive reaction to it.,22,300,20","Devon","waterpaint is attractive,13,400,20","Samuel","feels like a wave coming into light,9,400,20","Zachary","Looks like a body of water during a sunset. I like this piece.,21,400,20","6"
"77362","","survey-text","133","1255294","0.0-130.0-0.0","A9YFEPJW62N8U","","","","{""Q0"":""frozen water aginst a window""}","","","","","","","","","","","","","","","","","","","","","","",""
"4525","","image-slider-response","134","1259824","0.0-131.0","A9YFEPJW62N8U","","","","","13","","","","","","","","","","","","","","","","","","","","","",""
"null","","image-button-response","135","1264835","0.0-132.0","A9YFEPJW62N8U","img_art/13.jpg","null","","","","","","","","","","","","","","","","","","","","","","","","",""
"467","","image-button-response","136","1265304","0.0-133.0","A9YFEPJW62N8U","img_art/13.jpg","1","","","","","","","","","","","","","","","","","","","","","","","","",""
"7651","","image-button-response","137","1272959","0.0-134.0-0.0","A9YFEPJW62N8U","img_art/13.jpg","4","","","","","","","","","","","","","","","","","","","","","","","","",""
"1103","","image-button-response","138","1274066","0.0-135.0-0.0","A9YFEPJW62N8U","img_art/13.jpg","3","","","","","","","","","","","","","","","","","","","","","","","","",""
"null","","html-keyboard-response","139","1275571","0.0-136.0","A9YFEPJW62N8U","<p style=""font-size: 48px;"">+</p>","","","","","null","allTrialResponses","1500","1","13","img_art/13.jpg","13","frozen water aginst a window","Hunter,Devon,Samuel,Zachary,Jose,Richard","feels sterile/manufactured,1,240,20","I like this picture. The choice of colors are good,31,400,20","eighties here we come,7,400,20","Peaceful colors.,20,400,20","Best color combo. i love this.,50,200,20","kind of like the pattern and colors but don't love it,13,340,20","Devon","I like this picture. The choice of colors are good,31,400,20","Jose","Best color combo. i love this.,50,200,20","Zachary","Peaceful colors.,20,400,20","6"
"21457","","survey-text","140","1297039","0.0-137.0-0.0","A9YFEPJW62N8U","","","","{""Q0"":""water running down a stream""}","","","","","","","","","","","","","","","","","","","","","","",""
"4359","","image-slider-response","141","1301403","0.0-138.0","A9YFEPJW62N8U","","","","","37","","","","","","","","","","","","","","","","","","","","","",""
"null","","image-button-response","142","1306422","0.0-139.0","A9YFEPJW62N8U","img_art/24.jpg","null","","","","","","","","","","","","","","","","","","","","","","","","",""
"1140","","image-button-response","143","1307563","0.0-140.0","A9YFEPJW62N8U","img_art/24.jpg","1","","","","","","","","","","","","","","","","","","","","","","","","",""
"3418","","image-button-response","144","1310984","0.0-141.0-0.0","A9YFEPJW62N8U","img_art/24.jpg","2","","","","","","","","","","","","","","","","","","","","","","","","",""
"4791","","image-button-response","145","1315779","0.0-142.0-0.0","A9YFEPJW62N8U","img_art/24.jpg","3","","","","","","","","","","","","","","","","","","","","","","","","",""
"null","","html-keyboard-response","146","1317281","0.0-143.0","A9YFEPJW62N8U","<p style=""font-size: 48px;"">+</p>","","","","","null","allTrialResponses","1500","1","14","img_art/24.jpg","37","water running down a stream","Connor,Devon,Lucas,Zachary,Jose,Alexander","Too literal, not abstract,-29,240,20","Aww. I love the peace brought by this picture.,40,400,20","Extraordinary and unusual.,30,380,20","Looks like a beautiful stream rolling through terrain of rocks and flowers.,43,400,20","The combination of nature / realism with abstract colors is unique.,39,200,20","Water through the fruit.,15,120,20","Devon","Aww. I love the peace brought by this picture.,40,400,20","Lucas","Extraordinary and unusual.,30,380,20","Zachary","Looks like a beautiful stream rolling through terrain of rocks and flowers.,43,400,20","6"
"37905","","survey-text","147","1355197","0.0-144.0-0.0","A9YFEPJW62N8U","","","","{""Q0"":""a squerril eating fruit""}","","","","","","","","","","","","","","","","","","","","","","",""
"3628","","image-slider-response","148","1358829","0.0-145.0","A9YFEPJW62N8U","","","","","19","","","","","","","","","","","","","","","","","","","","","",""
"null","","image-button-response","149","1363834","0.0-146.0","A9YFEPJW62N8U","img_art/2.jpg","null","","","","","","","","","","","","","","","","","","","","","","","","",""
"903","","image-button-response","150","1364738","0.0-147.0","A9YFEPJW62N8U","img_art/2.jpg","2","","","","","","","","","","","","","","","","","","","","","","","","",""
"3887","","image-button-response","151","1368628","0.0-148.0-0.0","A9YFEPJW62N8U","img_art/2.jpg","4","","","","","","","","","","","","","","","","","","","","","","","","",""
"2244","","image-button-response","152","1370876","0.0-149.0-0.0","A9YFEPJW62N8U","img_art/2.jpg","3","","","","","","","","","","","","","","","","","","","","","","","","",""
"null","","html-keyboard-response","153","1371382","0.0-150.0","A9YFEPJW62N8U","<p style=""font-size: 48px;"">+</p>","","","","","null","allTrialResponses","500","1","15","img_art/2.jpg","19","a squerril eating fruit","Ethan,Devon,Lucas,Zachary,Derek,Eric","This looks like a professional abstract drawing. I like the shapes.,7,120,20","another confusing piece of art,-12,400,20","Colorful, curious.,20,380,20","I am not a fan of the color story. I am confused by the piece and therefore do not like it.,-21,400,20","Not my favorite but I can see this being hung in a art museum,25,360,20","I like the color, but I feel like I see a creepy face which I dislike.,-5,100,20","Lucas","Colorful, curious.,20,380,20","Derek","Not my favorite but I can see this being hung in a art museum,25,360,20","Zachary","I am not a fan of the color story. I am confused by the piece and therefore do not like it.,-21,400,20","6"
"7664","","survey-text","154","1379066","0.0-151.0-0.0","A9YFEPJW62N8U","","","","{""Q0"":""course""}","","","","","","","","","","","","","","","","","","","","","","",""
"26232","","survey-text","155","1405301","0.0-152.0-0.0","A9YFEPJW62N8U","","","","{""Q0"":""the statue of liberty on a diet""}","","","","","","","","","","","","","","","","","","","","","","",""
"4015","","image-slider-response","156","1409320","0.0-153.0","A9YFEPJW62N8U","","","","","27","","","","","","","","","","","","","","","","","","","","","",""
"4541","","image-button-response","157","1414332","0.0-154.0","A9YFEPJW62N8U","img_art/25.jpg","0","","","","","","","","","","","","","","","","","","","","","","","","",""
"482","","image-button-response","158","1414818","0.0-155.0","A9YFEPJW62N8U","img_art/25.jpg","0","","","","","","","","","","","","","","","","","","","","","","","","",""
"4746","","image-button-response","159","1419567","0.0-156.0-0.0","A9YFEPJW62N8U","img_art/25.jpg","4","","","","","","","","","","","","","","","","","","","","","","","","",""
"1543","","image-button-response","160","1421113","0.0-157.0-0.0","A9YFEPJW62N8U","img_art/25.jpg","3","","","","","","","","","","","","","","","","","","","","","","","","",""
"null","","html-keyboard-response","161","1421621","0.0-158.0","A9YFEPJW62N8U","<p style=""font-size: 48px;"">+</p>","","","","","null","allTrialResponses","500","1","16","img_art/25.jpg","27","the statue of liberty on a diet","Ryan,Aaron,Lucas,Zachary,Derek,Steven","Reminds me of Mr. Burns on drugs in the Simpsons,-50,380,20","I love the green and the texture,50,20,20","Well-designed, interesting.,30,380,20","I like the green color, but the combination of green and a person with a long neck reminds me of aliens,-27,400,20","It's really neat and cool looking,20,360,20","It's fine, belongs in a church, or somewhere else mystical,15,160,20","Ryan","Reminds me of Mr. Burns on drugs in the Simpsons,-50,380,20","Derek","It's really neat and cool looking,20,360,20","Zachary","I like the green color, but the combination of green and a person with a long neck reminds me of aliens,-27,400,20","6"
"18096","","survey-text","162","1439731","0.0-159.0-0.0","A9YFEPJW62N8U","","","","{""Q0"":""on my way to heaven""}","","","","","","","","","","","","","","","","","","","","","","",""
"2627","","image-slider-response","163","1442362","0.0-160.0","A9YFEPJW62N8U","","","","","21","","","","","","","","","","","","","","","","","","","","","",""
"null","","image-button-response","164","1447367","0.0-161.0","A9YFEPJW62N8U","img_art/18.jpg","null","","","","","","","","","","","","","","","","","","","","","","","","",""
"3722","","image-button-response","165","1451090","0.0-162.0","A9YFEPJW62N8U","img_art/18.jpg","5","","","","","","","","","","","","","","","","","","","","","","","","",""
"1010","","image-button-response","166","1452104","0.0-163.0-0.0","A9YFEPJW62N8U","img_art/18.jpg","4","","","","","","","","","","","","","","","","","","","","","","","","",""
"616","","image-button-response","167","1452724","0.0-164.0-0.0","A9YFEPJW62N8U","img_art/18.jpg","3","","","","","","","","","","","","","","","","","","","","","","","","",""
"null","","html-keyboard-response","168","1453741","0.0-165.0","A9YFEPJW62N8U","<p style=""font-size: 48px;"">+</p>","","","","","null","allTrialResponses","1000","1","17","img_art/18.jpg","21","on my way to heaven","Ryan,Andrew,Juan,Zachary,Derek,Adam","Too political, not my cup of tea,-50,380,20","Another ominous painting,-10,160,20","Again, this is too abtract.,-25,260,20","This one seems rather ghoulish to me.,-41,400,20","Very wild and abstract. I love it and would definitely hang this up in my home,50,360,20","Colors are okay. Reminds me of cavalry.,10,40,20","Adam","Colors are okay. Reminds me of cavalry.,10,40,20","Derek","Very wild and abstract. I love it and would definitely hang this up in my home,50,360,20","Zachary","This one seems rather ghoulish to me.,-41,400,20","6"
"74126","","survey-text","169","1527879","0.0-166.0-0.0","A9YFEPJW62N8U","","","","{""Q0"":""extracting  metal from my finger""}","","","","","","","","","","","","","","","","","","","","","","",""
"4193","","image-slider-response","170","1532078","0.0-167.0","A9YFEPJW62N8U","","","","","-17","","","","","","","","","","","","","","","","","","","","","",""
"2318","","image-button-response","171","1537091","0.0-168.0","A9YFEPJW62N8U","img_art/5.jpg","0","","","","","","","","","","","","","","","","","","","","","","","","",""
"1741","","image-button-response","172","1538834","0.0-169.0","A9YFEPJW62N8U","img_art/5.jpg","0","","","","","","","","","","","","","","","","","","","","","","","","",""
"6258","","image-button-response","173","1545095","0.0-170.0-0.0","A9YFEPJW62N8U","img_art/5.jpg","3","","","","","","","","","","","","","","","","","","","","","","","","",""
"2886","","image-button-response","174","1547984","0.0-171.0-0.0","A9YFEPJW62N8U","img_art/5.jpg","5","","","","","","","","","","","","","","","","","","","","","","","","",""
"null","","html-keyboard-response","175","1549001","0.0-172.0","A9YFEPJW62N8U","<p style=""font-size: 48px;"">+</p>","","","","","null","allTrialResponses","1000","1","18","img_art/5.jpg","-17","extracting  metal from my finger","Marcus,Jason,Colton,Zachary,Derek,Adam","I really dislike this. It's ugly and looks dirty.,-44,60,20","Wish the background had been kept clean; distracts from main object,11,20,20","I like the strokes and colors used,20,220,20","Not sure what to make of this one.,-1,400,20","It's okay. Don't hate it but don't love it either,0,360,20","Too loud. Dislike the bright yellow.,-5,40,20","Marcus","I really dislike this. It's ugly and looks dirty.,-44,60,20","Zachary","Not sure what to make of this one.,-1,400,20","Adam","Too loud. Dislike the bright yellow.,-5,40,20","6"
"41534","","survey-text","176","1590548","0.0-173.0-0.0","A9YFEPJW62N8U","","","","{""Q0"":""my teddy bear before bedtime""}","","","","","","","","","","","","","","","","","","","","","","",""
"6758","","image-slider-response","177","1597311","0.0-174.0","A9YFEPJW62N8U","","","","","11","","","","","","","","","","","","","","","","","","","","","",""
"4525","","image-button-response","178","1602321","0.0-175.0","A9YFEPJW62N8U","img_art/16.jpg","1","","","","","","","","","","","","","","","","","","","","","","","","",""
"1891","","image-button-response","179","1604215","0.0-176.0","A9YFEPJW62N8U","img_art/16.jpg","1","","","","","","","","","","","","","","","","","","","","","","","","",""
"1723","","image-button-response","180","1605941","0.0-177.0-0.0","A9YFEPJW62N8U","img_art/16.jpg","2","","","","","","","","","","","","","","","","","","","","","","","","",""
"8654","","image-button-response","181","1614599","0.0-178.0-0.0","A9YFEPJW62N8U","img_art/16.jpg","0","","","","","","","","","","","","","","","","","","","","","","","","",""
"null","","html-keyboard-response","182","1616111","0.0-179.0","A9YFEPJW62N8U","<p style=""font-size: 48px;"">+</p>","","","","","null","allTrialResponses","1500","1","19","img_art/16.jpg","11","my teddy bear before bedtime","Marcus,Jeremy,Jacob,Zachary,Alejandro,Adam","Hate this, especially the jarring contrast of the super realistic teddybear face.,-50,60,20","very disturbed seening a gun in the same picture as a teddy bear,-50,60,20","Cool but the bear creeps me out?,8,340,20","Not pleasing to the eyes. I do like that the gun is broken though.,-28,400,20","Garble and nonsense,-50,80,20","Hard contrast, but no emotions towards any of the objects.,-6,40,20","Jeremy","very disturbed seening a gun in the same picture as a teddy bear,-50,60,20","Jacob","Cool but the bear creeps me out?,8,340,20","Marcus","Hate this, especially the jarring contrast of the super realistic teddybear face.,-50,60,20","6"
"29631","","survey-text","183","1645755","0.0-180.0-0.0","A9YFEPJW62N8U","","","","{""Q0"":""this looks creepy""}","","","","","","","","","","","","","","","","","","","","","","",""
"4963","","image-slider-response","184","1650721","0.0-181.0","A9YFEPJW62N8U","","","","","-26","","","","","","","","","","","","","","","","","","","","","",""
"null","","image-button-response","185","1655732","0.0-182.0","A9YFEPJW62N8U","img_art/22.jpg","null","","","","","","","","","","","","","","","","","","","","","","","","",""
"4123","","image-button-response","186","1659857","0.0-183.0","A9YFEPJW62N8U","img_art/22.jpg","5","","","","","","","","","","","","","","","","","","","","","","","","",""
"9322","","image-button-response","187","1669182","0.0-184.0-0.0","A9YFEPJW62N8U","img_art/22.jpg","0","","","","","","","","","","","","","","","","","","","","","","","","",""
"541","","image-button-response","188","1669726","0.0-185.0-0.0","A9YFEPJW62N8U","img_art/22.jpg","1","","","","","","","","","","","","","","","","","","","","","","","","",""
"null","","html-keyboard-response","189","1671240","0.0-186.0","A9YFEPJW62N8U","<p style=""font-size: 48px;"">+</p>","","","","","null","allTrialResponses","1500","1","20","img_art/22.jpg","-26","this looks creepy","Marcus,Jeremy,Jacob,Seth,Austin,Isaiah","Like the colors. I enjoy looking at this one.,15,60,20","Happy. I like to colors,33,60,20","I like the mixing of the primary colors.,8,340,20","I think the colors are beautiful they remind me of a sunset.,13,60,20","Great color palette,29,240,20","The painting makes me feel a little sad.,12,300,20","Isaiah","The painting makes me feel a little sad.,12,300,20","Marcus","Like the colors. I enjoy looking at this one.,15,60,20","Jeremy","Happy. I like to colors,33,60,20","6"
"4177","","survey-text","190","1675441","0.0-187.0-0.0","A9YFEPJW62N8U","","","","{""Q0"":""we""}","","","","","","","","","","","","","","","","","","","","","","",""
"47478","","survey-text","191","1722922","0.0-188.0-0.0","A9YFEPJW62N8U","","","","{""Q0"":""trees near my back fwence looks cool""}","","","","","","","","","","","","","","","","","","","","","","",""
"4493","","image-slider-response","192","1727420","0.0-189.0","A9YFEPJW62N8U","","","","","17","","","","","","","","","","","","","","","","","","","","","",""
"null","","image-button-response","193","1732442","0.0-190.0","A9YFEPJW62N8U","img_art/17.jpg","null","","","","","","","","","","","","","","","","","","","","","","","","",""
"1911","","image-button-response","194","1734354","0.0-191.0","A9YFEPJW62N8U","img_art/17.jpg","1","","","","","","","","","","","","","","","","","","","","","","","","",""
"1104","","image-button-response","195","1735462","0.0-192.0-0.0","A9YFEPJW62N8U","img_art/17.jpg","2","","","","","","","","","","","","","","","","","","","","","","","","",""
"1208","","image-button-response","196","1736673","0.0-193.0-0.0","A9YFEPJW62N8U","img_art/17.jpg","3","","","","","","","","","","","","","","","","","","","","","","","","",""
"null","","html-keyboard-response","197","1738181","0.0-194.0","A9YFEPJW62N8U","<p style=""font-size: 48px;"">+</p>","","","","","null","allTrialResponses","1500","1","21","img_art/17.jpg","17","trees near my back fwence looks cool","Marcus,Jeremy,Blake,Sean,Nicholas,Isaiah","I like this, but it's a bit bland.,10,60,20","very pretty. Makes me happy,45,60,20","soft and warm light colors are relaxing,12,280,20","my response to the picture is that it looks beautiful,27,40,20","Nice colors, shapes, flow,31,240,20","The painting makes me feel relaxed, and a bit lonely, like I'm sitting at a park waiting for someone.,30,300,20","Jeremy","very pretty. Makes me happy,45,60,20","Blake","soft and warm light colors are relaxing,12,280,20","Sean","my response to the picture is that it looks beautiful,27,40,20","6"
"29754","","survey-text","198","1767949","0.0-195.0-0.0","A9YFEPJW62N8U","","","","{""Q0"":""looks like a crowd happy at the theatre""}","","","","","","","","","","","","","","","","","","","","","","",""
"4353","","image-slider-response","199","1772306","0.0-196.0","A9YFEPJW62N8U","","","","","19","","","","","","","","","","","","","","","","","","","","","",""
"null","","image-button-response","200","1777311","0.0-197.0","A9YFEPJW62N8U","img_art/12.jpg","null","","","","","","","","","","","","","","","","","","","","","","","","",""
"4676","","image-button-response","201","1781989","0.0-198.0","A9YFEPJW62N8U","img_art/12.jpg","3","","","","","","","","","","","","","","","","","","","","","","","","",""
"776","","image-button-response","202","1782768","0.0-199.0-0.0","A9YFEPJW62N8U","img_art/12.jpg","4","","","","","","","","","","","","","","","","","","","","","","","","",""
"693","","image-button-response","203","1783464","0.0-200.0-0.0","A9YFEPJW62N8U","img_art/12.jpg","5","","","","","","","","","","","","","","","","","","","","","","","","",""
"null","","html-keyboard-response","204","1783968","0.0-201.0","A9YFEPJW62N8U","<p style=""font-size: 48px;"">+</p>","","","","","null","allTrialResponses","500","1","22","img_art/12.jpg","19","looks like a crowd happy at the theatre","Noah,Jeremy,Blake,Sean,Devin,Jonathan","evokes the 80s, and not in a necessarily good way,-10,260,20","do not like it. Seems too busy,-10,60,20","negative feelings with these blocks,-20,280,20","my reaction is that the picture is wierd,-11,40,20","Love the shapes here,12,380,20","I like all the squares and the colors but it feels too cluttered to me,20,140,20","Sean","my reaction is that the picture is wierd,-11,40,20","Devin","Love the shapes here,12,380,20","Jonathan","I like all the squares and the colors but it feels too cluttered to me,20,140,20","6"
"26749","","survey-text","205","1810729","0.0-202.0-0.0","A9YFEPJW62N8U","","","","{""Q0"":""people having fun doing a line dance""}","","","","","","","","","","","","","","","","","","","","","","",""
"3578","","image-slider-response","206","1814312","0.0-203.0","A9YFEPJW62N8U","","","","","24","","","","","","","","","","","","","","","","","","","","","",""
"null","","image-button-response","207","1819321","0.0-204.0","A9YFEPJW62N8U","img_art/23.jpg","null","","","","","","","","","","","","","","","","","","","","","","","","",""
"6633","","image-button-response","208","1825957","0.0-205.0","A9YFEPJW62N8U","img_art/23.jpg","4","","","","","","","","","","","","","","","","","","","","","","","","",""
"1526","","image-button-response","209","1827486","0.0-206.0-0.0","A9YFEPJW62N8U","img_art/23.jpg","3","","","","","","","","","","","","","","","","","","","","","","","","",""
"2113","","image-button-response","210","1829603","0.0-207.0-0.0","A9YFEPJW62N8U","img_art/23.jpg","5","","","","","","","","","","","","","","","","","","","","","","","","",""
"null","","html-keyboard-response","211","1830622","0.0-208.0","A9YFEPJW62N8U","<p style=""font-size: 48px;"">+</p>","","","","","null","allTrialResponses","1000","1","23","img_art/23.jpg","24","people having fun doing a line dance","Garrett,Miguel,Antonio,Sean,Devin,Jonathan","I really like the way all the colors look, I think this is a pretty picture.,40,180,20","Awesome abstraction love it.,30,160,20","Like the colors and made me feel happy,23,220,20","so much detail .,31,40,20","background is great but the white is a bit weird,3,380,20","Those colors are awesome! And I love the strip of negative space that almost looks like a line of people,50,140,20","Devin","background is great but the white is a bit weird,3,380,20","Sean","so much detail .,31,40,20","Jonathan","Those colors are awesome! And I love the strip of negative space that almost looks like a line of people,50,140,20","6"
"31471","","survey-text","212","1862106","0.0-209.0-0.0","A9YFEPJW62N8U","","","","{""Q0"":""a creepy snake make me scared""}","","","","","","","","","","","","","","","","","","","","","","",""
"6751","","image-slider-response","213","1868861","0.0-210.0","A9YFEPJW62N8U","","","","","-16","","","","","","","","","","","","","","","","","","","","","",""
"null","","image-button-response","214","1873875","0.0-211.0","A9YFEPJW62N8U","img_art/10.jpg","null","","","","","","","","","","","","","","","","","","","","","","","","",""
"4503","","image-button-response","215","1878380","0.0-212.0","A9YFEPJW62N8U","img_art/10.jpg","0","","","","","","","","","","","","","","","","","","","","","","","","",""
"2052","","image-button-response","216","1880434","0.0-213.0-0.0","A9YFEPJW62N8U","img_art/10.jpg","4","","","","","","","","","","","","","","","","","","","","","","","","",""
"653","","image-button-response","217","1881090","0.0-214.0-0.0","A9YFEPJW62N8U","img_art/10.jpg","5","","","","","","","","","","","","","","","","","","","","","","","","",""
"null","","html-keyboard-response","218","1882097","0.0-215.0","A9YFEPJW62N8U","<p style=""font-size: 48px;"">+</p>","","","","","null","allTrialResponses","1000","1","24","img_art/10.jpg","-16","a creepy snake make me scared","Brandon,Jack,Tristan,Sean,Devin,Jonathan","Too abstract and it doesn't really remind me of anything,-40,320,20","this piece is okay. I wish it was more colorful, but it is certainly intriguing.,23,320,20","Highly abstract and yet the shapes and colors provide an emotional accessibility for me.,20,300,20","I see a rollercoaster,23,40,20","Looks a bit as though someone ran over it?,-13,380,20","Too much negative space makes it feel unfinished,-25,140,20","Brandon","Too abstract and it doesn't really remind me of anything,-40,320,20","Devin","Looks a bit as though someone ran over it?,-13,380,20","Jonathan","Too much negative space makes it feel unfinished,-25,140,20","6"
"40333","","survey-text","219","1922440","0.0-216.0-0.0","A9YFEPJW62N8U","","","","{""Q0"":""too busy ants crawling at my feet""}","","","","","","","","","","","","","","","","","","","","","","",""
"3594","","image-slider-response","220","1926039","0.0-217.0","A9YFEPJW62N8U","","","","","-10","","","","","","","","","","","","","","","","","","","","","",""
"4141","","image-button-response","221","1931049","0.0-218.0","A9YFEPJW62N8U","img_art/7.jpg","0","","","","","","","","","","","","","","","","","","","","","","","","",""
"1802","","image-button-response","222","1932854","0.0-219.0","A9YFEPJW62N8U","img_art/7.jpg","0","","","","","","","","","","","","","","","","","","","","","","","","",""
"3184","","image-button-response","223","1936042","0.0-220.0-0.0","A9YFEPJW62N8U","img_art/7.jpg","2","","","","","","","","","","","","","","","","","","","","","","","","",""
"4634","","image-button-response","224","1940680","0.0-221.0-0.0","A9YFEPJW62N8U","img_art/7.jpg","3","","","","","","","","","","","","","","","","","","","","","","","","",""
"null","","html-keyboard-response","225","1942201","0.0-222.0","A9YFEPJW62N8U","<p style=""font-size: 48px;"">+</p>","","","","","null","allTrialResponses","1500","1","25","img_art/7.jpg","-10","too busy ants crawling at my feet","Brandon,Edward,Thomas,Luke,Devin,Jonathan","Looks like bad wallpaper,-29,320,20","It looks like maybe some seeds?,14,60,20","Confusion, mild aversion,-36,220,20","reminds me of the desert,-20,20,20","Not very big on the sameness here,-20,380,20","Looks like the surface of mars,29,140,20","Brandon","Looks like bad wallpaper,-29,320,20","Thomas","Confusion, mild aversion,-36,220,20","Luke","reminds me of the desert,-20,20,20","6"
"8360","","survey-text","226","1950585","0.0-223.0-0.0","A9YFEPJW62N8U","","","","{""Q0"":""table""}","","","","","","","","","","","","","","","","","","","","","","",""
"30555","","survey-text","227","1981143","0.0-224.0-0.0","A9YFEPJW62N8U","","","","{""Q0"":""makes me dizzy looking down from a skyscraper""}","","","","","","","","","","","","","","","","","","","","","","",""
"8417","","image-slider-response","228","1989566","0.0-225.0","A9YFEPJW62N8U","","","","","-9","","","","","","","","","","","","","","","","","","","","","",""
"null","","image-button-response","229","1994581","0.0-226.0","A9YFEPJW62N8U","img_art/8.jpg","null","","","","","","","","","","","","","","","","","","","","","","","","",""
"2105","","image-button-response","230","1996687","0.0-227.0","A9YFEPJW62N8U","img_art/8.jpg","0","","","","","","","","","","","","","","","","","","","","","","","","",""
"1293","","image-button-response","231","1997984","0.0-228.0-0.0","A9YFEPJW62N8U","img_art/8.jpg","1","","","","","","","","","","","","","","","","","","","","","","","","",""
"705","","image-button-response","232","1998693","0.0-229.0-0.0","A9YFEPJW62N8U","img_art/8.jpg","2","","","","","","","","","","","","","","","","","","","","","","","","",""
"null","","html-keyboard-response","233","1999701","0.0-230.0","A9YFEPJW62N8U","<p style=""font-size: 48px;"">+</p>","","","","","null","allTrialResponses","1000","1","26","img_art/8.jpg","-9","makes me dizzy looking down from a skyscraper","Brandon,Nathan,Thomas,Luke,Nathaniel,Taylor","Reminds me of old 80s fantasy book covers. Nostalgic,23,320,20","Enjoy this, it looks like a rushing water pool, surrounded by mountains and buildings, hiding details such as faces.,30,200,20","Gorgeous! I love the colors and the details.,50,220,20","It is very colorful with a deeper meaning,25,20,20","Not a fan of abstract looking pieces with too many focal points. The tunnel and face, for example,-31,220,20","And I'll huff and I'll puff and I'll blow your town down!!,20,200,20","Brandon","Reminds me of old 80s fantasy book covers. Nostalgic,23,320,20","Nathan","Enjoy this, it looks like a rushing water pool, surrounded by mountains and buildings, hiding details such as faces.,30,200,20","Thomas","Gorgeous! I love the colors and the details.,50,220,20","6"
"20802","","survey-text","234","2020516","0.0-231.0-0.0","A9YFEPJW62N8U","","","","{""Q0"":""looks bad like an oil spill""}","","","","","","","","","","","","","","","","","","","","","","",""
"3547","","image-slider-response","235","2024068","0.0-232.0","A9YFEPJW62N8U","","","","","-11","","","","","","","","","","","","","","","","","","","","","",""
"2536","","image-button-response","236","2029080","0.0-233.0","A9YFEPJW62N8U","img_art/29.jpg","0","","","","","","","","","","","","","","","","","","","","","","","","",""
"331","","image-button-response","237","2029414","0.0-234.0","A9YFEPJW62N8U","img_art/29.jpg","3","","","","","","","","","","","","","","","","","","","","","","","","",""
"1571","","image-button-response","238","2030988","0.0-235.0-0.0","A9YFEPJW62N8U","img_art/29.jpg","2","","","","","","","","","","","","","","","","","","","","","","","","",""
"2107","","image-button-response","239","2033099","0.0-236.0-0.0","A9YFEPJW62N8U","img_art/29.jpg","0","","","","","","","","","","","","","","","","","","","","","","","","",""
"null","","html-keyboard-response","240","2034611","0.0-237.0","A9YFEPJW62N8U","<p style=""font-size: 48px;"">+</p>","","","","","null","allTrialResponses","1500","1","27","img_art/29.jpg","-11","looks bad like an oil spill","Brandon,Nathan,Thomas,Shane,Jorge,Christian","The black color is great, but I'm really not a fan of this hectic style,-40,320,20","Quite ugly in my opinion,-30,200,20","Looks messy, but not in appealing way,-20,220,20","Darkness and torment,-50,80,20","makes me feel busy and unorganized,4,180,20","love the texture, i don't know, i just really like it (and the paintbrush adds a nice touch),44,140,20","Shane","Darkness and torment,-50,80,20","Thomas","Looks messy, but not in appealing way,-20,220,20","Brandon","The black color is great, but I'm really not a fan of this hectic style,-40,320,20","6"
"18459","","survey-text","241","2053084","0.0-238.0-0.0","A9YFEPJW62N8U","","","","{""Q0"":""looks like childs work meh""}","","","","","","","","","","","","","","","","","","","","","","",""
"3300","","image-slider-response","242","2056388","0.0-239.0","A9YFEPJW62N8U","","","","","-7","","","","","","","","","","","","","","","","","","","","","",""
"3807","","image-button-response","243","2061395","0.0-240.0","A9YFEPJW62N8U","img_art/1.jpg","1","","","","","","","","","","","","","","","","","","","","","","","","",""
"871","","image-button-response","244","2062269","0.0-241.0","A9YFEPJW62N8U","img_art/1.jpg","1","","","","","","","","","","","","","","","","","","","","","","","","",""
"6977","","image-button-response","245","2069250","0.0-242.0-0.0","A9YFEPJW62N8U","img_art/1.jpg","4","","","","","","","","","","","","","","","","","","","","","","","","",""
"2252","","image-button-response","246","2071506","0.0-243.0-0.0","A9YFEPJW62N8U","img_art/1.jpg","3","","","","","","","","","","","","","","","","","","","","","","","","",""
"null","","html-keyboard-response","247","2073021","0.0-244.0","A9YFEPJW62N8U","<p style=""font-size: 48px;"">+</p>","","","","","null","allTrialResponses","1500","1","28","img_art/1.jpg","-7","looks like childs work meh","Brandon,Corey,Thomas,Shane,Jesus,Jesse","Taco Bell wallpaper. Doesn't really make me feel anything,3,320,20","basic reminds me of something a school would have on the wall,-7,260,20","Pleasant, but a tad too monochromatic in some areas for my taste,7,220,20","Warmth of the sun,22,80,20","I like the simple aspect to the design,21,100,20","Im not a fan of the bluriness,-18,80,20","Corey","basic reminds me of something a school would have on the wall,-7,260,20","Jesus","I like the simple aspect to the design,21,100,20","Shane","Warmth of the sun,22,80,20","6"
"54969","","survey-text","248","2128003","0.0-245.0-0.0","A9YFEPJW62N8U","","","","{""Q0"":""a city street looking out to the ocean its good""}","","","","","","","","","","","","","","","","","","","","","","",""
"4744","","image-slider-response","249","2132752","0.0-246.0","A9YFEPJW62N8U","","","","","22","","","","","","","","","","","","","","","","","","","","","",""
"4940","","image-button-response","250","2137761","0.0-247.0","A9YFEPJW62N8U","img_art/19.jpg","3","","","","","","","","","","","","","","","","","","","","","","","","",""
"1172","","image-button-response","251","2138937","0.0-248.0","A9YFEPJW62N8U","img_art/19.jpg","3","","","","","","","","","","","","","","","","","","","","","","","","",""
"2112","","image-button-response","252","2141053","0.0-249.0-0.0","A9YFEPJW62N8U","img_art/19.jpg","5","","","","","","","","","","","","","","","","","","","","","","","","",""
"2589","","image-button-response","253","2143646","0.0-250.0-0.0","A9YFEPJW62N8U","img_art/19.jpg","2","","","","","","","","","","","","","","","","","","","","","","","","",""
"null","","html-keyboard-response","254","2145161","0.0-251.0","A9YFEPJW62N8U","<p style=""font-size: 48px;"">+</p>","","","","","null","allTrialResponses","1500","1","29","img_art/19.jpg","22","a city street looking out to the ocean its good","Isaac,Corey,Dakota,Shane,Jesus,Elijah","It is too busy.,-34,280,20","i think it is ugly and hate the colors,-35,260,20","confusion, scattered and diffuse,-4,280,20","A day in a small city,45,80,20","Shapes give it a feeling of being crowded,-18,100,20","The details are amazing,36,80,20","Shane","A day in a small city,45,80,20","Elijah","The details are amazing,36,80,20","Dakota","confusion, scattered and diffuse,-4,280,20","6"
"28213","","survey-text","255","2173388","0.0-252.0-0.0","A9YFEPJW62N8U","","","","{""Q0"":""a tonado scene makes me scare""}","","","","","","","","","","","","","","","","","","","","","","",""
"3635","","image-slider-response","256","2177028","0.0-253.0","A9YFEPJW62N8U","","","","","-9","","","","","","","","","","","","","","","","","","","","","",""
"4002","","image-button-response","257","2182042","0.0-254.0","A9YFEPJW62N8U","img_art/14.jpg","2","","","","","","","","","","","","","","","","","","","","","","","","",""
"3213","","image-button-response","258","2185256","0.0-255.0","A9YFEPJW62N8U","img_art/14.jpg","4","","","","","","","","","","","","","","","","","","","","","","","","",""
"1866","","image-button-response","259","2187125","0.0-256.0-0.0","A9YFEPJW62N8U","img_art/14.jpg","2","","","","","","","","","","","","","","","","","","","","","","","","",""
"7938","","image-button-response","260","2195067","0.0-257.0-0.0","A9YFEPJW62N8U","img_art/14.jpg","0","","","","","","","","","","","","","","","","","","","","","","","","",""
"null","","html-keyboard-response","261","2195571","0.0-258.0","A9YFEPJW62N8U","<p style=""font-size: 48px;"">+</p>","","","","","null","allTrialResponses","500","1","30","img_art/14.jpg","-9","a tonado scene makes me scare","Stephen,Chase,Dakota,Shane,Caleb,Elijah","I'm a fan of the background.,13,140,20","It kind of looks like a tree but I feel very netural.,0,120,20","feels incomplete, poorly planned/executed,-34,280,20","Feels like a camp fire among friends,22,80,20","Again. This is pretty neutral, leaning dislike.,-18,40,20","Makes me feel good,30,80,20","Caleb","Again. This is pretty neutral, leaning dislike.,-18,40,20","Dakota","feels incomplete, poorly planned/executed,-34,280,20","Stephen","I'm a fan of the background.,13,140,20","6"
"10094","","image-button-response_instructions","262","2205682","0.0-259.0","A9YFEPJW62N8U","","0","instructions","","","","","","","","","","","","","","","","","","","","","","","",""
