"rt","url","trial_type","trial_index","time_elapsed","internal_node_id","participant_id","stimulus","button_pressed","Name","responses","response","key_press","variableName","fixationTime","condition","trial","photo","subjectRating","subjectResponse","agentsNames","agent_1_Response","agent_2_Response","agent_3_Response","agent_4_Response","agent_5_Response","agent_6_Response","kept_1_name","kept_1_response","kept_2_name","kept_2_response","kept_3_name","kept_3_response","errorCounter"
"4426","external_page_harvard.html","external-html","0","4539","0.0-0.0","AA1IM0SAQ3XFM","","","","","","","","","","","","","","","","","","","","","","","","","","",""
"1256","","image-button-response","1","5796","0.0-1.0","AA1IM0SAQ3XFM","","1","","","","","","","","","","","","","","","","","","","","","","","","",""
"1698","","image-button-response","2","7500","0.0-2.0-0.0","AA1IM0SAQ3XFM","","1","phone","","","","","","","","","","","","","","","","","","","","","","","",""
"16062","","survey-text","3","23563","0.0-3.0-0.0","AA1IM0SAQ3XFM","","","","{""Q0"":""AA1IM0SAQ3XFM""}","","","","","","","","","","","","","","","","","","","","","","",""
"2935","","image-button-response_instructions","4","26500","0.0-4.0","AA1IM0SAQ3XFM","","0","instructions","","","","","","","","","","","","","","","","","","","","","","","",""
"5031","","image-button-response_instructions","5","31533","0.0-5.0","AA1IM0SAQ3XFM","img_art/ins/popularity/ins1.png","0","instructions","","","","","","","","","","","","","","","","","","","","","","","",""
"3107","","image-button-response_instructions","6","34641","0.0-6.0","AA1IM0SAQ3XFM","img_art/ins/popularity/ins2.png","0","instructions","","","","","","","","","","","","","","","","","","","","","","","",""
"3986","","image-button-response_instructions","7","38629","0.0-7.0","AA1IM0SAQ3XFM","img_art/ins/popularity/ins2Extreme.png","0","instructions","","","","","","","","","","","","","","","","","","","","","","","",""
"3509","","image-button-response_instructions","8","42138","0.0-8.0","AA1IM0SAQ3XFM","img_art/ins/popularity/ins3KEEPpop.PNG","0","instructions","","","","","","","","","","","","","","","","","","","","","","","",""
"2933","","image-button-response_instructions","9","45073","0.0-9.0","AA1IM0SAQ3XFM","img_art/ins/popularity/ins3ANamepop.PNG","0","instructions","","","","","","","","","","","","","","","","","","","","","","","",""
"2080","","image-button-response_instructions","10","47155","0.0-10.0","AA1IM0SAQ3XFM","img_art/ins/popularity/ins3ARatingpop.png","0","instructions","","","","","","","","","","","","","","","","","","","","","","","",""
"2549","","image-button-response_instructions","11","49704","0.0-11.0","AA1IM0SAQ3XFM","img_art/ins/popularity/ins3ATextpop.png","0","instructions","","","","","","","","","","","","","","","","","","","","","","","",""
"5096","","image-button-response_instructions","12","54802","0.0-12.0","AA1IM0SAQ3XFM","img_art/ins/popularity/ins3ALikespop.png","0","instructions","","","","","","","","","","","","","","","","","","","","","","","",""
"8388","","image-button-response_instructions","13","63190","0.0-13.0","AA1IM0SAQ3XFM","img_art/ins/popularity/ins3KEEPpop.PNG","0","instructions","","","","","","","","","","","","","","","","","","","","","","","",""
"6012","","image-button-response_instructions","14","69204","0.0-14.0","AA1IM0SAQ3XFM","img_art/ins/popularity/ins3_5RED.png","0","instructions","","","","","","","","","","","","","","","","","","","","","","","",""
"59231","","image-button-response_instructions","15","128436","0.0-15.0","AA1IM0SAQ3XFM","img_art/ins/popularity/ins3KEEPpop.PNG","0","instructions","","","","","","","","","","","","","","","","","","","","","","","",""
"6171","","image-button-response_instructions","16","134608","0.0-16.0","AA1IM0SAQ3XFM","img_art/ins/popularity/ins4KEEPpop.PNG","0","instructions","","","","","","","","","","","","","","","","","","","","","","","",""
"2032","","image-button-response_instructions","17","136640","0.0-17.0","AA1IM0SAQ3XFM","img_art/ins/popularity/ins5KEEPpop.PNG","0","instructions","","","","","","","","","","","","","","","","","","","","","","","",""
"1216","","image-button-response_instructions","18","137857","0.0-18.0","AA1IM0SAQ3XFM","","0","instructions","","","","","","","","","","","","","","","","","","","","","","","",""
"10414","","survey-text","19","148298","0.0-19.0-0.0","AA1IM0SAQ3XFM","","","","{""Q0"":""but""}","","","","","","","","","","","","","","","","","","","","","","",""
"13578","","survey-text","20","161878","0.0-20.0-0.0","AA1IM0SAQ3XFM","","","","{""Q0"":""lovely""}","","","","","","","","","","","","","","","","","","","","","","",""
"4371.5","","image-slider-response","21","166253","0.0-21.0","AA1IM0SAQ3XFM","","","","","38","","","","","","","","","","","","","","","","","","","","","",""
"null","","image-button-response","22","171262","0.0-22.0","AA1IM0SAQ3XFM","img_art/ins/1.jpg","null","","","","","","","","","","","","","","","","","","","","","","","","",""
"520","","image-button-response","23","171785","0.0-23.0","AA1IM0SAQ3XFM","img_art/ins/1.jpg","4","","","","","","","","","","","","","","","","","","","","","","","","",""
"4501","","image-button-response","24","176289","0.0-24.0-0.0","AA1IM0SAQ3XFM","img_art/ins/1.jpg","0","","","","","","","","","","","","","","","","","","","","","","","","",""
"7763","","image-button-response","25","184055","0.0-25.0-0.0","AA1IM0SAQ3XFM","img_art/ins/1.jpg","5","","","","","","","","","","","","","","","","","","","","","","","","",""
"null","","html-keyboard-response","26","185562","0.0-26.0","AA1IM0SAQ3XFM","<p style=""font-size: 48px;"">+</p>","","","","","null","allTrialResponses","1500","1","-2","img_art/ins/1.jpg","38","lovely","Allison,Ashley,Beth,Dora,Erika,Jen","looks like a lot of things going on in the mist,20,20,20","I just don't get why these type of art would be popular,-32,40,20","This color reminds me of poo,-46,60,20","looks like what my niece in 3rd grade did this afternoon,-50,80,20","I like the sophisticated brushwork,40,100,20","It reminds me of a candy land dream I had,36,120,20","Erika","I like the sophisticated brushwork,40,100,20","Allison","looks like a lot of things going on in the mist,20,20,20","Jen","It reminds me of a candy land dream I had,36,120,20","0"
"11355","","survey-text","27","196922","0.0-27.0-0.0","AA1IM0SAQ3XFM","","","","{""Q0"":""dark""}","","","","","","","","","","","","","","","","","","","","","","",""
"15370","","survey-text","28","214734","0.0-27.1-0.1","AA1IM0SAQ3XFM","","","","{""Q0"":""This is dark and gloomy""}","","","","","","","","","","","","","","","","","","","","","","",""
"4268.200000017881","","image-slider-response","29","219004","0.0-28.0","AA1IM0SAQ3XFM","","","","","-34","","","","","","","","","","","","","","","","","","","","","",""
"4107","","image-button-response","30","224008","0.0-29.0","AA1IM0SAQ3XFM","img_art/ins/2.jpg","3","","","","","","","","","","","","","","","","","","","","","","","","",""
"412","","image-button-response","31","224423","0.0-30.0","AA1IM0SAQ3XFM","img_art/ins/2.jpg","3","","","","","","","","","","","","","","","","","","","","","","","","",""
"4668","","image-button-response","32","229093","0.0-31.0-0.0","AA1IM0SAQ3XFM","img_art/ins/2.jpg","5","","","","","","","","","","","","","","","","","","","","","","","","",""
"1437","","image-button-response","33","230533","0.0-32.0-0.0","AA1IM0SAQ3XFM","img_art/ins/2.jpg","4","","","","","","","","","","","","","","","","","","","","","","","","",""
"null","","html-keyboard-response","34","231036","0.0-33.0","AA1IM0SAQ3XFM","<p style=""font-size: 48px;"">+</p>","","","","","null","allTrialResponses","500","1","-1","img_art/ins/2.jpg","-34","This is dark and gloomy","Allison,Kara,Katie,Jenna,Erika,Jen","I don't have strong feelings about this,10,20,20","I like the blocks of color arrangements,30,160,20","too much color!,-28,180,20","One of my pet peevs,-48,140,20","I would never be able to compose a sophisticated pallete like this,48,100,20","It reminds me of a fireplace,36,120,20","Jenna","One of my pet peevs,-48,140,20","Jen","It reminds me of a fireplace,36,120,20","Erika","I would never be able to compose a sophisticated pallete like this,48,100,20","0"
"15611","","survey-text","35","246651","0.0-34.0-0.0","AA1IM0SAQ3XFM","","","","{""Q0"":""Cold and unfeeling piece of art""}","","","","","","","","","","","","","","","","","","","","","","",""
"4954.0999999940395","","image-slider-response","36","251608","0.0-35.0","AA1IM0SAQ3XFM","","","","","-48","","","","","","","","","","","","","","","","","","","","","",""
"3696","","image-button-response","37","256615","0.0-36.0","AA1IM0SAQ3XFM","img_art/ins/3.jpg","1","","","","","","","","","","","","","","","","","","","","","","","","",""
"1016","","image-button-response","38","257633","0.0-37.0","AA1IM0SAQ3XFM","img_art/ins/3.jpg","1","","","","","","","","","","","","","","","","","","","","","","","","",""
"2874","","image-button-response","39","260509","0.0-38.0-0.0","AA1IM0SAQ3XFM","img_art/ins/3.jpg","3","","","","","","","","","","","","","","","","","","","","","","","","",""
"1072","","image-button-response","40","261584","0.0-39.0-0.0","AA1IM0SAQ3XFM","img_art/ins/3.jpg","5","","","","","","","","","","","","","","","","","","","","","","","","",""
"null","","html-keyboard-response","41","263086","0.0-40.0","AA1IM0SAQ3XFM","<p style=""font-size: 48px;"">+</p>","","","","","null","allTrialResponses","1500","1","0","img_art/ins/3.jpg","-48","Cold and unfeeling piece of art","Mary,Rose,Leslie,Jenna,Erika,Jen","I like the overlapping of brushes,41,220,20","My daily routine, it's depressing,-20,240,20","It's an alright work,15,200,20","looks like a murder room,-35,140,20","I feel connected to the artist,40,100,20","I can feel a rainy day from this painting,18,120,20","Rose","My daily routine, it's depressing,-20,240,20","Jenna","looks like a murder room,-35,140,20","Jen","I can feel a rainy day from this painting,18,120,20","0"
"3957","","image-button-response_instructions","42","267047","0.0-41.0","AA1IM0SAQ3XFM","","0","instructions","","","","","","","","","","","","","","","","","","","","","","","",""
"11449","","survey-likert","43","278497","0.0-42.0-0.0","AA1IM0SAQ3XFM","","","","{""Q0"":"""",""Q1"":0,""Q2"":0}","","","","","","","","","","","","","","","","","","","","","","",""
"5247","","survey-likert","44","285714","0.0-42.1-0.1","AA1IM0SAQ3XFM","","","","{""Q0"":"""",""Q1"":0,""Q2"":1}","","","","","","","","","","","","","","","","","","","","","","",""
"5049","","survey-text","45","290767","0.0-43.0-0.0","AA1IM0SAQ3XFM","","","","{""Q0"":""rock""}","","","","","","","","","","","","","","","","","","","","","","",""
"23199","","survey-text","46","313969","0.0-44.0-0.0","AA1IM0SAQ3XFM","","","","{""Q0"":""A sad tree but good abstract work""}","","","","","","","","","","","","","","","","","","","","","","",""
"3322","","image-slider-response","47","317293","0.0-45.0","AA1IM0SAQ3XFM","","","","","8","","","","","","","","","","","","","","","","","","","","","",""
"4291","","image-button-response","48","322315","0.0-46.0","AA1IM0SAQ3XFM","img_art/14.jpg","4","","","","","","","","","","","","","","","","","","","","","","","","",""
"1019","","image-button-response","49","323337","0.0-47.0","AA1IM0SAQ3XFM","img_art/14.jpg","4","","","","","","","","","","","","","","","","","","","","","","","","",""
"1441","","image-button-response","50","324782","0.0-48.0-0.0","AA1IM0SAQ3XFM","img_art/14.jpg","5","","","","","","","","","","","","","","","","","","","","","","","","",""
"1355","","image-button-response","51","326140","0.0-49.0-0.0","AA1IM0SAQ3XFM","img_art/14.jpg","0","","","","","","","","","","","","","","","","","","","","","","","","",""
"null","","html-keyboard-response","52","326642","0.0-50.0","AA1IM0SAQ3XFM","<p style=""font-size: 48px;"">+</p>","","","","","null","allTrialResponses","500","1","1","img_art/14.jpg","8","A sad tree but good abstract work","Laura,Marissa,Kelsey,Cassidy,Catherine,Gabriela","feels incomplete, poorly planned/executed,-34,320,20","I like the sharpness of the lines,20,160,20","i like this one!,23,240,20","Meh. Pleasant to look at. Colors are nice,6,140,20","Tornado, nature. trees falling and displaced creatures. Love the colors though.,1,160,20","It looks like a table centerpiece,-22,140,20","Catherine","Tornado, nature. trees falling and displaced creatures. Love the colors though.,1,160,20","Gabriela","It looks like a table centerpiece,-22,140,20","Laura","feels incomplete, poorly planned/executed,-34,320,20","1"
"19935","","survey-text","53","346582","0.0-51.0-0.0","AA1IM0SAQ3XFM","","","","{""Q0"":""Muddled colors. Don't like""}","","","","","","","","","","","","","","","","","","","","","","",""
"8622.09999999404","","image-slider-response","54","355206","0.0-52.0","AA1IM0SAQ3XFM","","","","","-37","","","","","","","","","","","","","","","","","","","","","",""
"4899","","image-button-response","55","360209","0.0-53.0","AA1IM0SAQ3XFM","img_art/22.jpg","0","","","","","","","","","","","","","","","","","","","","","","","","",""
"658","","image-button-response","56","360870","0.0-54.0","AA1IM0SAQ3XFM","img_art/22.jpg","0","","","","","","","","","","","","","","","","","","","","","","","","",""
"2778","","image-button-response","57","363650","0.0-55.0-0.0","AA1IM0SAQ3XFM","img_art/22.jpg","4","","","","","","","","","","","","","","","","","","","","","","","","",""
"1834","","image-button-response","58","365487","0.0-56.0-0.0","AA1IM0SAQ3XFM","img_art/22.jpg","0","","","","","","","","","","","","","","","","","","","","","","","","",""
"2311","","image-button-response","59","370874","0.0-56.1-0.1","AA1IM0SAQ3XFM","img_art/22.jpg","3","","","","","","","","","","","","","","","","","","","","","","","","",""
"null","","html-keyboard-response","60","371380","0.0-57.0","AA1IM0SAQ3XFM","<p style=""font-size: 48px;"">+</p>","","","","","null","allTrialResponses","500","1","2","img_art/22.jpg","-37","Muddled colors. Don't like","Laura,Jenna,Kayla,Sydney,Catherine,Gabriela","muddy and rough,14,320,20","beautiful. love the bright colors & soft brush strokes, and the imprint of the key is genius.,50,360,20","I don't like that it looks like a person is there upside down.,-16,180,20","I don't normally like bright colors, but I like them in this. Don't like the random black paint.,30,320,20","Scary monsters lurking causing confusion.,-40,160,20","Neither like nor dislike it. The red, yellow and blue colors are bright but I don't know what it's meant to be.,1,140,20","Laura","muddy and rough,14,320,20","Catherine","Scary monsters lurking causing confusion.,-40,160,20","Sydney","I don't normally like bright colors, but I like them in this. Don't like the random black paint.,30,320,20","3"
"15648","","survey-text","61","387033","0.0-58.0-0.0","AA1IM0SAQ3XFM","","","","{""Q0"":""I like this. Reminds me of Picasso""}","","","","","","","","","","","","","","","","","","","","","","",""
"4829.600000023842","","image-slider-response","62","391864","0.0-59.0","AA1IM0SAQ3XFM","","","","","43","","","","","","","","","","","","","","","","","","","","","",""
"3119","","image-button-response","63","396870","0.0-60.0","AA1IM0SAQ3XFM","img_art/28.jpg","0","","","","","","","","","","","","","","","","","","","","","","","","",""
"786","","image-button-response","64","397658","0.0-61.0","AA1IM0SAQ3XFM","img_art/28.jpg","0","","","","","","","","","","","","","","","","","","","","","","","","",""
"4205","","image-button-response","65","401866","0.0-62.0-0.0","AA1IM0SAQ3XFM","img_art/28.jpg","2","","","","","","","","","","","","","","","","","","","","","","","","",""
"1201","","image-button-response","66","403070","0.0-63.0-0.0","AA1IM0SAQ3XFM","img_art/28.jpg","1","","","","","","","","","","","","","","","","","","","","","","","","",""
"null","","html-keyboard-response","67","404077","0.0-64.0","AA1IM0SAQ3XFM","<p style=""font-size: 48px;"">+</p>","","","","","null","allTrialResponses","1000","1","3","img_art/28.jpg","43","I like this. Reminds me of Picasso","Laura,Ashley,Isabella,Sydney,Catherine,Leah","musical, animated and happy with somber undertones,7,320,20","Normally don't react well to abstract art, but it looks almost like something's there.,28,320,20","This is also something I would see in a serious but safe environment,14,280,20","I enjoy the colors.,25,320,20","A mom protecting her child because something scary, (perhaps imaginary) wants to take the child.,-10,160,20","Too me it's a mish mash, true abstract,-37,360,20","Laura","musical, animated and happy with somber undertones,7,320,20","Isabella","This is also something I would see in a serious but safe environment,14,280,20","Ashley","Normally don't react well to abstract art, but it looks almost like something's there.,28,320,20","3"
"13868","","survey-text","68","417949","0.0-65.0-0.0","AA1IM0SAQ3XFM","","","","{""Q0"":""Don't like this. Looks like rocks and not a painting""}","","","","","","","","","","","","","","","","","","","","","","",""
"3897.5999999940395","","image-slider-response","69","421850","0.0-66.0","AA1IM0SAQ3XFM","","","","","-47","","","","","","","","","","","","","","","","","","","","","",""
"1705","","image-button-response","70","426854","0.0-67.0","AA1IM0SAQ3XFM","img_art/7.jpg","0","","","","","","","","","","","","","","","","","","","","","","","","",""
"578","","image-button-response","71","427434","0.0-68.0","AA1IM0SAQ3XFM","img_art/7.jpg","3","","","","","","","","","","","","","","","","","","","","","","","","",""
"955","","image-button-response","72","428390","0.0-69.0-0.0","AA1IM0SAQ3XFM","img_art/7.jpg","0","","","","","","","","","","","","","","","","","","","","","","","","",""
"3745","","image-button-response","73","432138","0.0-70.0-0.0","AA1IM0SAQ3XFM","img_art/7.jpg","2","","","","","","","","","","","","","","","","","","","","","","","","",""
"null","","html-keyboard-response","74","432640","0.0-71.0","AA1IM0SAQ3XFM","<p style=""font-size: 48px;"">+</p>","","","","","null","allTrialResponses","500","1","4","img_art/7.jpg","-47","Don't like this. Looks like rocks and not a painting","Laura,Ashley,Isabella,Jasmine,Madison,Mackenzie","I feel thirsty - reminds me of desert sand,11,320,20","landscape of amrs, yawn.,-25,320,20","Dessert like almost like dry land,4,280,20","It just reminds me of dirt,-10,340,20","Is this a painting, really? Very compelling if so, the texture work is incredible.,15,60,20","Is simple in color and texture,11,20,20","Jasmine","It just reminds me of dirt,-10,340,20","Laura","I feel thirsty - reminds me of desert sand,11,320,20","Isabella","Dessert like almost like dry land,4,280,20","3"
"13272","","survey-text","75","445917","0.0-72.0-0.0","AA1IM0SAQ3XFM","","","","{""Q0"":""This is dark and scary. Looks like a factory""}","","","","","","","","","","","","","","","","","","","","","","",""
"7730","","image-slider-response","76","453649","0.0-73.0","AA1IM0SAQ3XFM","","","","","-44","","","","","","","","","","","","","","","","","","","","","",""
"4368","","image-button-response","77","458653","0.0-74.0","AA1IM0SAQ3XFM","img_art/20.jpg","3","","","","","","","","","","","","","","","","","","","","","","","","",""
"1504","","image-button-response","78","460160","0.0-75.0","AA1IM0SAQ3XFM","img_art/20.jpg","2","","","","","","","","","","","","","","","","","","","","","","","","",""
"969","","image-button-response","79","461131","0.0-76.0-0.0","AA1IM0SAQ3XFM","img_art/20.jpg","1","","","","","","","","","","","","","","","","","","","","","","","","",""
"1501","","image-button-response","80","462636","0.0-77.0-0.0","AA1IM0SAQ3XFM","img_art/20.jpg","5","","","","","","","","","","","","","","","","","","","","","","","","",""
"null","","html-keyboard-response","81","463138","0.0-78.0","AA1IM0SAQ3XFM","<p style=""font-size: 48px;"">+</p>","","","","","null","allTrialResponses","500","1","5","img_art/20.jpg","-44","This is dark and scary. Looks like a factory","Laura,Shelby,Isabella,Jasmine,Allison,Monica","very fluid and mysterious,37,320,20","Makes me think if a car crash or some sort of disaster,-20,240,20","Feels like a town destroyed,-19,280,20","This one is okay but I don't really care for it,5,340,20","Melty picture. Reminiscent of Dali.,10,140,20","It looks like a junkyard and isn't appealing,-22,360,20","Isabella","Feels like a town destroyed,-19,280,20","Shelby","Makes me think if a car crash or some sort of disaster,-20,240,20","Monica","It looks like a junkyard and isn't appealing,-22,360,20","3"
"5028","","survey-text","82","468173","0.0-79.0-0.0","AA1IM0SAQ3XFM","","","","{""Q0"":""sky""}","","","","","","","","","","","","","","","","","","","","","","",""
"20066","","survey-text","83","488242","0.0-80.0-0.0","AA1IM0SAQ3XFM","","","","{""Q0"":""Amateur painting. Looks like a waterfall""}","","","","","","","","","","","","","","","","","","","","","","",""
"5142","","image-slider-response","84","493386","0.0-81.0","AA1IM0SAQ3XFM","","","","","-34","","","","","","","","","","","","","","","","","","","","","",""
"4579","","image-button-response","85","498389","0.0-82.0","AA1IM0SAQ3XFM","img_art/24.jpg","3","","","","","","","","","","","","","","","","","","","","","","","","",""
"628","","image-button-response","86","499020","0.0-83.0","AA1IM0SAQ3XFM","img_art/24.jpg","2","","","","","","","","","","","","","","","","","","","","","","","","",""
"1447","","image-button-response","87","500470","0.0-84.0-0.0","AA1IM0SAQ3XFM","img_art/24.jpg","3","","","","","","","","","","","","","","","","","","","","","","","","",""
"1233","","image-button-response","88","501706","0.0-85.0-0.0","AA1IM0SAQ3XFM","img_art/24.jpg","5","","","","","","","","","","","","","","","","","","","","","","","","",""
"null","","html-keyboard-response","89","502711","0.0-86.0","AA1IM0SAQ3XFM","<p style=""font-size: 48px;"">+</p>","","","","","null","allTrialResponses","1000","1","6","img_art/24.jpg","-34","Amateur painting. Looks like a waterfall","Kaitlin,Shelby,Isabella,Alyssa,Morgan,Monica","Aww. I love the peace brought by this picture.,40,60,20","Earthy wonderful, love everything about it,50,240,20","A peaceful day by the river,42,280,20","Beautiful.Nice use of colors and invokes feelings of serene and peace,40,160,20","Water through the fruit.,15,380,20","It looks alive, like I can hear the water flowing,41,360,20","Isabella","A peaceful day by the river,42,280,20","Alyssa","Beautiful.Nice use of colors and invokes feelings of serene and peace,40,160,20","Monica","It looks alive, like I can hear the water flowing,41,360,20","3"
"16908","","survey-text","90","519625","0.0-87.0-0.0","AA1IM0SAQ3XFM","","","","{""Q0"":""Very dark. don't like""}","","","","","","","","","","","","","","","","","","","","","","",""
"4676.0999999940395","","image-slider-response","91","524303","0.0-88.0","AA1IM0SAQ3XFM","","","","","-43","","","","","","","","","","","","","","","","","","","","","",""
"1353","","image-button-response","92","529307","0.0-89.0","AA1IM0SAQ3XFM","img_art/15.jpg","0","","","","","","","","","","","","","","","","","","","","","","","","",""
"177","","image-button-response","93","529487","0.0-90.0","AA1IM0SAQ3XFM","img_art/15.jpg","0","","","","","","","","","","","","","","","","","","","","","","","","",""
"1706","","image-button-response","94","531195","0.0-91.0-0.0","AA1IM0SAQ3XFM","img_art/15.jpg","1","","","","","","","","","","","","","","","","","","","","","","","","",""
"1158","","image-button-response","95","532356","0.0-92.0-0.0","AA1IM0SAQ3XFM","img_art/15.jpg","2","","","","","","","","","","","","","","","","","","","","","","","","",""
"null","","html-keyboard-response","96","533360","0.0-93.0","AA1IM0SAQ3XFM","<p style=""font-size: 48px;"">+</p>","","","","","null","allTrialResponses","1000","1","7","img_art/15.jpg","-43","Very dark. don't like","Cassandra,Miranda,Isabella,Alyssa,Danielle,Monica","Hate it...black dots.,-47,120,20","This gives a skin crawling feeling. Like something that you could see under a mircoscope,10,320,20","Too intense with the black dotting,-22,280,20","Uninteresting and too much black,-30,160,20","This is pretty nice, reminds me of dark peacock feathers, or perhaps a bush with berries in it?,15,340,20","I don't feel much of anything when looking at this, it's just a random pattern,1,360,20","Cassandra","Hate it...black dots.,-47,120,20","Miranda","This gives a skin crawling feeling. Like something that you could see under a mircoscope,10,320,20","Isabella","Too intense with the black dotting,-22,280,20","3"
"21339","","survey-text","97","554704","0.0-94.0-0.0","AA1IM0SAQ3XFM","","","","{""Q0"":""This is cool. Looks like a city. ""}","","","","","","","","","","","","","","","","","","","","","","",""
"5165.9000000059605","","image-slider-response","98","559872","0.0-95.0","AA1IM0SAQ3XFM","","","","","39","","","","","","","","","","","","","","","","","","","","","",""
"2516","","image-button-response","99","564880","0.0-96.0","AA1IM0SAQ3XFM","img_art/19.jpg","1","","","","","","","","","","","","","","","","","","","","","","","","",""
"520","","image-button-response","100","565403","0.0-97.0","AA1IM0SAQ3XFM","img_art/19.jpg","1","","","","","","","","","","","","","","","","","","","","","","","","",""
"897","","image-button-response","101","566302","0.0-98.0-0.0","AA1IM0SAQ3XFM","img_art/19.jpg","2","","","","","","","","","","","","","","","","","","","","","","","","",""
"2451","","image-button-response","102","568757","0.0-99.0-0.0","AA1IM0SAQ3XFM","img_art/19.jpg","5","","","","","","","","","","","","","","","","","","","","","","","","",""
"null","","html-keyboard-response","103","569764","0.0-100.0","AA1IM0SAQ3XFM","<p style=""font-size: 48px;"">+</p>","","","","","null","allTrialResponses","1000","1","8","img_art/19.jpg","39","This is cool. Looks like a city. ","Cassandra,Miranda,Isabella,Natalie,Erica,Andrea","Nuetral...can't think of anything to say,4,120,20","It looks cool but at the time looks like it was done by a talented 5 year old.,13,320,20","A day in a small city,45,280,20","the picture gave me anxiety,-38,400,20","very lively and colourful,21,80,20","Feels like a cafe in Paris.,35,240,20","Miranda","It looks cool but at the time looks like it was done by a talented 5 year old.,13,320,20","Isabella","A day in a small city,45,280,20","Andrea","Feels like a cafe in Paris.,35,240,20","3"
"22464","","survey-text","104","592233","0.0-101.0-0.0","AA1IM0SAQ3XFM","","","","{""Q0"":""Feels like Pollock. I like this style""}","","","","","","","","","","","","","","","","","","","","","","",""
"4259.700000017881","","image-slider-response","105","596495","0.0-102.0","AA1IM0SAQ3XFM","","","","","44","","","","","","","","","","","","","","","","","","","","","",""
"4405","","image-button-response","106","601498","0.0-103.0","AA1IM0SAQ3XFM","img_art/13.jpg","0","","","","","","","","","","","","","","","","","","","","","","","","",""
"215","","image-button-response","107","601715","0.0-104.0","AA1IM0SAQ3XFM","img_art/13.jpg","0","","","","","","","","","","","","","","","","","","","","","","","","",""
"1970","","image-button-response","108","603687","0.0-105.0-0.0","AA1IM0SAQ3XFM","img_art/13.jpg","2","","","","","","","","","","","","","","","","","","","","","","","","",""
"2359","","image-button-response","109","606049","0.0-106.0-0.0","AA1IM0SAQ3XFM","img_art/13.jpg","5","","","","","","","","","","","","","","","","","","","","","","","","",""
"null","","html-keyboard-response","110","606550","0.0-107.0","AA1IM0SAQ3XFM","<p style=""font-size: 48px;"">+</p>","","","","","null","allTrialResponses","500","1","9","img_art/13.jpg","44","Feels like Pollock. I like this style","Jennifer,Miranda,Isabella,Julia,Sierra,Andrea","I like the color scheme,41,380,20","This looks like something that could be made off of windows paint, not a huge fan.,-30,320,20","Rain drops on a window,35,280,20","I don't really care for splatter paintings; the spectral colors underneath are nice.,-18,40,20","the blues are soothing but the splatters are too much,-3,260,20","Raindrops on a window. Makes me feel like traveling.,31,240,20","Jennifer","I like the color scheme,41,380,20","Isabella","Rain drops on a window,35,280,20","Andrea","Raindrops on a window. Makes me feel like traveling.,31,240,20","3"
"16804","","survey-text","111","623359","0.0-108.0-0.0","AA1IM0SAQ3XFM","","","","{""Q0"":""Looks like a murder scene. Don't like""}","","","","","","","","","","","","","","","","","","","","","","",""
"4284.199999988079","","image-slider-response","112","627646","0.0-109.0","AA1IM0SAQ3XFM","","","","","-45","","","","","","","","","","","","","","","","","","","","","",""
"1633","","image-button-response","113","632650","0.0-110.0","AA1IM0SAQ3XFM","img_art/29.jpg","1","","","","","","","","","","","","","","","","","","","","","","","","",""
"241","","image-button-response","114","632894","0.0-111.0","AA1IM0SAQ3XFM","img_art/29.jpg","2","","","","","","","","","","","","","","","","","","","","","","","","",""
"704","","image-button-response","115","633600","0.0-112.0-0.0","AA1IM0SAQ3XFM","img_art/29.jpg","1","","","","","","","","","","","","","","","","","","","","","","","","",""
"1919","","image-button-response","116","635522","0.0-113.0-0.0","AA1IM0SAQ3XFM","img_art/29.jpg","3","","","","","","","","","","","","","","","","","","","","","","","","",""
"null","","html-keyboard-response","117","637025","0.0-114.0","AA1IM0SAQ3XFM","<p style=""font-size: 48px;"">+</p>","","","","","null","allTrialResponses","1500","1","10","img_art/29.jpg","-45","Looks like a murder scene. Don't like","Jennifer,Emily,Isabella,Angelica,Shannon,Andrea","Very interesting composition,41,380,20","Looks literally like garbage.,-45,40,20","Darkness and torment,-50,280,20","This is very gross and odd looking.,-8,280,20","I think this image looks ugly and needs more colors so it looks nicer.,-30,220,20","Bottomless pit and prison. Feels like its saying time is precious.,11,240,20","Isabella","Darkness and torment,-50,280,20","Emily","Looks literally like garbage.,-45,40,20","Angelica","This is very gross and odd looking.,-8,280,20","3"
"4573","","survey-text","118","641606","0.0-115.0-0.0","AA1IM0SAQ3XFM","","","","{""Q0"":""our""}","","","","","","","","","","","","","","","","","","","","","","",""
"16749","","survey-text","119","658356","0.0-116.0-0.0","AA1IM0SAQ3XFM","","","","{""Q0"":""Looks like a smoggy city, ""}","","","","","","","","","","","","","","","","","","","","","","",""
"3698.399999976158","","image-slider-response","120","662057","0.0-117.0","AA1IM0SAQ3XFM","","","","","-45","","","","","","","","","","","","","","","","","","","","","",""
"3883","","image-button-response","121","667060","0.0-118.0","AA1IM0SAQ3XFM","img_art/10.jpg","1","","","","","","","","","","","","","","","","","","","","","","","","",""
"517","","image-button-response","122","667579","0.0-119.0","AA1IM0SAQ3XFM","img_art/10.jpg","3","","","","","","","","","","","","","","","","","","","","","","","","",""
"859","","image-button-response","123","668441","0.0-120.0-0.0","AA1IM0SAQ3XFM","img_art/10.jpg","1","","","","","","","","","","","","","","","","","","","","","","","","",""
"2025","","image-button-response","124","670469","0.0-121.0-0.0","AA1IM0SAQ3XFM","img_art/10.jpg","5","","","","","","","","","","","","","","","","","","","","","","","","",""
"null","","html-keyboard-response","125","670972","0.0-122.0","AA1IM0SAQ3XFM","<p style=""font-size: 48px;"">+</p>","","","","","null","allTrialResponses","500","1","11","img_art/10.jpg","-45","Looks like a smoggy city, ","Amy,Emily,Isabella,Angelica,Alicia,Jamie","Highly abstract and yet the shapes and colors provide an emotional accessibility for me.,20,220,20","Ugly and low skill. I wouldn't want it.,-50,40,20","Like a decision making process,46,280,20","This is odd and ugly.,-9,280,20","It's art. (for some),7,120,20","Well done designs for being considered abstract,45,320,20","Angelica","This is odd and ugly.,-9,280,20","Emily","Ugly and low skill. I wouldn't want it.,-50,40,20","Jamie","Well done designs for being considered abstract,45,320,20","3"
"15507","","survey-text","126","686483","0.0-123.0-0.0","AA1IM0SAQ3XFM","","","","{""Q0"":""I like this. Depressing though""}","","","","","","","","","","","","","","","","","","","","","","",""
"3626.0999999940395","","image-slider-response","127","690111","0.0-124.0","AA1IM0SAQ3XFM","","","","","12","","","","","","","","","","","","","","","","","","","","","",""
"1330","","image-button-response","128","695117","0.0-125.0","AA1IM0SAQ3XFM","img_art/11.jpg","0","","","","","","","","","","","","","","","","","","","","","","","","",""
"584","","image-button-response","129","695703","0.0-126.0","AA1IM0SAQ3XFM","img_art/11.jpg","2","","","","","","","","","","","","","","","","","","","","","","","","",""
"568","","image-button-response","130","696274","0.0-127.0-0.0","AA1IM0SAQ3XFM","img_art/11.jpg","1","","","","","","","","","","","","","","","","","","","","","","","","",""
"1055","","image-button-response","131","697332","0.0-128.0-0.0","AA1IM0SAQ3XFM","img_art/11.jpg","4","","","","","","","","","","","","","","","","","","","","","","","","",""
"null","","html-keyboard-response","132","698835","0.0-129.0","AA1IM0SAQ3XFM","<p style=""font-size: 48px;"">+</p>","","","","","null","allTrialResponses","1500","1","12","img_art/11.jpg","12","I like this. Depressing though","Lauren,Emily,Megan,Angelica,Courtney,Jamie","I like how this piece can be interpreted in different ways, such as a village on hilly terrain.,10,340,20","It's kind of cool and I see it looks clean.,22,40,20","Some interesting color but scratchy train mess.,-14,200,20","This is very unappealing.,-11,280,20","Thats a creepy old rollercoasters abandoned,-2,280,20","Looks like a cityscape,25,320,20","Megan","Some interesting color but scratchy train mess.,-14,200,20","Emily","It's kind of cool and I see it looks clean.,22,40,20","Courtney","Thats a creepy old rollercoasters abandoned,-2,280,20","3"
"21435","","survey-text","133","720276","0.0-130.0-0.0","AA1IM0SAQ3XFM","","","","{""Q0"":""Very cool. I like the face in the clouds""}","","","","","","","","","","","","","","","","","","","","","","",""
"3226.199999988079","","image-slider-response","134","723505","0.0-131.0","AA1IM0SAQ3XFM","","","","","39","","","","","","","","","","","","","","","","","","","","","",""
"2700","","image-button-response","135","728510","0.0-132.0","AA1IM0SAQ3XFM","img_art/8.jpg","0","","","","","","","","","","","","","","","","","","","","","","","","",""
"704","","image-button-response","136","729217","0.0-133.0","AA1IM0SAQ3XFM","img_art/8.jpg","1","","","","","","","","","","","","","","","","","","","","","","","","",""
"922","","image-button-response","137","730141","0.0-134.0-0.0","AA1IM0SAQ3XFM","img_art/8.jpg","0","","","","","","","","","","","","","","","","","","","","","","","","",""
"1669","","image-button-response","138","731813","0.0-135.0-0.0","AA1IM0SAQ3XFM","img_art/8.jpg","4","","","","","","","","","","","","","","","","","","","","","","","","",""
"null","","html-keyboard-response","139","733320","0.0-136.0","AA1IM0SAQ3XFM","<p style=""font-size: 48px;"">+</p>","","","","","null","allTrialResponses","1500","1","13","img_art/8.jpg","39","Very cool. I like the face in the clouds","Dominique,Emily,Megan,Vanessa,Courtney,Erin","This speaks volumes to me and is another favorite I'm sure by many,40,400,20","It is interesting to look at. Abstract but ordered.,9,40,20","Cortez's influence with fair color choices,10,200,20","I don't like the negative emotion this picture makes me feel. It's also too abstract.,-30,380,20","Now that one is wild. Looks like maybe mother nature isnt happy.,28,280,20","Lots of depth, faces, city, arch,3,120,20","Emily","It is interesting to look at. Abstract but ordered.,9,40,20","Dominique","This speaks volumes to me and is another favorite I'm sure by many,40,400,20","Courtney","Now that one is wild. Looks like maybe mother nature isnt happy.,28,280,20","3"
"16049","","survey-text","140","749373","0.0-137.0-0.0","AA1IM0SAQ3XFM","","","","{""Q0"":""Hate this. Looks like blood and death""}","","","","","","","","","","","","","","","","","","","","","","",""
"6817.5999999940395","","image-slider-response","141","756193","0.0-138.0","AA1IM0SAQ3XFM","","","","","-45","","","","","","","","","","","","","","","","","","","","","",""
"4779","","image-button-response","142","761201","0.0-139.0","AA1IM0SAQ3XFM","img_art/3.jpg","1","","","","","","","","","","","","","","","","","","","","","","","","",""
"510","","image-button-response","143","761713","0.0-140.0","AA1IM0SAQ3XFM","img_art/3.jpg","1","","","","","","","","","","","","","","","","","","","","","","","","",""
"1950","","image-button-response","144","763665","0.0-141.0-0.0","AA1IM0SAQ3XFM","img_art/3.jpg","4","","","","","","","","","","","","","","","","","","","","","","","","",""
"720","","image-button-response","145","764388","0.0-142.0-0.0","AA1IM0SAQ3XFM","img_art/3.jpg","3","","","","","","","","","","","","","","","","","","","","","","","","",""
"null","","html-keyboard-response","146","765394","0.0-143.0","AA1IM0SAQ3XFM","<p style=""font-size: 48px;"">+</p>","","","","","null","allTrialResponses","1000","1","14","img_art/3.jpg","-45","Hate this. Looks like blood and death","Dominique,Emily,Alexa,Michelle,Courtney,Cheyenne","Iike this one it's a piece that I need to spend more time with to understand how i feel about it,20,400,20","Looks like someone mentalyl unstable drew and is ready to go a a killing spree.,-50,40,20","Looks messy and too much for my eyes,-35,40,20","Ok, just a bunch of red lines and a grey smudge. Would pass this right by in a gallery,-12,280,20","That just looks like a mess..,-18,280,20","Don't see what the purpose is.,-31,200,20","Emily","Looks like someone mentalyl unstable drew and is ready to go a a killing spree.,-50,40,20","Courtney","That just looks like a mess..,-18,280,20","Michelle","Ok, just a bunch of red lines and a grey smudge. Would pass this right by in a gallery,-12,280,20","3"
"13366","","survey-text","147","778766","0.0-144.0-0.0","AA1IM0SAQ3XFM","","","","{""Q0"":""This is messy. Looks like a child did it""}","","","","","","","","","","","","","","","","","","","","","","",""
"3529.199999988079","","image-slider-response","148","782422","0.0-145.0","AA1IM0SAQ3XFM","","","","","-43","","","","","","","","","","","","","","","","","","","","","",""
"1477","","image-button-response","149","787428","0.0-146.0","AA1IM0SAQ3XFM","img_art/27.jpg","1","","","","","","","","","","","","","","","","","","","","","","","","",""
"880","","image-button-response","150","788310","0.0-147.0","AA1IM0SAQ3XFM","img_art/27.jpg","2","","","","","","","","","","","","","","","","","","","","","","","","",""
"680","","image-button-response","151","788992","0.0-148.0-0.0","AA1IM0SAQ3XFM","img_art/27.jpg","1","","","","","","","","","","","","","","","","","","","","","","","","",""
"815","","image-button-response","152","789810","0.0-149.0-0.0","AA1IM0SAQ3XFM","img_art/27.jpg","4","","","","","","","","","","","","","","","","","","","","","","","","",""
"null","","html-keyboard-response","153","790815","0.0-150.0","AA1IM0SAQ3XFM","<p style=""font-size: 48px;"">+</p>","","","","","null","allTrialResponses","1000","1","15","img_art/27.jpg","-43","This is messy. Looks like a child did it","Alexandria,Emily,Abigail,Michelle,Courtney,Hannah","it looks very simple and childlike,-31,80,20","Anyone could do that.,-31,40,20","Looks like a little kids drawing,20,20,20","very abstract, I don't understand it, but I like the bright, cheerful colors,14,280,20","A fall mess going on here,2,280,20","Reminds me of something I'd see in a gold frame from the Eighties.,-9,240,20","Abigail","Looks like a little kids drawing,20,20,20","Emily","Anyone could do that.,-31,40,20","Courtney","A fall mess going on here,2,280,20","3"
"5306","","survey-text","154","796129","0.0-151.0-0.0","AA1IM0SAQ3XFM","","","","{""Q0"":""course""}","","","","","","","","","","","","","","","","","","","","","","",""
"16528","","survey-text","155","812658","0.0-152.0-0.0","AA1IM0SAQ3XFM","","","","{""Q0"":""Hate this. It's stupid and juvenile""}","","","","","","","","","","","","","","","","","","","","","","",""
"3868.0999999940395","","image-slider-response","156","816529","0.0-153.0","AA1IM0SAQ3XFM","","","","","-50","","","","","","","","","","","","","","","","","","","","","",""
"4682","","image-button-response","157","821534","0.0-154.0","AA1IM0SAQ3XFM","img_art/16.jpg","1","","","","","","","","","","","","","","","","","","","","","","","","",""
"427","","image-button-response","158","821963","0.0-155.0","AA1IM0SAQ3XFM","img_art/16.jpg","1","","","","","","","","","","","","","","","","","","","","","","","","",""
"1058","","image-button-response","159","823022","0.0-156.0-0.0","AA1IM0SAQ3XFM","img_art/16.jpg","3","","","","","","","","","","","","","","","","","","","","","","","","",""
"1346","","image-button-response","160","824371","0.0-157.0-0.0","AA1IM0SAQ3XFM","img_art/16.jpg","4","","","","","","","","","","","","","","","","","","","","","","","","",""
"null","","html-keyboard-response","161","825374","0.0-158.0","AA1IM0SAQ3XFM","<p style=""font-size: 48px;"">+</p>","","","","","null","allTrialResponses","1000","1","16","img_art/16.jpg","-50","Hate this. It's stupid and juvenile","Margaret,Emily,Abigail,Maria,Courtney,Kylie","i like how it incorporates mixed visual art with the photo of the bear and the drawings,30,100,20","Looks like a kid did itt and ti looks disturbing.,-45,40,20","The bear makes me very uncomfortable,-50,20,20","feel a little creeped out,-20,120,20","Hmm i don't know what going on here.,1,280,20","Mixed feelings. Warm and comfy yet somewhat violent. A stark contrast,0,300,20","Emily","Looks like a kid did itt and ti looks disturbing.,-45,40,20","Maria","feel a little creeped out,-20,120,20","Courtney","Hmm i don't know what going on here.,1,280,20","3"
"40257","","survey-text","162","865636","0.0-159.0-0.0","AA1IM0SAQ3XFM","","","","{""Q0"":""Love the colors in this. ""}","","","","","","","","","","","","","","","","","","","","","","",""
"3747.800000011921","","image-slider-response","163","869386","0.0-160.0","AA1IM0SAQ3XFM","","","","","47","","","","","","","","","","","","","","","","","","","","","",""
"3908","","image-button-response","164","874391","0.0-161.0","AA1IM0SAQ3XFM","img_art/30.jpg","4","","","","","","","","","","","","","","","","","","","","","","","","",""
"542","","image-button-response","165","874936","0.0-162.0","AA1IM0SAQ3XFM","img_art/30.jpg","3","","","","","","","","","","","","","","","","","","","","","","","","",""
"630","","image-button-response","166","875568","0.0-163.0-0.0","AA1IM0SAQ3XFM","img_art/30.jpg","4","","","","","","","","","","","","","","","","","","","","","","","","",""
"719","","image-button-response","167","876291","0.0-164.0-0.0","AA1IM0SAQ3XFM","img_art/30.jpg","5","","","","","","","","","","","","","","","","","","","","","","","","",""
"null","","html-keyboard-response","168","877794","0.0-165.0","AA1IM0SAQ3XFM","<p style=""font-size: 48px;"">+</p>","","","","","null","allTrialResponses","1500","1","17","img_art/30.jpg","47","Love the colors in this. ","Chelsea,Emily,Samantha,Maria,Courtney,Lindsey","It looks like it was painted in 5 minutes.,-32,180,20","It looks like a child did it. There is nothing talented or special about it.,-16,40,20","Too much like childrens finger paint. I dont like the smear of blended colors,-50,140,20","uplifted and yet calmed,15,120,20","Some people dancing.,-7,280,20","Interesting. Not sure what I'm seeing but it makes me want to figure it out.,5,400,20","Maria","uplifted and yet calmed,15,120,20","Courtney","Some people dancing.,-7,280,20","Lindsey","Interesting. Not sure what I'm seeing but it makes me want to figure it out.,5,400,20","3"
"15101","","survey-text","169","892901","0.0-166.0-0.0","AA1IM0SAQ3XFM","","","","{""Q0"":""I like the colors in this. Very abstract""}","","","","","","","","","","","","","","","","","","","","","","",""
"3200.300000011921","","image-slider-response","170","896103","0.0-167.0","AA1IM0SAQ3XFM","","","","","37","","","","","","","","","","","","","","","","","","","","","",""
"4757","","image-button-response","171","901111","0.0-168.0","AA1IM0SAQ3XFM","img_art/21.jpg","2","","","","","","","","","","","","","","","","","","","","","","","","",""
"881","","image-button-response","172","901995","0.0-169.0","AA1IM0SAQ3XFM","img_art/21.jpg","2","","","","","","","","","","","","","","","","","","","","","","","","",""
"2033","","image-button-response","173","904031","0.0-170.0-0.0","AA1IM0SAQ3XFM","img_art/21.jpg","3","","","","","","","","","","","","","","","","","","","","","","","","",""
"1021","","image-button-response","174","905055","0.0-171.0-0.0","AA1IM0SAQ3XFM","img_art/21.jpg","5","","","","","","","","","","","","","","","","","","","","","","","","",""
"null","","html-keyboard-response","175","906562","0.0-172.0","AA1IM0SAQ3XFM","<p style=""font-size: 48px;"">+</p>","","","","","null","allTrialResponses","1500","1","18","img_art/21.jpg","37","I like the colors in this. Very abstract","Chloe,Mikayla,Elizabeth,Maria,Courtney,Lindsey","Lovely colors and emotive effects. Turner-esque in a not-so derivative way.,44,220,20","Nothing exciting in this one.,-36,300,20","Touches the heart,50,20,20","brings up imagery of the sea and clashing, though not in a negative way,31,120,20","Another ship on fire.,-10,280,20","I like this piece more the more I look at. Still wouldn't want it in my home, though.,8,400,20","Elizabeth","Touches the heart,50,20,20","Maria","brings up imagery of the sea and clashing, though not in a negative way,31,120,20","Lindsey","I like this piece more the more I look at. Still wouldn't want it in my home, though.,8,400,20","3"
"12367","","survey-text","176","918935","0.0-173.0-0.0","AA1IM0SAQ3XFM","","","","{""Q0"":""This makes no sense. Don't like""}","","","","","","","","","","","","","","","","","","","","","","",""
"4726.4000000059605","","image-slider-response","177","923663","0.0-174.0","AA1IM0SAQ3XFM","","","","","-45","","","","","","","","","","","","","","","","","","","","","",""
"4928","","image-button-response","178","928667","0.0-175.0","AA1IM0SAQ3XFM","img_art/2.jpg","1","","","","","","","","","","","","","","","","","","","","","","","","",""
"456","","image-button-response","179","929125","0.0-176.0","AA1IM0SAQ3XFM","img_art/2.jpg","1","","","","","","","","","","","","","","","","","","","","","","","","",""
"569","","image-button-response","180","929696","0.0-177.0-0.0","AA1IM0SAQ3XFM","img_art/2.jpg","0","","","","","","","","","","","","","","","","","","","","","","","","",""
"2420","","image-button-response","181","932117","0.0-178.0-0.0","AA1IM0SAQ3XFM","img_art/2.jpg","3","","","","","","","","","","","","","","","","","","","","","","","","",""
"null","","html-keyboard-response","182","932620","0.0-179.0","AA1IM0SAQ3XFM","<p style=""font-size: 48px;"">+</p>","","","","","null","allTrialResponses","500","1","19","img_art/2.jpg","-45","This makes no sense. Don't like","Kelly,Crystal,Elizabeth,Maria,Victoria,Lindsey","I cant tell whats happening here and that shade of green is just not my thing.,-17,220,20","Looks contrived and like someone tried to hard to make it abstract,-31,300,20","Good color pallette,12,20,20","again, I struggle to see the art and I dislike the green in particular.,-31,120,20","I like the colors,22,400,20","Not a fan of the colors or the style.,-31,400,20","Crystal","Looks contrived and like someone tried to hard to make it abstract,-31,300,20","Kelly","I cant tell whats happening here and that shade of green is just not my thing.,-17,220,20","Maria","again, I struggle to see the art and I dislike the green in particular.,-31,120,20","3"
"8753","","survey-text","183","941378","0.0-180.0-0.0","AA1IM0SAQ3XFM","","","","{""Q0"":""THis is a cool pattern. I like""}","","","","","","","","","","","","","","","","","","","","","","",""
"3724.0999999940395","","image-slider-response","184","945105","0.0-181.0","AA1IM0SAQ3XFM","","","","","38","","","","","","","","","","","","","","","","","","","","","",""
"1742","","image-button-response","185","950112","0.0-182.0","AA1IM0SAQ3XFM","img_art/12.jpg","0","","","","","","","","","","","","","","","","","","","","","","","","",""
"275","","image-button-response","186","950390","0.0-183.0","AA1IM0SAQ3XFM","img_art/12.jpg","4","","","","","","","","","","","","","","","","","","","","","","","","",""
"680","","image-button-response","187","951073","0.0-184.0-0.0","AA1IM0SAQ3XFM","img_art/12.jpg","5","","","","","","","","","","","","","","","","","","","","","","","","",""
"1297","","image-button-response","188","952373","0.0-185.0-0.0","AA1IM0SAQ3XFM","img_art/12.jpg","0","","","","","","","","","","","","","","","","","","","","","","","","",""
"null","","html-keyboard-response","189","953880","0.0-186.0","AA1IM0SAQ3XFM","<p style=""font-size: 48px;"">+</p>","","","","","null","allTrialResponses","1500","1","20","img_art/12.jpg","38","THis is a cool pattern. I like","Kelly,Crystal,Taylor,Maria,Diana,Mariah","It's pretty, I find it interesting to look at.,10,220,20","I like the sectioned nature of the squares and curves. Not my favorite but still a good one.,27,300,20","It's kind of ominous,-15,340,20","evokes the 80s, and not in a necessarily good way,-10,120,20","This is beautiful. It looks like 1,000 different sunrises and sunsets.,44,380,20","It is very bland and the colors are not cohesive.,-20,140,20","Diana","This is beautiful. It looks like 1,000 different sunrises and sunsets.,44,380,20","Mariah","It is very bland and the colors are not cohesive.,-20,140,20","Kelly","It's pretty, I find it interesting to look at.,10,220,20","3"
"3234","","survey-text","190","957122","0.0-187.0-0.0","AA1IM0SAQ3XFM","","","","{""Q0"":""we""}","","","","","","","","","","","","","","","","","","","","","","",""
"12885","","survey-text","191","970009","0.0-188.0-0.0","AA1IM0SAQ3XFM","","","","{""Q0"":""Looks like edward scissorhands""}","","","","","","","","","","","","","","","","","","","","","","",""
"3122","","image-slider-response","192","973134","0.0-189.0","AA1IM0SAQ3XFM","","","","","24","","","","","","","","","","","","","","","","","","","","","",""
"1919","","image-button-response","193","978139","0.0-190.0","AA1IM0SAQ3XFM","img_art/4.jpg","0","","","","","","","","","","","","","","","","","","","","","","","","",""
"639","","image-button-response","194","978782","0.0-191.0","AA1IM0SAQ3XFM","img_art/4.jpg","1","","","","","","","","","","","","","","","","","","","","","","","","",""
"1096","","image-button-response","195","979880","0.0-192.0-0.0","AA1IM0SAQ3XFM","img_art/4.jpg","3","","","","","","","","","","","","","","","","","","","","","","","","",""
"944","","image-button-response","196","980826","0.0-193.0-0.0","AA1IM0SAQ3XFM","img_art/4.jpg","5","","","","","","","","","","","","","","","","","","","","","","","","",""
"null","","html-keyboard-response","197","982331","0.0-194.0","AA1IM0SAQ3XFM","<p style=""font-size: 48px;"">+</p>","","","","","null","allTrialResponses","1500","1","21","img_art/4.jpg","24","Looks like edward scissorhands","Kelly,Brooke,Paige,Brittany,Diana,Mariah","The longer I stare at this the less I like it.,-19,220,20","Looks like the roomba got into dog poop,-30,60,20","the colors are calming,31,60,20","Rather boring design and colors.,-21,40,20","Odd but intriguing. I feel emotion from this. Like a woman bent over carrying these emotions on her back.,33,380,20","Movement. Snakes. Hair. The uncertainty makes my eye return.,21,140,20","Brooke","Looks like the roomba got into dog poop,-30,60,20","Brittany","Rather boring design and colors.,-21,40,20","Mariah","Movement. Snakes. Hair. The uncertainty makes my eye return.,21,140,20","3"
"6954","","survey-text","198","989291","0.0-195.0-0.0","AA1IM0SAQ3XFM","","","","{""Q0"":""This is very boring""}","","","","","","","","","","","","","","","","","","","","","","",""
"3106.5","","image-slider-response","199","992400","0.0-196.0","AA1IM0SAQ3XFM","","","","","-31","","","","","","","","","","","","","","","","","","","","","",""
"4397","","image-button-response","200","997403","0.0-197.0","AA1IM0SAQ3XFM","img_art/26.jpg","1","","","","","","","","","","","","","","","","","","","","","","","","",""
"309","","image-button-response","201","997714","0.0-198.0","AA1IM0SAQ3XFM","img_art/26.jpg","2","","","","","","","","","","","","","","","","","","","","","","","","",""
"736","","image-button-response","202","998452","0.0-199.0-0.0","AA1IM0SAQ3XFM","img_art/26.jpg","1","","","","","","","","","","","","","","","","","","","","","","","","",""
"871","","image-button-response","203","999326","0.0-200.0-0.0","AA1IM0SAQ3XFM","img_art/26.jpg","5","","","","","","","","","","","","","","","","","","","","","","","","",""
"null","","html-keyboard-response","204","999833","0.0-201.0","AA1IM0SAQ3XFM","<p style=""font-size: 48px;"">+</p>","","","","","null","allTrialResponses","500","1","22","img_art/26.jpg","-31","This is very boring","Sarah,Brooke,Emma,Brittany,Heather,Mariah","too hard to figure out if it's meant to be actual objects or impressions,-36,180,20","street scene is okay?,15,60,20","Looks unfinished,-31,60,20","It looks boring and too rough.,-9,40,20","neighborhood and trees. i wonder if this is water paint.,1,260,20","Pleasant but bland.,10,140,20","Emma","Looks unfinished,-31,60,20","Brooke","street scene is okay?,15,60,20","Mariah","Pleasant but bland.,10,140,20","3"
"8622","","survey-text","205","1008460","0.0-202.0-0.0","AA1IM0SAQ3XFM","","","","{""Q0"":""I love the trees in this""}","","","","","","","","","","","","","","","","","","","","","","",""
"3286.100000023842","","image-slider-response","206","1011749","0.0-203.0","AA1IM0SAQ3XFM","","","","","43","","","","","","","","","","","","","","","","","","","","","",""
"2626","","image-button-response","207","1016756","0.0-204.0","AA1IM0SAQ3XFM","img_art/17.jpg","0","","","","","","","","","","","","","","","","","","","","","","","","",""
"858","","image-button-response","208","1017617","0.0-205.0","AA1IM0SAQ3XFM","img_art/17.jpg","0","","","","","","","","","","","","","","","","","","","","","","","","",""
"2386","","image-button-response","209","1020005","0.0-206.0-0.0","AA1IM0SAQ3XFM","img_art/17.jpg","4","","","","","","","","","","","","","","","","","","","","","","","","",""
"1586","","image-button-response","210","1021592","0.0-207.0-0.0","AA1IM0SAQ3XFM","img_art/17.jpg","2","","","","","","","","","","","","","","","","","","","","","","","","",""
"null","","html-keyboard-response","211","1023095","0.0-208.0","AA1IM0SAQ3XFM","<p style=""font-size: 48px;"">+</p>","","","","","null","allTrialResponses","1500","1","23","img_art/17.jpg","43","I love the trees in this","Claire,Brooke,Emma,Olivia,Grace,Mariah","its whimsical and light,50,260,20","doorways and trees are pleasant,30,60,20","Love the colors and the movement,46,60,20","muted tones brings me down,-13,40,20","Reminds me of winters in Minnesota.,48,180,20","It feels like nature overtaking civilization.,21,140,20","Claire","its whimsical and light,50,260,20","Grace","Reminds me of winters in Minnesota.,48,180,20","Emma","Love the colors and the movement,46,60,20","3"
"10041","","survey-text","212","1033141","0.0-209.0-0.0","AA1IM0SAQ3XFM","","","","{""Q0"":""Boring. Don't like ""}","","","","","","","","","","","","","","","","","","","","","","",""
"3385.5999999940395","","image-slider-response","213","1036529","0.0-210.0","AA1IM0SAQ3XFM","","","","","-45","","","","","","","","","","","","","","","","","","","","","",""
"4213","","image-button-response","214","1041532","0.0-211.0","AA1IM0SAQ3XFM","img_art/6.jpg","0","","","","","","","","","","","","","","","","","","","","","","","","",""
"231","","image-button-response","215","1041765","0.0-212.0","AA1IM0SAQ3XFM","img_art/6.jpg","0","","","","","","","","","","","","","","","","","","","","","","","","",""
"780","","image-button-response","216","1042548","0.0-213.0-0.0","AA1IM0SAQ3XFM","img_art/6.jpg","2","","","","","","","","","","","","","","","","","","","","","","","","",""
"518","","image-button-response","217","1043068","0.0-214.0-0.0","AA1IM0SAQ3XFM","img_art/6.jpg","1","","","","","","","","","","","","","","","","","","","","","","","","",""
"null","","html-keyboard-response","218","1044074","0.0-215.0","AA1IM0SAQ3XFM","<p style=""font-size: 48px;"">+</p>","","","","","null","allTrialResponses","1000","1","24","img_art/6.jpg","-45","Boring. Don't like ","Claire,Savannah,Emma,Anna,Grace,Destiny","very minimalistic,22,260,20","Despite how simple it is, this piece has clear meaning.,34,200,20","Birds are cool but I don't love it,10,60,20","It reminds me of a simplistic bird. I like the colors used.,40,300,20","Growth in the desert?  Don't care for it very much.,-26,180,20","boring. don't really like birds,1,360,20","Claire","very minimalistic,22,260,20","Emma","Birds are cool but I don't love it,10,60,20","Savannah","Despite how simple it is, this piece has clear meaning.,34,200,20","3"
"10095","","survey-text","219","1054176","0.0-216.0-0.0","AA1IM0SAQ3XFM","","","","{""Q0"":""Don't like. Just a pen in a pot""}","","","","","","","","","","","","","","","","","","","","","","",""
"3971.4000000059605","","image-slider-response","220","1058150","0.0-217.0","AA1IM0SAQ3XFM","","","","","-49","","","","","","","","","","","","","","","","","","","","","",""
"1654","","image-button-response","221","1063152","0.0-218.0","AA1IM0SAQ3XFM","img_art/5.jpg","1","","","","","","","","","","","","","","","","","","","","","","","","",""
"521","","image-button-response","222","1063676","0.0-219.0","AA1IM0SAQ3XFM","img_art/5.jpg","2","","","","","","","","","","","","","","","","","","","","","","","","",""
"552","","image-button-response","223","1064230","0.0-220.0-0.0","AA1IM0SAQ3XFM","img_art/5.jpg","1","","","","","","","","","","","","","","","","","","","","","","","","",""
"847","","image-button-response","224","1065079","0.0-221.0-0.0","AA1IM0SAQ3XFM","img_art/5.jpg","3","","","","","","","","","","","","","","","","","","","","","","","","",""
"null","","html-keyboard-response","225","1066581","0.0-222.0","AA1IM0SAQ3XFM","<p style=""font-size: 48px;"">+</p>","","","","","null","allTrialResponses","1500","1","25","img_art/5.jpg","-49","Don't like. Just a pen in a pot","Claire,Savannah,Emma,Kaitlyn,Jordan,Molly","I like the strokes and colors used,20,260,20","Boring and appears low effort,-41,200,20","Kind of ugly ....,-21,60,20","Wish the background had been kept clean; distracts from main object,11,80,20","I dont really get anything from this,-25,20,20","Very non-dynamic painting, dislike it.,-10,340,20","Emma","Kind of ugly ....,-21,60,20","Savannah","Boring and appears low effort,-41,200,20","Kaitlyn","Wish the background had been kept clean; distracts from main object,11,80,20","3"
"8766","","survey-text","226","1075356","0.0-223.0-0.0","AA1IM0SAQ3XFM","","","","{""Q0"":""table""}","","","","","","","","","","","","","","","","","","","","","","",""
"7134","","survey-text","227","1082493","0.0-224.0-0.0","AA1IM0SAQ3XFM","","","","{""Q0"":""Interesting colors""}","","","","","","","","","","","","","","","","","","","","","","",""
"3456.9000000059605","","image-slider-response","228","1085953","0.0-225.0","AA1IM0SAQ3XFM","","","","","23","","","","","","","","","","","","","","","","","","","","","",""
"1394","","image-button-response","229","1090960","0.0-226.0","AA1IM0SAQ3XFM","img_art/1.jpg","0","","","","","","","","","","","","","","","","","","","","","","","","",""
"658","","image-button-response","230","1091621","0.0-227.0","AA1IM0SAQ3XFM","img_art/1.jpg","0","","","","","","","","","","","","","","","","","","","","","","","","",""
"1974","","image-button-response","231","1093597","0.0-228.0-0.0","AA1IM0SAQ3XFM","img_art/1.jpg","5","","","","","","","","","","","","","","","","","","","","","","","","",""
"945","","image-button-response","232","1094545","0.0-229.0-0.0","AA1IM0SAQ3XFM","img_art/1.jpg","2","","","","","","","","","","","","","","","","","","","","","","","","",""
"null","","html-keyboard-response","233","1095550","0.0-230.0","AA1IM0SAQ3XFM","<p style=""font-size: 48px;"">+</p>","","","","","null","allTrialResponses","1000","1","26","img_art/1.jpg","23","Interesting colors","Alexandra,Savannah,Emma,Kaitlyn,Alexis,Katie","I love the warm colors of the art,32,60,20","Its simply okay.,3,200,20","Pretty, nice use of color,40,60,20","Interesting blend of colors,9,80,20","Taco Bell wallpaper. Doesn't really make me feel anything,3,100,20","Too messy. Just looks like a mess of dark colors.,-20,160,20","Alexandra","I love the warm colors of the art,32,60,20","Katie","Too messy. Just looks like a mess of dark colors.,-20,160,20","Emma","Pretty, nice use of color,40,60,20","3"
"8399","","survey-text","234","1103956","0.0-231.0-0.0","AA1IM0SAQ3XFM","","","","{""Q0"":""Don't like this. Too messy""}","","","","","","","","","","","","","","","","","","","","","","",""
"2809.300000011921","","image-slider-response","235","1106767","0.0-232.0","AA1IM0SAQ3XFM","","","","","-48","","","","","","","","","","","","","","","","","","","","","",""
"1955","","image-button-response","236","1111775","0.0-233.0","AA1IM0SAQ3XFM","img_art/9.jpg","0","","","","","","","","","","","","","","","","","","","","","","","","",""
"598","","image-button-response","237","1112375","0.0-234.0","AA1IM0SAQ3XFM","img_art/9.jpg","0","","","","","","","","","","","","","","","","","","","","","","","","",""
"776","","image-button-response","238","1113153","0.0-235.0-0.0","AA1IM0SAQ3XFM","img_art/9.jpg","2","","","","","","","","","","","","","","","","","","","","","","","","",""
"580","","image-button-response","239","1113736","0.0-236.0-0.0","AA1IM0SAQ3XFM","img_art/9.jpg","1","","","","","","","","","","","","","","","","","","","","","","","","",""
"null","","html-keyboard-response","240","1114742","0.0-237.0","AA1IM0SAQ3XFM","<p style=""font-size: 48px;"">+</p>","","","","","null","allTrialResponses","1000","1","27","img_art/9.jpg","-48","Don't like this. Too messy","Alexandra,Stephanie,Emma,Leslie,Katelyn,Katie","This picture is too busy and ugly,-20,60,20","Someone sleeping in a cave. Dont like the scribble look.,-30,300,20","Feels angry .....,-40,60,20","The colors are pretty, and remind me of a circus.,5,380,20","The lack of concrete form kind of turns me off,-2,100,20","I like the blues and pinks. The woman lying down communicates relaxation. It is a serene, calming scene,30,160,20","Alexandra","This picture is too busy and ugly,-20,60,20","Emma","Feels angry .....,-40,60,20","Stephanie","Someone sleeping in a cave. Dont like the scribble look.,-30,300,20","3"
"15010","","survey-text","241","1129760","0.0-238.0-0.0","AA1IM0SAQ3XFM","","","","{""Q0"":""I like the colors. Cool painting""}","","","","","","","","","","","","","","","","","","","","","","",""
"3704.100000023842","","image-slider-response","242","1133466","0.0-239.0","AA1IM0SAQ3XFM","","","","","27","","","","","","","","","","","","","","","","","","","","","",""
"null","","image-button-response","243","1138470","0.0-240.0","AA1IM0SAQ3XFM","img_art/18.jpg","null","","","","","","","","","","","","","","","","","","","","","","","","",""
"1248","","image-button-response","244","1139720","0.0-241.0","AA1IM0SAQ3XFM","img_art/18.jpg","5","","","","","","","","","","","","","","","","","","","","","","","","",""
"1073","","image-button-response","245","1140796","0.0-242.0-0.0","AA1IM0SAQ3XFM","img_art/18.jpg","2","","","","","","","","","","","","","","","","","","","","","","","","",""
"1326","","image-button-response","246","1142124","0.0-243.0-0.0","AA1IM0SAQ3XFM","img_art/18.jpg","0","","","","","","","","","","","","","","","","","","","","","","","","",""
"null","","html-keyboard-response","247","1143127","0.0-244.0","AA1IM0SAQ3XFM","<p style=""font-size: 48px;"">+</p>","","","","","null","allTrialResponses","1000","1","28","img_art/18.jpg","27","I like the colors. Cool painting","Alexandra,Stephanie,Emma,Sara,Christina,Madeline","Ugly, too much is going on,-40,60,20","It made me think of a car crash,-39,300,20","Vaguely creepy ........,-20,60,20","Too abstract and swirly,-21,160,20","it looks dreary and not uplifting,-10,240,20","Good concept but then scribbled on a bit?,15,40,20","Madeline","Good concept but then scribbled on a bit?,15,40,20","Emma","Vaguely creepy ........,-20,60,20","Alexandra","Ugly, too much is going on,-40,60,20","3"
"11933","","survey-text","248","1155067","0.0-245.0-0.0","AA1IM0SAQ3XFM","","","","{""Q0"":""Love this. Love the colors""}","","","","","","","","","","","","","","","","","","","","","","",""
"3435.7000000178814","","image-slider-response","249","1158505","0.0-246.0","AA1IM0SAQ3XFM","","","","","38","","","","","","","","","","","","","","","","","","","","","",""
"3090","","image-button-response","250","1163507","0.0-247.0","AA1IM0SAQ3XFM","img_art/25.jpg","2","","","","","","","","","","","","","","","","","","","","","","","","",""
"530","","image-button-response","251","1164039","0.0-248.0","AA1IM0SAQ3XFM","img_art/25.jpg","2","","","","","","","","","","","","","","","","","","","","","","","","",""
"1442","","image-button-response","252","1165483","0.0-249.0-0.0","AA1IM0SAQ3XFM","img_art/25.jpg","5","","","","","","","","","","","","","","","","","","","","","","","","",""
"591","","image-button-response","253","1166077","0.0-250.0-0.0","AA1IM0SAQ3XFM","img_art/25.jpg","4","","","","","","","","","","","","","","","","","","","","","","","","",""
"null","","html-keyboard-response","254","1167583","0.0-251.0","AA1IM0SAQ3XFM","<p style=""font-size: 48px;"">+</p>","","","","","null","allTrialResponses","1500","1","29","img_art/25.jpg","38","Love this. Love the colors","Alexandra,Tiffany,Emma,Melissa,Kathryn,Madeline","This is too dark and creepy. I also hate the color,-30,60,20","I feel little to no emotion looking at this painting.,0,360,20","Like the colors and the figure,30,60,20","do not like that color of green,-11,240,20","I feel uneasy. Like watching someone powerful ready to perform a ritual, but I don't know their intentions.,-10,140,20","It looks a bit strange to me, neck too long,-19,40,20","Emma","Like the colors and the figure,30,60,20","Madeline","It looks a bit strange to me, neck too long,-19,40,20","Kathryn","I feel uneasy. Like watching someone powerful ready to perform a ritual, but I don't know their intentions.,-10,140,20","3"
"10782","","survey-text","255","1178371","0.0-252.0-0.0","AA1IM0SAQ3XFM","","","","{""Q0"":""Love the colors in this. Love the people""}","","","","","","","","","","","","","","","","","","","","","","",""
"3569","","image-slider-response","256","1181943","0.0-253.0","AA1IM0SAQ3XFM","","","","","31","","","","","","","","","","","","","","","","","","","","","",""
"1443","","image-button-response","257","1186947","0.0-254.0","AA1IM0SAQ3XFM","img_art/23.jpg","0","","","","","","","","","","","","","","","","","","","","","","","","",""
"494","","image-button-response","258","1187443","0.0-255.0","AA1IM0SAQ3XFM","img_art/23.jpg","0","","","","","","","","","","","","","","","","","","","","","","","","",""
"639","","image-button-response","259","1188085","0.0-256.0-0.0","AA1IM0SAQ3XFM","img_art/23.jpg","1","","","","","","","","","","","","","","","","","","","","","","","","",""
"967","","image-button-response","260","1189053","0.0-257.0-0.0","AA1IM0SAQ3XFM","img_art/23.jpg","4","","","","","","","","","","","","","","","","","","","","","","","","",""
"null","","html-keyboard-response","261","1190060","0.0-258.0","AA1IM0SAQ3XFM","<p style=""font-size: 48px;"">+</p>","","","","","null","allTrialResponses","1000","1","30","img_art/23.jpg","31","Love the colors in this. Love the people","Kimberly,Meghan,Emma,Jacqueline,Kathryn,Madeline","Look at all the dancers,26,260,20","reminds me of an album cover,36,220,20","Love the use of colors and light,50,60,20","It's kind of neat with the white slash marks.,13,300,20","I feel positive community and comfort. Singing along at a concert, united with a bunch of strangers through shared joy.,20,140,20","background is great but the white is a bit weird,3,40,20","Kimberly","Look at all the dancers,26,260,20","Meghan","reminds me of an album cover,36,220,20","Kathryn","I feel positive community and comfort. Singing along at a concert, united with a bunch of strangers through shared joy.,20,140,20","3"
"2553","","image-button-response_instructions","262","1192620","0.0-259.0","AA1IM0SAQ3XFM","","0","instructions","","","","","","","","","","","","","","","","","","","","","","","",""
"1193","","image-button-response","263","1193818","0.0-260.0","AA1IM0SAQ3XFM","","0","","","","","","","","","","","","","","","","","","","","","","","","",""
