"rt","url","trial_type","trial_index","time_elapsed","internal_node_id","participant_id","stimulus","button_pressed","Name","responses","response","key_press","variableName","fixationTime","condition","trial","photo","subjectRating","subjectResponse","agentsNames","agent_1_Response","agent_2_Response","agent_3_Response","agent_4_Response","agent_5_Response","agent_6_Response","kept_1_name","kept_1_response","kept_2_name","kept_2_response","kept_3_name","kept_3_response","errorCounter"
"11468","external_page_harvard.html","external-html","0","11738","0.0-0.0","AAKBYJD64R6K","","","","","","","","","","","","","","","","","","","","","","","","","","",""
"1933","","image-button-response","1","13677","0.0-1.0","AAKBYJD64R6K","","0","","","","","","","","","","","","","","","","","","","","","","","","",""
"2309","","image-button-response","2","16006","0.0-2.0-0.0","AAKBYJD64R6K","","1","phone","","","","","","","","","","","","","","","","","","","","","","","",""
"8006","","survey-text","3","24017","0.0-3.0-0.0","AAKBYJD64R6K","","","","{""Q0"":""AAKBYJD64R6K""}","","","","","","","","","","","","","","","","","","","","","","",""
"4377","","image-button-response_instructions","4","28400","0.0-4.0","AAKBYJD64R6K","","0","instructions","","","","","","","","","","","","","","","","","","","","","","","",""
"26651","","image-button-response_instructions","5","55056","0.0-5.0","AAKBYJD64R6K","img_art/ins/popularity/ins1.png","0","instructions","","","","","","","","","","","","","","","","","","","","","","","",""
"2954","","image-button-response_instructions","6","58013","0.0-6.0","AAKBYJD64R6K","img_art/ins/popularity/ins2.png","0","instructions","","","","","","","","","","","","","","","","","","","","","","","",""
"5592","","image-button-response_instructions","7","63610","0.0-7.0","AAKBYJD64R6K","img_art/ins/popularity/ins2Extreme.png","0","instructions","","","","","","","","","","","","","","","","","","","","","","","",""
"5666","","image-button-response_instructions","8","69280","0.0-8.0","AAKBYJD64R6K","img_art/ins/popularity/ins3KEEPpop.PNG","0","instructions","","","","","","","","","","","","","","","","","","","","","","","",""
"6714","","image-button-response_instructions","9","75998","0.0-9.0","AAKBYJD64R6K","img_art/ins/popularity/ins3ANamepop.PNG","0","instructions","","","","","","","","","","","","","","","","","","","","","","","",""
"4245","","image-button-response_instructions","10","80246","0.0-10.0","AAKBYJD64R6K","img_art/ins/popularity/ins3ARatingpop.png","0","instructions","","","","","","","","","","","","","","","","","","","","","","","",""
"7371","","image-button-response_instructions","11","87620","0.0-11.0","AAKBYJD64R6K","img_art/ins/popularity/ins3ATextpop.png","0","instructions","","","","","","","","","","","","","","","","","","","","","","","",""
"5247","","image-button-response_instructions","12","92871","0.0-12.0","AAKBYJD64R6K","img_art/ins/popularity/ins3ALikespop.png","0","instructions","","","","","","","","","","","","","","","","","","","","","","","",""
"13881","","image-button-response_instructions","13","106756","0.0-13.0","AAKBYJD64R6K","img_art/ins/popularity/ins3KEEPpop.PNG","0","instructions","","","","","","","","","","","","","","","","","","","","","","","",""
"11652","","image-button-response_instructions","14","118412","0.0-14.0","AAKBYJD64R6K","img_art/ins/popularity/ins3_5RED.png","0","instructions","","","","","","","","","","","","","","","","","","","","","","","",""
"7524","","image-button-response_instructions","15","125940","0.0-15.0","AAKBYJD64R6K","img_art/ins/popularity/ins3KEEPpop.PNG","0","instructions","","","","","","","","","","","","","","","","","","","","","","","",""
"13598","","image-button-response_instructions","16","139541","0.0-16.0","AAKBYJD64R6K","img_art/ins/popularity/ins4KEEPpop.PNG","0","instructions","","","","","","","","","","","","","","","","","","","","","","","",""
"5130","","image-button-response_instructions","17","144675","0.0-17.0","AAKBYJD64R6K","img_art/ins/popularity/ins5KEEPpop.PNG","0","instructions","","","","","","","","","","","","","","","","","","","","","","","",""
"2741","","image-button-response_instructions","18","147419","0.0-18.0","AAKBYJD64R6K","","0","instructions","","","","","","","","","","","","","","","","","","","","","","","",""
"9227","","survey-text","19","156734","0.0-19.0-0.0","AAKBYJD64R6K","","","","{""Q0"":""but""}","","","","","","","","","","","","","","","","","","","","","","",""
"49096","","survey-text","20","205835","0.0-20.0-0.0","AAKBYJD64R6K","","","","{""Q0"":""This picture is bland and incomprehensible""}","","","","","","","","","","","","","","","","","","","","","","",""
"3962.0999999046326","","image-slider-response","21","209805","0.0-21.0","AAKBYJD64R6K","","","","","-5","","","","","","","","","","","","","","","","","","","","","",""
"null","","image-button-response","22","214816","0.0-22.0","AAKBYJD64R6K","img_art/ins/1.jpg","null","","","","","","","","","","","","","","","","","","","","","","","","",""
"1555","","image-button-response","23","216376","0.0-23.0","AAKBYJD64R6K","img_art/ins/1.jpg","0","","","","","","","","","","","","","","","","","","","","","","","","",""
"3858","","image-button-response","24","220241","0.0-24.0-0.0","AAKBYJD64R6K","img_art/ins/1.jpg","3","","","","","","","","","","","","","","","","","","","","","","","","",""
"4008","","image-button-response","25","224257","0.0-25.0-0.0","AAKBYJD64R6K","img_art/ins/1.jpg","5","","","","","","","","","","","","","","","","","","","","","","","","",""
"null","","html-keyboard-response","26","225766","0.0-26.0","AAKBYJD64R6K","<p style=""font-size: 48px;"">+</p>","","","","","null","allTrialResponses","1500","1","-2","img_art/ins/1.jpg","-5","This picture is bland and incomprehensible","Adam,Alex,Ben,Carl,Daniel,Jack","Seems like doodles,-20,20,20","very creative work.,36,40,20","This color reminds me of poo,-46,60,20","very calming artwork,42,80,20","It looks like a murder scene.,-48,100,20","I like the sophisticated brushwork,40,120,20","Adam","Seems like doodles,-20,20,20","Carl","very calming artwork,42,80,20","Jack","I like the sophisticated brushwork,40,120,20","0"
"28817","","survey-text","27","254597","0.0-27.0-0.0","AAKBYJD64R6K","","","","{""Q0"":""Visually colorful, but too abstract for my taste""}","","","","","","","","","","","","","","","","","","","","","","",""
"7389.300000071526","","image-slider-response","28","261992","0.0-28.0","AAKBYJD64R6K","","","","","-3","","","","","","","","","","","","","","","","","","","","","",""
"4723","","image-button-response","29","267000","0.0-29.0","AAKBYJD64R6K","img_art/ins/2.jpg","2","","","","","","","","","","","","","","","","","","","","","","","","",""
"2092","","image-button-response","30","269099","0.0-30.0","AAKBYJD64R6K","img_art/ins/2.jpg","4","","","","","","","","","","","","","","","","","","","","","","","","",""
"11352","","image-button-response","31","280457","0.0-31.0-0.0","AAKBYJD64R6K","img_art/ins/2.jpg","5","","","","","","","","","","","","","","","","","","","","","","","","",""
"7791","","image-button-response","32","288256","0.0-32.0-0.0","AAKBYJD64R6K","img_art/ins/2.jpg","2","","","","","","","","","","","","","","","","","","","","","","","","",""
"null","","html-keyboard-response","33","288760","0.0-33.0","AAKBYJD64R6K","<p style=""font-size: 48px;"">+</p>","","","","","null","allTrialResponses","500","1","-1","img_art/ins/2.jpg","-3","Visually colorful, but too abstract for my taste","Adam,James,Kyle,Carl,John,Jack","too much color,-18,20,20","looks too angry,-50,140,20","Idk, it is just annoying,-32,180,20","I can feel the artist's passion in it,45,80,20","love the texture of paint,48,160,20","I would never be able to compose a sophisticated pallete like this,48,120,20","John","love the texture of paint,48,160,20","Jack","I would never be able to compose a sophisticated pallete like this,48,120,20","Kyle","Idk, it is just annoying,-32,180,20","0"
"12833","","survey-text","34","301611","0.0-34.0-0.0","AAKBYJD64R6K","","","","{""Q0"":""Very bright and vibrant""}","","","","","","","","","","","","","","","","","","","","","","",""
"4080.9000000953674","","image-slider-response","35","305699","0.0-35.0","AAKBYJD64R6K","","","","","27","","","","","","","","","","","","","","","","","","","","","",""
"3756","","image-button-response","36","310706","0.0-36.0","AAKBYJD64R6K","img_art/ins/3.jpg","0","","","","","","","","","","","","","","","","","","","","","","","","",""
"2271","","image-button-response","37","312982","0.0-37.0","AAKBYJD64R6K","img_art/ins/3.jpg","0","","","","","","","","","","","","","","","","","","","","","","","","",""
"5221","","image-button-response","38","318209","0.0-38.0-0.0","AAKBYJD64R6K","img_art/ins/3.jpg","4","","","","","","","","","","","","","","","","","","","","","","","","",""
"1276","","image-button-response","39","319493","0.0-39.0-0.0","AAKBYJD64R6K","img_art/ins/3.jpg","3","","","","","","","","","","","","","","","","","","","","","","","","",""
"null","","html-keyboard-response","40","321004","0.0-40.0","AAKBYJD64R6K","<p style=""font-size: 48px;"">+</p>","","","","","null","allTrialResponses","1500","1","0","img_art/ins/3.jpg","27","Very bright and vibrant","Sam,Ron,Kyle,Mike,John,Jack","I can feel a rainy day from this painting,18,240,20","It looks depressing,-26,220,20","It looks like a playground for bats,-36,180,20","enjoy the different shades of blue,22,200,20","I like the overlapping of brushes,41,160,20","I feel connected to the artist,40,120,20","Sam","I can feel a rainy day from this painting,18,240,20","John","I like the overlapping of brushes,41,160,20","Mike","enjoy the different shades of blue,22,200,20","0"
"7340","","image-button-response_instructions","41","328358","0.0-41.0","AAKBYJD64R6K","","0","instructions","","","","","","","","","","","","","","","","","","","","","","","",""
"17220","","survey-likert","42","345584","0.0-42.0-0.0","AAKBYJD64R6K","","","","{""Q0"":"""",""Q1"":0,""Q2"":1}","","","","","","","","","","","","","","","","","","","","","","",""
"4499","","survey-text","43","350098","0.0-43.0-0.0","AAKBYJD64R6K","","","","{""Q0"":""rock""}","","","","","","","","","","","","","","","","","","","","","","",""
"10220","","survey-text","44","360322","0.0-44.0-0.0","AAKBYJD64R6K","","","","{""Q0"":""Very unique and colorful""}","","","","","","","","","","","","","","","","","","","","","","",""
"3806.899999976158","","image-slider-response","45","364135","0.0-45.0","AAKBYJD64R6K","","","","","9","","","","","","","","","","","","","","","","","","","","","",""
"null","","image-button-response","46","369247","0.0-46.0","AAKBYJD64R6K","img_art/22.jpg","null","","","","","","","","","","","","","","","","","","","","","","","","",""
"2119","","image-button-response","47","371370","0.0-47.0","AAKBYJD64R6K","img_art/22.jpg","4","","","","","","","","","","","","","","","","","","","","","","","","",""
"2971","","image-button-response","48","374346","0.0-48.0-0.0","AAKBYJD64R6K","img_art/22.jpg","1","","","","","","","","","","","","","","","","","","","","","","","","",""
"2634","","image-button-response","49","376988","0.0-49.0-0.0","AAKBYJD64R6K","img_art/22.jpg","3","","","","","","","","","","","","","","","","","","","","","","","","",""
"null","","html-keyboard-response","50","377993","0.0-50.0","AAKBYJD64R6K","<p style=""font-size: 48px;"">+</p>","","","","","null","allTrialResponses","1000","1","1","img_art/22.jpg","9","Very unique and colorful","Andrew,Angel,Jake,Seth,Alejandro,Lucas","Doesn't make me feel anything,-4,160,20","This piece gives off a cool vibe. Reminds me of being out in the city at night.,20,180,20","It's bland and ugly.,-21,360,20","I think the colors are beautiful they remind me of a sunset.,13,60,20","Beautiful use of chalk or pastels. Love the abstract nature.,35,80,20","Unfortunately, I can't see anything special in this painting.,-20,380,20","Alejandro","Beautiful use of chalk or pastels. Love the abstract nature.,35,80,20","Angel","This piece gives off a cool vibe. Reminds me of being out in the city at night.,20,180,20","Seth","I think the colors are beautiful they remind me of a sunset.,13,60,20","0"
"18345","","survey-text","51","396351","0.0-51.0-0.0","AAKBYJD64R6K","","","","{""Q0"":""Just doesn't do anything for me""}","","","","","","","","","","","","","","","","","","","","","","",""
"3603.7000000476837","","image-slider-response","52","399960","0.0-52.0","AAKBYJD64R6K","","","","","-18","","","","","","","","","","","","","","","","","","","","","",""
"null","","image-button-response","53","404972","0.0-53.0","AAKBYJD64R6K","img_art/15.jpg","null","","","","","","","","","","","","","","","","","","","","","","","","",""
"7469","","image-button-response","54","412444","0.0-54.0","AAKBYJD64R6K","img_art/15.jpg","0","","","","","","","","","","","","","","","","","","","","","","","","",""
"5429","","image-button-response","55","417880","0.0-55.0-0.0","AAKBYJD64R6K","img_art/15.jpg","4","","","","","","","","","","","","","","","","","","","","","","","","",""
"585","","image-button-response","56","418472","0.0-56.0-0.0","AAKBYJD64R6K","img_art/15.jpg","3","","","","","","","","","","","","","","","","","","","","","","","","",""
"null","","html-keyboard-response","57","418976","0.0-57.0","AAKBYJD64R6K","<p style=""font-size: 48px;"">+</p>","","","","","null","allTrialResponses","500","1","2","img_art/15.jpg","-18","Just doesn't do anything for me","Marcus,Angel,Matthew,Seth,Alejandro,Christopher","Interesting, but don't really like it. Gloomy.,-10,60,20","This is looking at a forest from above. I can see water and some pathways throughout. Nature.,20,180,20","I think of birds, nature, levels of space.,18,120,20","There should be more space between the black marks. The black comes off harsh and the blue between the trees can barely be seen.,-21,60,20","The blotted black spots create a nice contrast between the brush strokes within the center and sides. I like it.,41,80,20","this is really pretty! i like the pops of blue in all the black,26,160,20","Marcus","Interesting, but don't really like it. Gloomy.,-10,60,20","Alejandro","The blotted black spots create a nice contrast between the brush strokes within the center and sides. I like it.,41,80,20","Seth","There should be more space between the black marks. The black comes off harsh and the blue between the trees can barely be seen.,-21,60,20","0"
"15478","","survey-text","58","434470","0.0-58.0-0.0","AAKBYJD64R6K","","","","{""Q0"":""Very light and airy.""}","","","","","","","","","","","","","","","","","","","","","","",""
"4960.699999928474","","image-slider-response","59","439435","0.0-59.0","AAKBYJD64R6K","","","","","35","","","","","","","","","","","","","","","","","","","","","",""
"null","","image-button-response","60","444445","0.0-60.0","AAKBYJD64R6K","img_art/14.jpg","null","","","","","","","","","","","","","","","","","","","","","","","","",""
"4086","","image-button-response","61","448535","0.0-61.0","AAKBYJD64R6K","img_art/14.jpg","3","","","","","","","","","","","","","","","","","","","","","","","","",""
"1605","","image-button-response","62","450146","0.0-62.0-0.0","AAKBYJD64R6K","img_art/14.jpg","1","","","","","","","","","","","","","","","","","","","","","","","","",""
"1300","","image-button-response","63","451454","0.0-63.0-0.0","AAKBYJD64R6K","img_art/14.jpg","0","","","","","","","","","","","","","","","","","","","","","","","","",""
"null","","html-keyboard-response","64","452971","0.0-64.0","AAKBYJD64R6K","<p style=""font-size: 48px;"">+</p>","","","","","null","allTrialResponses","1500","1","3","img_art/14.jpg","35","Very light and airy.","Marcus,Benjamin,Cameron,Seth,Alejandro,Kenneth","I like the colors and the shapes are interesting,11,60,20","Reminds me of the outdoors.,12,260,20","cotton candy skies. pretty.,35,60,20","This piece feels inviting. It's like opening up the pages of your favorite book for the first time.,26,60,20","It looks like a tree but the bleeding water colors lack borders and makes it hard to appreciate the message.,-41,80,20","Its cute, but not my favorite.,8,300,20","Seth","This piece feels inviting. It's like opening up the pages of your favorite book for the first time.,26,60,20","Benjamin","Reminds me of the outdoors.,12,260,20","Marcus","I like the colors and the shapes are interesting,11,60,20","0"
"13645","","survey-text","65","466630","0.0-65.0-0.0","AAKBYJD64R6K","","","","{""Q0"":""I love the surrealism of this painting""}","","","","","","","","","","","","","","","","","","","","","","",""
"3114.100000023842","","image-slider-response","66","469748","0.0-66.0","AAKBYJD64R6K","","","","","44","","","","","","","","","","","","","","","","","","","","","",""
"null","","image-button-response","67","474764","0.0-67.0","AAKBYJD64R6K","img_art/8.jpg","null","","","","","","","","","","","","","","","","","","","","","","","","",""
"9342","","image-button-response","68","484110","0.0-68.0","AAKBYJD64R6K","img_art/8.jpg","2","","","","","","","","","","","","","","","","","","","","","","","","",""
"3776","","image-button-response","69","487893","0.0-69.0-0.0","AAKBYJD64R6K","img_art/8.jpg","1","","","","","","","","","","","","","","","","","","","","","","","","",""
"562","","image-button-response","70","488461","0.0-70.0-0.0","AAKBYJD64R6K","img_art/8.jpg","0","","","","","","","","","","","","","","","","","","","","","","","","",""
"null","","html-keyboard-response","71","489472","0.0-71.0","AAKBYJD64R6K","<p style=""font-size: 48px;"">+</p>","","","","","null","allTrialResponses","1000","1","4","img_art/8.jpg","44","I love the surrealism of this painting","Marcus,Benjamin,Christian,Seth,Shawn,Samuel","Like the colors and the energy, but the face feels jarring to me,13,60,20","Very colorful. Looks like the hustle and bustle of a city.,11,260,20","gives off inception vibes <3,50,140,20","I don't care for the piece, but I appreciate the talent that it took to create it.,22,60,20","Cheesy. A little too knock you over the dead with its message without making it emotional,-31,100,20","being watched over,17,400,20","Christian","gives off inception vibes <3,50,140,20","Benjamin","Very colorful. Looks like the hustle and bustle of a city.,11,260,20","Marcus","Like the colors and the energy, but the face feels jarring to me,13,60,20","0"
"16467","","survey-text","72","505955","0.0-72.0-0.0","AAKBYJD64R6K","","","","{""Q0"":""Looks like a child drew this""}","","","","","","","","","","","","","","","","","","","","","","",""
"3114.5","","image-slider-response","73","509079","0.0-73.0","AAKBYJD64R6K","","","","","-18","","","","","","","","","","","","","","","","","","","","","",""
"null","","image-button-response","74","514086","0.0-74.0","AAKBYJD64R6K","img_art/27.jpg","null","","","","","","","","","","","","","","","","","","","","","","","","",""
"1263","","image-button-response","75","515353","0.0-75.0","AAKBYJD64R6K","img_art/27.jpg","2","","","","","","","","","","","","","","","","","","","","","","","","",""
"1618","","image-button-response","76","516976","0.0-76.0-0.0","AAKBYJD64R6K","img_art/27.jpg","4","","","","","","","","","","","","","","","","","","","","","","","","",""
"1486","","image-button-response","77","518469","0.0-77.0-0.0","AAKBYJD64R6K","img_art/27.jpg","5","","","","","","","","","","","","","","","","","","","","","","","","",""
"null","","html-keyboard-response","78","518973","0.0-78.0","AAKBYJD64R6K","<p style=""font-size: 48px;"">+</p>","","","","","null","allTrialResponses","500","1","5","img_art/27.jpg","-18","Looks like a child drew this","Marcus,Benjamin,Christian,Jesus,Jordan,John","It's okay. Not really interesting to me.,-10,60,20","I like the colors.,6,260,20","don't understand, the green induces confusion,1,140,20","The color palette isn't my taste,-24,100,20","Looks like a little kids drawing,20,160,20","Looks as if a toddler painted it,-20,120,20","Christian","don't understand, the green induces confusion,1,140,20","Jordan","Looks like a little kids drawing,20,160,20","John","Looks as if a toddler painted it,-20,120,20","0"
"3920","","survey-text","79","522929","0.0-79.0-0.0","AAKBYJD64R6K","","","","{""Q0"":""sky""}","","","","","","","","","","","","","","","","","","","","","","",""
"14324","","survey-text","80","537257","0.0-80.0-0.0","AAKBYJD64R6K","","","","{""Q0"":""Like the long brush strokes""}","","","","","","","","","","","","","","","","","","","","","","",""
"3933.6999999284744","","image-slider-response","81","541198","0.0-81.0","AAKBYJD64R6K","","","","","10","","","","","","","","","","","","","","","","","","","","","",""
"null","","image-button-response","82","546205","0.0-82.0","AAKBYJD64R6K","img_art/30.jpg","null","","","","","","","","","","","","","","","","","","","","","","","","",""
"604","","image-button-response","83","546814","0.0-83.0","AAKBYJD64R6K","img_art/30.jpg","4","","","","","","","","","","","","","","","","","","","","","","","","",""
"4210","","image-button-response","84","551029","0.0-84.0-0.0","AAKBYJD64R6K","img_art/30.jpg","2","","","","","","","","","","","","","","","","","","","","","","","","",""
"4883","","image-button-response","85","555919","0.0-85.0-0.0","AAKBYJD64R6K","img_art/30.jpg","0","","","","","","","","","","","","","","","","","","","","","","","","",""
"null","","html-keyboard-response","86","556426","0.0-86.0","AAKBYJD64R6K","<p style=""font-size: 48px;"">+</p>","","","","","null","allTrialResponses","500","1","6","img_art/30.jpg","10","Like the long brush strokes","Malik,Miguel,Christian,Ethan,Jordan,John","I can't parse any intention or emotion,-17,40,20","Absolutely messy,-31,160,20","don't know but it somehow speaks to me,29,140,20","I hate this piece. It looks like a child created it. The colors are awful.,-46,120,20","Combination of colors arent good,-6,160,20","ugly nasty colors,-10,120,20","Jordan","Combination of colors arent good,-6,160,20","Christian","don't know but it somehow speaks to me,29,140,20","Malik","I can't parse any intention or emotion,-17,40,20","0"
"28113","","survey-text","87","584557","0.0-87.0-0.0","AAKBYJD64R6K","","","","{""Q0"":""Looks distressed and organized at the same time""}","","","","","","","","","","","","","","","","","","","","","","",""
"4125.5","","image-slider-response","88","588688","0.0-88.0","AAKBYJD64R6K","","","","","38","","","","","","","","","","","","","","","","","","","","","",""
"null","","image-button-response","89","593693","0.0-89.0","AAKBYJD64R6K","img_art/13.jpg","null","","","","","","","","","","","","","","","","","","","","","","","","",""
"1729","","image-button-response","90","595428","0.0-90.0","AAKBYJD64R6K","img_art/13.jpg","5","","","","","","","","","","","","","","","","","","","","","","","","",""
"1698","","image-button-response","91","597130","0.0-91.0-0.0","AAKBYJD64R6K","img_art/13.jpg","0","","","","","","","","","","","","","","","","","","","","","","","","",""
"3573","","image-button-response","92","600712","0.0-92.0-0.0","AAKBYJD64R6K","img_art/13.jpg","4","","","","","","","","","","","","","","","","","","","","","","","","",""
"null","","html-keyboard-response","93","601717","0.0-93.0","AAKBYJD64R6K","<p style=""font-size: 48px;"">+</p>","","","","","null","allTrialResponses","1000","1","7","img_art/13.jpg","38","Looks distressed and organized at the same time","Malik,Garrett,Christian,Thomas,Jordan,Tanner","Gorgeous contrast and color choice, very pleasing,50,40,20","It looks like someone splattered a bunch of different colors to make a picture; I think its ugly.,-40,180,20","love the style but not very novel,9,140,20","Nothing about this stands out to me,-10,220,20","This is easy to look at,46,160,20","happy, serenity,30,180,20","Tanner","happy, serenity,30,180,20","Malik","Gorgeous contrast and color choice, very pleasing,50,40,20","Jordan","This is easy to look at,46,160,20","0"
"17487","","survey-text","94","619218","0.0-94.0-0.0","AAKBYJD64R6K","","","","{""Q0"":""Too much going on""}","","","","","","","","","","","","","","","","","","","","","","",""
"6966","","image-slider-response","95","626189","0.0-95.0","AAKBYJD64R6K","","","","","-2","","","","","","","","","","","","","","","","","","","","","",""
"null","","image-button-response","96","631198","0.0-96.0","AAKBYJD64R6K","img_art/9.jpg","null","","","","","","","","","","","","","","","","","","","","","","","","",""
"2901","","image-button-response","97","634104","0.0-97.0","AAKBYJD64R6K","img_art/9.jpg","5","","","","","","","","","","","","","","","","","","","","","","","","",""
"3035","","image-button-response","98","637146","0.0-98.0-0.0","AAKBYJD64R6K","img_art/9.jpg","1","","","","","","","","","","","","","","","","","","","","","","","","",""
"1339","","image-button-response","99","638492","0.0-99.0-0.0","AAKBYJD64R6K","img_art/9.jpg","2","","","","","","","","","","","","","","","","","","","","","","","","",""
"null","","html-keyboard-response","100","639496","0.0-100.0","AAKBYJD64R6K","<p style=""font-size: 48px;"">+</p>","","","","","null","allTrialResponses","1000","1","8","img_art/9.jpg","-2","Too much going on","Malik,Trevor,William,Travis,Jordan,Tanner","Colorful and expressive,15,40,20","nice colors but it looks like it's from the 80s,10,280,20","reminds me of a story book,18,380,20","Stuipid looking...dumb,-48,260,20","Reminds me of a cave in a scary movie,-21,160,20","sleep, calm, safe,12,180,20","Tanner","sleep, calm, safe,12,180,20","Trevor","nice colors but it looks like it's from the 80s,10,280,20","William","reminds me of a story book,18,380,20","0"
"13609","","survey-text","101","653120","0.0-101.0-0.0","AAKBYJD64R6K","","","","{""Q0"":""too simplistic looking""}","","","","","","","","","","","","","","","","","","","","","","",""
"5981.200000047684","","image-slider-response","102","659106","0.0-102.0","AAKBYJD64R6K","","","","","-4","","","","","","","","","","","","","","","","","","","","","",""
"null","","image-button-response","103","664112","0.0-103.0","AAKBYJD64R6K","img_art/19.jpg","null","","","","","","","","","","","","","","","","","","","","","","","","",""
"1133","","image-button-response","104","665251","0.0-104.0","AAKBYJD64R6K","img_art/19.jpg","5","","","","","","","","","","","","","","","","","","","","","","","","",""
"4181","","image-button-response","105","669437","0.0-105.0-0.0","AAKBYJD64R6K","img_art/19.jpg","2","","","","","","","","","","","","","","","","","","","","","","","","",""
"1844","","image-button-response","106","671287","0.0-106.0-0.0","AAKBYJD64R6K","img_art/19.jpg","0","","","","","","","","","","","","","","","","","","","","","","","","",""
"null","","html-keyboard-response","107","671790","0.0-107.0","AAKBYJD64R6K","<p style=""font-size: 48px;"">+</p>","","","","","null","allTrialResponses","500","1","9","img_art/19.jpg","-4","too simplistic looking","Timothy,Trevor,William,Devin,Nathaniel,Tanner","Something weird is going on in this painting,-20,240,20","i like the colors and the way it looks like an actual scene,18,280,20","to much going on,-22,380,20","Looks a bit too loose,-2,380,20","Horrible. Squiggly lines everywhere.,-50,220,20","city, stress of urbanism, slightly panicked,2,180,20","Tanner","city, stress of urbanism, slightly panicked,2,180,20","William","to much going on,-22,380,20","Timothy","Something weird is going on in this painting,-20,240,20","0"
"10395","","survey-text","108","682201","0.0-108.0-0.0","AAKBYJD64R6K","","","","{""Q0"":""Over my head""}","","","","","","","","","","","","","","","","","","","","","","",""
"6932.700000047684","","image-slider-response","109","689138","0.0-109.0","AAKBYJD64R6K","","","","","-1","","","","","","","","","","","","","","","","","","","","","",""
"null","","image-button-response","110","694143","0.0-110.0","AAKBYJD64R6K","img_art/28.jpg","null","","","","","","","","","","","","","","","","","","","","","","","","",""
"1702","","image-button-response","111","695850","0.0-111.0","AAKBYJD64R6K","img_art/28.jpg","2","","","","","","","","","","","","","","","","","","","","","","","","",""
"5855","","image-button-response","112","701710","0.0-112.0-0.0","AAKBYJD64R6K","img_art/28.jpg","3","","","","","","","","","","","","","","","","","","","","","","","","",""
"442","","image-button-response","113","702159","0.0-113.0-0.0","AAKBYJD64R6K","img_art/28.jpg","4","","","","","","","","","","","","","","","","","","","","","","","","",""
"null","","html-keyboard-response","114","702664","0.0-114.0","AAKBYJD64R6K","<p style=""font-size: 48px;"">+</p>","","","","","null","allTrialResponses","500","1","10","img_art/28.jpg","-1","Over my head","Timothy,Mitchell,William,Mark,Brian,Tanner","This one gives me an uneasy feeling,-10,240,20","A mom protecting her child because something scary, (perhaps imaginary) wants to take the child.,-10,180,20","drab and dreary,-21,380,20","It reminds me of the cantina in Star Wars.,37,80,20","the people kind of scare me in this one,-15,380,20","almost reminds me of thomas becket getting his head cut off,21,180,20","William","drab and dreary,-21,380,20","Mark","It reminds me of the cantina in Star Wars.,37,80,20","Brian","the people kind of scare me in this one,-15,380,20","0"
"4758","","survey-text","115","707451","0.0-115.0-0.0","AAKBYJD64R6K","","","","{""Q0"":""our""}","","","","","","","","","","","","","","","","","","","","","","",""
"15992","","survey-text","116","723447","0.0-116.0-0.0","AAKBYJD64R6K","","","","{""Q0"":""Unique and simple""}","","","","","","","","","","","","","","","","","","","","","","",""
"2935.100000023842","","image-slider-response","117","726387","0.0-117.0","AAKBYJD64R6K","","","","","10","","","","","","","","","","","","","","","","","","","","","",""
"null","","image-button-response","118","731398","0.0-118.0","AAKBYJD64R6K","img_art/11.jpg","null","","","","","","","","","","","","","","","","","","","","","","","","",""
"1825","","image-button-response","119","733227","0.0-119.0","AAKBYJD64R6K","img_art/11.jpg","1","","","","","","","","","","","","","","","","","","","","","","","","",""
"2554","","image-button-response","120","735787","0.0-120.0-0.0","AAKBYJD64R6K","img_art/11.jpg","5","","","","","","","","","","","","","","","","","","","","","","","","",""
"2775","","image-button-response","121","738569","0.0-121.0-0.0","AAKBYJD64R6K","img_art/11.jpg","3","","","","","","","","","","","","","","","","","","","","","","","","",""
"null","","html-keyboard-response","122","740087","0.0-122.0","AAKBYJD64R6K","<p style=""font-size: 48px;"">+</p>","","","","","null","allTrialResponses","1500","1","11","img_art/11.jpg","10","Unique and simple","Kevin,Michael,William,Mark,Brian,Dustin","Thats a creepy old rollercoasters abandoned,-2,320,20","It's kind of cool and I see it looks clean.,22,140,20","reminds me of a rainy day in the city,32,380,20","My initial thought was roller coasters but I see ship masts on a cloudy day too.,35,80,20","this looks like a beautiful rainy day in a hellish urban mountain city,14,380,20","Dark and dreary. Makes me think of rain/water. I see grey clouds and high waves. Looks unsettling.,-20,20,20","Michael","It's kind of cool and I see it looks clean.,22,140,20","Dustin","Dark and dreary. Makes me think of rain/water. I see grey clouds and high waves. Looks unsettling.,-20,20,20","Mark","My initial thought was roller coasters but I see ship masts on a cloudy day too.,35,80,20","0"
"22688","","survey-text","123","762789","0.0-123.0-0.0","AAKBYJD64R6K","","","","{""Q0"":""Frustrated artist""}","","","","","","","","","","","","","","","","","","","","","","",""
"3642.8000000715256","","image-slider-response","124","766438","0.0-124.0","AAKBYJD64R6K","","","","","7","","","","","","","","","","","","","","","","","","","","","",""
"null","","image-button-response","125","771444","0.0-125.0","AAKBYJD64R6K","img_art/29.jpg","null","","","","","","","","","","","","","","","","","","","","","","","","",""
"9552","","image-button-response","126","780999","0.0-126.0","AAKBYJD64R6K","img_art/29.jpg","0","","","","","","","","","","","","","","","","","","","","","","","","",""
"3596","","image-button-response","127","784601","0.0-127.0-0.0","AAKBYJD64R6K","img_art/29.jpg","2","","","","","","","","","","","","","","","","","","","","","","","","",""
"1541","","image-button-response","128","786149","0.0-128.0-0.0","AAKBYJD64R6K","img_art/29.jpg","4","","","","","","","","","","","","","","","","","","","","","","","","",""
"null","","html-keyboard-response","129","786654","0.0-129.0","AAKBYJD64R6K","<p style=""font-size: 48px;"">+</p>","","","","","null","allTrialResponses","500","1","12","img_art/29.jpg","7","Frustrated artist","Gregory,Michael,Zachary,Mark,Austin,Dustin","3D looks is really cool,30,220,20","Looks literally like garbage.,-45,140,20","It looks like someone did not like their art and drew an x over it.,-32,400,20","Bottomless pit and prison. Feels like its saying time is precious.,11,80,20","Has a haunting feel to it,22,240,20","Don't get it! Too dark and random. Perhaps it was the start of something but the artist stopped and cancelled out the work.,-50,20,20","Gregory","3D looks is really cool,30,220,20","Zachary","It looks like someone did not like their art and drew an x over it.,-32,400,20","Austin","Has a haunting feel to it,22,240,20","0"
"13677","","survey-text","130","800352","0.0-130.0-0.0","AAKBYJD64R6K","","","","{""Q0"":""good vs. Evil""}","","","","","","","","","","","","","","","","","","","","","","",""
"2831.100000023842","","image-slider-response","131","803188","0.0-131.0","AAKBYJD64R6K","","","","","5","","","","","","","","","","","","","","","","","","","","","",""
"null","","image-button-response","132","808193","0.0-132.0","AAKBYJD64R6K","img_art/21.jpg","null","","","","","","","","","","","","","","","","","","","","","","","","",""
"729","","image-button-response","133","808927","0.0-133.0","AAKBYJD64R6K","img_art/21.jpg","3","","","","","","","","","","","","","","","","","","","","","","","","",""
"1662","","image-button-response","134","810595","0.0-134.0-0.0","AAKBYJD64R6K","img_art/21.jpg","0","","","","","","","","","","","","","","","","","","","","","","","","",""
"2919","","image-button-response","135","813521","0.0-135.0-0.0","AAKBYJD64R6K","img_art/21.jpg","1","","","","","","","","","","","","","","","","","","","","","","","","",""
"null","","html-keyboard-response","136","814039","0.0-136.0","AAKBYJD64R6K","<p style=""font-size: 48px;"">+</p>","","","","","null","allTrialResponses","500","1","13","img_art/21.jpg","5","good vs. Evil","Gregory,Blake,Zachary,Justin,Austin,Elijah","Contrast of fire and water looks cool,20,220,20","ocean and rocks at the beach,11,280,20","Looks like a body of water during a sunset. I like this piece.,21,400,20","Alright. I like the colors.,5,280,20","Touches the heart,50,240,20","Can't understand what it is,-27,80,20","Justin","Alright. I like the colors.,5,280,20","Gregory","Contrast of fire and water looks cool,20,220,20","Blake","ocean and rocks at the beach,11,280,20","0"
"13025","","survey-text","137","827086","0.0-137.0-0.0","AAKBYJD64R6K","","","","{""Q0"":""Abstract and deep""}","","","","","","","","","","","","","","","","","","","","","","",""
"3157.5","","image-slider-response","138","830248","0.0-138.0","AAKBYJD64R6K","","","","","33","","","","","","","","","","","","","","","","","","","","","",""
"null","","image-button-response","139","835254","0.0-139.0","AAKBYJD64R6K","img_art/18.jpg","null","","","","","","","","","","","","","","","","","","","","","","","","",""
"728","","image-button-response","140","835986","0.0-140.0","AAKBYJD64R6K","img_art/18.jpg","4","","","","","","","","","","","","","","","","","","","","","","","","",""
"5182","","image-button-response","141","841173","0.0-141.0-0.0","AAKBYJD64R6K","img_art/18.jpg","2","","","","","","","","","","","","","","","","","","","","","","","","",""
"1268","","image-button-response","142","842449","0.0-142.0-0.0","AAKBYJD64R6K","img_art/18.jpg","3","","","","","","","","","","","","","","","","","","","","","","","","",""
"null","","html-keyboard-response","143","843453","0.0-143.0","AAKBYJD64R6K","<p style=""font-size: 48px;"">+</p>","","","","","null","allTrialResponses","1000","1","14","img_art/18.jpg","33","Abstract and deep","Gregory,Blake,Nicholas,Justin,Jack,Dakota","Mash up of colors and don't see a grander picture,-10,220,20","i like the colors. outerspace,21,280,20","Id love to see this piece closer. So much extra details hidden it it.,50,240,20","This is really interesting to look at. I like the colors and the spectral look.,27,280,20","hauntingly beautiful. more things revealed the longer you look. love the spirit-like figure in the top left.,47,320,20","afraid and anxious,21,280,20","Jack","hauntingly beautiful. more things revealed the longer you look. love the spirit-like figure in the top left.,47,320,20","Nicholas","Id love to see this piece closer. So much extra details hidden it it.,50,240,20","Justin","This is really interesting to look at. I like the colors and the spectral look.,27,280,20","0"
"48420","","survey-text","144","891899","0.0-144.0-0.0","AAKBYJD64R6K","","","","{""Q0"":""Dark, grey. and yet energetic.""}","","","","","","","","","","","","","","","","","","","","","","",""
"3794.8000000715256","","image-slider-response","145","895698","0.0-145.0","AAKBYJD64R6K","","","","","21","","","","","","","","","","","","","","","","","","","","","",""
"null","","image-button-response","146","900709","0.0-146.0","AAKBYJD64R6K","img_art/10.jpg","null","","","","","","","","","","","","","","","","","","","","","","","","",""
"5289","","image-button-response","147","906003","0.0-147.0","AAKBYJD64R6K","img_art/10.jpg","4","","","","","","","","","","","","","","","","","","","","","","","","",""
"5698","","image-button-response","148","911705","0.0-148.0-0.0","AAKBYJD64R6K","img_art/10.jpg","0","","","","","","","","","","","","","","","","","","","","","","","","",""
"4392","","image-button-response","149","916104","0.0-149.0-0.0","AAKBYJD64R6K","img_art/10.jpg","2","","","","","","","","","","","","","","","","","","","","","","","","",""
"null","","html-keyboard-response","150","917110","0.0-150.0","AAKBYJD64R6K","<p style=""font-size: 48px;"">+</p>","","","","","null","allTrialResponses","1000","1","15","img_art/10.jpg","21","Dark, grey. and yet energetic.","Anthony,Caleb,Nicholas,Justin,Jack,Spencer","I am neutral towards the artwork,1,200,20","This is a scribble of a mad man. Appears low effort.,-33,40,20","I like it but do not love it. It is sort of depressing,13,240,20","The design is dynamic and interesting.,14,280,20","this piece is okay. I wish it was more colorful, but it is certainly intriguing.,23,320,20","Dark with no object, looks like experimentation, slightly like a storm on the ocean,-21,120,20","Jack","this piece is okay. I wish it was more colorful, but it is certainly intriguing.,23,320,20","Anthony","I am neutral towards the artwork,1,200,20","Nicholas","I like it but do not love it. It is sort of depressing,13,240,20","0"
"4622","","survey-text","151","921768","0.0-151.0-0.0","AAKBYJD64R6K","","","","{""Q0"":""course""}","","","","","","","","","","","","","","","","","","","","","","",""
"18318","","survey-text","152","940090","0.0-152.0-0.0","AAKBYJD64R6K","","","","{""Q0"":""Colorful and imaginative""}","","","","","","","","","","","","","","","","","","","","","","",""
"5343","","image-slider-response","153","945438","0.0-153.0","AAKBYJD64R6K","","","","","26","","","","","","","","","","","","","","","","","","","","","",""
"null","","image-button-response","154","950449","0.0-154.0","AAKBYJD64R6K","img_art/24.jpg","null","","","","","","","","","","","","","","","","","","","","","","","","",""
"3985","","image-button-response","155","954438","0.0-155.0","AAKBYJD64R6K","img_art/24.jpg","4","","","","","","","","","","","","","","","","","","","","","","","","",""
"5965","","image-button-response","156","960407","0.0-156.0-0.0","AAKBYJD64R6K","img_art/24.jpg","0","","","","","","","","","","","","","","","","","","","","","","","","",""
"5192","","image-button-response","157","965607","0.0-157.0-0.0","AAKBYJD64R6K","img_art/24.jpg","5","","","","","","","","","","","","","","","","","","","","","","","","",""
"null","","html-keyboard-response","158","966111","0.0-158.0","AAKBYJD64R6K","<p style=""font-size: 48px;"">+</p>","","","","","null","allTrialResponses","500","1","16","img_art/24.jpg","26","Colorful and imaginative","Anthony,Victor,Nicholas,Hunter,Jack,Brendan","This piece resembles a waterfall surrounded by trees.,21,200,20","I don't even know. It's just kind of meh,1,340,20","Happy and relaxing bubbling brook,37,240,20","feels overdone, but still executed well,0,240,20","colors are a bit cramped together. really unique take on a waterfall though.,32,320,20","lovely forest vibes,36,340,20","Jack","colors are a bit cramped together. really unique take on a waterfall though.,32,320,20","Anthony","This piece resembles a waterfall surrounded by trees.,21,200,20","Brendan","lovely forest vibes,36,340,20","0"
"18801","","survey-text","159","984930","0.0-159.0-0.0","AAKBYJD64R6K","","","","{""Q0"":""Messy and childish""}","","","","","","","","","","","","","","","","","","","","","","",""
"3179.2000000476837","","image-slider-response","160","988115","0.0-160.0","AAKBYJD64R6K","","","","","-20","","","","","","","","","","","","","","","","","","","","","",""
"null","","image-button-response","161","993136","0.0-161.0","AAKBYJD64R6K","img_art/2.jpg","null","","","","","","","","","","","","","","","","","","","","","","","","",""
"4866","","image-button-response","162","998009","0.0-162.0","AAKBYJD64R6K","img_art/2.jpg","5","","","","","","","","","","","","","","","","","","","","","","","","",""
"4237","","image-button-response","163","1002252","0.0-163.0-0.0","AAKBYJD64R6K","img_art/2.jpg","2","","","","","","","","","","","","","","","","","","","","","","","","",""
"784","","image-button-response","164","1003044","0.0-164.0-0.0","AAKBYJD64R6K","img_art/2.jpg","0","","","","","","","","","","","","","","","","","","","","","","","","",""
"null","","html-keyboard-response","165","1004557","0.0-165.0","AAKBYJD64R6K","<p style=""font-size: 48px;"">+</p>","","","","","null","allTrialResponses","1500","1","17","img_art/2.jpg","-20","Messy and childish","Anthony,Logan,Jeremy,Eric,Jack,Brendan","Ugly color scheme,-50,200,20","omg she's so cute look at that little smile those eyelashes ugh love it,30,360,20","Unhappy. I do not like it,-5,60,20","I like the color, but I feel like I see a creepy face which I dislike.,-5,100,20","the colors are a bit odd, and the squiggly line at the top is distracting,0,320,20","its ugly af to be honest,-50,340,20","Brendan","its ugly af to be honest,-50,340,20","Jeremy","Unhappy. I do not like it,-5,60,20","Anthony","Ugly color scheme,-50,200,20","0"
"10063","","survey-text","166","1014637","0.0-166.0-0.0","AAKBYJD64R6K","","","","{""Q0"":""This is art???""}","","","","","","","","","","","","","","","","","","","","","","",""
"3688.6999999284744","","image-slider-response","167","1018331","0.0-167.0","AAKBYJD64R6K","","","","","-42","","","","","","","","","","","","","","","","","","","","","",""
"null","","image-button-response","168","1023339","0.0-168.0","AAKBYJD64R6K","img_art/3.jpg","null","","","","","","","","","","","","","","","","","","","","","","","","",""
"1226","","image-button-response","169","1024570","0.0-169.0","AAKBYJD64R6K","img_art/3.jpg","4","","","","","","","","","","","","","","","","","","","","","","","","",""
"2006","","image-button-response","170","1026583","0.0-170.0-0.0","AAKBYJD64R6K","img_art/3.jpg","3","","","","","","","","","","","","","","","","","","","","","","","","",""
"877","","image-button-response","171","1027467","0.0-171.0-0.0","AAKBYJD64R6K","img_art/3.jpg","2","","","","","","","","","","","","","","","","","","","","","","","","",""
"null","","html-keyboard-response","172","1027972","0.0-172.0","AAKBYJD64R6K","<p style=""font-size: 48px;"">+</p>","","","","","null","allTrialResponses","500","1","18","img_art/3.jpg","-42","This is art???","Anthony,Devon,Jeremy,Ian,Peter,Brendan","This looks like something a child created in 5 minutes.,-50,200,20","good choice of color,12,400,20","seems too angry,-50,60,20","It just makes me think of blood splattered everywhere.,-31,260,20","Looks like blood scribbled on walls,-20,320,20","i really cant get it,-44,340,20","Peter","Looks like blood scribbled on walls,-20,320,20","Ian","It just makes me think of blood splattered everywhere.,-31,260,20","Jeremy","seems too angry,-50,60,20","0"
"24281","","survey-text","173","1052271","0.0-173.0-0.0","AAKBYJD64R6K","","","","{""Q0"":""Looks like a wall texture under microscope""}","","","","","","","","","","","","","","","","","","","","","","",""
"5193.699999928474","","image-slider-response","174","1057470","0.0-174.0","AAKBYJD64R6K","","","","","2","","","","","","","","","","","","","","","","","","","","","",""
"null","","image-button-response","175","1062486","0.0-175.0","AAKBYJD64R6K","img_art/7.jpg","null","","","","","","","","","","","","","","","","","","","","","","","","",""
"1825","","image-button-response","176","1064316","0.0-176.0","AAKBYJD64R6K","img_art/7.jpg","5","","","","","","","","","","","","","","","","","","","","","","","","",""
"2168","","image-button-response","177","1066489","0.0-177.0-0.0","AAKBYJD64R6K","img_art/7.jpg","3","","","","","","","","","","","","","","","","","","","","","","","","",""
"701","","image-button-response","178","1067197","0.0-178.0-0.0","AAKBYJD64R6K","img_art/7.jpg","1","","","","","","","","","","","","","","","","","","","","","","","","",""
"null","","html-keyboard-response","179","1068710","0.0-179.0","AAKBYJD64R6K","<p style=""font-size: 48px;"">+</p>","","","","","null","allTrialResponses","1500","1","19","img_art/7.jpg","2","Looks like a wall texture under microscope","Kyle,Cole,Jeremy,Ian,Peter,Brett","It just reminds me of dirt,-10,340,20","Are these ancient cave paintings?,-7,200,20","Happy. Looking at the moon,43,60,20","This looks like a literal picture of the ground so I'm really not too sure about this one.,-42,260,20","It's just like sand from the beach,2,320,20","No particular reaction to this,10,360,20","Brett","No particular reaction to this,10,360,20","Ian","This looks like a literal picture of the ground so I'm really not too sure about this one.,-42,260,20","Cole","Are these ancient cave paintings?,-7,200,20","0"
"11440","","survey-text","180","1080172","0.0-180.0-0.0","AAKBYJD64R6K","","","","{""Q0"":""Simple and clean""}","","","","","","","","","","","","","","","","","","","","","","",""
"3272.2000000476837","","image-slider-response","181","1083448","0.0-181.0","AAKBYJD64R6K","","","","","5","","","","","","","","","","","","","","","","","","","","","",""
"null","","image-button-response","182","1088454","0.0-182.0","AAKBYJD64R6K","img_art/26.jpg","null","","","","","","","","","","","","","","","","","","","","","","","","",""
"952","","image-button-response","183","1089410","0.0-183.0","AAKBYJD64R6K","img_art/26.jpg","3","","","","","","","","","","","","","","","","","","","","","","","","",""
"7801","","image-button-response","184","1097218","0.0-184.0-0.0","AAKBYJD64R6K","img_art/26.jpg","4","","","","","","","","","","","","","","","","","","","","","","","","",""
"1183","","image-button-response","185","1098408","0.0-185.0-0.0","AAKBYJD64R6K","img_art/26.jpg","5","","","","","","","","","","","","","","","","","","","","","","","","",""
"null","","html-keyboard-response","186","1099912","0.0-186.0","AAKBYJD64R6K","<p style=""font-size: 48px;"">+</p>","","","","","null","allTrialResponses","1500","1","20","img_art/26.jpg","5","Simple and clean","Scott,Cole,Tyler,Ian,Isaac,Brett","nothing really special, quite bland,1,20,20","Another blob on a landscape. A city street?,9,200,20","Colors look glum; photograph is not properly contrasted and does not reflect the appropriate amount of natural light.,-10,320,20","This seems pretty and sweet, it's something I would like to actually see.,31,260,20","I wish it were more pastel but I think it is relaxing to look at.,30,280,20","Picturesque little town,45,360,20","Ian","This seems pretty and sweet, it's something I would like to actually see.,31,260,20","Isaac","I wish it were more pastel but I think it is relaxing to look at.,30,280,20","Brett","Picturesque little town,45,360,20","0"
"3100","","survey-text","187","1103045","0.0-187.0-0.0","AAKBYJD64R6K","","","","{""Q0"":""we""}","","","","","","","","","","","","","","","","","","","","","","",""
"28630","","survey-text","188","1131680","0.0-188.0-0.0","AAKBYJD64R6K","","","","{""Q0"":""I liek the contrast of the colorful background with the white figures""}","","","","","","","","","","","","","","","","","","","","","","",""
"3324.7999999523163","","image-slider-response","189","1135010","0.0-189.0","AAKBYJD64R6K","","","","","11","","","","","","","","","","","","","","","","","","","","","",""
"null","","image-button-response","190","1140021","0.0-190.0","AAKBYJD64R6K","img_art/23.jpg","null","","","","","","","","","","","","","","","","","","","","","","","","",""
"3105","","image-button-response","191","1143131","0.0-191.0","AAKBYJD64R6K","img_art/23.jpg","3","","","","","","","","","","","","","","","","","","","","","","","","",""
"1543","","image-button-response","192","1144678","0.0-192.0-0.0","AAKBYJD64R6K","img_art/23.jpg","0","","","","","","","","","","","","","","","","","","","","","","","","",""
"3262","","image-button-response","193","1147947","0.0-193.0-0.0","AAKBYJD64R6K","img_art/23.jpg","2","","","","","","","","","","","","","","","","","","","","","","","","",""
"null","","html-keyboard-response","194","1149451","0.0-194.0","AAKBYJD64R6K","<p style=""font-size: 48px;"">+</p>","","","","","null","allTrialResponses","1500","1","21","img_art/23.jpg","11","I liek the contrast of the colorful background with the white figures","Alexis,Adam,Edward,Ian,Isaac,Brett","It looks like a parade of musicians full of excitement. Makes me feel upbeat,33,140,20","I like the color contrast, though I'm unable to tell what the white shapes are.,25,40,20","This would make a great mural,37,60,20","It's very colorful and different, the white looks like people dancing,26,260,20","I like the royal colors.,38,280,20","Universal celebration,40,360,20","Ian","It's very colorful and different, the white looks like people dancing,26,260,20","Alexis","It looks like a parade of musicians full of excitement. Makes me feel upbeat,33,140,20","Edward","This would make a great mural,37,60,20","0"
"19694","","survey-text","195","1169164","0.0-195.0-0.0","AAKBYJD64R6K","","","","{""Q0"":""Unique, but a bit bland ""}","","","","","","","","","","","","","","","","","","","","","","",""
"3757.7999999523163","","image-slider-response","196","1172928","0.0-196.0","AAKBYJD64R6K","","","","","-7","","","","","","","","","","","","","","","","","","","","","",""
"null","","image-button-response","197","1177933","0.0-197.0","AAKBYJD64R6K","img_art/25.jpg","null","","","","","","","","","","","","","","","","","","","","","","","","",""
"3945","","image-button-response","198","1181884","0.0-198.0","AAKBYJD64R6K","img_art/25.jpg","3","","","","","","","","","","","","","","","","","","","","","","","","",""
"5045","","image-button-response","199","1186934","0.0-199.0-0.0","AAKBYJD64R6K","img_art/25.jpg","2","","","","","","","","","","","","","","","","","","","","","","","","",""
"4590","","image-button-response","200","1191531","0.0-200.0-0.0","AAKBYJD64R6K","img_art/25.jpg","4","","","","","","","","","","","","","","","","","","","","","","","","",""
"null","","html-keyboard-response","201","1192536","0.0-201.0","AAKBYJD64R6K","<p style=""font-size: 48px;"">+</p>","","","","","null","allTrialResponses","1000","1","22","img_art/25.jpg","-7","Unique, but a bit bland ","Alexis,Luis,Edward,Ian,Richard,Tristan","It looks like a person at a graveyard,18,140,20","New life, rising from your personal battles,50,400,20","It looks like people worshipping a statue,33,60,20","This looks cool but I don't really care for it. Some sort or religious figure?,16,260,20","interesting pattern and color choice, kind of unusual,2,340,20","The limited palette make this figure mysterious and interpret-able.,20,300,20","Ian","This looks cool but I don't really care for it. Some sort or religious figure?,16,260,20","Edward","It looks like people worshipping a statue,33,60,20","Richard","interesting pattern and color choice, kind of unusual,2,340,20","0"
"25630","","survey-text","202","1218190","0.0-202.0-0.0","AAKBYJD64R6K","","","","{""Q0"":""Really interesting and I love the pastel colors""}","","","","","","","","","","","","","","","","","","","","","","",""
"5081.900000095367","","image-slider-response","203","1223278","0.0-203.0","AAKBYJD64R6K","","","","","35","","","","","","","","","","","","","","","","","","","","","",""
"null","","image-button-response","204","1228285","0.0-204.0","AAKBYJD64R6K","img_art/17.jpg","null","","","","","","","","","","","","","","","","","","","","","","","","",""
"2991","","image-button-response","205","1231281","0.0-205.0","AAKBYJD64R6K","img_art/17.jpg","4","","","","","","","","","","","","","","","","","","","","","","","","",""
"1460","","image-button-response","206","1232749","0.0-206.0-0.0","AAKBYJD64R6K","img_art/17.jpg","2","","","","","","","","","","","","","","","","","","","","","","","","",""
"844","","image-button-response","207","1233601","0.0-207.0-0.0","AAKBYJD64R6K","img_art/17.jpg","1","","","","","","","","","","","","","","","","","","","","","","","","",""
"null","","html-keyboard-response","208","1234615","0.0-208.0","AAKBYJD64R6K","<p style=""font-size: 48px;"">+</p>","","","","","null","allTrialResponses","1000","1","23","img_art/17.jpg","35","Really interesting and I love the pastel colors","Jonathan,Luke,Edward,Ian,Richard,Evan","Feels nostalgic somehow,31,140,20","it looks very intricate and colorful,50,20,20","I love how soft it is,35,60,20","It seems a little dark but it is very beautiful,28,260,20","nice composition and colors, fairy land,28,340,20","This reminds me of spring,24,140,20","Richard","nice composition and colors, fairy land,28,340,20","Edward","I love how soft it is,35,60,20","Luke","it looks very intricate and colorful,50,20,20","0"
"34059","","survey-text","209","1268691","0.0-209.0-0.0","AAKBYJD64R6K","","","","{""Q0"":""i don't get the message or theme""}","","","","","","","","","","","","","","","","","","","","","","",""
"6401.5","","image-slider-response","210","1275099","0.0-210.0","AAKBYJD64R6K","","","","","-14","","","","","","","","","","","","","","","","","","","","","",""
"null","","image-button-response","211","1280108","0.0-211.0","AAKBYJD64R6K","img_art/5.jpg","null","","","","","","","","","","","","","","","","","","","","","","","","",""
"1455","","image-button-response","212","1281567","0.0-212.0","AAKBYJD64R6K","img_art/5.jpg","3","","","","","","","","","","","","","","","","","","","","","","","","",""
"1226","","image-button-response","213","1282799","0.0-213.0-0.0","AAKBYJD64R6K","img_art/5.jpg","5","","","","","","","","","","","","","","","","","","","","","","","","",""
"1230","","image-button-response","214","1284035","0.0-214.0-0.0","AAKBYJD64R6K","img_art/5.jpg","2","","","","","","","","","","","","","","","","","","","","","","","","",""
"null","","html-keyboard-response","215","1285540","0.0-215.0","AAKBYJD64R6K","<p style=""font-size: 48px;"">+</p>","","","","","null","allTrialResponses","1500","1","24","img_art/5.jpg","-14","i don't get the message or theme","Derek,Luke,Edward,David,Richard,Dalton","It's okay. Don't hate it but don't love it either,0,360,20","no clear emotion,-16,20,20","Pretty simple, I'm not sure what it's supposed to mean,14,60,20","I like the simplicity of the design, but I can't tell what the image is trying to depict.,10,340,20","looks like a 2nd grader did it,-50,340,20","its something. i just dont know what it is.,1,300,20","David","I like the simplicity of the design, but I can't tell what the image is trying to depict.,10,340,20","Dalton","its something. i just dont know what it is.,1,300,20","Edward","Pretty simple, I'm not sure what it's supposed to mean,14,60,20","0"
"22453","","survey-text","216","1308012","0.0-216.0-0.0","AAKBYJD64R6K","","","","{""Q0"":""Like the dark colors and the abstract design""}","","","","","","","","","","","","","","","","","","","","","","",""
"5521.600000023842","","image-slider-response","217","1313539","0.0-217.0","AAKBYJD64R6K","","","","","8","","","","","","","","","","","","","","","","","","","","","",""
"null","","image-button-response","218","1318545","0.0-218.0","AAKBYJD64R6K","img_art/20.jpg","null","","","","","","","","","","","","","","","","","","","","","","","","",""
"5603","","image-button-response","219","1324152","0.0-219.0","AAKBYJD64R6K","img_art/20.jpg","2","","","","","","","","","","","","","","","","","","","","","","","","",""
"4733","","image-button-response","220","1328891","0.0-220.0-0.0","AAKBYJD64R6K","img_art/20.jpg","5","","","","","","","","","","","","","","","","","","","","","","","","",""
"23670","","image-button-response","221","1352570","0.0-221.0-0.0","AAKBYJD64R6K","img_art/20.jpg","3","","","","","","","","","","","","","","","","","","","","","","","","",""
"null","","html-keyboard-response","222","1354088","0.0-222.0","AAKBYJD64R6K","<p style=""font-size: 48px;"">+</p>","","","","","null","allTrialResponses","1500","1","25","img_art/20.jpg","8","Like the dark colors and the abstract design","Bryce,Mason,Edward,David,Alexander,Dalton","Kinda freaks me out.,-40,20,20","Very cool, and calming (again) Love it.,47,100,20","I can't tell what's going on but I like the colors,12,60,20","I like how the image is depicting a scene.,10,340,20","The beach and industry.,12,120,20","make me feel like its a little country maybe a tractor and a skull head of a bull,1,300,20","Edward","I can't tell what's going on but I like the colors,12,60,20","Dalton","make me feel like its a little country maybe a tractor and a skull head of a bull,1,300,20","David","I like how the image is depicting a scene.,10,340,20","0"
"4669","","survey-text","223","1358793","0.0-223.0-0.0","AAKBYJD64R6K","","","","{""Q0"":""table""}","","","","","","","","","","","","","","","","","","","","","","",""
"17808","","survey-text","224","1376606","0.0-224.0-0.0","AAKBYJD64R6K","","","","{""Q0"":""colorful, but no meaning""}","","","","","","","","","","","","","","","","","","","","","","",""
"3542.100000023842","","image-slider-response","225","1380153","0.0-225.0","AAKBYJD64R6K","","","","","-8","","","","","","","","","","","","","","","","","","","","","",""
"null","","image-button-response","226","1385173","0.0-226.0","AAKBYJD64R6K","img_art/4.jpg","null","","","","","","","","","","","","","","","","","","","","","","","","",""
"1491","","image-button-response","227","1386669","0.0-227.0","AAKBYJD64R6K","img_art/4.jpg","0","","","","","","","","","","","","","","","","","","","","","","","","",""
"11055","","image-button-response","228","1397732","0.0-228.0-0.0","AAKBYJD64R6K","img_art/4.jpg","5","","","","","","","","","","","","","","","","","","","","","","","","",""
"3400","","image-button-response","229","1401138","0.0-229.0-0.0","AAKBYJD64R6K","img_art/4.jpg","5","","","","","","","","","","","","","","","","","","","","","","","","",""
"994","","image-button-response","230","1406718","0.0-229.1-0.1","AAKBYJD64R6K","img_art/4.jpg","2","","","","","","","","","","","","","","","","","","","","","","","","",""
"null","","html-keyboard-response","231","1407222","0.0-230.0","AAKBYJD64R6K","<p style=""font-size: 48px;"">+</p>","","","","","null","allTrialResponses","500","1","26","img_art/4.jpg","-8","colorful, but no meaning","Sean,Charles,Edward,David,Brandon,Dalton","dont know what im looking at,1,40,20","It's ok, theres nothing that draws me away from it I guess,0,100,20","It reminds me of something a kid would make for their parents,13,60,20","I like the design. It can be interpreted in various ways, such as a hand of horror or still piece.,15,340,20","Really don't like this. Kindergarten art, sorry.,-50,320,20","looks like an award from an award show.,22,300,20","Sean","dont know what im looking at,1,40,20","Dalton","looks like an award from an award show.,22,300,20","Edward","It reminds me of something a kid would make for their parents,13,60,20","2"
"18702","","survey-text","232","1425956","0.0-231.0-0.0","AAKBYJD64R6K","","","","{""Q0"":""Boring collage""}","","","","","","","","","","","","","","","","","","","","","","",""
"5299.600000023842","","image-slider-response","233","1431262","0.0-232.0","AAKBYJD64R6K","","","","","-18","","","","","","","","","","","","","","","","","","","","","",""
"null","","image-button-response","234","1436271","0.0-233.0","AAKBYJD64R6K","img_art/16.jpg","null","","","","","","","","","","","","","","","","","","","","","","","","",""
"905","","image-button-response","235","1437181","0.0-234.0","AAKBYJD64R6K","img_art/16.jpg","3","","","","","","","","","","","","","","","","","","","","","","","","",""
"4795","","image-button-response","236","1441981","0.0-235.0-0.0","AAKBYJD64R6K","img_art/16.jpg","5","","","","","","","","","","","","","","","","","","","","","","","","",""
"3987","","image-button-response","237","1445975","0.0-236.0-0.0","AAKBYJD64R6K","img_art/16.jpg","2","","","","","","","","","","","","","","","","","","","","","","","","",""
"null","","html-keyboard-response","238","1447483","0.0-237.0","AAKBYJD64R6K","<p style=""font-size: 48px;"">+</p>","","","","","null","allTrialResponses","1500","1","27","img_art/16.jpg","-18","Boring collage","Sean,Noah,Edward,James,Alex,Dalton","my reaction is that the picture is creepy,-19,40,20","feel a little creeped out,-20,260,20","It feels lazily done,-9,60,20","It is interesting to say the least,0,380,20","I'm a fan of collage and of reminiscing about childhood so this was nice,10,100,20","lol i dont know how i feel about this.,1,300,20","James","It is interesting to say the least,0,380,20","Dalton","lol i dont know how i feel about this.,1,300,20","Edward","It feels lazily done,-9,60,20","2"
"34807","","survey-text","239","1482312","0.0-238.0-0.0","AAKBYJD64R6K","","","","{""Q0"":""Can't put my finger on it, but it appeals to me""}","","","","","","","","","","","","","","","","","","","","","","",""
"4575.699999928474","","image-slider-response","240","1486894","0.0-239.0","AAKBYJD64R6K","","","","","15","","","","","","","","","","","","","","","","","","","","","",""
"null","","image-button-response","241","1491912","0.0-240.0","AAKBYJD64R6K","img_art/12.jpg","null","","","","","","","","","","","","","","","","","","","","","","","","",""
"2739","","image-button-response","242","1494656","0.0-241.0","AAKBYJD64R6K","img_art/12.jpg","5","","","","","","","","","","","","","","","","","","","","","","","","",""
"6910","","image-button-response","243","1501573","0.0-242.0-0.0","AAKBYJD64R6K","img_art/12.jpg","2","","","","","","","","","","","","","","","","","","","","","","","","",""
"5003","","image-button-response","244","1506584","0.0-243.0-0.0","AAKBYJD64R6K","img_art/12.jpg","4","","","","","","","","","","","","","","","","","","","","","","","","",""
"null","","html-keyboard-response","245","1507594","0.0-244.0","AAKBYJD64R6K","<p style=""font-size: 48px;"">+</p>","","","","","null","allTrialResponses","1000","1","28","img_art/12.jpg","15","Can't put my finger on it, but it appeals to me","Corey,Jesse,Edward,James,Joshua,Dalton","I like the bottom half and hate the top half,7,260,20","Just confuses me overall,-11,80,20","It looks like old lady upholstery,12,60,20","Don't like it or despise it,1,380,20","I don't get this one. Doesn't evoke an emotional response.,-10,240,20","beautiful also reminds me of a quilt,1,300,20","Dalton","beautiful also reminds me of a quilt,1,300,20","Edward","It looks like old lady upholstery,12,60,20","Joshua","I don't get this one. Doesn't evoke an emotional response.,-10,240,20","2"
"12841","","survey-text","246","1520454","0.0-245.0-0.0","AAKBYJD64R6K","","","","{""Q0"":""Just looks like a blend of colors""}","","","","","","","","","","","","","","","","","","","","","","",""
"3631.100000023842","","image-slider-response","247","1524090","0.0-246.0","AAKBYJD64R6K","","","","","-10","","","","","","","","","","","","","","","","","","","","","",""
"null","","image-button-response","248","1529106","0.0-247.0","AAKBYJD64R6K","img_art/1.jpg","null","","","","","","","","","","","","","","","","","","","","","","","","",""
"4472","","image-button-response","249","1533582","0.0-248.0","AAKBYJD64R6K","img_art/1.jpg","1","","","","","","","","","","","","","","","","","","","","","","","","",""
"1737","","image-button-response","250","1535325","0.0-249.0-0.0","AAKBYJD64R6K","img_art/1.jpg","0","","","","","","","","","","","","","","","","","","","","","","","","",""
"7009","","image-button-response","251","1542341","0.0-250.0-0.0","AAKBYJD64R6K","img_art/1.jpg","4","","","","","","","","","","","","","","","","","","","","","","","","",""
"null","","html-keyboard-response","252","1542844","0.0-251.0","AAKBYJD64R6K","<p style=""font-size: 48px;"">+</p>","","","","","null","allTrialResponses","500","1","29","img_art/1.jpg","-10","Just looks like a blend of colors","Gabriel,Steven,Edward,Robert,Joshua,Dalton","this ones alright,10,160,20","It's fine, but its like something you'd see in the restroom of a cheap restaurant,10,160,20","That one piece in the middle gives it depth and it's really neat,21,60,20","Pretty colors. Fall day in the East Coast of USA.,42,360,20","Reminds me of fall.,7,240,20","the colors are vibrant and beautiful,1,300,20","Steven","It's fine, but its like something you'd see in the restroom of a cheap restaurant,10,160,20","Gabriel","this ones alright,10,160,20","Joshua","Reminds me of fall.,7,240,20","2"
"16649","","survey-text","253","1559520","0.0-252.0-0.0","AAKBYJD64R6K","","","","{""Q0"":""Abstract picture of a bird???""}","","","","","","","","","","","","","","","","","","","","","","",""
"6077.600000023842","","image-slider-response","254","1565603","0.0-253.0","AAKBYJD64R6K","","","","","-13","","","","","","","","","","","","","","","","","","","","","",""
"null","","image-button-response","255","1570612","0.0-254.0","AAKBYJD64R6K","img_art/6.jpg","null","","","","","","","","","","","","","","","","","","","","","","","","",""
"1272","","image-button-response","256","1571889","0.0-255.0","AAKBYJD64R6K","img_art/6.jpg","2","","","","","","","","","","","","","","","","","","","","","","","","",""
"1264","","image-button-response","257","1573162","0.0-256.0-0.0","AAKBYJD64R6K","img_art/6.jpg","5","","","","","","","","","","","","","","","","","","","","","","","","",""
"1234","","image-button-response","258","1574402","0.0-257.0-0.0","AAKBYJD64R6K","img_art/6.jpg","4","","","","","","","","","","","","","","","","","","","","","","","","",""
"null","","html-keyboard-response","259","1575918","0.0-258.0","AAKBYJD64R6K","<p style=""font-size: 48px;"">+</p>","","","","","null","allTrialResponses","1500","1","30","img_art/6.jpg","-13","Abstract picture of a bird???","Gabriel,Steven,Patrick,Bryan,Joshua,Aaron","its like a jalapeno,-28,160,20","This is interesting, I feel solitude, and loneliness from this.,13,160,20","It looks sad and scary at the same time,11,280,20","Growth in the desert?  Don't care for it very much.,-26,400,20","Looks like a bird. It's fine.,7,240,20","It reminds me of a simplistic bird. I like the colors used.,40,20,20","Patrick","It looks sad and scary at the same time,11,280,20","Aaron","It reminds me of a simplistic bird. I like the colors used.,40,20,20","Joshua","Looks like a bird. It's fine.,7,240,20","2"
"7448","","image-button-response_instructions","260","1583395","0.0-259.0","AAKBYJD64R6K","","0","instructions","","","","","","","","","","","","","","","","","","","","","","","",""
"2093","","image-button-response","261","1585515","0.0-260.0","AAKBYJD64R6K","","0","","","","","","","","","","","","","","","","","","","","","","","","",""
