"rt","url","trial_type","trial_index","time_elapsed","internal_node_id","participant_id","stimulus","button_pressed","Name","responses","response","key_press","variableName","fixationTime","condition","trial","photo","subjectRating","subjectResponse","agentsNames","agent_1_Response","agent_2_Response","agent_3_Response","agent_4_Response","agent_5_Response","agent_6_Response","kept_1_name","kept_1_response","kept_2_name","kept_2_response","kept_3_name","kept_3_response","errorCounter"
"22599","external_page_harvard.html","external-html","0","22859","0.0-0.0","AAZAJDRFBDUSW","","","","","","","","","","","","","","","","","","","","","","","","","","",""
"1615","","image-button-response","1","24478","0.0-1.0","AAZAJDRFBDUSW","","1","","","","","","","","","","","","","","","","","","","","","","","","",""
"1690","","image-button-response","2","26174","0.0-2.0-0.0","AAZAJDRFBDUSW","","1","phone","","","","","","","","","","","","","","","","","","","","","","","",""
"6806","","survey-text","3","32982","0.0-3.0-0.0","AAZAJDRFBDUSW","","","","{""Q0"":""AAZAJDRFBDUSW""}","","","","","","","","","","","","","","","","","","","","","","",""
"2636","","image-button-response_instructions","4","35619","0.0-4.0","AAZAJDRFBDUSW","","0","instructions","","","","","","","","","","","","","","","","","","","","","","","",""
"16361","","image-button-response_instructions","5","51982","0.0-5.0","AAZAJDRFBDUSW","img_art/ins/popularity/ins1.png","0","instructions","","","","","","","","","","","","","","","","","","","","","","","",""
"6397","","image-button-response_instructions","6","58380","0.0-6.0","AAZAJDRFBDUSW","img_art/ins/popularity/ins2.png","0","instructions","","","","","","","","","","","","","","","","","","","","","","","",""
"4659","","image-button-response_instructions","7","63039","0.0-7.0","AAZAJDRFBDUSW","img_art/ins/popularity/ins2Extreme.png","0","instructions","","","","","","","","","","","","","","","","","","","","","","","",""
"15973","","image-button-response_instructions","8","79013","0.0-8.0","AAZAJDRFBDUSW","img_art/ins/popularity/ins3KEEPpop.PNG","0","instructions","","","","","","","","","","","","","","","","","","","","","","","",""
"2873","","image-button-response_instructions","9","81887","0.0-9.0","AAZAJDRFBDUSW","img_art/ins/popularity/ins3ANamepop.PNG","0","instructions","","","","","","","","","","","","","","","","","","","","","","","",""
"2219","","image-button-response_instructions","10","84107","0.0-10.0","AAZAJDRFBDUSW","img_art/ins/popularity/ins3ARatingpop.png","0","instructions","","","","","","","","","","","","","","","","","","","","","","","",""
"1897","","image-button-response_instructions","11","86006","0.0-11.0","AAZAJDRFBDUSW","img_art/ins/popularity/ins3ATextpop.png","0","instructions","","","","","","","","","","","","","","","","","","","","","","","",""
"4996","","image-button-response_instructions","12","91004","0.0-12.0","AAZAJDRFBDUSW","img_art/ins/popularity/ins3ALikespop.png","0","instructions","","","","","","","","","","","","","","","","","","","","","","","",""
"17029","","image-button-response_instructions","13","108035","0.0-13.0","AAZAJDRFBDUSW","img_art/ins/popularity/ins3KEEPpop.PNG","0","instructions","","","","","","","","","","","","","","","","","","","","","","","",""
"8023","","image-button-response_instructions","14","116060","0.0-14.0","AAZAJDRFBDUSW","img_art/ins/popularity/ins3_5RED.png","0","instructions","","","","","","","","","","","","","","","","","","","","","","","",""
"3219","","image-button-response_instructions","15","119281","0.0-15.0","AAZAJDRFBDUSW","img_art/ins/popularity/ins3KEEPpop.PNG","0","instructions","","","","","","","","","","","","","","","","","","","","","","","",""
"7919","","image-button-response_instructions","16","127201","0.0-16.0","AAZAJDRFBDUSW","img_art/ins/popularity/ins4KEEPpop.PNG","0","instructions","","","","","","","","","","","","","","","","","","","","","","","",""
"4617","","image-button-response_instructions","17","131819","0.0-17.0","AAZAJDRFBDUSW","img_art/ins/popularity/ins5KEEPpop.PNG","0","instructions","","","","","","","","","","","","","","","","","","","","","","","",""
"1567","","image-button-response_instructions","18","133386","0.0-18.0","AAZAJDRFBDUSW","","0","instructions","","","","","","","","","","","","","","","","","","","","","","","",""
"5238","","survey-text","19","138652","0.0-19.0-0.0","AAZAJDRFBDUSW","","","","{""Q0"":""but""}","","","","","","","","","","","","","","","","","","","","","","",""
"15860","","survey-text","20","154514","0.0-20.0-0.0","AAZAJDRFBDUSW","","","","{""Q0"":""Was this painted by the rhinos at the zoo?""}","","","","","","","","","","","","","","","","","","","","","","",""
"3840","","image-slider-response","21","158357","0.0-21.0","AAZAJDRFBDUSW","","","","","-41","","","","","","","","","","","","","","","","","","","","","",""
"null","","image-button-response","22","163374","0.0-22.0","AAZAJDRFBDUSW","img_art/ins/1.jpg","null","","","","","","","","","","","","","","","","","","","","","","","","",""
"13323","","image-button-response","23","176699","0.0-23.0","AAZAJDRFBDUSW","img_art/ins/1.jpg","3","","","","","","","","","","","","","","","","","","","","","","","","",""
"1746","","image-button-response","24","178447","0.0-24.0-0.0","AAZAJDRFBDUSW","img_art/ins/1.jpg","2","","","","","","","","","","","","","","","","","","","","","","","","",""
"9130","","image-button-response","25","187579","0.0-25.0-0.0","AAZAJDRFBDUSW","img_art/ins/1.jpg","1","","","","","","","","","","","","","","","","","","","","","","","","",""
"null","","html-keyboard-response","26","188586","0.0-26.0","AAZAJDRFBDUSW","<p style=""font-size: 48px;"">+</p>","","","","","null","allTrialResponses","1000","1","-2","img_art/ins/1.jpg","-41","Was this painted by the rhinos at the zoo?","Allison,Ashley,Beth,Dora,Erika,Jen","looks like a lot of things going on in the mist,20,20,20","I just don't get why these type of art would be popular,-32,40,20","This color reminds me of poo,-46,60,20","looks like what my niece in 3rd grade did this afternoon,-50,80,20","I like the sophisticated brushwork,40,100,20","It reminds me of a candy land dream I had,36,120,20","Dora","looks like what my niece in 3rd grade did this afternoon,-50,80,20","Beth","This color reminds me of poo,-46,60,20","Ashley","I just don't get why these type of art would be popular,-32,40,20","0"
"24956","","survey-text","27","213555","0.0-27.0-0.0","AAZAJDRFBDUSW","","","","{""Q0"":""Paint over a rough wall patch?""}","","","","","","","","","","","","","","","","","","","","","","",""
"3208.100000023842","","image-slider-response","28","216765","0.0-28.0","AAZAJDRFBDUSW","","","","","-42","","","","","","","","","","","","","","","","","","","","","",""
"null","","image-button-response","29","221783","0.0-29.0","AAZAJDRFBDUSW","img_art/ins/2.jpg","null","","","","","","","","","","","","","","","","","","","","","","","","",""
"3301","","image-button-response","30","225086","0.0-30.0","AAZAJDRFBDUSW","img_art/ins/2.jpg","3","","","","","","","","","","","","","","","","","","","","","","","","",""
"2500","","image-button-response","31","227587","0.0-31.0-0.0","AAZAJDRFBDUSW","img_art/ins/2.jpg","1","","","","","","","","","","","","","","","","","","","","","","","","",""
"692","","image-button-response","32","228281","0.0-32.0-0.0","AAZAJDRFBDUSW","img_art/ins/2.jpg","2","","","","","","","","","","","","","","","","","","","","","","","","",""
"null","","html-keyboard-response","33","229786","0.0-33.0","AAZAJDRFBDUSW","<p style=""font-size: 48px;"">+</p>","","","","","null","allTrialResponses","1500","1","-1","img_art/ins/2.jpg","-42","Paint over a rough wall patch?","Jenna,Ashley,Beth,Dora,Kara,Katie","One of my pet peevs,-48,140,20","Idk, it is just annoying,-32,40,20","meaningless painting,-45,60,20","looks too angry,-50,80,20","I like the blocks of color arrangements,30,160,20","too much color!,-28,180,20","Dora","looks too angry,-50,80,20","Ashley","Idk, it is just annoying,-32,40,20","Beth","meaningless painting,-45,60,20","0"
"26634","","survey-text","34","256427","0.0-34.0-0.0","AAZAJDRFBDUSW","","","","{""Q0"":""Too abstract for my taste""}","","","","","","","","","","","","","","","","","","","","","","",""
"3985.7000000476837","","image-slider-response","35","260414","0.0-35.0","AAZAJDRFBDUSW","","","","","-11","","","","","","","","","","","","","","","","","","","","","",""
"null","","image-button-response","36","265423","0.0-36.0","AAZAJDRFBDUSW","img_art/ins/3.jpg","null","","","","","","","","","","","","","","","","","","","","","","","","",""
"7922","","image-button-response","37","273346","0.0-37.0","AAZAJDRFBDUSW","img_art/ins/3.jpg","4","","","","","","","","","","","","","","","","","","","","","","","","",""
"11936","","image-button-response","38","285284","0.0-38.0-0.0","AAZAJDRFBDUSW","img_art/ins/3.jpg","1","","","","","","","","","","","","","","","","","","","","","","","","",""
"4357","","image-button-response","39","289644","0.0-39.0-0.0","AAZAJDRFBDUSW","img_art/ins/3.jpg","0","","","","","","","","","","","","","","","","","","","","","","","","",""
"null","","html-keyboard-response","40","291147","0.0-40.0","AAZAJDRFBDUSW","<p style=""font-size: 48px;"">+</p>","","","","","null","allTrialResponses","1500","1","0","img_art/ins/3.jpg","-11","Too abstract for my taste","Leslie,Ashley,Beth,Dora,Mary,Rose","It's an alright work,15,200,20","It looks like a playground for bats,-36,40,20","This thing gives me anxiety,-41,60,20","My worst nightmare,-42,80,20","I like the overlapping of brushes,41,220,20","My daily routine, it's depressing,-20,240,20","Mary","I like the overlapping of brushes,41,220,20","Ashley","It looks like a playground for bats,-36,40,20","Leslie","It's an alright work,15,200,20","0"
"3700","","image-button-response_instructions","41","294852","0.0-41.0","AAZAJDRFBDUSW","","0","instructions","","","","","","","","","","","","","","","","","","","","","","","",""
"8573","","survey-likert","42","303427","0.0-42.0-0.0","AAZAJDRFBDUSW","","","","{""Q0"":"""",""Q1"":0,""Q2"":1}","","","","","","","","","","","","","","","","","","","","","","",""
"3947","","survey-text","43","307378","0.0-43.0-0.0","AAZAJDRFBDUSW","","","","{""Q0"":""rock""}","","","","","","","","","","","","","","","","","","","","","","",""
"34001","","survey-text","44","341381","0.0-44.0-0.0","AAZAJDRFBDUSW","","","","{""Q0"":""Monsters under the bed? ""}","","","","","","","","","","","","","","","","","","","","","","",""
"5316","","image-slider-response","45","346698","0.0-45.0","AAZAJDRFBDUSW","","","","","-47","","","","","","","","","","","","","","","","","","","","","",""
"null","","image-button-response","46","351736","0.0-46.0","AAZAJDRFBDUSW","img_art/9.jpg","null","","","","","","","","","","","","","","","","","","","","","","","","",""
"6193","","image-button-response","47","357932","0.0-47.0","AAZAJDRFBDUSW","img_art/9.jpg","2","","","","","","","","","","","","","","","","","","","","","","","","",""
"2732","","image-button-response","48","360667","0.0-48.0-0.0","AAZAJDRFBDUSW","img_art/9.jpg","1","","","","","","","","","","","","","","","","","","","","","","","","",""
"6282","","image-button-response","49","366951","0.0-49.0-0.0","AAZAJDRFBDUSW","img_art/9.jpg","0","","","","","","","","","","","","","","","","","","","","","","","","",""
"null","","html-keyboard-response","50","368456","0.0-50.0","AAZAJDRFBDUSW","<p style=""font-size: 48px;"">+</p>","","","","","null","allTrialResponses","1500","1","1","img_art/9.jpg","-47","Monsters under the bed? ","Paige,Marissa,Danielle,Tiffany,Mikayla,Alicia","I feel this incites anger,-16,60,20","It makes me think of Snow White sleeping,11,160,20","Looks like a child's drawing,-40,340,20","The piece of art makes me happy, it reminds me of a lively carnival.,15,360,20","Looks like a crayon drawing.,21,300,20","Abstract titanic scene. It's nice though. I like how it makes me feel.,28,120,20","Danielle","Looks like a child's drawing,-40,340,20","Marissa","It makes me think of Snow White sleeping,11,160,20","Paige","I feel this incites anger,-16,60,20","0"
"54478","","survey-text","51","422940","0.0-51.0-0.0","AAZAJDRFBDUSW","","","","{""Q0"":""Wrecked truck in the desert. How sad!""}","","","","","","","","","","","","","","","","","","","","","","",""
"9570.600000023842","","image-slider-response","52","432512","0.0-52.0","AAZAJDRFBDUSW","","","","","-7","","","","","","","","","","","","","","","","","","","","","",""
"null","","image-button-response","53","437526","0.0-53.0","AAZAJDRFBDUSW","img_art/20.jpg","null","","","","","","","","","","","","","","","","","","","","","","","","",""
"11126","","image-button-response","54","448654","0.0-54.0","AAZAJDRFBDUSW","img_art/20.jpg","2","","","","","","","","","","","","","","","","","","","","","","","","",""
"4752","","image-button-response","55","453409","0.0-55.0-0.0","AAZAJDRFBDUSW","img_art/20.jpg","5","","","","","","","","","","","","","","","","","","","","","","","","",""
"9792","","image-button-response","56","463203","0.0-56.0-0.0","AAZAJDRFBDUSW","img_art/20.jpg","1","","","","","","","","","","","","","","","","","","","","","","","","",""
"null","","html-keyboard-response","57","463706","0.0-57.0","AAZAJDRFBDUSW","<p style=""font-size: 48px;"">+</p>","","","","","null","allTrialResponses","500","1","2","img_art/20.jpg","-7","Wrecked truck in the desert. How sad!","Paige,Marissa,Danielle,Madison,Leslie,Diana","scared. makes me feel alone or abandoned,-11,60,20","I feel intrigued and impressed,34,160,20","Don't really like the subject it focuses on, however the color usage is great,-10,340,20","This is not abstract art, it is representative.,0,60,20","This elicits no reaction in me.,0,380,20","I'm not sure why this reminds me of surrealism. It might be the colors used.,16,380,20","Danielle","Don't really like the subject it focuses on, however the color usage is great,-10,340,20","Diana","I'm not sure why this reminds me of surrealism. It might be the colors used.,16,380,20","Marissa","I feel intrigued and impressed,34,160,20","0"
"61709","","survey-text","58","525429","0.0-58.0-0.0","AAZAJDRFBDUSW","","","","{""Q0"":""Creepy! Not for my home.""}","","","","","","","","","","","","","","","","","","","","","","",""
"3925.5","","image-slider-response","59","529356","0.0-59.0","AAZAJDRFBDUSW","","","","","-34","","","","","","","","","","","","","","","","","","","","","",""
"4192","","image-button-response","60","534360","0.0-60.0","AAZAJDRFBDUSW","img_art/16.jpg","0","","","","","","","","","","","","","","","","","","","","","","","","",""
"775","","image-button-response","61","535138","0.0-61.0","AAZAJDRFBDUSW","img_art/16.jpg","0","","","","","","","","","","","","","","","","","","","","","","","","",""
"8093","","image-button-response","62","543232","0.0-62.0-0.0","AAZAJDRFBDUSW","img_art/16.jpg","1","","","","","","","","","","","","","","","","","","","","","","","","",""
"1142","","image-button-response","63","544376","0.0-63.0-0.0","AAZAJDRFBDUSW","img_art/16.jpg","5","","","","","","","","","","","","","","","","","","","","","","","","",""
"null","","html-keyboard-response","64","545380","0.0-64.0","AAZAJDRFBDUSW","<p style=""font-size: 48px;"">+</p>","","","","","null","allTrialResponses","1000","1","3","img_art/16.jpg","-34","Creepy! Not for my home.","Victoria,Marissa,Danielle,Jenna,Leah,Diana","liked the bear, nothing else made sense,10,400,20","I do not like this dark and twisted portrayal of childhood,-42,160,20","I enjoy how slightly strange this is, while seeming to still have some message,20,340,20","very bizarre and confusing, but that feels purposeful, so i don't completely hate it.,-25,360,20","Know it is a piece relating to children and gun violence. Sad,-30,360,20","This one isn't for me. It came off as strange but not in a good way.,-44,380,20","Victoria","liked the bear, nothing else made sense,10,400,20","Marissa","I do not like this dark and twisted portrayal of childhood,-42,160,20","Diana","This one isn't for me. It came off as strange but not in a good way.,-44,380,20","0"
"39151","","survey-text","65","584534","0.0-65.0-0.0","AAZAJDRFBDUSW","","","","{""Q0"":""I don't know what I'm looking at.""}","","","","","","","","","","","","","","","","","","","","","","",""
"5306.700000047684","","image-slider-response","66","589843","0.0-66.0","AAZAJDRFBDUSW","","","","","-37","","","","","","","","","","","","","","","","","","","","","",""
"2082","","image-button-response","67","594853","0.0-67.0","AAZAJDRFBDUSW","img_art/28.jpg","0","","","","","","","","","","","","","","","","","","","","","","","","",""
"4757","","image-button-response","68","599613","0.0-68.0","AAZAJDRFBDUSW","img_art/28.jpg","4","","","","","","","","","","","","","","","","","","","","","","","","",""
"12376","","image-button-response","69","611992","0.0-69.0-0.0","AAZAJDRFBDUSW","img_art/28.jpg","0","","","","","","","","","","","","","","","","","","","","","","","","",""
"1582","","image-button-response","70","613576","0.0-70.0-0.0","AAZAJDRFBDUSW","img_art/28.jpg","4","","","","","","","","","","","","","","","","","","","","","","","","",""
"13556","","image-button-response","71","631767","0.0-70.1-0.1","AAZAJDRFBDUSW","img_art/28.jpg","1","","","","","","","","","","","","","","","","","","","","","","","","",""
"null","","html-keyboard-response","72","632272","0.0-71.0","AAZAJDRFBDUSW","<p style=""font-size: 48px;"">+</p>","","","","","null","allTrialResponses","500","1","4","img_art/28.jpg","-37","I don't know what I'm looking at.","Victoria,Marissa,Stephanie,Lindsey,Erin,Diana","drab and dreary,-21,400,20","It feels very blah,-10,160,20","The colors are neutral but I see a mother helping her child,31,300,20","Not a fan of the drab colors but it looks a little bit interesting.,-7,400,20","Dislike color palette and amoeba,-9,120,20","I think this piece is interesting. I love the faces drawn into it.,29,380,20","Erin","Dislike color palette and amoeba,-9,120,20","Victoria","drab and dreary,-21,400,20","Marissa","It feels very blah,-10,160,20","2"
"37046","","survey-text","73","669328","0.0-72.0-0.0","AAZAJDRFBDUSW","","","","{""Q0"":""Beautiful lines for the trees, interesting colors""}","","","","","","","","","","","","","","","","","","","","","","",""
"3322.1999999284744","","image-slider-response","74","672652","0.0-73.0","AAZAJDRFBDUSW","","","","","3","","","","","","","","","","","","","","","","","","","","","",""
"null","","image-button-response","75","677668","0.0-74.0","AAZAJDRFBDUSW","img_art/17.jpg","null","","","","","","","","","","","","","","","","","","","","","","","","",""
"10829","","image-button-response","76","688498","0.0-75.0","AAZAJDRFBDUSW","img_art/17.jpg","1","","","","","","","","","","","","","","","","","","","","","","","","",""
"1428","","image-button-response","77","689929","0.0-76.0-0.0","AAZAJDRFBDUSW","img_art/17.jpg","0","","","","","","","","","","","","","","","","","","","","","","","","",""
"4673","","image-button-response","78","694604","0.0-77.0-0.0","AAZAJDRFBDUSW","img_art/17.jpg","3","","","","","","","","","","","","","","","","","","","","","","","","",""
"null","","html-keyboard-response","79","695606","0.0-78.0","AAZAJDRFBDUSW","<p style=""font-size: 48px;"">+</p>","","","","","null","allTrialResponses","1000","1","5","img_art/17.jpg","3","Beautiful lines for the trees, interesting colors","Victoria,Marissa,Vanessa,Amanda,Erin,Anna","love the wispyness of it,34,400,20","This reminds me of spring,24,160,20","I want to know more about this picture and where it leads if you could get inside it.,27,380,20","Feels supernatural and scary,-16,180,20","Windows indoor tree, weird palette,-11,120,20","it brings a clear picture to my minds eye:,45,300,20","Marissa","This reminds me of spring,24,160,20","Victoria","love the wispyness of it,34,400,20","Amanda","Feels supernatural and scary,-16,180,20","2"
"3779","","survey-text","80","699394","0.0-79.0-0.0","AAZAJDRFBDUSW","","","","{""Q0"":""sky""}","","","","","","","","","","","","","","","","","","","","","","",""
"46295","","survey-text","81","745692","0.0-80.0-0.0","AAZAJDRFBDUSW","","","","{""Q0"":""Stormy coastline ""}","","","","","","","","","","","","","","","","","","","","","","",""
"3070.2000000476837","","image-slider-response","82","748764","0.0-81.0","AAZAJDRFBDUSW","","","","","-6","","","","","","","","","","","","","","","","","","","","","",""
"null","","image-button-response","83","753767","0.0-82.0","AAZAJDRFBDUSW","img_art/21.jpg","null","","","","","","","","","","","","","","","","","","","","","","","","",""
"280","","image-button-response","84","754051","0.0-83.0","AAZAJDRFBDUSW","img_art/21.jpg","4","","","","","","","","","","","","","","","","","","","","","","","","",""
"10868","","image-button-response","85","764921","0.0-84.0-0.0","AAZAJDRFBDUSW","img_art/21.jpg","5","","","","","","","","","","","","","","","","","","","","","","","","",""
"1346","","image-button-response","86","766269","0.0-85.0-0.0","AAZAJDRFBDUSW","img_art/21.jpg","2","","","","","","","","","","","","","","","","","","","","","","","","",""
"null","","html-keyboard-response","87","767778","0.0-86.0","AAZAJDRFBDUSW","<p style=""font-size: 48px;"">+</p>","","","","","null","allTrialResponses","1500","1","6","img_art/21.jpg","-6","Stormy coastline ","Victoria,Marissa,Jacqueline,Amanda,Andrea,Kelsey","like the colors,30,400,20","I feel confused,-18,160,20","Kind of looks like a sky with a storm or tornado.,10,300,20","Very calming and nice to look at,30,180,20","It feels like a day at sea but the pink is slightly jarring and holding my eye.,26,240,20","i like watercolor,22,240,20","Andrea","It feels like a day at sea but the pink is slightly jarring and holding my eye.,26,240,20","Kelsey","i like watercolor,22,240,20","Jacqueline","Kind of looks like a sky with a storm or tornado.,10,300,20","2"
"32593","","survey-text","88","800378","0.0-87.0-0.0","AAZAJDRFBDUSW","","","","{""Q0"":""Grim cigarette butts and ash spots.""}","","","","","","","","","","","","","","","","","","","","","","",""
"2496.2000000476837","","image-slider-response","89","802875","0.0-88.0","AAZAJDRFBDUSW","","","","","-19","","","","","","","","","","","","","","","","","","","","","",""
"4657","","image-button-response","90","807878","0.0-89.0","AAZAJDRFBDUSW","img_art/15.jpg","3","","","","","","","","","","","","","","","","","","","","","","","","",""
"674","","image-button-response","91","808554","0.0-90.0","AAZAJDRFBDUSW","img_art/15.jpg","3","","","","","","","","","","","","","","","","","","","","","","","","",""
"13164","","image-button-response","92","821720","0.0-91.0-0.0","AAZAJDRFBDUSW","img_art/15.jpg","5","","","","","","","","","","","","","","","","","","","","","","","","",""
"3021","","image-button-response","93","824744","0.0-92.0-0.0","AAZAJDRFBDUSW","img_art/15.jpg","1","","","","","","","","","","","","","","","","","","","","","","","","",""
"null","","html-keyboard-response","94","826249","0.0-93.0","AAZAJDRFBDUSW","<p style=""font-size: 48px;"">+</p>","","","","","null","allTrialResponses","1500","1","7","img_art/15.jpg","-19","Grim cigarette butts and ash spots.","Margaret,Amy,Jacqueline,Courtney,Andrea,Kelsey","i like the pop of blue within all the black,8,100,20","basic colors and pleasing shapes providing a calming effect,15,220,20","I don't like how the black dots are aligned.,-20,300,20","Weird fuzzball bush.,22,280,20","Chameleons on reeds. Nice but doesn't really make me feel anything.,11,240,20","i kinda like this one but wouldnt buy it for myself,17,240,20","Courtney","Weird fuzzball bush.,22,280,20","Kelsey","i kinda like this one but wouldnt buy it for myself,17,240,20","Amy","basic colors and pleasing shapes providing a calming effect,15,220,20","2"
"25827","","survey-text","95","852080","0.0-94.0-0.0","AAZAJDRFBDUSW","","","","{""Q0"":""Burning bush""}","","","","","","","","","","","","","","","","","","","","","","",""
"2850.1999999284744","","image-slider-response","96","854931","0.0-95.0","AAZAJDRFBDUSW","","","","","-17","","","","","","","","","","","","","","","","","","","","","",""
"null","","image-button-response","97","859934","0.0-96.0","AAZAJDRFBDUSW","img_art/14.jpg","null","","","","","","","","","","","","","","","","","","","","","","","","",""
"2183","","image-button-response","98","862121","0.0-97.0","AAZAJDRFBDUSW","img_art/14.jpg","4","","","","","","","","","","","","","","","","","","","","","","","","",""
"10006","","image-button-response","99","872130","0.0-98.0-0.0","AAZAJDRFBDUSW","img_art/14.jpg","3","","","","","","","","","","","","","","","","","","","","","","","","",""
"3767","","image-button-response","100","875900","0.0-99.0-0.0","AAZAJDRFBDUSW","img_art/14.jpg","2","","","","","","","","","","","","","","","","","","","","","","","","",""
"null","","html-keyboard-response","101","876413","0.0-100.0","AAZAJDRFBDUSW","<p style=""font-size: 48px;"">+</p>","","","","","null","allTrialResponses","500","1","8","img_art/14.jpg","-17","Burning bush","Sara,Amy,Alexis,Courtney,Shelby,Kelsey","It uplifts my mood due to the color scheme,32,160,20","In others I might say the colors are garish. Here it works perfectly. The balance is wondrous and unlimiting.,25,220,20","Don't like the colors on this. Too simple,-20,100,20","The pirates ship is sinking.,27,280,20","Something about the cahotic imagery makes me uncomfortable,-15,240,20","i like this one!,23,240,20","Shelby","Something about the cahotic imagery makes me uncomfortable,-15,240,20","Courtney","The pirates ship is sinking.,27,280,20","Alexis","Don't like the colors on this. Too simple,-20,100,20","2"
"26518","","survey-text","102","902935","0.0-101.0-0.0","AAZAJDRFBDUSW","","","","{""Q0"":""Contrasting colors evoke nighttime on the cliffs""}","","","","","","","","","","","","","","","","","","","","","","",""
"3470.6999999284744","","image-slider-response","103","906408","0.0-102.0","AAZAJDRFBDUSW","","","","","5","","","","","","","","","","","","","","","","","","","","","",""
"null","","image-button-response","104","911416","0.0-103.0","AAZAJDRFBDUSW","img_art/30.jpg","null","","","","","","","","","","","","","","","","","","","","","","","","",""
"3571","","image-button-response","105","914990","0.0-104.0","AAZAJDRFBDUSW","img_art/30.jpg","4","","","","","","","","","","","","","","","","","","","","","","","","",""
"1254","","image-button-response","106","916246","0.0-105.0-0.0","AAZAJDRFBDUSW","img_art/30.jpg","2","","","","","","","","","","","","","","","","","","","","","","","","",""
"1562","","image-button-response","107","917810","0.0-106.0-0.0","AAZAJDRFBDUSW","img_art/30.jpg","1","","","","","","","","","","","","","","","","","","","","","","","","",""
"null","","html-keyboard-response","108","919321","0.0-107.0","AAZAJDRFBDUSW","<p style=""font-size: 48px;"">+</p>","","","","","null","allTrialResponses","1500","1","9","img_art/30.jpg","5","Contrasting colors evoke nighttime on the cliffs","Mary,Kathryn,Alexis,Courtney,Shelby,Cheyenne","I hate this piece. It looks like a child created it. The colors are awful.,-46,180,20","It's like a child's art piece: carefree and not trying to conform to anything.,10,140,20","Too abstract, looks like something I could paint,-50,100,20","Some people dancing.,-7,280,20","It's pleasent but otherwise unprovoking,8,240,20","A bit too dark for my liking,-10,200,20","Shelby","It's pleasent but otherwise unprovoking,8,240,20","Alexis","Too abstract, looks like something I could paint,-50,100,20","Kathryn","It's like a child's art piece: carefree and not trying to conform to anything.,10,140,20","2"
"39229","","survey-text","109","958555","0.0-108.0-0.0","AAZAJDRFBDUSW","","","","{""Q0"":""Striking skyline of a busy city, interesting""}","","","","","","","","","","","","","","","","","","","","","","",""
"2956.5","","image-slider-response","110","961514","0.0-109.0","AAZAJDRFBDUSW","","","","","16","","","","","","","","","","","","","","","","","","","","","",""
"null","","image-button-response","111","966528","0.0-110.0","AAZAJDRFBDUSW","img_art/11.jpg","null","","","","","","","","","","","","","","","","","","","","","","","","",""
"5775","","image-button-response","112","972306","0.0-111.0","AAZAJDRFBDUSW","img_art/11.jpg","0","","","","","","","","","","","","","","","","","","","","","","","","",""
"2904","","image-button-response","113","975212","0.0-112.0-0.0","AAZAJDRFBDUSW","img_art/11.jpg","4","","","","","","","","","","","","","","","","","","","","","","","","",""
"745","","image-button-response","114","975960","0.0-113.0-0.0","AAZAJDRFBDUSW","img_art/11.jpg","3","","","","","","","","","","","","","","","","","","","","","","","","",""
"null","","html-keyboard-response","115","976461","0.0-114.0","AAZAJDRFBDUSW","<p style=""font-size: 48px;"">+</p>","","","","","null","allTrialResponses","500","1","10","img_art/11.jpg","16","Striking skyline of a busy city, interesting","Mariah,Kathryn,Alexis,Olivia,Shelby,Katherine","The colors are lovely. February getting ready to yield to March.,41,140,20","This is disorienting, like motion sickness.,-20,140,20","Don't like cityscapes, which this picture reminds me of,-29,100,20","business of traffic,10,40,20","The movement in this one is extremely pleasent,40,240,20","Makes me feel like my vision is breaking,19,120,20","Mariah","The colors are lovely. February getting ready to yield to March.,41,140,20","Shelby","The movement in this one is extremely pleasent,40,240,20","Olivia","business of traffic,10,40,20","2"
"3216","","survey-text","116","979687","0.0-115.0-0.0","AAZAJDRFBDUSW","","","","{""Q0"":""our""}","","","","","","","","","","","","","","","","","","","","","","",""
"25073","","survey-text","117","1004761","0.0-116.0-0.0","AAZAJDRFBDUSW","","","","{""Q0"":""Peaceful primitive fishing village""}","","","","","","","","","","","","","","","","","","","","","","",""
"3801.899999976158","","image-slider-response","118","1008565","0.0-117.0","AAZAJDRFBDUSW","","","","","19","","","","","","","","","","","","","","","","","","","","","",""
"null","","image-button-response","119","1013579","0.0-118.0","AAZAJDRFBDUSW","img_art/19.jpg","null","","","","","","","","","","","","","","","","","","","","","","","","",""
"7178","","image-button-response","120","1020760","0.0-119.0","AAZAJDRFBDUSW","img_art/19.jpg","3","","","","","","","","","","","","","","","","","","","","","","","","",""
"13250","","image-button-response","121","1034012","0.0-120.0-0.0","AAZAJDRFBDUSW","img_art/19.jpg","0","","","","","","","","","","","","","","","","","","","","","","","","",""
"3538","","image-button-response","122","1037552","0.0-121.0-0.0","AAZAJDRFBDUSW","img_art/19.jpg","1","","","","","","","","","","","","","","","","","","","","","","","","",""
"null","","html-keyboard-response","123","1038556","0.0-122.0","AAZAJDRFBDUSW","<p style=""font-size: 48px;"">+</p>","","","","","null","allTrialResponses","1000","1","11","img_art/19.jpg","19","Peaceful primitive fishing village","Mariah,Chelsea,Abigail,Olivia,Shelby,Sophia","I like the watercolor and colors, do not like the deconstructed city scene feel.,0,140,20","It is too busy.,-34,180,20","I dont like the gray shadows, ruins it,-7,20,20","city life energy,8,40,20","Something weird is going on in this painting,-20,240,20","This looks like a child's piece. I appreciate the artistic value, but not for me.,-20,280,20","Olivia","city life energy,8,40,20","Mariah","I like the watercolor and colors, do not like the deconstructed city scene feel.,0,140,20","Chelsea","It is too busy.,-34,180,20","2"
"40526","","survey-text","124","1079097","0.0-123.0-0.0","AAZAJDRFBDUSW","","","","{""Q0"":""Golden warm ""}","","","","","","","","","","","","","","","","","","","","","","",""
"2700","","image-slider-response","125","1081800","0.0-124.0","AAZAJDRFBDUSW","","","","","-5","","","","","","","","","","","","","","","","","","","","","",""
"4530","","image-button-response","126","1086815","0.0-125.0","AAZAJDRFBDUSW","img_art/4.jpg","0","","","","","","","","","","","","","","","","","","","","","","","","",""
"5738","","image-button-response","127","1092556","0.0-126.0","AAZAJDRFBDUSW","img_art/4.jpg","1","","","","","","","","","","","","","","","","","","","","","","","","",""
"6622","","image-button-response","128","1099180","0.0-127.0-0.0","AAZAJDRFBDUSW","img_art/4.jpg","3","","","","","","","","","","","","","","","","","","","","","","","","",""
"4168","","image-button-response","129","1103350","0.0-128.0-0.0","AAZAJDRFBDUSW","img_art/4.jpg","0","","","","","","","","","","","","","","","","","","","","","","","","",""
"null","","html-keyboard-response","130","1103856","0.0-129.0","AAZAJDRFBDUSW","<p style=""font-size: 48px;"">+</p>","","","","","null","allTrialResponses","500","1","12","img_art/4.jpg","-5","Golden warm ","Mariah,Chelsea,Brittany,Olivia,Alexandra,Kylie","Movement. Snakes. Hair. The uncertainty makes my eye return.,21,140,20","The colors remind me of McDonalds.,-41,180,20","Rather boring design and colors.,-21,40,20","The muted tones,-11,40,20","This artwork looks like a child did it,-41,60,20","I just have no clue,26,300,20","Chelsea","The colors remind me of McDonalds.,-41,180,20","Olivia","The muted tones,-11,40,20","Mariah","Movement. Snakes. Hair. The uncertainty makes my eye return.,21,140,20","2"
"17226","","survey-text","131","1121089","0.0-130.0-0.0","AAZAJDRFBDUSW","","","","{""Q0"":""Death rides a pale horse""}","","","","","","","","","","","","","","","","","","","","","","",""
"2452.2000000476837","","image-slider-response","132","1123543","0.0-131.0","AAZAJDRFBDUSW","","","","","11","","","","","","","","","","","","","","","","","","","","","",""
"4780","","image-button-response","133","1128547","0.0-132.0","AAZAJDRFBDUSW","img_art/18.jpg","3","","","","","","","","","","","","","","","","","","","","","","","","",""
"1563","","image-button-response","134","1130113","0.0-133.0","AAZAJDRFBDUSW","img_art/18.jpg","3","","","","","","","","","","","","","","","","","","","","","","","","",""
"4704","","image-button-response","135","1134820","0.0-134.0-0.0","AAZAJDRFBDUSW","img_art/18.jpg","4","","","","","","","","","","","","","","","","","","","","","","","","",""
"9464","","image-button-response","136","1144285","0.0-135.0-0.0","AAZAJDRFBDUSW","img_art/18.jpg","1","","","","","","","","","","","","","","","","","","","","","","","","",""
"null","","html-keyboard-response","137","1144788","0.0-136.0","AAZAJDRFBDUSW","<p style=""font-size: 48px;"">+</p>","","","","","null","allTrialResponses","500","1","13","img_art/18.jpg","11","Death rides a pale horse","Mariah,Chelsea,Gabriela,Olivia,Sarah,Laura","It is too busy, but the colors are pleasant.,15,140,20","I like the detail but I wouldn't hang this up on my wall.,14,180,20","It's possibly of a mermaid luring in a ship,15,140,20","death rides in life,-25,40,20","this is kind of cool. I like the color scheme and the figure in the upper left is interesting,15,180,20","afraid and anxious,21,320,20","Olivia","death rides in life,-25,40,20","Sarah","this is kind of cool. I like the color scheme and the figure in the upper left is interesting,15,180,20","Chelsea","I like the detail but I wouldn't hang this up on my wall.,14,180,20","2"
"16397","","survey-text","138","1161191","0.0-137.0-0.0","AAZAJDRFBDUSW","","","","{""Q0"":""Volcano on the horizon""}","","","","","","","","","","","","","","","","","","","","","","",""
"3966.600000023842","","image-slider-response","139","1165159","0.0-138.0","AAZAJDRFBDUSW","","","","","-43","","","","","","","","","","","","","","","","","","","","","",""
"null","","image-button-response","140","1170170","0.0-139.0","AAZAJDRFBDUSW","img_art/5.jpg","null","","","","","","","","","","","","","","","","","","","","","","","","",""
"775","","image-button-response","141","1170948","0.0-140.0","AAZAJDRFBDUSW","img_art/5.jpg","5","","","","","","","","","","","","","","","","","","","","","","","","",""
"3029","","image-button-response","142","1173977","0.0-141.0-0.0","AAZAJDRFBDUSW","img_art/5.jpg","1","","","","","","","","","","","","","","","","","","","","","","","","",""
"2254","","image-button-response","143","1176233","0.0-142.0-0.0","AAZAJDRFBDUSW","img_art/5.jpg","0","","","","","","","","","","","","","","","","","","","","","","","","",""
"null","","html-keyboard-response","144","1176735","0.0-143.0","AAZAJDRFBDUSW","<p style=""font-size: 48px;"">+</p>","","","","","null","allTrialResponses","500","1","14","img_art/5.jpg","-43","Volcano on the horizon","Jordan,Chelsea,Taylor,Olivia,Sarah,Miranda","I dont really get anything from this,-25,20,20","I'm not sure what is going on here.,-46,180,20","Doesn't make me think anything,-1,340,20","a brush in time,-14,40,20","looks very childish,-35,180,20","This either looks like a bell or aliens finishing the pyramids,-34,320,20","Miranda","This either looks like a bell or aliens finishing the pyramids,-34,320,20","Chelsea","I'm not sure what is going on here.,-46,180,20","Jordan","I dont really get anything from this,-25,20,20","2"
"13964","","survey-text","145","1190704","0.0-144.0-0.0","AAZAJDRFBDUSW","","","","{""Q0"":""Interesting use of color blocks""}","","","","","","","","","","","","","","","","","","","","","","",""
"2613.5999999046326","","image-slider-response","146","1193319","0.0-145.0","AAZAJDRFBDUSW","","","","","5","","","","","","","","","","","","","","","","","","","","","",""
"null","","image-button-response","147","1198329","0.0-146.0","AAZAJDRFBDUSW","img_art/12.jpg","null","","","","","","","","","","","","","","","","","","","","","","","","",""
"2272","","image-button-response","148","1200604","0.0-147.0","AAZAJDRFBDUSW","img_art/12.jpg","1","","","","","","","","","","","","","","","","","","","","","","","","",""
"1818","","image-button-response","149","1202423","0.0-148.0-0.0","AAZAJDRFBDUSW","img_art/12.jpg","2","","","","","","","","","","","","","","","","","","","","","","","","",""
"1078","","image-button-response","150","1203503","0.0-149.0-0.0","AAZAJDRFBDUSW","img_art/12.jpg","4","","","","","","","","","","","","","","","","","","","","","","","","",""
"null","","html-keyboard-response","151","1205015","0.0-150.0","AAZAJDRFBDUSW","<p style=""font-size: 48px;"">+</p>","","","","","null","allTrialResponses","1500","1","15","img_art/12.jpg","5","Interesting use of color blocks","Jordan,Chelsea,Cynthia,Destiny,Kayla,Miranda","not my kind of thing,1,20,20","I like the gradient of little color on the top to colorful on the bottom.,24,180,20","Windows to a different story,6,320,20","giving me major endless summer vibes,26,360,20","Yay! Lots of people, lots of lives.,25,180,20","This is like going to a really old mcdoanlds in a tiny town and it's never been renovated so it's breaking down,-31,320,20","Chelsea","I like the gradient of little color on the top to colorful on the bottom.,24,180,20","Cynthia","Windows to a different story,6,320,20","Kayla","Yay! Lots of people, lots of lives.,25,180,20","2"
"3503","","survey-text","152","1208535","0.0-151.0-0.0","AAZAJDRFBDUSW","","","","{""Q0"":""course""}","","","","","","","","","","","","","","","","","","","","","","",""
"27568","","survey-text","153","1236105","0.0-152.0-0.0","AAZAJDRFBDUSW","","","","{""Q0"":""Warm glow of a campfire at night.""}","","","","","","","","","","","","","","","","","","","","","","",""
"4250.899999976158","","image-slider-response","154","1240359","0.0-153.0","AAZAJDRFBDUSW","","","","","14","","","","","","","","","","","","","","","","","","","","","",""
"null","","image-button-response","155","1245361","0.0-154.0","AAZAJDRFBDUSW","img_art/1.jpg","null","","","","","","","","","","","","","","","","","","","","","","","","",""
"1064","","image-button-response","156","1246429","0.0-155.0","AAZAJDRFBDUSW","img_art/1.jpg","3","","","","","","","","","","","","","","","","","","","","","","","","",""
"1998","","image-button-response","157","1248429","0.0-156.0-0.0","AAZAJDRFBDUSW","img_art/1.jpg","4","","","","","","","","","","","","","","","","","","","","","","","","",""
"3128","","image-button-response","158","1251559","0.0-157.0-0.0","AAZAJDRFBDUSW","img_art/1.jpg","2","","","","","","","","","","","","","","","","","","","","","","","","",""
"null","","html-keyboard-response","159","1252067","0.0-158.0","AAZAJDRFBDUSW","<p style=""font-size: 48px;"">+</p>","","","","","null","allTrialResponses","500","1","16","img_art/1.jpg","14","Warm glow of a campfire at night.","Michelle,Chelsea,Cynthia,Ashley,Kayla,Savannah","Random paint does not make art,-5,280,20","The colors are a little too intense.,1,180,20","fishing on the lake surrounded by trees,42,320,20","More passable, colorful, abstract.,13,320,20","Happy! Reminds me of hiking in tennesee.,18,180,20","Its simply okay.,3,200,20","Ashley","More passable, colorful, abstract.,13,320,20","Kayla","Happy! Reminds me of hiking in tennesee.,18,180,20","Cynthia","fishing on the lake surrounded by trees,42,320,20","2"
"37687","","survey-text","160","1289763","0.0-159.0-0.0","AAZAJDRFBDUSW","","","","{""Q0"":""Graffiti with angry overtones""}","","","","","","","","","","","","","","","","","","","","","","",""
"2774.399999976158","","image-slider-response","161","1292539","0.0-160.0","AAZAJDRFBDUSW","","","","","-26","","","","","","","","","","","","","","","","","","","","","",""
"null","","image-button-response","162","1297543","0.0-161.0","AAZAJDRFBDUSW","img_art/29.jpg","null","","","","","","","","","","","","","","","","","","","","","","","","",""
"5043","","image-button-response","163","1302591","0.0-162.0","AAZAJDRFBDUSW","img_art/29.jpg","4","","","","","","","","","","","","","","","","","","","","","","","","",""
"2476","","image-button-response","164","1305069","0.0-163.0-0.0","AAZAJDRFBDUSW","img_art/29.jpg","5","","","","","","","","","","","","","","","","","","","","","","","","",""
"6944","","image-button-response","165","1312015","0.0-164.0-0.0","AAZAJDRFBDUSW","img_art/29.jpg","3","","","","","","","","","","","","","","","","","","","","","","","","",""
"null","","html-keyboard-response","166","1312530","0.0-165.0","AAZAJDRFBDUSW","<p style=""font-size: 48px;"">+</p>","","","","","null","allTrialResponses","500","1","17","img_art/29.jpg","-26","Graffiti with angry overtones","Monica,Autumn,Cynthia,Ashley,Kayla,Bailey","There's too much black and it looks sloppy,-35,360,20","It's too messy.,-25,340,20","makes me feel busy and unorganized,4,320,20","It that an actual PAINTBUSH! Love it.,50,320,20","It looks like graffiti in a subway tunnel- destruction.,-20,180,20","Giant messy blob. Looks like it tries to be edgy, but fails.,-40,360,20","Kayla","It looks like graffiti in a subway tunnel- destruction.,-20,180,20","Bailey","Giant messy blob. Looks like it tries to be edgy, but fails.,-40,360,20","Ashley","It that an actual PAINTBUSH! Love it.,50,320,20","2"
"24876","","survey-text","167","1337413","0.0-166.0-0.0","AAZAJDRFBDUSW","","","","{""Q0"":""Not my kind of painting. Stick people?""}","","","","","","","","","","","","","","","","","","","","","","",""
"2531.8000000715256","","image-slider-response","168","1339947","0.0-167.0","AAZAJDRFBDUSW","","","","","-45","","","","","","","","","","","","","","","","","","","","","",""
"null","","image-button-response","169","1344955","0.0-168.0","AAZAJDRFBDUSW","img_art/27.jpg","null","","","","","","","","","","","","","","","","","","","","","","","","",""
"1326","","image-button-response","170","1346283","0.0-169.0","AAZAJDRFBDUSW","img_art/27.jpg","1","","","","","","","","","","","","","","","","","","","","","","","","",""
"3246","","image-button-response","171","1349531","0.0-170.0-0.0","AAZAJDRFBDUSW","img_art/27.jpg","0","","","","","","","","","","","","","","","","","","","","","","","","",""
"8964","","image-button-response","172","1358497","0.0-171.0-0.0","AAZAJDRFBDUSW","img_art/27.jpg","5","","","","","","","","","","","","","","","","","","","","","","","","",""
"null","","html-keyboard-response","173","1359510","0.0-172.0","AAZAJDRFBDUSW","<p style=""font-size: 48px;"">+</p>","","","","","null","allTrialResponses","1000","1","18","img_art/27.jpg","-45","Not my kind of painting. Stick people?","Allison,Katelyn,Sydney,Ashley,Kayla,Bailey","Warn colors are pretty, but too blotchy for me.,3,140,20","Doesnt look like anything to me. Doesnt capture my attention.,-25,100,20","This piece reminds me of a summer day.,30,320,20","Lots of activity, layers, imagination at work here.,29,320,20","Don't know what it is, but I do like it.,10,180,20","Looks like a splash of different colors and designs without purpose,-44,360,20","Katelyn","Doesnt look like anything to me. Doesnt capture my attention.,-25,100,20","Allison","Warn colors are pretty, but too blotchy for me.,3,140,20","Bailey","Looks like a splash of different colors and designs without purpose,-44,360,20","2"
"19202","","survey-text","174","1378725","0.0-173.0-0.0","AAZAJDRFBDUSW","","","","{""Q0"":""Pretty outdoor garden in the city. Nice!""}","","","","","","","","","","","","","","","","","","","","","","",""
"2745.0999999046326","","image-slider-response","175","1381471","0.0-174.0","AAZAJDRFBDUSW","","","","","18","","","","","","","","","","","","","","","","","","","","","",""
"null","","image-button-response","176","1386473","0.0-175.0","AAZAJDRFBDUSW","img_art/26.jpg","null","","","","","","","","","","","","","","","","","","","","","","","","",""
"4959","","image-button-response","177","1391435","0.0-176.0","AAZAJDRFBDUSW","img_art/26.jpg","2","","","","","","","","","","","","","","","","","","","","","","","","",""
"4284","","image-button-response","178","1395721","0.0-177.0-0.0","AAZAJDRFBDUSW","img_art/26.jpg","3","","","","","","","","","","","","","","","","","","","","","","","","",""
"417","","image-button-response","179","1396141","0.0-178.0-0.0","AAZAJDRFBDUSW","img_art/26.jpg","4","","","","","","","","","","","","","","","","","","","","","","","","",""
"null","","html-keyboard-response","180","1397645","0.0-179.0","AAZAJDRFBDUSW","<p style=""font-size: 48px;"">+</p>","","","","","null","allTrialResponses","1500","1","19","img_art/26.jpg","18","Pretty outdoor garden in the city. Nice!","Allison,Katelyn,Kimberly,Morgan,Erika,Bailey","pretty colors, but sketch style isn't for me,10,140,20","Looks bland and boring,-5,100,20","It looks like I'm staring out of the window of a nice house, but the house is mine,20,260,20","Confusing park picture.,8,380,20","Feels like still life,-13,100,20","Too blocky and unfocused. It's like the inside of a house, and the outside.,-24,360,20","Kimberly","It looks like I'm staring out of the window of a nice house, but the house is mine,20,260,20","Morgan","Confusing park picture.,8,380,20","Erika","Feels like still life,-13,100,20","2"
"18946","","survey-text","181","1416596","0.0-180.0-0.0","AAZAJDRFBDUSW","","","","{""Q0"":""Dystopian sci-fi book cover material!""}","","","","","","","","","","","","","","","","","","","","","","",""
"3224.399999976158","","image-slider-response","182","1419822","0.0-181.0","AAZAJDRFBDUSW","","","","","14","","","","","","","","","","","","","","","","","","","","","",""
"null","","image-button-response","183","1424839","0.0-182.0","AAZAJDRFBDUSW","img_art/22.jpg","null","","","","","","","","","","","","","","","","","","","","","","","","",""
"1673","","image-button-response","184","1426514","0.0-183.0","AAZAJDRFBDUSW","img_art/22.jpg","3","","","","","","","","","","","","","","","","","","","","","","","","",""
"1595","","image-button-response","185","1428112","0.0-184.0-0.0","AAZAJDRFBDUSW","img_art/22.jpg","4","","","","","","","","","","","","","","","","","","","","","","","","",""
"5481","","image-button-response","186","1433596","0.0-185.0-0.0","AAZAJDRFBDUSW","img_art/22.jpg","0","","","","","","","","","","","","","","","","","","","","","","","","",""
"null","","html-keyboard-response","187","1435103","0.0-186.0","AAZAJDRFBDUSW","<p style=""font-size: 48px;"">+</p>","","","","","null","allTrialResponses","1500","1","20","img_art/22.jpg","14","Dystopian sci-fi book cover material!","Melissa,Rebecca,Kimberly,Morgan,Erika,Lauren","strong blending skills,7,240,20","colorful water (in front of castle?),17,100,20","I like the key near the sphere in the center,19,260,20","Glowing city of many emotions.,10,380,20","Beautiful forms, using color to define shape,14,100,20","This doesn't invoke anything, since I can't tell what the piece represents.,0,340,20","Morgan","Glowing city of many emotions.,10,380,20","Erika","Beautiful forms, using color to define shape,14,100,20","Melissa","strong blending skills,7,240,20","2"
"2122","","survey-text","188","1437234","0.0-187.0-0.0","AAZAJDRFBDUSW","","","","{""Q0"":""we""}","","","","","","","","","","","","","","","","","","","","","","",""
"18673","","survey-text","189","1455908","0.0-188.0-0.0","AAZAJDRFBDUSW","","","","{""Q0"":""Peaceful waterfall, lovely nature scene.""}","","","","","","","","","","","","","","","","","","","","","","",""
"2870.2999999523163","","image-slider-response","190","1458781","0.0-189.0","AAZAJDRFBDUSW","","","","","18","","","","","","","","","","","","","","","","","","","","","",""
"4878","","image-button-response","191","1463792","0.0-190.0","AAZAJDRFBDUSW","img_art/24.jpg","2","","","","","","","","","","","","","","","","","","","","","","","","",""
"4322","","image-button-response","192","1468117","0.0-191.0","AAZAJDRFBDUSW","img_art/24.jpg","4","","","","","","","","","","","","","","","","","","","","","","","","",""
"1112","","image-button-response","193","1469231","0.0-192.0-0.0","AAZAJDRFBDUSW","img_art/24.jpg","5","","","","","","","","","","","","","","","","","","","","","","","","",""
"5866","","image-button-response","194","1475101","0.0-193.0-0.0","AAZAJDRFBDUSW","img_art/24.jpg","2","","","","","","","","","","","","","","","","","","","","","","","","",""
"null","","html-keyboard-response","195","1476617","0.0-194.0","AAZAJDRFBDUSW","<p style=""font-size: 48px;"">+</p>","","","","","null","allTrialResponses","1500","1","21","img_art/24.jpg","18","Peaceful waterfall, lovely nature scene.","Melissa,Hailey,Meghan,Morgan,Erika,Claire","feels overdone, but still executed well,0,240,20","warm spring day after a rain. soft,20,200,20","pretty like a waterfall,22,220,20","Water through the fruit.,15,380,20","Very nice textures and subject,38,100,20","reminds me of a beautiful waterfall,50,260,20","Erika","Very nice textures and subject,38,100,20","Claire","reminds me of a beautiful waterfall,50,260,20","Meghan","pretty like a waterfall,22,220,20","2"
"41054","","survey-text","196","1517679","0.0-195.0-0.0","AAZAJDRFBDUSW","","","","{""Q0"":""Engaging cityscape with a touch of humanity.""}","","","","","","","","","","","","","","","","","","","","","","",""
"3648.1999999284744","","image-slider-response","197","1521329","0.0-196.0","AAZAJDRFBDUSW","","","","","30","","","","","","","","","","","","","","","","","","","","","",""
"null","","image-button-response","198","1526342","0.0-197.0","AAZAJDRFBDUSW","img_art/8.jpg","null","","","","","","","","","","","","","","","","","","","","","","","","",""
"5415","","image-button-response","199","1531759","0.0-198.0","AAZAJDRFBDUSW","img_art/8.jpg","5","","","","","","","","","","","","","","","","","","","","","","","","",""
"2112","","image-button-response","200","1533873","0.0-199.0-0.0","AAZAJDRFBDUSW","img_art/8.jpg","1","","","","","","","","","","","","","","","","","","","","","","","","",""
"1968","","image-button-response","201","1535843","0.0-200.0-0.0","AAZAJDRFBDUSW","img_art/8.jpg","0","","","","","","","","","","","","","","","","","","","","","","","","",""
"null","","html-keyboard-response","202","1537347","0.0-201.0","AAZAJDRFBDUSW","<p style=""font-size: 48px;"">+</p>","","","","","null","allTrialResponses","1500","1","22","img_art/8.jpg","30","Engaging cityscape with a touch of humanity.","Megan,Makayla,Meghan,Heather,Erika,Claire","Cortez's influence with fair color choices,10,200,20","I see water and structures that resemble Ancient Rome,15,80,20","the face is creepy,-49,220,20","woman looking over a the community,1,260,20","Striking, but not my taste,20,100,20","looks like an aerial view, very pretty,32,260,20","Claire","looks like an aerial view, very pretty,32,260,20","Makayla","I see water and structures that resemble Ancient Rome,15,80,20","Megan","Cortez's influence with fair color choices,10,200,20","2"
"30058","","survey-text","203","1567413","0.0-202.0-0.0","AAZAJDRFBDUSW","","","","{""Q0"":""Striking use of contrast to set the tone.""}","","","","","","","","","","","","","","","","","","","","","","",""
"3032.2999999523163","","image-slider-response","204","1570447","0.0-203.0","AAZAJDRFBDUSW","","","","","28","","","","","","","","","","","","","","","","","","","","","",""
"null","","image-button-response","205","1575462","0.0-204.0","AAZAJDRFBDUSW","img_art/25.jpg","null","","","","","","","","","","","","","","","","","","","","","","","","",""
"3497","","image-button-response","206","1578961","0.0-205.0","AAZAJDRFBDUSW","img_art/25.jpg","0","","","","","","","","","","","","","","","","","","","","","","","","",""
"3610","","image-button-response","207","1582572","0.0-206.0-0.0","AAZAJDRFBDUSW","img_art/25.jpg","1","","","","","","","","","","","","","","","","","","","","","","","","",""
"4868","","image-button-response","208","1587443","0.0-207.0-0.0","AAZAJDRFBDUSW","img_art/25.jpg","3","","","","","","","","","","","","","","","","","","","","","","","","",""
"null","","html-keyboard-response","209","1588947","0.0-208.0","AAZAJDRFBDUSW","<p style=""font-size: 48px;"">+</p>","","","","","null","allTrialResponses","1500","1","23","img_art/25.jpg","28","Striking use of contrast to set the tone.","Megan,Makayla,Brooke,Julia,Caroline,Claire","Beautiful color with an interesting otherworldly figure,29,200,20","It's very mystical.,5,80,20","Like the color, but what is that thing.,-10,60,20","the color is pleasing and draws out the contrast of the lines,10,40,20","Makes me think of Baphomet, As above so below and is scary,-50,100,20","the colors are pretty,11,260,20","Megan","Beautiful color with an interesting otherworldly figure,29,200,20","Makayla","It's very mystical.,5,80,20","Julia","the color is pleasing and draws out the contrast of the lines,10,40,20","2"
"14222","","survey-text","210","1603176","0.0-209.0-0.0","AAZAJDRFBDUSW","","","","{""Q0"":""Woodstock! Love it!""}","","","","","","","","","","","","","","","","","","","","","","",""
"2754.600000023842","","image-slider-response","211","1605932","0.0-210.0","AAZAJDRFBDUSW","","","","","33","","","","","","","","","","","","","","","","","","","","","",""
"null","","image-button-response","212","1610944","0.0-211.0","AAZAJDRFBDUSW","img_art/23.jpg","null","","","","","","","","","","","","","","","","","","","","","","","","",""
"6920","","image-button-response","213","1617866","0.0-212.0","AAZAJDRFBDUSW","img_art/23.jpg","5","","","","","","","","","","","","","","","","","","","","","","","","",""
"1074","","image-button-response","214","1618943","0.0-213.0-0.0","AAZAJDRFBDUSW","img_art/23.jpg","4","","","","","","","","","","","","","","","","","","","","","","","","",""
"1710","","image-button-response","215","1620654","0.0-214.0-0.0","AAZAJDRFBDUSW","img_art/23.jpg","2","","","","","","","","","","","","","","","","","","","","","","","","",""
"null","","html-keyboard-response","216","1622162","0.0-215.0","AAZAJDRFBDUSW","<p style=""font-size: 48px;"">+</p>","","","","","null","allTrialResponses","1500","1","24","img_art/23.jpg","33","Woodstock! Love it!","Megan,Makayla,Maria,Julia,Hannah,Samantha","Too busy with color with warrior lineup,0,200,20","Reminds me of disco/70's, not my favorite design,-12,80,20","the pattern of colours imbues in me a sense of infinity, which I find soothing,10,120,20","this looks like a pop rock album cover,-10,40,20","This one is interesting. Looks like people with maybe musical instruments?,11,240,20","The more i look at it the more i like it  the dots of color and very interesting,50,140,20","Samantha","The more i look at it the more i like it  the dots of color and very interesting,50,140,20","Hannah","This one is interesting. Looks like people with maybe musical instruments?,11,240,20","Maria","the pattern of colours imbues in me a sense of infinity, which I find soothing,10,120,20","2"
"17889","","survey-text","217","1640066","0.0-216.0-0.0","AAZAJDRFBDUSW","","","","{""Q0"":""Bank or office art.""}","","","","","","","","","","","","","","","","","","","","","","",""
"3680.5","","image-slider-response","218","1643748","0.0-217.0","AAZAJDRFBDUSW","","","","","7","","","","","","","","","","","","","","","","","","","","","",""
"null","","image-button-response","219","1648758","0.0-218.0","AAZAJDRFBDUSW","img_art/13.jpg","null","","","","","","","","","","","","","","","","","","","","","","","","",""
"352","","image-button-response","220","1649112","0.0-219.0","AAZAJDRFBDUSW","img_art/13.jpg","0","","","","","","","","","","","","","","","","","","","","","","","","",""
"2371","","image-button-response","221","1651485","0.0-220.0-0.0","AAZAJDRFBDUSW","img_art/13.jpg","5","","","","","","","","","","","","","","","","","","","","","","","","",""
"2850","","image-button-response","222","1654337","0.0-221.0-0.0","AAZAJDRFBDUSW","img_art/13.jpg","2","","","","","","","","","","","","","","","","","","","","","","","","",""
"null","","html-keyboard-response","223","1654839","0.0-222.0","AAZAJDRFBDUSW","<p style=""font-size: 48px;"">+</p>","","","","","null","allTrialResponses","500","1","25","img_art/13.jpg","7","Bank or office art.","Alexa,Angelica,Maria,Shannon,Hannah,Samantha","This looks like a staple bedroom or bathroom piece,41,40,20","It's too violent looking and there's too much contrast between the white/black.,-21,280,20","evokes a dampening feeling,-9,120,20","It looks like someone splattered a bunch of different colors to make a picture; I think its ugly.,-40,220,20","Like this a lot and would hang in my house.,27,240,20","Nice colors. beautiful blue,50,140,20","Alexa","This looks like a staple bedroom or bathroom piece,41,40,20","Samantha","Nice colors. beautiful blue,50,140,20","Maria","evokes a dampening feeling,-9,120,20","2"
"3945","","survey-text","224","1658792","0.0-223.0-0.0","AAZAJDRFBDUSW","","","","{""Q0"":""table""}","","","","","","","","","","","","","","","","","","","","","","",""
"13068","","survey-text","225","1671862","0.0-224.0-0.0","AAZAJDRFBDUSW","","","","{""Q0"":""Busy angry fire""}","","","","","","","","","","","","","","","","","","","","","","",""
"4848.700000047684","","image-slider-response","226","1676712","0.0-225.0","AAZAJDRFBDUSW","","","","","-3","","","","","","","","","","","","","","","","","","","","","",""
"4594","","image-button-response","227","1681715","0.0-226.0","AAZAJDRFBDUSW","img_art/3.jpg","0","","","","","","","","","","","","","","","","","","","","","","","","",""
"3584","","image-button-response","228","1685302","0.0-227.0","AAZAJDRFBDUSW","img_art/3.jpg","0","","","","","","","","","","","","","","","","","","","","","","","","",""
"2095","","image-button-response","229","1687398","0.0-228.0-0.0","AAZAJDRFBDUSW","img_art/3.jpg","1","","","","","","","","","","","","","","","","","","","","","","","","",""
"2463","","image-button-response","230","1689866","0.0-229.0-0.0","AAZAJDRFBDUSW","img_art/3.jpg","5","","","","","","","","","","","","","","","","","","","","","","","","",""
"null","","html-keyboard-response","231","1690871","0.0-230.0","AAZAJDRFBDUSW","<p style=""font-size: 48px;"">+</p>","","","","","null","allTrialResponses","1000","1","26","img_art/3.jpg","-3","Busy angry fire","Alexa,Cassandra,Maria,Jamie,Jessica,Samantha","Looks messy and too much for my eyes,-35,40,20","I hate this...just a scribble of red.,-50,120,20","I struggle to see the art,-20,120,20","Looks like somebody squirted ketchup everywhere,-40,320,20","Don't get the scribbles.,-13,400,20","Too angry and scribbly,-43,140,20","Alexa","Looks messy and too much for my eyes,-35,40,20","Cassandra","I hate this...just a scribble of red.,-50,120,20","Samantha","Too angry and scribbly,-43,140,20","2"
"31618","","survey-text","232","1722498","0.0-231.0-0.0","AAZAJDRFBDUSW","","","","{""Q0"":""Reminds me of an archaeology site. Intriguing!""}","","","","","","","","","","","","","","","","","","","","","","",""
"2662.399999976158","","image-slider-response","233","1725162","0.0-232.0","AAZAJDRFBDUSW","","","","","29","","","","","","","","","","","","","","","","","","","","","",""
"4530","","image-button-response","234","1730171","0.0-233.0","AAZAJDRFBDUSW","img_art/7.jpg","3","","","","","","","","","","","","","","","","","","","","","","","","",""
"1252","","image-button-response","235","1731426","0.0-234.0","AAZAJDRFBDUSW","img_art/7.jpg","3","","","","","","","","","","","","","","","","","","","","","","","","",""
"856","","image-button-response","236","1732285","0.0-235.0-0.0","AAZAJDRFBDUSW","img_art/7.jpg","5","","","","","","","","","","","","","","","","","","","","","","","","",""
"4688","","image-button-response","237","1736974","0.0-236.0-0.0","AAZAJDRFBDUSW","img_art/7.jpg","1","","","","","","","","","","","","","","","","","","","","","","","","",""
"null","","html-keyboard-response","238","1737476","0.0-237.0","AAZAJDRFBDUSW","<p style=""font-size: 48px;"">+</p>","","","","","null","allTrialResponses","500","1","27","img_art/7.jpg","29","Reminds me of an archaeology site. Intriguing!","Alexa,Cassandra,Jasmine,Cassidy,Alyssa,Samantha","Not a fan of the pattern or colors,-40,40,20","Just neutral...looks like sand at the beach.,3,120,20","It just reminds me of dirt,-10,340,20","I like the texture,12,140,20","It looks like someone took a picture of a muddy ground and called it art.,-41,160,20","Makes me want to feel it,19,140,20","Cassidy","I like the texture,12,140,20","Samantha","Makes me want to feel it,19,140,20","Cassandra","Just neutral...looks like sand at the beach.,3,120,20","2"
"22340","","survey-text","239","1759822","0.0-238.0-0.0","AAZAJDRFBDUSW","","","","{""Q0"":""Cello playing rock music, strong""}","","","","","","","","","","","","","","","","","","","","","","",""
"3262.5","","image-slider-response","240","1763086","0.0-239.0","AAZAJDRFBDUSW","","","","","11","","","","","","","","","","","","","","","","","","","","","",""
"4942","","image-button-response","241","1768088","0.0-240.0","AAZAJDRFBDUSW","img_art/10.jpg","1","","","","","","","","","","","","","","","","","","","","","","","","",""
"4536","","image-button-response","242","1772626","0.0-241.0","AAZAJDRFBDUSW","img_art/10.jpg","1","","","","","","","","","","","","","","","","","","","","","","","","",""
"5627","","image-button-response","243","1778254","0.0-242.0-0.0","AAZAJDRFBDUSW","img_art/10.jpg","4","","","","","","","","","","","","","","","","","","","","","","","","",""
"8639","","image-button-response","244","1786896","0.0-243.0-0.0","AAZAJDRFBDUSW","img_art/10.jpg","5","","","","","","","","","","","","","","","","","","","","","","","","",""
"null","","html-keyboard-response","245","1788401","0.0-244.0","AAZAJDRFBDUSW","<p style=""font-size: 48px;"">+</p>","","","","","null","allTrialResponses","1500","1","28","img_art/10.jpg","11","Cello playing rock music, strong","Kaitlyn,Cassandra,Sierra,Cassidy,Jennifer,Samantha","Picture looks smudged,-7,80,20","I liked it...it looked somewhat like a guitar.,32,120,20","it just doesnt appeal to me.,-10,260,20","Looks like someone just smeared some paint and called it good. Do not like.,-6,140,20","I am neutral towards the artwork,1,380,20","I like it but do not love it. It is sort of depressing,13,140,20","Cassandra","I liked it...it looked somewhat like a guitar.,32,120,20","Jennifer","I am neutral towards the artwork,1,380,20","Samantha","I like it but do not love it. It is sort of depressing,13,140,20","2"
"26820","","survey-text","246","1815236","0.0-245.0-0.0","AAZAJDRFBDUSW","","","","{""Q0"":""Oh the zoo rhinos came back to paint more. Ugh.""}","","","","","","","","","","","","","","","","","","","","","","",""
"3140.600000023842","","image-slider-response","247","1818378","0.0-246.0","AAZAJDRFBDUSW","","","","","-33","","","","","","","","","","","","","","","","","","","","","",""
"4761","","image-button-response","248","1823394","0.0-247.0","AAZAJDRFBDUSW","img_art/2.jpg","1","","","","","","","","","","","","","","","","","","","","","","","","",""
"1278","","image-button-response","249","1824674","0.0-248.0","AAZAJDRFBDUSW","img_art/2.jpg","1","","","","","","","","","","","","","","","","","","","","","","","","",""
"4371","","image-button-response","250","1829046","0.0-249.0-0.0","AAZAJDRFBDUSW","img_art/2.jpg","3","","","","","","","","","","","","","","","","","","","","","","","","",""
"1254","","image-button-response","251","1830302","0.0-250.0-0.0","AAZAJDRFBDUSW","img_art/2.jpg","4","","","","","","","","","","","","","","","","","","","","","","","","",""
"null","","html-keyboard-response","252","1831804","0.0-251.0","AAZAJDRFBDUSW","<p style=""font-size: 48px;"">+</p>","","","","","null","allTrialResponses","1500","1","29","img_art/2.jpg","-33","Oh the zoo rhinos came back to paint more. Ugh.","Briana,Cassandra,Nicole,Angela,Jennifer,Samantha","Childish smiley face,-19,400,20","I didn't like this it looked like a kindergardner painted it and the green was out of place.,-46,120,20","It's a cool piece but honestly these color choices are the worst thing in the world,-31,20,20","Only like the blues and teals in this. The rest is unappealing.,-15,260,20","Ugly color scheme,-50,380,20","Cute and happy,22,140,20","Cassandra","I didn't like this it looked like a kindergardner painted it and the green was out of place.,-46,120,20","Angela","Only like the blues and teals in this. The rest is unappealing.,-15,260,20","Jennifer","Ugly color scheme,-50,380,20","2"
"28669","","survey-text","253","1860482","0.0-252.0-0.0","AAZAJDRFBDUSW","","","","{""Q0"":""There is a lot going on for such a simple piece. Captures my attention.""}","","","","","","","","","","","","","","","","","","","","","","",""
"3894.2999999523163","","image-slider-response","254","1864378","0.0-253.0","AAZAJDRFBDUSW","","","","","26","","","","","","","","","","","","","","","","","","","","","",""
"null","","image-button-response","255","1869381","0.0-254.0","AAZAJDRFBDUSW","img_art/6.jpg","null","","","","","","","","","","","","","","","","","","","","","","","","",""
"6173","","image-button-response","256","1875556","0.0-255.0","AAZAJDRFBDUSW","img_art/6.jpg","3","","","","","","","","","","","","","","","","","","","","","","","","",""
"1748","","image-button-response","257","1877306","0.0-256.0-0.0","AAZAJDRFBDUSW","img_art/6.jpg","0","","","","","","","","","","","","","","","","","","","","","","","","",""
"9074","","image-button-response","258","1886382","0.0-257.0-0.0","AAZAJDRFBDUSW","img_art/6.jpg","1","","","","","","","","","","","","","","","","","","","","","","","","",""
"null","","html-keyboard-response","259","1887390","0.0-258.0","AAZAJDRFBDUSW","<p style=""font-size: 48px;"">+</p>","","","","","null","allTrialResponses","1000","1","30","img_art/6.jpg","26","There is a lot going on for such a simple piece. Captures my attention.","Chloe,Cassandra,Emily,Angela,Jennifer,Katie","Cute and evocative,11,220,20","No feeling...just left me feeling kind of blah,1,120,20","Looks like a kid created it.,-50,40,20","I like the orange color, and I don't know why but I like this piece.,22,260,20","I am neutral towards this piece.,0,380,20","I like the warmth of the orange. But, I feel like it's a partial view. I'm frustrated I can't see the entirety.,-20,160,20","Angela","I like the orange color, and I don't know why but I like this piece.,22,260,20","Chloe","Cute and evocative,11,220,20","Cassandra","No feeling...just left me feeling kind of blah,1,120,20","2"
"2274","","image-button-response_instructions","260","1889670","0.0-259.0","AAZAJDRFBDUSW","","0","instructions","","","","","","","","","","","","","","","","","","","","","","","",""
"1491","","image-button-response","261","1891168","0.0-260.0","AAZAJDRFBDUSW","","0","","","","","","","","","","","","","","","","","","","","","","","","",""
