"rt","url","trial_type","trial_index","time_elapsed","internal_node_id","participant_id","stimulus","button_pressed","Name","responses","response","key_press","variableName","fixationTime","condition","trial","photo","subjectRating","subjectResponse","agentsNames","agent_1_Response","agent_2_Response","agent_3_Response","agent_4_Response","agent_5_Response","agent_6_Response","kept_1_name","kept_1_response","kept_2_name","kept_2_response","kept_3_name","kept_3_response","errorCounter"
"5788","external_page_harvard.html","external-html","0","5926","0.0-0.0","AB09F0Q4T10TE","","","","","","","","","","","","","","","","","","","","","","","","","","",""
"2513","","image-button-response","1","8441","0.0-1.0","AB09F0Q4T10TE","","0","","","","","","","","","","","","","","","","","","","","","","","","",""
"1712","","image-button-response","2","10158","0.0-2.0-0.0","AB09F0Q4T10TE","","1","phone","","","","","","","","","","","","","","","","","","","","","","","",""
"5340","","survey-text","3","15500","0.0-3.0-0.0","AB09F0Q4T10TE","","","","{""Q0"":""AB09F0Q4T10TE""}","","","","","","","","","","","","","","","","","","","","","","",""
"9192","","image-button-response_instructions","4","24693","0.0-4.0","AB09F0Q4T10TE","","0","instructions","","","","","","","","","","","","","","","","","","","","","","","",""
"7215","","image-button-response_instructions","5","31909","0.0-5.0","AB09F0Q4T10TE","img_art/ins/popularity/ins1.png","0","instructions","","","","","","","","","","","","","","","","","","","","","","","",""
"6952","","image-button-response_instructions","6","38863","0.0-6.0","AB09F0Q4T10TE","img_art/ins/popularity/ins2.png","0","instructions","","","","","","","","","","","","","","","","","","","","","","","",""
"6927","","image-button-response_instructions","7","45792","0.0-7.0","AB09F0Q4T10TE","img_art/ins/popularity/ins2Extreme.png","0","instructions","","","","","","","","","","","","","","","","","","","","","","","",""
"26303","","image-button-response_instructions","8","72097","0.0-8.0","AB09F0Q4T10TE","img_art/ins/popularity/ins3KEEPpop.PNG","0","instructions","","","","","","","","","","","","","","","","","","","","","","","",""
"2900","","image-button-response_instructions","9","74999","0.0-9.0","AB09F0Q4T10TE","img_art/ins/popularity/ins3ANamepop.PNG","0","instructions","","","","","","","","","","","","","","","","","","","","","","","",""
"2767","","image-button-response_instructions","10","77767","0.0-10.0","AB09F0Q4T10TE","img_art/ins/popularity/ins3ARatingpop.png","0","instructions","","","","","","","","","","","","","","","","","","","","","","","",""
"957","","image-button-response_instructions","11","78725","0.0-11.0","AB09F0Q4T10TE","img_art/ins/popularity/ins3ATextpop.png","0","instructions","","","","","","","","","","","","","","","","","","","","","","","",""
"838","","image-button-response_instructions","12","79564","0.0-12.0","AB09F0Q4T10TE","img_art/ins/popularity/ins3ALikespop.png","0","instructions","","","","","","","","","","","","","","","","","","","","","","","",""
"4855","","image-button-response_instructions","13","84421","0.0-13.0","AB09F0Q4T10TE","img_art/ins/popularity/ins3KEEPpop.PNG","0","instructions","","","","","","","","","","","","","","","","","","","","","","","",""
"2666","","image-button-response_instructions","14","87088","0.0-14.0","AB09F0Q4T10TE","img_art/ins/popularity/ins3_5RED.png","0","instructions","","","","","","","","","","","","","","","","","","","","","","","",""
"741","","image-button-response_instructions","15","87831","0.0-15.0","AB09F0Q4T10TE","img_art/ins/popularity/ins3KEEPpop.PNG","0","instructions","","","","","","","","","","","","","","","","","","","","","","","",""
"1461","","image-button-response_instructions","16","89292","0.0-16.0","AB09F0Q4T10TE","img_art/ins/popularity/ins4KEEPpop.PNG","0","instructions","","","","","","","","","","","","","","","","","","","","","","","",""
"1072","","image-button-response_instructions","17","90366","0.0-17.0","AB09F0Q4T10TE","img_art/ins/popularity/ins5KEEPpop.PNG","0","instructions","","","","","","","","","","","","","","","","","","","","","","","",""
"1233","","image-button-response_instructions","18","91601","0.0-18.0","AB09F0Q4T10TE","","0","instructions","","","","","","","","","","","","","","","","","","","","","","","",""
"4725","","survey-text","19","96354","0.0-19.0-0.0","AB09F0Q4T10TE","","","","{""Q0"":""but""}","","","","","","","","","","","","","","","","","","","","","","",""
"35944","","survey-text","20","132299","0.0-20.0-0.0","AB09F0Q4T10TE","","","","{""Q0"":""It looks boring and simple.""}","","","","","","","","","","","","","","","","","","","","","","",""
"7335.89999961853","","image-slider-response","21","139638","0.0-21.0","AB09F0Q4T10TE","","","","","-10","","","","","","","","","","","","","","","","","","","","","",""
"null","","image-button-response","22","144650","0.0-22.0","AB09F0Q4T10TE","img_art/ins/1.jpg","null","","","","","","","","","","","","","","","","","","","","","","","","",""
"3448","","image-button-response","23","148100","0.0-23.0","AB09F0Q4T10TE","img_art/ins/1.jpg","0","","","","","","","","","","","","","","","","","","","","","","","","",""
"38786","","image-button-response","24","186889","0.0-24.0-0.0","AB09F0Q4T10TE","img_art/ins/1.jpg","3","","","","","","","","","","","","","","","","","","","","","","","","",""
"1596","","image-button-response","25","188488","0.0-25.0-0.0","AB09F0Q4T10TE","img_art/ins/1.jpg","3","","","","","","","","","","","","","","","","","","","","","","","","",""
"710","","image-button-response","26","191736","0.0-25.1-0.1","AB09F0Q4T10TE","img_art/ins/1.jpg","3","","","","","","","","","","","","","","","","","","","","","","","","",""
"489","","image-button-response","27","194858","0.0-25.2-0.2","AB09F0Q4T10TE","img_art/ins/1.jpg","0","","","","","","","","","","","","","","","","","","","","","","","","",""
"732","","image-button-response","28","198292","0.0-25.3-0.3","AB09F0Q4T10TE","img_art/ins/1.jpg","2","","","","","","","","","","","","","","","","","","","","","","","","",""
"null","","html-keyboard-response","29","199305","0.0-26.0","AB09F0Q4T10TE","<p style=""font-size: 48px;"">+</p>","","","","","null","allTrialResponses","1000","1","-2","img_art/ins/1.jpg","-10","It looks boring and simple.","Adam,Alex,Ben,Carl,Daniel,Jack","Seems like doodles,-20,20,20","very creative work.,36,40,20","This color reminds me of poo,-46,60,20","very calming artwork,42,80,20","It looks like a murder scene.,-48,100,20","I like the sophisticated brushwork,40,120,20","Adam","Seems like doodles,-20,20,20","Carl","very calming artwork,42,80,20","Ben","This color reminds me of poo,-46,60,20","6"
"18180","","survey-text","30","217501","0.0-27.0-0.0","AB09F0Q4T10TE","","","","{""Q0"":""Excessive""}","","","","","","","","","","","","","","","","","","","","","","",""
"8009.199999809265","","image-slider-response","31","225512","0.0-28.0","AB09F0Q4T10TE","","","","","-10","","","","","","","","","","","","","","","","","","","","","",""
"4949","","image-button-response","32","230515","0.0-29.0","AB09F0Q4T10TE","img_art/ins/2.jpg","0","","","","","","","","","","","","","","","","","","","","","","","","",""
"776","","image-button-response","33","231294","0.0-30.0","AB09F0Q4T10TE","img_art/ins/2.jpg","0","","","","","","","","","","","","","","","","","","","","","","","","",""
"4724","","image-button-response","34","236020","0.0-31.0-0.0","AB09F0Q4T10TE","img_art/ins/2.jpg","5","","","","","","","","","","","","","","","","","","","","","","","","",""
"3706","","image-button-response","35","239728","0.0-32.0-0.0","AB09F0Q4T10TE","img_art/ins/2.jpg","2","","","","","","","","","","","","","","","","","","","","","","","","",""
"null","","html-keyboard-response","36","241229","0.0-33.0","AB09F0Q4T10TE","<p style=""font-size: 48px;"">+</p>","","","","","null","allTrialResponses","1500","1","-1","img_art/ins/2.jpg","-10","Excessive","Adam,James,Ben,Carl,John,Kyle","too much color,-18,20,20","looks too angry,-50,140,20","meaningless painting,-45,60,20","I can feel the artist's passion in it,45,80,20","love the texture of paint,48,160,20","Idk, it is just annoying,-32,180,20","Adam","too much color,-18,20,20","Kyle","Idk, it is just annoying,-32,180,20","Ben","meaningless painting,-45,60,20","6"
"17106","","survey-text","37","258344","0.0-34.0-0.0","AB09F0Q4T10TE","","","","{""Q0"":""Careless and simple""}","","","","","","","","","","","","","","","","","","","","","","",""
"8588.700000286102","","image-slider-response","38","266935","0.0-35.0","AB09F0Q4T10TE","","","","","-8","","","","","","","","","","","","","","","","","","","","","",""
"4504","","image-button-response","39","271938","0.0-36.0","AB09F0Q4T10TE","img_art/ins/3.jpg","0","","","","","","","","","","","","","","","","","","","","","","","","",""
"1614","","image-button-response","40","273554","0.0-37.0","AB09F0Q4T10TE","img_art/ins/3.jpg","4","","","","","","","","","","","","","","","","","","","","","","","","",""
"1253","","image-button-response","41","274809","0.0-38.0-0.0","AB09F0Q4T10TE","img_art/ins/3.jpg","0","","","","","","","","","","","","","","","","","","","","","","","","",""
"6444","","image-button-response","42","281255","0.0-39.0-0.0","AB09F0Q4T10TE","img_art/ins/3.jpg","5","","","","","","","","","","","","","","","","","","","","","","","","",""
"null","","html-keyboard-response","43","282758","0.0-40.0","AB09F0Q4T10TE","<p style=""font-size: 48px;"">+</p>","","","","","null","allTrialResponses","1500","1","0","img_art/ins/3.jpg","-8","Careless and simple","Adam,Sam,Ben,Mike,Ron,Kyle","My daily routine, it's depressing,-20,20,20","I can feel a rainy day from this painting,18,240,20","This thing gives me anxiety,-41,60,20","enjoy the different shades of blue,22,200,20","It looks depressing,-26,220,20","It looks like a playground for bats,-36,180,20","Ron","It looks depressing,-26,220,20","Adam","My daily routine, it's depressing,-20,20,20","Kyle","It looks like a playground for bats,-36,180,20","6"
"6454","","image-button-response_instructions","44","289216","0.0-41.0","AB09F0Q4T10TE","","0","instructions","","","","","","","","","","","","","","","","","","","","","","","",""
"12335","","survey-likert","45","301554","0.0-42.0-0.0","AB09F0Q4T10TE","","","","{""Q0"":"""",""Q1"":0,""Q2"":0}","","","","","","","","","","","","","","","","","","","","","","",""
"4179","","survey-likert","46","307786","0.0-42.1-0.1","AB09F0Q4T10TE","","","","{""Q0"":"""",""Q1"":0,""Q2"":1}","","","","","","","","","","","","","","","","","","","","","","",""
"7429","","survey-text","47","315222","0.0-43.0-0.0","AB09F0Q4T10TE","","","","{""Q0"":""rock""}","","","","","","","","","","","","","","","","","","","","","","",""
"41268","","survey-text","48","356491","0.0-44.0-0.0","AB09F0Q4T10TE","","","","{""Q0"":""Good use of brushes, but the work itself is ugly.""}","","","","","","","","","","","","","","","","","","","","","","",""
"3684.0999999046326","","image-slider-response","49","360177","0.0-45.0","AB09F0Q4T10TE","","","","","-5","","","","","","","","","","","","","","","","","","","","","",""
"2037","","image-button-response","50","365204","0.0-46.0","AB09F0Q4T10TE","img_art/28.jpg","0","","","","","","","","","","","","","","","","","","","","","","","","",""
"678","","image-button-response","51","365883","0.0-47.0","AB09F0Q4T10TE","img_art/28.jpg","0","","","","","","","","","","","","","","","","","","","","","","","","",""
"3431","","image-button-response","52","369317","0.0-48.0-0.0","AB09F0Q4T10TE","img_art/28.jpg","0","","","","","","","","","","","","","","","","","","","","","","","","",""
"5558","","image-button-response","53","377488","0.0-48.1-0.1","AB09F0Q4T10TE","img_art/28.jpg","3","","","","","","","","","","","","","","","","","","","","","","","","",""
"2147","","image-button-response","54","379638","0.0-49.0-0.0","AB09F0Q4T10TE","img_art/28.jpg","4","","","","","","","","","","","","","","","","","","","","","","","","",""
"null","","html-keyboard-response","55","381141","0.0-50.0","AB09F0Q4T10TE","<p style=""font-size: 48px;"">+</p>","","","","","null","allTrialResponses","1500","1","1","img_art/28.jpg","-5","Good use of brushes, but the work itself is ugly.","Anthony,Tanner,Thomas,Stephen,Jesse,Marcus","This picture doesn't really stand out to me,1,200,20","almost reminds me of thomas becket getting his head cut off,21,180,20","I can't explain why, but I really love this one,50,220,20","Good use of shapes.,7,140,20","Just all blurs together for me. No substance.,-23,80,20","This reminds me of internal organs.,-10,60,20","Anthony","This picture doesn't really stand out to me,1,200,20","Stephen","Good use of shapes.,7,140,20","Jesse","Just all blurs together for me. No substance.,-23,80,20","9"
"17713","","survey-text","56","398858","0.0-51.0-0.0","AB09F0Q4T10TE","","","","{""Q0"":""Looks like it was made in 5 minutes.""}","","","","","","","","","","","","","","","","","","","","","","",""
"5306.199999809265","","image-slider-response","57","404166","0.0-52.0","AB09F0Q4T10TE","","","","","-10","","","","","","","","","","","","","","","","","","","","","",""
"1693","","image-button-response","58","409168","0.0-53.0","AB09F0Q4T10TE","img_art/2.jpg","0","","","","","","","","","","","","","","","","","","","","","","","","",""
"580","","image-button-response","59","409751","0.0-54.0","AB09F0Q4T10TE","img_art/2.jpg","1","","","","","","","","","","","","","","","","","","","","","","","","",""
"1366","","image-button-response","60","411120","0.0-55.0-0.0","AB09F0Q4T10TE","img_art/2.jpg","0","","","","","","","","","","","","","","","","","","","","","","","","",""
"2454","","image-button-response","61","413577","0.0-56.0-0.0","AB09F0Q4T10TE","img_art/2.jpg","4","","","","","","","","","","","","","","","","","","","","","","","","",""
"null","","html-keyboard-response","62","415086","0.0-57.0","AB09F0Q4T10TE","<p style=""font-size: 48px;"">+</p>","","","","","null","allTrialResponses","1500","1","2","img_art/2.jpg","-10","Looks like it was made in 5 minutes.","Anthony,Joshua,Carlos,Stephen,Jesse,Devon","Ugly color scheme,-50,200,20","Looks like child's art.,-19,240,20","The colors are soothing, but the composition feels thoughtless.,-11,80,20","Colors mix nicely.,5,140,20","Looks childish and i dont like the texture,-25,80,20","another confusing piece of art,-12,400,20","Joshua","Looks like child's art.,-19,240,20","Anthony","Ugly color scheme,-50,200,20","Jesse","Looks childish and i dont like the texture,-25,80,20","9"
"7352","","survey-text","63","422443","0.0-58.0-0.0","AB09F0Q4T10TE","","","","{""Q0"":""A mess""}","","","","","","","","","","","","","","","","","","","","","","",""
"7962.300000190735","","image-slider-response","64","430407","0.0-59.0","AB09F0Q4T10TE","","","","","-10","","","","","","","","","","","","","","","","","","","","","",""
"null","","image-button-response","65","435410","0.0-60.0","AB09F0Q4T10TE","img_art/1.jpg","null","","","","","","","","","","","","","","","","","","","","","","","","",""
"231","","image-button-response","66","435642","0.0-61.0","AB09F0Q4T10TE","img_art/1.jpg","2","","","","","","","","","","","","","","","","","","","","","","","","",""
"1541","","image-button-response","67","437184","0.0-62.0-0.0","AB09F0Q4T10TE","img_art/1.jpg","4","","","","","","","","","","","","","","","","","","","","","","","","",""
"4487","","image-button-response","68","441675","0.0-63.0-0.0","AB09F0Q4T10TE","img_art/1.jpg","1","","","","","","","","","","","","","","","","","","","","","","","","",""
"null","","html-keyboard-response","69","443178","0.0-64.0","AB09F0Q4T10TE","<p style=""font-size: 48px;"">+</p>","","","","","null","allTrialResponses","1500","1","3","img_art/1.jpg","-10","A mess","Anthony,Joshua,Blake,Dylan,Jesse,Scott","Bright and colorful without being overpowering,32,200,20","Reminds me of fall.,7,240,20","colors that are fairly warm. its ok,8,280,20","I love the warm colors of the art,32,40,20","Im not a fan of the bluriness,-18,80,20","good colors and contrast,31,20,20","Blake","colors that are fairly warm. its ok,8,280,20","Jesse","Im not a fan of the bluriness,-18,80,20","Joshua","Reminds me of fall.,7,240,20","9"
"44281","","survey-text","70","487465","0.0-65.0-0.0","AB09F0Q4T10TE","","","","{""Q0"":""I see a tree in front of ocean with apples on ground. It's incredibly ugly.""}","","","","","","","","","","","","","","","","","","","","","","",""
"4843.300000190735","","image-slider-response","71","492310","0.0-66.0","AB09F0Q4T10TE","","","","","-10","","","","","","","","","","","","","","","","","","","","","",""
"null","","image-button-response","72","497318","0.0-67.0","AB09F0Q4T10TE","img_art/14.jpg","null","","","","","","","","","","","","","","","","","","","","","","","","",""
"1462","","image-button-response","73","498787","0.0-68.0","AB09F0Q4T10TE","img_art/14.jpg","0","","","","","","","","","","","","","","","","","","","","","","","","",""
"1029","","image-button-response","74","499818","0.0-69.0-0.0","AB09F0Q4T10TE","img_art/14.jpg","1","","","","","","","","","","","","","","","","","","","","","","","","",""
"7210","","image-button-response","75","507030","0.0-70.0-0.0","AB09F0Q4T10TE","img_art/14.jpg","3","","","","","","","","","","","","","","","","","","","","","","","","",""
"null","","html-keyboard-response","76","507533","0.0-71.0","AB09F0Q4T10TE","<p style=""font-size: 48px;"">+</p>","","","","","null","allTrialResponses","500","1","4","img_art/14.jpg","-10","I see a tree in front of ocean with apples on ground. It's incredibly ugly.","Garrett,Joshua,Blake,Corey,Jesse,Dustin","I like this picture because it looks like a tree and the colors used look cool.,20,180,20","This doesn't speak to me on an emotional level,-6,240,20","fuzzy and confused. ok then well,16,280,20","its okay. pretty bland but looks like nature,8,260,20","Its cute. Not striking but i would keep it in my home.,10,80,20","It represents growth. I see a plant/tree growing out of the ground. I like the rainbow of color in the painting.,31,20,20","Garrett","I like this picture because it looks like a tree and the colors used look cool.,20,180,20","Joshua","This doesn't speak to me on an emotional level,-6,240,20","Corey","its okay. pretty bland but looks like nature,8,260,20","9"
"17104","","survey-text","77","524642","0.0-72.0-0.0","AB09F0Q4T10TE","","","","{""Q0"":""Looks kinda dark. ""}","","","","","","","","","","","","","","","","","","","","","","",""
"7663.199999809265","","image-slider-response","78","532307","0.0-73.0","AB09F0Q4T10TE","","","","","-12","","","","","","","","","","","","","","","","","","","","","",""
"4984","","image-button-response","79","537311","0.0-74.0","AB09F0Q4T10TE","img_art/16.jpg","2","","","","","","","","","","","","","","","","","","","","","","","","",""
"730","","image-button-response","80","538043","0.0-75.0","AB09F0Q4T10TE","img_art/16.jpg","2","","","","","","","","","","","","","","","","","","","","","","","","",""
"689","","image-button-response","81","538733","0.0-76.0-0.0","AB09F0Q4T10TE","img_art/16.jpg","0","","","","","","","","","","","","","","","","","","","","","","","","",""
"1427","","image-button-response","82","540162","0.0-77.0-0.0","AB09F0Q4T10TE","img_art/16.jpg","4","","","","","","","","","","","","","","","","","","","","","","","","",""
"null","","html-keyboard-response","83","540664","0.0-78.0","AB09F0Q4T10TE","<p style=""font-size: 48px;"">+</p>","","","","","null","allTrialResponses","500","1","5","img_art/16.jpg","-12","Looks kinda dark. ","Garrett,Joshua,Richard,Corey,Jordan,Justin","I think this picture is weird and the colors are very boring.,-50,180,20","This is weird and a little creepy.,6,240,20","nonsense art, not really art,-44,340,20","i like how it incorporates mixed visual art with the photo of the bear and the drawings,30,260,20","The bear makes me very uncomfortable,-50,160,20","Kind of dull, colors and drawings are not really interesting.,0,280,20","Richard","nonsense art, not really art,-44,340,20","Garrett","I think this picture is weird and the colors are very boring.,-50,180,20","Jordan","The bear makes me very uncomfortable,-50,160,20","9"
"4128","","survey-text","84","544804","0.0-79.0-0.0","AB09F0Q4T10TE","","","","{""Q0"":""sky""}","","","","","","","","","","","","","","","","","","","","","","",""
"43255","","survey-text","85","588061","0.0-80.0-0.0","AB09F0Q4T10TE","","","","{""Q0"":""Good techniques being used. The painting itself is ugly though.""}","","","","","","","","","","","","","","","","","","","","","","",""
"7794.799999713898","","image-slider-response","86","595858","0.0-81.0","AB09F0Q4T10TE","","","","","-6","","","","","","","","","","","","","","","","","","","","","",""
"null","","image-button-response","87","600860","0.0-82.0","AB09F0Q4T10TE","img_art/12.jpg","null","","","","","","","","","","","","","","","","","","","","","","","","",""
"3270","","image-button-response","88","604133","0.0-83.0","AB09F0Q4T10TE","img_art/12.jpg","3","","","","","","","","","","","","","","","","","","","","","","","","",""
"9994","","image-button-response","89","614130","0.0-84.0-0.0","AB09F0Q4T10TE","img_art/12.jpg","5","","","","","","","","","","","","","","","","","","","","","","","","",""
"5177","","image-button-response","90","619310","0.0-85.0-0.0","AB09F0Q4T10TE","img_art/12.jpg","0","","","","","","","","","","","","","","","","","","","","","","","","",""
"null","","html-keyboard-response","91","619813","0.0-86.0","AB09F0Q4T10TE","<p style=""font-size: 48px;"">+</p>","","","","","null","allTrialResponses","500","1","6","img_art/12.jpg","-6","Good techniques being used. The painting itself is ugly though.","Garrett,Timothy,Richard,Bradley,Jordan,Grant","This image doesn't have anything going on. The top half is really ugly, I kind of like the bottom a little.,-20,180,20","The shapes make me feel a bit uncomfortable,-10,240,20","seems too dark on top and too common on the bottom,-19,340,20","Good technique. It's just not my thing.,2,300,20","Made me uncomfortable, reminded me of the 90s,-9,160,20","This elicits no reaction in me.,0,200,20","Bradley","Good technique. It's just not my thing.,2,300,20","Grant","This elicits no reaction in me.,0,200,20","Garrett","This image doesn't have anything going on. The top half is really ugly, I kind of like the bottom a little.,-20,180,20","9"
"17152","","survey-text","92","636969","0.0-87.0-0.0","AB09F0Q4T10TE","","","","{""Q0"":""Sparks imagination. ""}","","","","","","","","","","","","","","","","","","","","","","",""
"4114.900000095367","","image-slider-response","93","641087","0.0-88.0","AB09F0Q4T10TE","","","","","5","","","","","","","","","","","","","","","","","","","","","",""
"null","","image-button-response","94","646098","0.0-89.0","AB09F0Q4T10TE","img_art/25.jpg","null","","","","","","","","","","","","","","","","","","","","","","","","",""
"4591","","image-button-response","95","650692","0.0-90.0","AB09F0Q4T10TE","img_art/25.jpg","2","","","","","","","","","","","","","","","","","","","","","","","","",""
"1953","","image-button-response","96","652647","0.0-91.0-0.0","AB09F0Q4T10TE","img_art/25.jpg","4","","","","","","","","","","","","","","","","","","","","","","","","",""
"12124","","image-button-response","97","664774","0.0-92.0-0.0","AB09F0Q4T10TE","img_art/25.jpg","5","","","","","","","","","","","","","","","","","","","","","","","","",""
"null","","html-keyboard-response","98","665277","0.0-93.0","AB09F0Q4T10TE","<p style=""font-size: 48px;"">+</p>","","","","","null","allTrialResponses","500","1","7","img_art/25.jpg","5","Sparks imagination. ","Garrett,Mason,Bryan,Bradley,Aaron,Grant","I like the way the persons clothes look, there could be more color though.,10,180,20","death. childish nightmare.,-29,100,20","Scary. Something out of a Stephen King book/movie.,-31,400,20","This one just has a dark feeling to me.,-50,300,20","I love the green and the texture,50,20,20","I feel like I'm looking at something larger than myself.,30,200,20","Bryan","Scary. Something out of a Stephen King book/movie.,-31,400,20","Aaron","I love the green and the texture,50,20,20","Grant","I feel like I'm looking at something larger than myself.,30,200,20","9"
"14167","","survey-text","99","679448","0.0-94.0-0.0","AB09F0Q4T10TE","","","","{""Q0"":""Boring smudge.""}","","","","","","","","","","","","","","","","","","","","","","",""
"5136.5","","image-slider-response","100","684586","0.0-95.0","AB09F0Q4T10TE","","","","","-6","","","","","","","","","","","","","","","","","","","","","",""
"null","","image-button-response","101","689592","0.0-96.0","AB09F0Q4T10TE","img_art/26.jpg","null","","","","","","","","","","","","","","","","","","","","","","","","",""
"902","","image-button-response","102","690496","0.0-97.0","AB09F0Q4T10TE","img_art/26.jpg","4","","","","","","","","","","","","","","","","","","","","","","","","",""
"8492","","image-button-response","103","698989","0.0-98.0-0.0","AB09F0Q4T10TE","img_art/26.jpg","0","","","","","","","","","","","","","","","","","","","","","","","","",""
"1152","","image-button-response","104","700144","0.0-99.0-0.0","AB09F0Q4T10TE","img_art/26.jpg","3","","","","","","","","","","","","","","","","","","","","","","","","",""
"null","","html-keyboard-response","105","700646","0.0-100.0","AB09F0Q4T10TE","<p style=""font-size: 48px;"">+</p>","","","","","null","allTrialResponses","500","1","8","img_art/26.jpg","-6","Boring smudge.","Devin,Kevin,Bryan,Benjamin,Aaron,Grant","I like the shapes but needs more detail i think,3,380,20","Some trees in front of a house.,2,320,20","Like the muted colors & the scene which seems to be serene.,14,400,20","The colors are muted.,1,260,20","It looks like a watercolor I did when I was 6.,-30,20,20","It's a cute city scene. I like the trees.,10,200,20","Aaron","It looks like a watercolor I did when I was 6.,-30,20,20","Devin","I like the shapes but needs more detail i think,3,380,20","Benjamin","The colors are muted.,1,260,20","9"
"43209","","survey-text","106","743858","0.0-101.0-0.0","AB09F0Q4T10TE","","","","{""Q0"":""Bland and uninteresting.""}","","","","","","","","","","","","","","","","","","","","","","",""
"3509.199999809265","","image-slider-response","107","747369","0.0-102.0","AB09F0Q4T10TE","","","","","-5","","","","","","","","","","","","","","","","","","","","","",""
"4980","","image-button-response","108","752371","0.0-103.0","AB09F0Q4T10TE","img_art/10.jpg","2","","","","","","","","","","","","","","","","","","","","","","","","",""
"1138","","image-button-response","109","753512","0.0-104.0","AB09F0Q4T10TE","img_art/10.jpg","2","","","","","","","","","","","","","","","","","","","","","","","","",""
"602","","image-button-response","110","754116","0.0-105.0-0.0","AB09F0Q4T10TE","img_art/10.jpg","0","","","","","","","","","","","","","","","","","","","","","","","","",""
"5036","","image-button-response","111","759154","0.0-106.0-0.0","AB09F0Q4T10TE","img_art/10.jpg","3","","","","","","","","","","","","","","","","","","","","","","","","",""
"null","","html-keyboard-response","112","760656","0.0-107.0","AB09F0Q4T10TE","<p style=""font-size: 48px;"">+</p>","","","","","null","allTrialResponses","1500","1","9","img_art/10.jpg","-5","Bland and uninteresting.","Devin,Paul,Luke,Benjamin,Aaron,Joseph","Looks a bit as though someone ran over it?,-13,380,20","It doesn't look pleasing to the eye, it kind of looks like an animal but a dirty one,-38,300,20","it reminds me of a musical instrument,19,20,20","This picture just seems depressing.,-26,260,20","I like how simple but intricate it is.,30,20,20","The loop type thing reminds me of interconnectedness and life and hope.,12,220,20","Luke","it reminds me of a musical instrument,19,20,20","Devin","Looks a bit as though someone ran over it?,-13,380,20","Benjamin","This picture just seems depressing.,-26,260,20","9"
"30532","","survey-text","113","791194","0.0-108.0-0.0","AB09F0Q4T10TE","","","","{""Q0"":""Interesting technique. Don't like or dislike it.""}","","","","","","","","","","","","","","","","","","","","","","",""
"5707.299999713898","","image-slider-response","114","796902","0.0-109.0","AB09F0Q4T10TE","","","","","0","","","","","","","","","","","","","","","","","","","","","",""
"null","","image-button-response","115","801905","0.0-110.0","AB09F0Q4T10TE","img_art/23.jpg","null","","","","","","","","","","","","","","","","","","","","","","","","",""
"2274","","image-button-response","116","804181","0.0-111.0","AB09F0Q4T10TE","img_art/23.jpg","1","","","","","","","","","","","","","","","","","","","","","","","","",""
"4911","","image-button-response","117","809094","0.0-112.0-0.0","AB09F0Q4T10TE","img_art/23.jpg","0","","","","","","","","","","","","","","","","","","","","","","","","",""
"3146","","image-button-response","118","812242","0.0-113.0-0.0","AB09F0Q4T10TE","img_art/23.jpg","2","","","","","","","","","","","","","","","","","","","","","","","","",""
"null","","html-keyboard-response","119","813753","0.0-114.0","AB09F0Q4T10TE","<p style=""font-size: 48px;"">+</p>","","","","","null","allTrialResponses","1500","1","10","img_art/23.jpg","0","Interesting technique. Don't like or dislike it.","Devin,Austin,Luke,Benjamin,Jack,Luis","background is great but the white is a bit weird,3,380,20","Fantastic blend of color and forms,43,240,20","makes me happy and want to dance,43,20,20","The background colors seem too dark and the middle images take away from it.,4,260,20","awesome colors. love the white drawing the eye to the center. oddly comforting.,50,320,20","I dont like the chaos of this,-20,400,20","Austin","Fantastic blend of color and forms,43,240,20","Devin","background is great but the white is a bit weird,3,380,20","Luke","makes me happy and want to dance,43,20,20","9"
"5191","","survey-text","120","818952","0.0-115.0-0.0","AB09F0Q4T10TE","","","","{""Q0"":""our""}","","","","","","","","","","","","","","","","","","","","","","",""
"36654","","survey-text","121","855608","0.0-116.0-0.0","AB09F0Q4T10TE","","","","{""Q0"":""Too much red. Looks like a bunch of red scribble with a grey stone.""}","","","","","","","","","","","","","","","","","","","","","","",""
"4456.599999904633","","image-slider-response","122","860067","0.0-117.0","AB09F0Q4T10TE","","","","","-10","","","","","","","","","","","","","","","","","","","","","",""
"3525","","image-button-response","123","865070","0.0-118.0","AB09F0Q4T10TE","img_art/3.jpg","0","","","","","","","","","","","","","","","","","","","","","","","","",""
"174","","image-button-response","124","865247","0.0-119.0","AB09F0Q4T10TE","img_art/3.jpg","0","","","","","","","","","","","","","","","","","","","","","","","","",""
"5867","","image-button-response","125","871116","0.0-120.0-0.0","AB09F0Q4T10TE","img_art/3.jpg","5","","","","","","","","","","","","","","","","","","","","","","","","",""
"2051","","image-button-response","126","873170","0.0-121.0-0.0","AB09F0Q4T10TE","img_art/3.jpg","1","","","","","","","","","","","","","","","","","","","","","","","","",""
"null","","html-keyboard-response","127","873672","0.0-122.0","AB09F0Q4T10TE","<p style=""font-size: 48px;"">+</p>","","","","","null","allTrialResponses","500","1","11","img_art/3.jpg","-10","Too much red. Looks like a bunch of red scribble with a grey stone.","Devin,Austin,Luke,Michael,Robert,Nicholas","Scribbly a bit too much,-30,380,20","It doesn't invoke any excitement,-21,240,20","it makes me feel really angry,-20,20,20","Looks like someone mentalyl unstable drew and is ready to go a a killing spree.,-50,140,20","I think of an angry child,-50,360,20","Too angry and scribbly,-43,240,20","Devin","Scribbly a bit too much,-30,380,20","Nicholas","Too angry and scribbly,-43,240,20","Austin","It doesn't invoke any excitement,-21,240,20","9"
"28591","","survey-text","128","902268","0.0-123.0-0.0","AB09F0Q4T10TE","","","","{""Q0"":""Death on a white horse. Good skill. Don't like the painting though.""}","","","","","","","","","","","","","","","","","","","","","","",""
"5083.300000190735","","image-slider-response","129","907353","0.0-124.0","AB09F0Q4T10TE","","","","","-5","","","","","","","","","","","","","","","","","","","","","",""
"3817","","image-button-response","130","912357","0.0-125.0","AB09F0Q4T10TE","img_art/18.jpg","2","","","","","","","","","","","","","","","","","","","","","","","","",""
"871","","image-button-response","131","913230","0.0-126.0","AB09F0Q4T10TE","img_art/18.jpg","2","","","","","","","","","","","","","","","","","","","","","","","","",""
"7463","","image-button-response","132","920694","0.0-127.0-0.0","AB09F0Q4T10TE","img_art/18.jpg","4","","","","","","","","","","","","","","","","","","","","","","","","",""
"5308","","image-button-response","133","926004","0.0-128.0-0.0","AB09F0Q4T10TE","img_art/18.jpg","3","","","","","","","","","","","","","","","","","","","","","","","","",""
"null","","html-keyboard-response","134","927507","0.0-129.0","AB09F0Q4T10TE","<p style=""font-size: 48px;"">+</p>","","","","","null","allTrialResponses","1500","1","12","img_art/18.jpg","-5","Death on a white horse. Good skill. Don't like the painting though.","Devin,Austin,Connor,Steven,Alexander,Nicholas","Good concept but then scribbled on a bit?,15,380,20","Nice abstract art,50,240,20","See a weird horse,-22,240,20","Oh heck yes! I see two warriors riding down from valhalla, awesome painting,50,160,20","Ghostly sea adventure.,20,120,20","Id love to see this piece closer. So much extra details hidden it it.,50,240,20","Connor","See a weird horse,-22,240,20","Alexander","Ghostly sea adventure.,20,120,20","Steven","Oh heck yes! I see two warriors riding down from valhalla, awesome painting,50,160,20","9"
"23877","","survey-text","135","951388","0.0-130.0-0.0","AB09F0Q4T10TE","","","","{""Q0"":""A basic texture like paint chipping from an old wall. ""}","","","","","","","","","","","","","","","","","","","","","","",""
"5196.400000095367","","image-slider-response","136","956587","0.0-131.0","AB09F0Q4T10TE","","","","","0","","","","","","","","","","","","","","","","","","","","","",""
"4051","","image-button-response","137","961589","0.0-132.0","AB09F0Q4T10TE","img_art/7.jpg","1","","","","","","","","","","","","","","","","","","","","","","","","",""
"222","","image-button-response","138","961813","0.0-133.0","AB09F0Q4T10TE","img_art/7.jpg","1","","","","","","","","","","","","","","","","","","","","","","","","",""
"4856","","image-button-response","139","966671","0.0-134.0-0.0","AB09F0Q4T10TE","img_art/7.jpg","5","","","","","","","","","","","","","","","","","","","","","","","","",""
"2913","","image-button-response","140","969587","0.0-135.0-0.0","AB09F0Q4T10TE","img_art/7.jpg","2","","","","","","","","","","","","","","","","","","","","","","","","",""
"null","","html-keyboard-response","141","971091","0.0-136.0","AB09F0Q4T10TE","<p style=""font-size: 48px;"">+</p>","","","","","null","allTrialResponses","1500","1","13","img_art/7.jpg","0","A basic texture like paint chipping from an old wall. ","Derek,Chase,Connor,Steven,Alexander,Lucas","Not a fan of the pattern or colors,-40,360,20","Just looks like rocks or some kind of mineral.,0,120,20","Color is bland and looks damaged,-37,240,20","looks like the surface of the moon.,1,160,20","Dead bugs on an insect battleground.,-10,120,20","Don't understand the meaning of this picture.,-30,380,20","Chase","Just looks like rocks or some kind of mineral.,0,120,20","Lucas","Don't understand the meaning of this picture.,-30,380,20","Connor","Color is bland and looks damaged,-37,240,20","9"
"20010","","survey-text","142","991108","0.0-137.0-0.0","AB09F0Q4T10TE","","","","{""Q0"":""A woman sleeping in a forest. ""}","","","","","","","","","","","","","","","","","","","","","","",""
"3465.5999999046326","","image-slider-response","143","994576","0.0-138.0","AB09F0Q4T10TE","","","","","2","","","","","","","","","","","","","","","","","","","","","",""
"null","","image-button-response","144","999602","0.0-139.0","AB09F0Q4T10TE","img_art/9.jpg","null","","","","","","","","","","","","","","","","","","","","","","","","",""
"8692","","image-button-response","145","1008296","0.0-140.0","AB09F0Q4T10TE","img_art/9.jpg","3","","","","","","","","","","","","","","","","","","","","","","","","",""
"6811","","image-button-response","146","1015110","0.0-141.0-0.0","AB09F0Q4T10TE","img_art/9.jpg","2","","","","","","","","","","","","","","","","","","","","","","","","",""
"2744","","image-button-response","147","1017857","0.0-142.0-0.0","AB09F0Q4T10TE","img_art/9.jpg","5","","","","","","","","","","","","","","","","","","","","","","","","",""
"null","","html-keyboard-response","148","1019366","0.0-143.0","AB09F0Q4T10TE","<p style=""font-size: 48px;"">+</p>","","","","","null","allTrialResponses","1500","1","14","img_art/9.jpg","2","A woman sleeping in a forest. ","Samuel,Chase,Connor,Jonathan,Bryce,Lucas","what a wild ride,11,400,20","Looks like a sloppy iguana.,-11,120,20","Framing is overwhelming,-35,240,20","It's peaceful and relaxing,24,140,20","Looks like a crayon drawing.,21,20,20","I like the way the artist has painted his painting.,20,380,20","Jonathan","It's peaceful and relaxing,24,140,20","Connor","Framing is overwhelming,-35,240,20","Lucas","I like the way the artist has painted his painting.,20,380,20","9"
"22483","","survey-text","149","1041854","0.0-144.0-0.0","AB09F0Q4T10TE","","","","{""Q0"":""Somewhat skillful, but very boring.""}","","","","","","","","","","","","","","","","","","","","","","",""
"4550","","image-slider-response","150","1046406","0.0-145.0","AB09F0Q4T10TE","","","","","-5","","","","","","","","","","","","","","","","","","","","","",""
"3960","","image-button-response","151","1051413","0.0-146.0","AB09F0Q4T10TE","img_art/17.jpg","0","","","","","","","","","","","","","","","","","","","","","","","","",""
"148","","image-button-response","152","1051563","0.0-147.0","AB09F0Q4T10TE","img_art/17.jpg","0","","","","","","","","","","","","","","","","","","","","","","","","",""
"157","","image-button-response","153","1051722","0.0-148.0-0.0","AB09F0Q4T10TE","img_art/17.jpg","0","","","","","","","","","","","","","","","","","","","","","","","","",""
"506","","image-button-response","154","1054550","0.0-148.1-0.1","AB09F0Q4T10TE","img_art/17.jpg","1","","","","","","","","","","","","","","","","","","","","","","","","",""
"380","","image-button-response","155","1054932","0.0-149.0-0.0","AB09F0Q4T10TE","img_art/17.jpg","2","","","","","","","","","","","","","","","","","","","","","","","","",""
"null","","html-keyboard-response","156","1055434","0.0-150.0","AB09F0Q4T10TE","<p style=""font-size: 48px;"">+</p>","","","","","null","allTrialResponses","500","1","15","img_art/17.jpg","-5","Somewhat skillful, but very boring.","Adam,Cole,Connor,Jonathan,Trevor,Lucas","Very washed out.,-10,40,20","It looks unfinished,-7,200,20","Windows indoor tree, weird palette,-11,240,20","Feels nostalgic somehow,31,140,20","I like how it looks like a tree. The colors are too muted though,12,280,20","Wow, I haven't seen anything better than this.,40,380,20","Adam","Very washed out.,-10,40,20","Cole","It looks unfinished,-7,200,20","Connor","Windows indoor tree, weird palette,-11,240,20","11"
"4509","","survey-text","157","1059952","0.0-151.0-0.0","AB09F0Q4T10TE","","","","{""Q0"":""course""}","","","","","","","","","","","","","","","","","","","","","","",""
"42032","","survey-text","158","1101986","0.0-152.0-0.0","AB09F0Q4T10TE","","","","{""Q0"":""Somewhat interesting. It looks like paint spilled everywhere on a brush.""}","","","","","","","","","","","","","","","","","","","","","","",""
"2687.699999809265","","image-slider-response","159","1104676","0.0-153.0","AB09F0Q4T10TE","","","","","3","","","","","","","","","","","","","","","","","","","","","",""
"null","","image-button-response","160","1109690","0.0-154.0","AB09F0Q4T10TE","img_art/29.jpg","null","","","","","","","","","","","","","","","","","","","","","","","","",""
"2237","","image-button-response","161","1111930","0.0-155.0","AB09F0Q4T10TE","img_art/29.jpg","1","","","","","","","","","","","","","","","","","","","","","","","","",""
"2914","","image-button-response","162","1114846","0.0-156.0-0.0","AB09F0Q4T10TE","img_art/29.jpg","5","","","","","","","","","","","","","","","","","","","","","","","","",""
"5381","","image-button-response","163","1120230","0.0-157.0-0.0","AB09F0Q4T10TE","img_art/29.jpg","0","","","","","","","","","","","","","","","","","","","","","","","","",""
"null","","html-keyboard-response","164","1121231","0.0-158.0","AB09F0Q4T10TE","<p style=""font-size: 48px;"">+</p>","","","","","null","allTrialResponses","1000","1","16","img_art/29.jpg","3","Somewhat interesting. It looks like paint spilled everywhere on a brush.","Adam,Cole,Connor,Dakota,Patrick,Travis","Flash is too strong. Dislike the colors,-5,40,20","Looks like someone trying to make something they dont understand,-36,200,20","Red X is scary, like the bricks,7,240,20","this is not art to me - it's random collage,-45,280,20","I don't like the black,-50,280,20","Neural...just a blackboard jungle.,3,260,20","Cole","Looks like someone trying to make something they dont understand,-36,200,20","Travis","Neural...just a blackboard jungle.,3,260,20","Adam","Flash is too strong. Dislike the colors,-5,40,20","11"
"16549","","survey-text","165","1137788","0.0-159.0-0.0","AB09F0Q4T10TE","","","","{""Q0"":""Good brush techniques. Painting is ugly though.""}","","","","","","","","","","","","","","","","","","","","","","",""
"3071.0999999046326","","image-slider-response","166","1140861","0.0-160.0","AB09F0Q4T10TE","","","","","-5","","","","","","","","","","","","","","","","","","","","","",""
"3832","","image-button-response","167","1145863","0.0-161.0","AB09F0Q4T10TE","img_art/21.jpg","1","","","","","","","","","","","","","","","","","","","","","","","","",""
"754","","image-button-response","168","1146619","0.0-162.0","AB09F0Q4T10TE","img_art/21.jpg","0","","","","","","","","","","","","","","","","","","","","","","","","",""
"531","","image-button-response","169","1147152","0.0-163.0-0.0","AB09F0Q4T10TE","img_art/21.jpg","1","","","","","","","","","","","","","","","","","","","","","","","","",""
"4516","","image-button-response","170","1151670","0.0-164.0-0.0","AB09F0Q4T10TE","img_art/21.jpg","5","","","","","","","","","","","","","","","","","","","","","","","","",""
"null","","html-keyboard-response","171","1153178","0.0-165.0","AB09F0Q4T10TE","<p style=""font-size: 48px;"">+</p>","","","","","null","allTrialResponses","1500","1","17","img_art/21.jpg","-5","Good brush techniques. Painting is ugly though.","Adam,Cole,Tyler,Brandon,Noah,Travis","I like color mix here,15,40,20","Unfinished. Confusing to look at,-12,200,20","War! But then, what? And then, what of it? Intention seems incomplete, or not fully committed to.,-19,320,20","I love this. Reminds me of a coast. The colors flow beautifully,40,320,20","brings up imagery of the sea and clashing, though not in a negative way,31,260,20","I liked it...it looked like a storm raging.,12,260,20","Adam","I like color mix here,15,40,20","Cole","Unfinished. Confusing to look at,-12,200,20","Travis","I liked it...it looked like a storm raging.,12,260,20","11"
"42350","","survey-text","172","1195533","0.0-166.0-0.0","AB09F0Q4T10TE","","","","{""Q0"":""Uninteresting. Reminds me of ropes or strings.""}","","","","","","","","","","","","","","","","","","","","","","",""
"2687.3999996185303","","image-slider-response","173","1198222","0.0-167.0","AB09F0Q4T10TE","","","","","-3","","","","","","","","","","","","","","","","","","","","","",""
"1195","","image-button-response","174","1203225","0.0-168.0","AB09F0Q4T10TE","img_art/4.jpg","0","","","","","","","","","","","","","","","","","","","","","","","","",""
"315","","image-button-response","175","1203544","0.0-169.0","AB09F0Q4T10TE","img_art/4.jpg","0","","","","","","","","","","","","","","","","","","","","","","","","",""
"4455","","image-button-response","176","1208001","0.0-170.0-0.0","AB09F0Q4T10TE","img_art/4.jpg","4","","","","","","","","","","","","","","","","","","","","","","","","",""
"7970","","image-button-response","177","1215973","0.0-171.0-0.0","AB09F0Q4T10TE","img_art/4.jpg","5","","","","","","","","","","","","","","","","","","","","","","","","",""
"null","","html-keyboard-response","178","1216976","0.0-172.0","AB09F0Q4T10TE","<p style=""font-size: 48px;"">+</p>","","","","","null","allTrialResponses","1000","1","18","img_art/4.jpg","-3","Uninteresting. Reminds me of ropes or strings.","Adam,Cole,Brett,Evan,Charles,Travis","McDonald's French Fries.,-10,40,20","Fingerpaint of a hand?,-30,200,20","I just have no clue,26,360,20","I'm disappointed that such a simple piece, with very little effort spent, could be grouped with other detailed pieces,-31,140,20","It's ok, theres nothing that draws me away from it I guess,0,100,20","I don't like this...a mustardy scibble.,-47,260,20","Adam","McDonald's French Fries.,-10,40,20","Charles","It's ok, theres nothing that draws me away from it I guess,0,100,20","Travis","I don't like this...a mustardy scibble.,-47,260,20","11"
"18708","","survey-text","179","1235691","0.0-173.0-0.0","AB09F0Q4T10TE","","","","{""Q0"":""Looks pretty. Like a stream of water in a colorful forest.""}","","","","","","","","","","","","","","","","","","","","","","",""
"4327.400000095367","","image-slider-response","180","1240020","0.0-174.0","AB09F0Q4T10TE","","","","","10","","","","","","","","","","","","","","","","","","","","","",""
"3350","","image-button-response","181","1245023","0.0-175.0","AB09F0Q4T10TE","img_art/24.jpg","1","","","","","","","","","","","","","","","","","","","","","","","","",""
"564","","image-button-response","182","1245590","0.0-176.0","AB09F0Q4T10TE","img_art/24.jpg","1","","","","","","","","","","","","","","","","","","","","","","","","",""
"717","","image-button-response","183","1246309","0.0-177.0-0.0","AB09F0Q4T10TE","img_art/24.jpg","2","","","","","","","","","","","","","","","","","","","","","","","","",""
"1430","","image-button-response","184","1247741","0.0-178.0-0.0","AB09F0Q4T10TE","img_art/24.jpg","5","","","","","","","","","","","","","","","","","","","","","","","","",""
"null","","html-keyboard-response","185","1249245","0.0-179.0","AB09F0Q4T10TE","<p style=""font-size: 48px;"">+</p>","","","","","null","allTrialResponses","1500","1","19","img_art/24.jpg","10","Looks pretty. Like a stream of water in a colorful forest.","Adam,Vincent,Ryan,Hunter,Charles,Travis","I appreciate the earth tones. Soothing.,5,40,20","Spending a day in nature,21,360,20","Beautiful,  peaceful,50,380,20","feels overdone, but still executed well,0,240,20","It just feels a little bland for me,-23,100,20","I like it...looks like a waterfall.,11,260,20","Vincent","Spending a day in nature,21,360,20","Ryan","Beautiful,  peaceful,50,380,20","Travis","I like it...looks like a waterfall.,11,260,20","11"
"9285","","survey-text","186","1258536","0.0-180.0-0.0","AB09F0Q4T10TE","","","","{""Q0"":""Volcano""}","","","","","","","","","","","","","","","","","","","","","","",""
"6144.400000095367","","image-slider-response","187","1264682","0.0-181.0","AB09F0Q4T10TE","","","","","-5","","","","","","","","","","","","","","","","","","","","","",""
"null","","image-button-response","188","1269689","0.0-182.0","AB09F0Q4T10TE","img_art/5.jpg","null","","","","","","","","","","","","","","","","","","","","","","","","",""
"10633","","image-button-response","189","1280325","0.0-183.0","AB09F0Q4T10TE","img_art/5.jpg","4","","","","","","","","","","","","","","","","","","","","","","","","",""
"2832","","image-button-response","190","1283159","0.0-184.0-0.0","AB09F0Q4T10TE","img_art/5.jpg","3","","","","","","","","","","","","","","","","","","","","","","","","",""
"983","","image-button-response","191","1284144","0.0-185.0-0.0","AB09F0Q4T10TE","img_art/5.jpg","0","","","","","","","","","","","","","","","","","","","","","","","","",""
"null","","html-keyboard-response","192","1285646","0.0-186.0","AB09F0Q4T10TE","<p style=""font-size: 48px;"">+</p>","","","","","null","allTrialResponses","1500","1","20","img_art/5.jpg","-5","Volcano","Jacob,Vincent,Ryan,Jorge,Jose,Travis","Don't really know the point of this one.,-11,340,20","It speaks volumes to some. It's also a conversational piece. And very different ideas,34,360,20","Very good color coordination,41,380,20","boring and unsure,-25,180,20","Don't love don't hate,8,200,20","This was awful and it looked like someone took minimul effort with it... no time at all.,-49,260,20","Jose","Don't love don't hate,8,200,20","Jorge","boring and unsure,-25,180,20","Jacob","Don't really know the point of this one.,-11,340,20","11"
"4037","","survey-text","193","1289692","0.0-187.0-0.0","AB09F0Q4T10TE","","","","{""Q0"":""we""}","","","","","","","","","","","","","","","","","","","","","","",""
"30330","","survey-text","194","1320025","0.0-188.0-0.0","AB09F0Q4T10TE","","","","{""Q0"":""A lot going on hidden in a world of scribbles and smudges.""}","","","","","","","","","","","","","","","","","","","","","","",""
"2512.199999809265","","image-slider-response","195","1322539","0.0-189.0","AB09F0Q4T10TE","","","","","-5","","","","","","","","","","","","","","","","","","","","","",""
"4895","","image-button-response","196","1327542","0.0-190.0","AB09F0Q4T10TE","img_art/20.jpg","0","","","","","","","","","","","","","","","","","","","","","","","","",""
"568","","image-button-response","197","1328113","0.0-191.0","AB09F0Q4T10TE","img_art/20.jpg","0","","","","","","","","","","","","","","","","","","","","","","","","",""
"700","","image-button-response","198","1328815","0.0-192.0-0.0","AB09F0Q4T10TE","img_art/20.jpg","3","","","","","","","","","","","","","","","","","","","","","","","","",""
"1501","","image-button-response","199","1330318","0.0-193.0-0.0","AB09F0Q4T10TE","img_art/20.jpg","4","","","","","","","","","","","","","","","","","","","","","","","","",""
"null","","html-keyboard-response","200","1330819","0.0-194.0","AB09F0Q4T10TE","<p style=""font-size: 48px;"">+</p>","","","","","null","allTrialResponses","500","1","21","img_art/20.jpg","-5","A lot going on hidden in a world of scribbles and smudges.","Jacob,Jesus,James,Jorge,Jose,Ethan","It looks painted really nicely.,5,340,20","Shapes are fun to interpret,21,100,20","It looks like a motorcycle and I like cars and motorcycles,30,380,20","Curious about what lies here,10,180,20","More dark colors and blurry objects.,13,200,20","I can tell this artist has experience. I just don't care for the color combo.,7,120,20","Jacob","It looks painted really nicely.,5,340,20","Jorge","Curious about what lies here,10,180,20","Jose","More dark colors and blurry objects.,13,200,20","11"
"23062","","survey-text","201","1353891","0.0-195.0-0.0","AB09F0Q4T10TE","","","","{""Q0"":""Boring and unispiried.""}","","","","","","","","","","","","","","","","","","","","","","",""
"2594.3999996185303","","image-slider-response","202","1356487","0.0-196.0","AB09F0Q4T10TE","","","","","-5","","","","","","","","","","","","","","","","","","","","","",""
"4517","","image-button-response","203","1361490","0.0-197.0","AB09F0Q4T10TE","img_art/27.jpg","0","","","","","","","","","","","","","","","","","","","","","","","","",""
"527","","image-button-response","204","1362018","0.0-198.0","AB09F0Q4T10TE","img_art/27.jpg","0","","","","","","","","","","","","","","","","","","","","","","","","",""
"1298","","image-button-response","205","1363317","0.0-199.0-0.0","AB09F0Q4T10TE","img_art/27.jpg","0","","","","","","","","","","","","","","","","","","","","","","","","",""
"1814","","image-button-response","206","1368606","0.0-199.1-0.1","AB09F0Q4T10TE","img_art/27.jpg","3","","","","","","","","","","","","","","","","","","","","","","","","",""
"4064","","image-button-response","207","1372672","0.0-200.0-0.0","AB09F0Q4T10TE","img_art/27.jpg","5","","","","","","","","","","","","","","","","","","","","","","","","",""
"null","","html-keyboard-response","208","1373677","0.0-201.0","AB09F0Q4T10TE","<p style=""font-size: 48px;"">+</p>","","","","","null","allTrialResponses","1000","1","22","img_art/27.jpg","-5","Boring and unispiried.","Jacob,Alex,John,Jorge,Jose,Matthew","Don't get the point of this piece that much, but it doesn't bug me,1,340,20","very abstract, I don't understand it, but I like the bright, cheerful colors,14,100,20","Looks as if a toddler painted it,-20,120,20","dirty and misunderstood,-47,180,20","it's like a weird version of heaven,16,200,20","Lots of activity, layers, imagination at work here.,29,120,20","Jacob","Don't get the point of this piece that much, but it doesn't bug me,1,340,20","Jorge","dirty and misunderstood,-47,180,20","Matthew","Lots of activity, layers, imagination at work here.,29,120,20","13"
"20287","","survey-text","209","1393970","0.0-202.0-0.0","AB09F0Q4T10TE","","","","{""Q0"":""Nice brushwork. Don't like the picture though.""}","","","","","","","","","","","","","","","","","","","","","","",""
"2559.5999999046326","","image-slider-response","210","1396532","0.0-203.0","AB09F0Q4T10TE","","","","","-5","","","","","","","","","","","","","","","","","","","","","",""
"3732","","image-button-response","211","1401536","0.0-204.0","AB09F0Q4T10TE","img_art/22.jpg","0","","","","","","","","","","","","","","","","","","","","","","","","",""
"476","","image-button-response","212","1402014","0.0-205.0","AB09F0Q4T10TE","img_art/22.jpg","0","","","","","","","","","","","","","","","","","","","","","","","","",""
"685","","image-button-response","213","1402700","0.0-206.0-0.0","AB09F0Q4T10TE","img_art/22.jpg","2","","","","","","","","","","","","","","","","","","","","","","","","",""
"6839","","image-button-response","214","1409541","0.0-207.0-0.0","AB09F0Q4T10TE","img_art/22.jpg","1","","","","","","","","","","","","","","","","","","","","","","","","",""
"null","","html-keyboard-response","215","1410048","0.0-208.0","AB09F0Q4T10TE","<p style=""font-size: 48px;"">+</p>","","","","","null","allTrialResponses","500","1","23","img_art/22.jpg","-5","Nice brushwork. Don't like the picture though.","Jacob,Isaac,Taylor,Jorge,Brendan,Matthew","I like the mixing of the primary colors.,8,340,20","The colors clash, and I don't know what is happening.,-23,280,20","Looks like the kind of art I would see at the doctor's office.,-5,200,20","A key to the unknown,15,180,20","its just ugly for me,-50,340,20","Another servicable piece of abstract art?,20,120,20","Jacob","I like the mixing of the primary colors.,8,340,20","Taylor","Looks like the kind of art I would see at the doctor's office.,-5,200,20","Isaac","The colors clash, and I don't know what is happening.,-23,280,20","13"
"33423","","survey-text","216","1443481","0.0-209.0-0.0","AB09F0Q4T10TE","","","","{""Q0"":""Unfinished background with paint thrown all over it.""}","","","","","","","","","","","","","","","","","","","","","","",""
"4956.699999809265","","image-slider-response","217","1448439","0.0-210.0","AB09F0Q4T10TE","","","","","-7","","","","","","","","","","","","","","","","","","","","","",""
"3558","","image-button-response","218","1453450","0.0-211.0","AB09F0Q4T10TE","img_art/13.jpg","0","","","","","","","","","","","","","","","","","","","","","","","","",""
"824","","image-button-response","219","1454276","0.0-212.0","AB09F0Q4T10TE","img_art/13.jpg","0","","","","","","","","","","","","","","","","","","","","","","","","",""
"1958","","image-button-response","220","1456235","0.0-213.0-0.0","AB09F0Q4T10TE","img_art/13.jpg","1","","","","","","","","","","","","","","","","","","","","","","","","",""
"7835","","image-button-response","221","1464072","0.0-214.0-0.0","AB09F0Q4T10TE","img_art/13.jpg","3","","","","","","","","","","","","","","","","","","","","","","","","",""
"null","","html-keyboard-response","222","1465085","0.0-215.0","AB09F0Q4T10TE","<p style=""font-size: 48px;"">+</p>","","","","","null","allTrialResponses","1000","1","24","img_art/13.jpg","-7","Unfinished background with paint thrown all over it.","Jacob,Isaac,Taylor,Zachary,Angel,Jeremy","The paint splatter idea is kind of overused but I like how it brings the piece together,16,340,20","The colors are okay but I don't like the shapes here.,-18,280,20","Simple and in my favorite color. I actually like this one.,40,200,20","Peaceful colors.,20,400,20","Reminds me of depression anxiety, but negativity is dampened by motion. It's trying to release itself through expression.,-10,180,20","Pleased. I like to combination of colors,17,60,20","Jacob","The paint splatter idea is kind of overused but I like how it brings the piece together,16,340,20","Isaac","The colors are okay but I don't like the shapes here.,-18,280,20","Zachary","Peaceful colors.,20,400,20","13"
"23437","","survey-text","223","1488527","0.0-216.0-0.0","AB09F0Q4T10TE","","","","{""Q0"":""A headless bird standing in the desert.""}","","","","","","","","","","","","","","","","","","","","","","",""
"2546.9000000953674","","image-slider-response","224","1491077","0.0-217.0","AB09F0Q4T10TE","","","","","-5","","","","","","","","","","","","","","","","","","","","","",""
"4112","","image-button-response","225","1496080","0.0-218.0","AB09F0Q4T10TE","img_art/6.jpg","1","","","","","","","","","","","","","","","","","","","","","","","","",""
"881","","image-button-response","226","1496963","0.0-219.0","AB09F0Q4T10TE","img_art/6.jpg","1","","","","","","","","","","","","","","","","","","","","","","","","",""
"954","","image-button-response","227","1497918","0.0-220.0-0.0","AB09F0Q4T10TE","img_art/6.jpg","4","","","","","","","","","","","","","","","","","","","","","","","","",""
"1903","","image-button-response","228","1499823","0.0-221.0-0.0","AB09F0Q4T10TE","img_art/6.jpg","5","","","","","","","","","","","","","","","","","","","","","","","","",""
"null","","html-keyboard-response","229","1500325","0.0-222.0","AB09F0Q4T10TE","<p style=""font-size: 48px;"">+</p>","","","","","null","allTrialResponses","500","1","25","img_art/6.jpg","-5","A headless bird standing in the desert.","Jacob,Isaac,Mitchell,Zachary,Cameron,Elijah","Is this a leaf?,4,340,20","It looks like one tall ugly bird.,-43,280,20","Looking, searching at the same time being content.,30,180,20","Reminds me of a plant poking through the soil. It reminds me of new life.,31,400,20","Kind of neat, but then that's a weird looking bird. too weird.,0,60,20","Not impressed, just very plain,-10,80,20","Isaac","It looks like one tall ugly bird.,-43,280,20","Cameron","Kind of neat, but then that's a weird looking bird. too weird.,0,60,20","Elijah","Not impressed, just very plain,-10,80,20","13"
"3793","","survey-text","230","1504129","0.0-223.0-0.0","AB09F0Q4T10TE","","","","{""Q0"":""table""}","","","","","","","","","","","","","","","","","","","","","","",""
"47211","","survey-text","231","1551341","0.0-224.0-0.0","AB09F0Q4T10TE","","","","{""Q0"":""I don't know what to make of it. It's somewhat interesting.""}","","","","","","","","","","","","","","","","","","","","","","",""
"2591.300000190735","","image-slider-response","232","1553935","0.0-225.0","AB09F0Q4T10TE","","","","","4","","","","","","","","","","","","","","","","","","","","","",""
"null","","image-button-response","233","1558940","0.0-226.0","AB09F0Q4T10TE","img_art/30.jpg","null","","","","","","","","","","","","","","","","","","","","","","","","",""
"421","","image-button-response","234","1559364","0.0-227.0","AB09F0Q4T10TE","img_art/30.jpg","4","","","","","","","","","","","","","","","","","","","","","","","","",""
"3323","","image-button-response","235","1562688","0.0-228.0-0.0","AB09F0Q4T10TE","img_art/30.jpg","3","","","","","","","","","","","","","","","","","","","","","","","","",""
"11921","","image-button-response","236","1574611","0.0-229.0-0.0","AB09F0Q4T10TE","img_art/30.jpg","0","","","","","","","","","","","","","","","","","","","","","","","","",""
"null","","html-keyboard-response","237","1575620","0.0-230.0","AB09F0Q4T10TE","<p style=""font-size: 48px;"">+</p>","","","","","null","allTrialResponses","1000","1","26","img_art/30.jpg","4","I don't know what to make of it. It's somewhat interesting.","Miguel,Isaac,Jeffrey,Sean,Cameron,Elijah","Absolutely messy,-31,160,20","It looks like it was painted in 5 minutes.,-32,280,20","calming and relaxing,14,40,20","the colors look nice,19,40,20","Like the color and style,31,60,20","Paint scribbled on canvas,-25,80,20","Cameron","Like the color and style,31,60,20","Sean","the colors look nice,19,40,20","Miguel","Absolutely messy,-31,160,20","13"
"48590","","survey-text","238","1624219","0.0-231.0-0.0","AB09F0Q4T10TE","","","","{""Q0"":""Just black dotted everywhere with a few blues.""}","","","","","","","","","","","","","","","","","","","","","","",""
"2792.5999999046326","","image-slider-response","239","1627014","0.0-232.0","AB09F0Q4T10TE","","","","","-6","","","","","","","","","","","","","","","","","","","","","",""
"1868","","image-button-response","240","1632017","0.0-233.0","AB09F0Q4T10TE","img_art/15.jpg","3","","","","","","","","","","","","","","","","","","","","","","","","",""
"1340","","image-button-response","241","1633360","0.0-234.0","AB09F0Q4T10TE","img_art/15.jpg","3","","","","","","","","","","","","","","","","","","","","","","","","",""
"4432","","image-button-response","242","1637794","0.0-235.0-0.0","AB09F0Q4T10TE","img_art/15.jpg","2","","","","","","","","","","","","","","","","","","","","","","","","",""
"4864","","image-button-response","243","1642661","0.0-236.0-0.0","AB09F0Q4T10TE","img_art/15.jpg","4","","","","","","","","","","","","","","","","","","","","","","","","",""
"null","","html-keyboard-response","244","1643164","0.0-237.0","AB09F0Q4T10TE","<p style=""font-size: 48px;"">+</p>","","","","","null","allTrialResponses","500","1","27","img_art/15.jpg","-6","Just black dotted everywhere with a few blues.","Miguel,Colton,Juan,Sean,Cameron,Malik","Simple but not good,-34,160,20","it's alright but a little cluttered,14,220,20","I don't even know what's going on here. Again, this is too abstract.,-21,260,20","my response to the picture is that I dont know what I am looking at,-25,40,20","This one reminds me of a postage stamp, but branches and leaves. Kind of fun.,15,60,20","I like the dense patterns and the splashes  of blue,38,40,20","Sean","my response to the picture is that I dont know what I am looking at,-25,40,20","Juan","I don't even know what's going on here. Again, this is too abstract.,-21,260,20","Cameron","This one reminds me of a postage stamp, but branches and leaves. Kind of fun.,15,60,20","13"
"15839","","survey-text","245","1659008","0.0-238.0-0.0","AB09F0Q4T10TE","","","","{""Q0"":""Highly skilled. ""}","","","","","","","","","","","","","","","","","","","","","","",""
"6094.199999809265","","image-slider-response","246","1665104","0.0-239.0","AB09F0Q4T10TE","","","","","5","","","","","","","","","","","","","","","","","","","","","",""
"null","","image-button-response","247","1670106","0.0-240.0","AB09F0Q4T10TE","img_art/8.jpg","null","","","","","","","","","","","","","","","","","","","","","","","","",""
"3370","","image-button-response","248","1673478","0.0-241.0","AB09F0Q4T10TE","img_art/8.jpg","4","","","","","","","","","","","","","","","","","","","","","","","","",""
"3406","","image-button-response","249","1676886","0.0-242.0-0.0","AB09F0Q4T10TE","img_art/8.jpg","3","","","","","","","","","","","","","","","","","","","","","","","","",""
"4918","","image-button-response","250","1681805","0.0-243.0-0.0","AB09F0Q4T10TE","img_art/8.jpg","1","","","","","","","","","","","","","","","","","","","","","","","","",""
"null","","html-keyboard-response","251","1682807","0.0-244.0","AB09F0Q4T10TE","<p style=""font-size: 48px;"">+</p>","","","","","null","allTrialResponses","1000","1","28","img_art/8.jpg","5","Highly skilled. ","Cody,Adrian,Juan,Sean,Cameron,Caleb","Love the colors & block-style,50,180,20","Pleasant colors, lots of interest. Not sure what's going on but I like it.,20,60,20","I don't like the negative emotion this picture makes me feel. It's also too abstract.,-30,260,20","looks nice, like the details,25,40,20","what's going on here. looks like scary town.,-25,60,20","Despite the detail, this picture is very abstract!,31,40,20","Cameron","what's going on here. looks like scary town.,-25,60,20","Sean","looks nice, like the details,25,40,20","Adrian","Pleasant colors, lots of interest. Not sure what's going on but I like it.,20,60,20","13"
"30506","","survey-text","252","1713319","0.0-245.0-0.0","AB09F0Q4T10TE","","","","{""Q0"":""Very abstract. Interesting brushwork.""}","","","","","","","","","","","","","","","","","","","","","","",""
"2962.199999809265","","image-slider-response","253","1716283","0.0-246.0","AB09F0Q4T10TE","","","","","3","","","","","","","","","","","","","","","","","","","","","",""
"1968","","image-button-response","254","1721287","0.0-247.0","AB09F0Q4T10TE","img_art/11.jpg","0","","","","","","","","","","","","","","","","","","","","","","","","",""
"688","","image-button-response","255","1721981","0.0-248.0","AB09F0Q4T10TE","img_art/11.jpg","0","","","","","","","","","","","","","","","","","","","","","","","","",""
"543","","image-button-response","256","1722526","0.0-249.0-0.0","AB09F0Q4T10TE","img_art/11.jpg","1","","","","","","","","","","","","","","","","","","","","","","","","",""
"4200","","image-button-response","257","1726728","0.0-250.0-0.0","AB09F0Q4T10TE","img_art/11.jpg","3","","","","","","","","","","","","","","","","","","","","","","","","",""
"null","","html-keyboard-response","258","1728234","0.0-251.0","AB09F0Q4T10TE","<p style=""font-size: 48px;"">+</p>","","","","","null","allTrialResponses","1500","1","29","img_art/11.jpg","3","Very abstract. Interesting brushwork.","Dalton,Adrian,Spencer,Sean,Cameron,Ian","looks like highways and homes and lives intertwining.,27,300,20","Not a fan of the colors but it looks interesting.,-31,60,20","Even with the colors, it is dreary to me,-32,120,20","pic looks alright,8,40,20","futuristic arching railways,25,60,20","This one is a little erie, gives me post-apocalyptic feeling,27,260,20","Dalton","looks like highways and homes and lives intertwining.,27,300,20","Adrian","Not a fan of the colors but it looks interesting.,-31,60,20","Sean","pic looks alright,8,40,20","13"
"15430","","survey-text","259","1743671","0.0-252.0-0.0","AB09F0Q4T10TE","","","","{""Q0"":""A dream""}","","","","","","","","","","","","","","","","","","","","","","",""
"3221.4000000953674","","image-slider-response","260","1746894","0.0-253.0","AB09F0Q4T10TE","","","","","3","","","","","","","","","","","","","","","","","","","","","",""
"null","","image-button-response","261","1751897","0.0-254.0","AB09F0Q4T10TE","img_art/19.jpg","null","","","","","","","","","","","","","","","","","","","","","","","","",""
"797","","image-button-response","262","1752696","0.0-255.0","AB09F0Q4T10TE","img_art/19.jpg","0","","","","","","","","","","","","","","","","","","","","","","","","",""
"3516","","image-button-response","263","1756215","0.0-256.0-0.0","AB09F0Q4T10TE","img_art/19.jpg","2","","","","","","","","","","","","","","","","","","","","","","","","",""
"1731","","image-button-response","264","1757949","0.0-257.0-0.0","AB09F0Q4T10TE","img_art/19.jpg","5","","","","","","","","","","","","","","","","","","","","","","","","",""
"null","","html-keyboard-response","265","1759468","0.0-258.0","AB09F0Q4T10TE","<p style=""font-size: 48px;"">+</p>","","","","","null","allTrialResponses","1500","1","30","img_art/19.jpg","3","A dream","Dalton,Adrian,Gabriel,Sean,Jared,Seth","love the images I can pick out of this art,1,300,20","Pleasant colors with just enough detail to be recognizable. I can see a scene in it that tells a story.,7,60,20","not sure if i like it or not,1,160,20","the picture gave me anxiety,-38,40,20","green and orange are my favorite colors.  this cityscape feels warm,34,400,20","I wasn't sure if I liked it or hated it. It oddly reminds me of a clothing store.,11,60,20","Dalton","love the images I can pick out of this art,1,300,20","Gabriel","not sure if i like it or not,1,160,20","Seth","I wasn't sure if I liked it or hated it. It oddly reminds me of a clothing store.,11,60,20","13"
"4509","","image-button-response_instructions","266","1763983","0.0-259.0","AB09F0Q4T10TE","","0","instructions","","","","","","","","","","","","","","","","","","","","","","","",""
"1951","","image-button-response","267","1765940","0.0-260.0","AB09F0Q4T10TE","","0","","","","","","","","","","","","","","","","","","","","","","","","",""
