"rt","url","trial_type","trial_index","time_elapsed","internal_node_id","participant_id","stimulus","button_pressed","Name","responses","response","key_press","variableName","fixationTime","condition","trial","photo","subjectRating","subjectResponse","agentsNames","agent_1_Response","agent_2_Response","agent_3_Response","agent_4_Response","agent_5_Response","agent_6_Response","kept_1_name","kept_1_response","kept_2_name","kept_2_response","kept_3_name","kept_3_response","errorCounter"
"156438","external_page_harvard.html","external-html","0","156704","0.0-0.0","AB0LYB4PZKY9K","","","","","","","","","","","","","","","","","","","","","","","","","","",""
"4032","","image-button-response","1","160737","0.0-1.0","AB0LYB4PZKY9K","","1","","","","","","","","","","","","","","","","","","","","","","","","",""
"3335","","image-button-response","2","164079","0.0-2.0-0.0","AB0LYB4PZKY9K","","1","phone","","","","","","","","","","","","","","","","","","","","","","","",""
"23415","","survey-text","3","187495","0.0-3.0-0.0","AB0LYB4PZKY9K","","","","{""Q0"":""AB0LYB4PZKY9K""}","","","","","","","","","","","","","","","","","","","","","","",""
"9291","","image-button-response_instructions","4","196789","0.0-4.0","AB0LYB4PZKY9K","","0","instructions","","","","","","","","","","","","","","","","","","","","","","","",""
"29152","","image-button-response_instructions","5","225943","0.0-5.0","AB0LYB4PZKY9K","img_art/ins/popularity/ins1.png","0","instructions","","","","","","","","","","","","","","","","","","","","","","","",""
"13947","","image-button-response_instructions","6","239892","0.0-6.0","AB0LYB4PZKY9K","img_art/ins/popularity/ins2.png","0","instructions","","","","","","","","","","","","","","","","","","","","","","","",""
"25241","","image-button-response_instructions","7","265133","0.0-7.0","AB0LYB4PZKY9K","img_art/ins/popularity/ins2Extreme.png","0","instructions","","","","","","","","","","","","","","","","","","","","","","","",""
"15986","","image-button-response_instructions","8","281121","0.0-8.0","AB0LYB4PZKY9K","img_art/ins/popularity/ins3KEEPpop.PNG","0","instructions","","","","","","","","","","","","","","","","","","","","","","","",""
"7504","","image-button-response_instructions","9","288627","0.0-9.0","AB0LYB4PZKY9K","img_art/ins/popularity/ins3ANamepop.PNG","0","instructions","","","","","","","","","","","","","","","","","","","","","","","",""
"12912","","image-button-response_instructions","10","301541","0.0-10.0","AB0LYB4PZKY9K","img_art/ins/popularity/ins3ARatingpop.png","0","instructions","","","","","","","","","","","","","","","","","","","","","","","",""
"5197","","image-button-response_instructions","11","306738","0.0-11.0","AB0LYB4PZKY9K","img_art/ins/popularity/ins3ATextpop.png","0","instructions","","","","","","","","","","","","","","","","","","","","","","","",""
"8499","","image-button-response_instructions","12","315239","0.0-12.0","AB0LYB4PZKY9K","img_art/ins/popularity/ins3ALikespop.png","0","instructions","","","","","","","","","","","","","","","","","","","","","","","",""
"16901","","image-button-response_instructions","13","332141","0.0-13.0","AB0LYB4PZKY9K","img_art/ins/popularity/ins3KEEPpop.PNG","0","instructions","","","","","","","","","","","","","","","","","","","","","","","",""
"12456","","image-button-response_instructions","14","344599","0.0-14.0","AB0LYB4PZKY9K","img_art/ins/popularity/ins3_5RED.png","0","instructions","","","","","","","","","","","","","","","","","","","","","","","",""
"10445","","image-button-response_instructions","15","355045","0.0-15.0","AB0LYB4PZKY9K","img_art/ins/popularity/ins3KEEPpop.PNG","0","instructions","","","","","","","","","","","","","","","","","","","","","","","",""
"21652","","image-button-response_instructions","16","376698","0.0-16.0","AB0LYB4PZKY9K","img_art/ins/popularity/ins4KEEPpop.PNG","0","instructions","","","","","","","","","","","","","","","","","","","","","","","",""
"9061","","image-button-response_instructions","17","385761","0.0-17.0","AB0LYB4PZKY9K","img_art/ins/popularity/ins5KEEPpop.PNG","0","instructions","","","","","","","","","","","","","","","","","","","","","","","",""
"3877","","image-button-response_instructions","18","389638","0.0-18.0","AB0LYB4PZKY9K","","0","instructions","","","","","","","","","","","","","","","","","","","","","","","",""
"10883","","survey-text","19","400548","0.0-19.0-0.0","AB0LYB4PZKY9K","","","","{""Q0"":""but""}","","","","","","","","","","","","","","","","","","","","","","",""
"29242","","survey-text","20","429792","0.0-20.0-0.0","AB0LYB4PZKY9K","","","","{""Q0"":""Like colors ""}","","","","","","","","","","","","","","","","","","","","","","",""
"120045.79999999981","","image-slider-response","21","549841","0.0-21.0","AB0LYB4PZKY9K","","","","","33","","","","","","","","","","","","","","","","","","","","","",""
"null","","image-button-response","22","554846","0.0-22.0","AB0LYB4PZKY9K","img_art/ins/1.jpg","null","","","","","","","","","","","","","","","","","","","","","","","","",""
"14820","","image-button-response","23","569670","0.0-23.0","AB0LYB4PZKY9K","img_art/ins/1.jpg","4","","","","","","","","","","","","","","","","","","","","","","","","",""
"8601","","image-button-response","24","578273","0.0-24.0-0.0","AB0LYB4PZKY9K","img_art/ins/1.jpg","5","","","","","","","","","","","","","","","","","","","","","","","","",""
"84923","","image-button-response","25","663199","0.0-25.0-0.0","AB0LYB4PZKY9K","img_art/ins/1.jpg","0","","","","","","","","","","","","","","","","","","","","","","","","",""
"null","","html-keyboard-response","26","664712","0.0-26.0","AB0LYB4PZKY9K","<p style=""font-size: 48px;"">+</p>","","","","","null","allTrialResponses","1500","1","-2","img_art/ins/1.jpg","33","Like colors ","Allison,Ashley,Beth,Dora,Erika,Jen","looks like a lot of things going on in the mist,20,20,20","I just don't get why these type of art would be popular,-32,40,20","This color reminds me of poo,-46,60,20","looks like what my niece in 3rd grade did this afternoon,-50,80,20","I like the sophisticated brushwork,40,100,20","It reminds me of a candy land dream I had,36,120,20","Erika","I like the sophisticated brushwork,40,100,20","Jen","It reminds me of a candy land dream I had,36,120,20","Allison","looks like a lot of things going on in the mist,20,20,20","0"
"49083","","survey-text","27","713806","0.0-27.0-0.0","AB0LYB4PZKY9K","","","","{""Q0"":""This looks like an accident waiting to happen.""}","","","","","","","","","","","","","","","","","","","","","","",""
"7048","","image-slider-response","28","720856","0.0-28.0","AB0LYB4PZKY9K","","","","","-38","","","","","","","","","","","","","","","","","","","","","",""
"null","","image-button-response","29","725859","0.0-29.0","AB0LYB4PZKY9K","img_art/ins/2.jpg","null","","","","","","","","","","","","","","","","","","","","","","","","",""
"4968","","image-button-response","30","730830","0.0-30.0","AB0LYB4PZKY9K","img_art/ins/2.jpg","3","","","","","","","","","","","","","","","","","","","","","","","","",""
"8745","","image-button-response","31","739578","0.0-31.0-0.0","AB0LYB4PZKY9K","img_art/ins/2.jpg","0","","","","","","","","","","","","","","","","","","","","","","","","",""
"2561","","image-button-response","32","742142","0.0-32.0-0.0","AB0LYB4PZKY9K","img_art/ins/2.jpg","2","","","","","","","","","","","","","","","","","","","","","","","","",""
"null","","html-keyboard-response","33","742644","0.0-33.0","AB0LYB4PZKY9K","<p style=""font-size: 48px;"">+</p>","","","","","null","allTrialResponses","500","1","-1","img_art/ins/2.jpg","-38","This looks like an accident waiting to happen.","Allison,Kara,Katie,Jenna,Erika,Jen","I don't have strong feelings about this,10,20,20","I like the blocks of color arrangements,30,160,20","too much color!,-28,180,20","One of my pet peevs,-48,140,20","I would never be able to compose a sophisticated pallete like this,48,100,20","It reminds me of a fireplace,36,120,20","Jenna","One of my pet peevs,-48,140,20","Allison","I don't have strong feelings about this,10,20,20","Katie","too much color!,-28,180,20","0"
"21800","","survey-text","34","764453","0.0-34.0-0.0","AB0LYB4PZKY9K","","","","{""Q0"":""Looks like birds in the sky""}","","","","","","","","","","","","","","","","","","","","","","",""
"9710","","image-slider-response","35","774166","0.0-35.0","AB0LYB4PZKY9K","","","","","45","","","","","","","","","","","","","","","","","","","","","",""
"3505","","image-button-response","36","779182","0.0-36.0","AB0LYB4PZKY9K","img_art/ins/3.jpg","0","","","","","","","","","","","","","","","","","","","","","","","","",""
"530","","image-button-response","37","779716","0.0-37.0","AB0LYB4PZKY9K","img_art/ins/3.jpg","0","","","","","","","","","","","","","","","","","","","","","","","","",""
"8361","","image-button-response","38","788079","0.0-38.0-0.0","AB0LYB4PZKY9K","img_art/ins/3.jpg","4","","","","","","","","","","","","","","","","","","","","","","","","",""
"7447","","image-button-response","39","795530","0.0-39.0-0.0","AB0LYB4PZKY9K","img_art/ins/3.jpg","1","","","","","","","","","","","","","","","","","","","","","","","","",""
"null","","html-keyboard-response","40","797032","0.0-40.0","AB0LYB4PZKY9K","<p style=""font-size: 48px;"">+</p>","","","","","null","allTrialResponses","1500","1","0","img_art/ins/3.jpg","45","Looks like birds in the sky","Allison,Leslie,Katie,Jenna,Mary,Rose","enjoy the different shades of blue,22,20,20","It's an alright work,15,200,20","It looks depressing,-26,180,20","looks like a murder room,-35,140,20","I like the overlapping of brushes,41,220,20","My daily routine, it's depressing,-20,240,20","Allison","enjoy the different shades of blue,22,20,20","Mary","I like the overlapping of brushes,41,220,20","Leslie","It's an alright work,15,200,20","0"
"10028","","image-button-response_instructions","41","807072","0.0-41.0","AB0LYB4PZKY9K","","0","instructions","","","","","","","","","","","","","","","","","","","","","","","",""
"36160","","survey-likert","42","843234","0.0-42.0-0.0","AB0LYB4PZKY9K","","","","{""Q0"":"""",""Q1"":0,""Q2"":1}","","","","","","","","","","","","","","","","","","","","","","",""
"7513","","survey-text","43","850753","0.0-43.0-0.0","AB0LYB4PZKY9K","","","","{""Q0"":""rock""}","","","","","","","","","","","","","","","","","","","","","","",""
"17965","","survey-text","44","868719","0.0-44.0-0.0","AB0LYB4PZKY9K","","","","{""Q0"":""Lady in bed.""}","","","","","","","","","","","","","","","","","","","","","","",""
"8625.799999999814","","image-slider-response","45","877347","0.0-45.0","AB0LYB4PZKY9K","","","","","27","","","","","","","","","","","","","","","","","","","","","",""
"null","","image-button-response","46","882389","0.0-46.0","AB0LYB4PZKY9K","img_art/9.jpg","null","","","","","","","","","","","","","","","","","","","","","","","","",""
"2814","","image-button-response","47","885206","0.0-47.0","AB0LYB4PZKY9K","img_art/9.jpg","2","","","","","","","","","","","","","","","","","","","","","","","","",""
"6967","","image-button-response","48","892176","0.0-48.0-0.0","AB0LYB4PZKY9K","img_art/9.jpg","3","","","","","","","","","","","","","","","","","","","","","","","","",""
"18367","","image-button-response","49","910546","0.0-49.0-0.0","AB0LYB4PZKY9K","img_art/9.jpg","5","","","","","","","","","","","","","","","","","","","","","","","","",""
"null","","html-keyboard-response","50","911049","0.0-50.0","AB0LYB4PZKY9K","<p style=""font-size: 48px;"">+</p>","","","","","null","allTrialResponses","500","1","1","img_art/9.jpg","27","Lady in bed.","Sarah,Vanessa,Sabrina,Sierra,Danielle,Megan","I really like the color balance but the image is odd,-5,180,20","It's too abstract for my taste. I wish there were more definition.,-9,380,20","Calming and relaxing,42,120,20","it looks like a lady resting. it is soothing.,4,260,20","Looks like a child's drawing,-40,340,20","A troubled painter was influenced by anger and mad at the woman in the middle, color not bad,-32,200,20","Sabrina","Calming and relaxing,42,120,20","Sierra","it looks like a lady resting. it is soothing.,4,260,20","Megan","A troubled painter was influenced by anger and mad at the woman in the middle, color not bad,-32,200,20","0"
"41918","","survey-text","51","952975","0.0-51.0-0.0","AB0LYB4PZKY9K","","","","{""Q0"":""love the color balance""}","","","","","","","","","","","","","","","","","","","","","","",""
"8746.299999999814","","image-slider-response","52","961724","0.0-52.0","AB0LYB4PZKY9K","","","","","20","","","","","","","","","","","","","","","","","","","","","",""
"4035","","image-button-response","53","966740","0.0-53.0","AB0LYB4PZKY9K","img_art/25.jpg","0","","","","","","","","","","","","","","","","","","","","","","","","",""
"684","","image-button-response","54","967428","0.0-54.0","AB0LYB4PZKY9K","img_art/25.jpg","0","","","","","","","","","","","","","","","","","","","","","","","","",""
"7768","","image-button-response","55","975197","0.0-55.0-0.0","AB0LYB4PZKY9K","img_art/25.jpg","1","","","","","","","","","","","","","","","","","","","","","","","","",""
"1665","","image-button-response","56","976864","0.0-56.0-0.0","AB0LYB4PZKY9K","img_art/25.jpg","0","","","","","","","","","","","","","","","","","","","","","","","","",""
"5295","","image-button-response","57","991760","0.0-56.1-0.1","AB0LYB4PZKY9K","img_art/25.jpg","3","","","","","","","","","","","","","","","","","","","","","","","","",""
"null","","html-keyboard-response","58","992262","0.0-57.0","AB0LYB4PZKY9K","<p style=""font-size: 48px;"">+</p>","","","","","null","allTrialResponses","500","1","2","img_art/25.jpg","20","love the color balance","Heather,Isabella,Sabrina,Sierra,Samantha,Megan","This reminds me of royalty and servants.,32,260,20","I love the green and the figure is black but the green makes it pop,29,280,20","New life, rising from your personal battles,50,120,20","the green is serene. the figure is scare crow like,7,260,20","It is interesting but too creapy for me,-29,140,20","Beautiful color with an interesting otherworldly figure,29,200,20","Heather","This reminds me of royalty and servants.,32,260,20","Isabella","I love the green and the figure is black but the green makes it pop,29,280,20","Sierra","the green is serene. the figure is scare crow like,7,260,20","2"
"25038","","survey-text","59","1017310","0.0-58.0-0.0","AB0LYB4PZKY9K","","","","{""Q0"":""Reminds me of boring wallpaper""}","","","","","","","","","","","","","","","","","","","","","","",""
"6181.799999999814","","image-slider-response","60","1023494","0.0-59.0","AB0LYB4PZKY9K","","","","","-28","","","","","","","","","","","","","","","","","","","","","",""
"null","","image-button-response","61","1028497","0.0-60.0","AB0LYB4PZKY9K","img_art/12.jpg","null","","","","","","","","","","","","","","","","","","","","","","","","",""
"5616","","image-button-response","62","1034116","0.0-61.0","AB0LYB4PZKY9K","img_art/12.jpg","3","","","","","","","","","","","","","","","","","","","","","","","","",""
"11318","","image-button-response","63","1045436","0.0-62.0-0.0","AB0LYB4PZKY9K","img_art/12.jpg","5","","","","","","","","","","","","","","","","","","","","","","","","",""
"4643","","image-button-response","64","1050082","0.0-63.0-0.0","AB0LYB4PZKY9K","img_art/12.jpg","4","","","","","","","","","","","","","","","","","","","","","","","","",""
"null","","html-keyboard-response","65","1051086","0.0-64.0","AB0LYB4PZKY9K","<p style=""font-size: 48px;"">+</p>","","","","","null","allTrialResponses","1000","1","3","img_art/12.jpg","-28","Reminds me of boring wallpaper","Heather,Isabella,Grace,Sierra,Miranda,Alexandria","beautiful also reminds me of a quilt,1,260,20","Something you would see in a government building hallway,3,280,20","Love the colors & the abstractness.,31,180,20","i dont see the point.,-19,260,20","This is like going to a really old mcdoanlds in a tiny town and it's never been renovated so it's breaking down,-31,320,20","don't feel a lot but it seems very simple,-6,80,20","Sierra","i dont see the point.,-19,260,20","Alexandria","don't feel a lot but it seems very simple,-6,80,20","Miranda","This is like going to a really old mcdoanlds in a tiny town and it's never been renovated so it's breaking down,-31,320,20","2"
"39104","","survey-text","66","1090199","0.0-65.0-0.0","AB0LYB4PZKY9K","","","","{""Q0"":""Looks like they just threw paint on a canvas.""}","","","","","","","","","","","","","","","","","","","","","","",""
"5533.4000000003725","","image-slider-response","67","1095735","0.0-66.0","AB0LYB4PZKY9K","","","","","-12","","","","","","","","","","","","","","","","","","","","","",""
"null","","image-button-response","68","1100738","0.0-67.0","AB0LYB4PZKY9K","img_art/2.jpg","null","","","","","","","","","","","","","","","","","","","","","","","","",""
"1682","","image-button-response","69","1102425","0.0-68.0","AB0LYB4PZKY9K","img_art/2.jpg","1","","","","","","","","","","","","","","","","","","","","","","","","",""
"13497","","image-button-response","70","1115924","0.0-69.0-0.0","AB0LYB4PZKY9K","img_art/2.jpg","5","","","","","","","","","","","","","","","","","","","","","","","","",""
"1742","","image-button-response","71","1117669","0.0-70.0-0.0","AB0LYB4PZKY9K","img_art/2.jpg","4","","","","","","","","","","","","","","","","","","","","","","","","",""
"null","","html-keyboard-response","72","1118672","0.0-71.0","AB0LYB4PZKY9K","<p style=""font-size: 48px;"">+</p>","","","","","null","allTrialResponses","1000","1","4","img_art/2.jpg","-12","Looks like they just threw paint on a canvas.","Amber,Kathryn,Julia,Sierra,Miranda,Alexandria","bright and happy,20,200,20","I think I'm put off by the clashing colors here. It feels discombobulated and sick.,-10,140,20","I like how it looks like a cute smiling face,43,40,20","looks like a happy child,15,260,20","I don't really like this but at the same time it's cute. It looks like a little monster kid.,-9,320,20","too abstract and confusing,-19,80,20","Kathryn","I think I'm put off by the clashing colors here. It feels discombobulated and sick.,-10,140,20","Alexandria","too abstract and confusing,-19,80,20","Miranda","I don't really like this but at the same time it's cute. It looks like a little monster kid.,-9,320,20","2"
"40262","","survey-text","73","1158945","0.0-72.0-0.0","AB0LYB4PZKY9K","","","","{""Q0"":""Looks like a company's logo.""}","","","","","","","","","","","","","","","","","","","","","","",""
"19977.900000000373","","image-slider-response","74","1178925","0.0-73.0","AB0LYB4PZKY9K","","","","","32","","","","","","","","","","","","","","","","","","","","","",""
"null","","image-button-response","75","1183941","0.0-74.0","AB0LYB4PZKY9K","img_art/30.jpg","null","","","","","","","","","","","","","","","","","","","","","","","","",""
"14554","","image-button-response","76","1198498","0.0-75.0","AB0LYB4PZKY9K","img_art/30.jpg","1","","","","","","","","","","","","","","","","","","","","","","","","",""
"4875","","image-button-response","77","1203376","0.0-76.0-0.0","AB0LYB4PZKY9K","img_art/30.jpg","2","","","","","","","","","","","","","","","","","","","","","","","","",""
"7831","","image-button-response","78","1211210","0.0-77.0-0.0","AB0LYB4PZKY9K","img_art/30.jpg","5","","","","","","","","","","","","","","","","","","","","","","","","",""
"null","","html-keyboard-response","79","1212722","0.0-78.0","AB0LYB4PZKY9K","<p style=""font-size: 48px;"">+</p>","","","","","null","allTrialResponses","1500","1","5","img_art/30.jpg","32","Looks like a company's logo.","Hailey,Kathryn,Alicia,Jessica,Miranda,Alexandria","snakes in the grass, I don't like it,-17,200,20","It's like a child's art piece: carefree and not trying to conform to anything.,10,140,20","Neat, but simple, I could make this. not skilled.,9,120,20","Looks cool , but no meaning,1,400,20","It looks like it was made by pre-k students.,-30,320,20","the lines and colors look purposeful,18,80,20","Kathryn","It's like a child's art piece: carefree and not trying to conform to anything.,10,140,20","Alicia","Neat, but simple, I could make this. not skilled.,9,120,20","Alexandria","the lines and colors look purposeful,18,80,20","2"
"6781","","survey-text","80","1219522","0.0-79.0-0.0","AB0LYB4PZKY9K","","","","{""Q0"":""sky""}","","","","","","","","","","","","","","","","","","","","","","",""
"33700","","survey-text","81","1253224","0.0-80.0-0.0","AB0LYB4PZKY9K","","","","{""Q0"":""Someone's mood.""}","","","","","","","","","","","","","","","","","","","","","","",""
"6183.5","","image-slider-response","82","1259409","0.0-81.0","AB0LYB4PZKY9K","","","","","-5","","","","","","","","","","","","","","","","","","","","","",""
"null","","image-button-response","83","1264426","0.0-82.0","AB0LYB4PZKY9K","img_art/1.jpg","null","","","","","","","","","","","","","","","","","","","","","","","","",""
"5019","","image-button-response","84","1269448","0.0-83.0","AB0LYB4PZKY9K","img_art/1.jpg","2","","","","","","","","","","","","","","","","","","","","","","","","",""
"9747","","image-button-response","85","1279198","0.0-84.0-0.0","AB0LYB4PZKY9K","img_art/1.jpg","4","","","","","","","","","","","","","","","","","","","","","","","","",""
"4299","","image-button-response","86","1283500","0.0-85.0-0.0","AB0LYB4PZKY9K","img_art/1.jpg","1","","","","","","","","","","","","","","","","","","","","","","","","",""
"null","","html-keyboard-response","87","1284502","0.0-86.0","AB0LYB4PZKY9K","<p style=""font-size: 48px;"">+</p>","","","","","null","allTrialResponses","1000","1","6","img_art/1.jpg","-5","Someone's mood.","Jenna,Kathryn,Alicia,Kayla,Katie,Alexandria","beautiful colors and brush strokes,47,360,20","For some reason this makes me want to go ice skating. It's whimsical and free but also very smooth.,20,140,20","just colors mixed together. not interesting.,5,120,20","Happy! Reminds me of hiking in tennesee.,18,180,20","Too messy. Just looks like a mess of dark colors.,-20,160,20","it is very colorful and makes me happy,44,80,20","Alicia","just colors mixed together. not interesting.,5,120,20","Katie","Too messy. Just looks like a mess of dark colors.,-20,160,20","Kathryn","For some reason this makes me want to go ice skating. It's whimsical and free but also very smooth.,20,140,20","2"
"37625","","survey-text","88","1322132","0.0-87.0-0.0","AB0LYB4PZKY9K","","","","{""Q0"":""Looks like a teddy bear with friends""}","","","","","","","","","","","","","","","","","","","","","","",""
"6045.9000000003725","","image-slider-response","89","1328180","0.0-88.0","AB0LYB4PZKY9K","","","","","45","","","","","","","","","","","","","","","","","","","","","",""
"null","","image-button-response","90","1333184","0.0-89.0","AB0LYB4PZKY9K","img_art/16.jpg","null","","","","","","","","","","","","","","","","","","","","","","","","",""
"17739","","image-button-response","91","1350926","0.0-90.0","AB0LYB4PZKY9K","img_art/16.jpg","0","","","","","","","","","","","","","","","","","","","","","","","","",""
"8508","","image-button-response","92","1359436","0.0-91.0-0.0","AB0LYB4PZKY9K","img_art/16.jpg","1","","","","","","","","","","","","","","","","","","","","","","","","",""
"5926","","image-button-response","93","1365364","0.0-92.0-0.0","AB0LYB4PZKY9K","img_art/16.jpg","3","","","","","","","","","","","","","","","","","","","","","","","","",""
"null","","html-keyboard-response","94","1366374","0.0-93.0","AB0LYB4PZKY9K","<p style=""font-size: 48px;"">+</p>","","","","","null","allTrialResponses","1000","1","7","img_art/16.jpg","45","Looks like a teddy bear with friends","Nicole,Kathryn,Alicia,Tiffany,Katie,Bailey","It's a little anxiety inducing in a good way,16,20,20","I see something that is supposed to be comforting but it's been discarded and lost.,-20,140,20","Don't get it. Hate it. ugly.,-44,120,20","I feel irked, like somehow the items in this painting just happened to fall on the page together.,-44,360,20","Upsetting and disturbing. Random bear and indistinguishable objects. None of it goes together. Too chaotic and random,-50,160,20","Creeps me out. Like..really creeps me out.,-48,360,20","Nicole","It's a little anxiety inducing in a good way,16,20,20","Kathryn","I see something that is supposed to be comforting but it's been discarded and lost.,-20,140,20","Tiffany","I feel irked, like somehow the items in this painting just happened to fall on the page together.,-44,360,20","2"
"31220","","survey-text","95","1397603","0.0-94.0-0.0","AB0LYB4PZKY9K","","","","{""Q0"":""Nice looking marble floor.""}","","","","","","","","","","","","","","","","","","","","","","",""
"7962.200000000186","","image-slider-response","96","1405568","0.0-95.0","AB0LYB4PZKY9K","","","","","50","","","","","","","","","","","","","","","","","","","","","",""
"null","","image-button-response","97","1410572","0.0-96.0","AB0LYB4PZKY9K","img_art/7.jpg","null","","","","","","","","","","","","","","","","","","","","","","","","",""
"23961","","image-button-response","98","1434536","0.0-97.0","AB0LYB4PZKY9K","img_art/7.jpg","3","","","","","","","","","","","","","","","","","","","","","","","","",""
"7568","","image-button-response","99","1442106","0.0-98.0-0.0","AB0LYB4PZKY9K","img_art/7.jpg","5","","","","","","","","","","","","","","","","","","","","","","","","",""
"4869","","image-button-response","100","1446978","0.0-99.0-0.0","AB0LYB4PZKY9K","img_art/7.jpg","2","","","","","","","","","","","","","","","","","","","","","","","","",""
"null","","html-keyboard-response","101","1448481","0.0-100.0","AB0LYB4PZKY9K","<p style=""font-size: 48px;"">+</p>","","","","","null","allTrialResponses","1500","1","8","img_art/7.jpg","50","Nice looking marble floor.","Nicole,Kathryn,Taylor,Tiffany,Crystal,Lauren","Looks like the surface of mars,29,20,20","It's off-putting because it reminds me of walking over rough sand/rocks or having scabs on my skin.,-10,140,20","It makes me think of new archaeology discoveries,15,340,20","I feel relaxed and a little nostalgic, like I'm exploring the wall of a very old building.,18,360,20","I thought I was looking at a satellite image of mars.,21,300,20","I like how the image has a sense of history, since the style looks like it came from stone.,20,340,20","Tiffany","I feel relaxed and a little nostalgic, like I'm exploring the wall of a very old building.,18,360,20","Lauren","I like how the image has a sense of history, since the style looks like it came from stone.,20,340,20","Taylor","It makes me think of new archaeology discoveries,15,340,20","2"
"63703","","survey-text","102","1512195","0.0-101.0-0.0","AB0LYB4PZKY9K","","","","{""Q0"":""I like the combination of the black touched with blue.""}","","","","","","","","","","","","","","","","","","","","","","",""
"5197.799999999814","","image-slider-response","103","1517395","0.0-102.0","AB0LYB4PZKY9K","","","","","50","","","","","","","","","","","","","","","","","","","","","",""
"null","","image-button-response","104","1522399","0.0-103.0","AB0LYB4PZKY9K","img_art/15.jpg","null","","","","","","","","","","","","","","","","","","","","","","","","",""
"2091","","image-button-response","105","1524494","0.0-104.0","AB0LYB4PZKY9K","img_art/15.jpg","2","","","","","","","","","","","","","","","","","","","","","","","","",""
"12848","","image-button-response","106","1537344","0.0-105.0-0.0","AB0LYB4PZKY9K","img_art/15.jpg","3","","","","","","","","","","","","","","","","","","","","","","","","",""
"4337","","image-button-response","107","1541684","0.0-106.0-0.0","AB0LYB4PZKY9K","img_art/15.jpg","4","","","","","","","","","","","","","","","","","","","","","","","","",""
"null","","html-keyboard-response","108","1542186","0.0-107.0","AB0LYB4PZKY9K","<p style=""font-size: 48px;"">+</p>","","","","","null","allTrialResponses","500","1","9","img_art/15.jpg","50","I like the combination of the black touched with blue.","Erica,Courtney,Taylor,Tiffany,Kimberly,Lauren","dark and I can not see a meaning behind it,-31,80,20","Weird fuzzball bush.,22,280,20","The blues are soothing,21,340,20","The painting is very relaxing, I'm reminded of sitting in a garden in the evening.,8,360,20","it looks like lavender,10,260,20","Hard to tell what I'm looking at, but it does a gives a slight impression of a of garden.,5,340,20","Taylor","The blues are soothing,21,340,20","Tiffany","The painting is very relaxing, I'm reminded of sitting in a garden in the evening.,8,360,20","Kimberly","it looks like lavender,10,260,20","2"
"125903","","survey-text","109","1668103","0.0-108.0-0.0","AB0LYB4PZKY9K","","","","{""Q0"":""Looks like dull scribble scrabble""}","","","","","","","","","","","","","","","","","","","","","","",""
"7153.5999999996275","","image-slider-response","110","1675258","0.0-109.0","AB0LYB4PZKY9K","","","","","-36","","","","","","","","","","","","","","","","","","","","","",""
"null","","image-button-response","111","1680274","0.0-110.0","AB0LYB4PZKY9K","img_art/3.jpg","null","","","","","","","","","","","","","","","","","","","","","","","","",""
"16523","","image-button-response","112","1696800","0.0-111.0","AB0LYB4PZKY9K","img_art/3.jpg","2","","","","","","","","","","","","","","","","","","","","","","","","",""
"4948","","image-button-response","113","1701749","0.0-112.0-0.0","AB0LYB4PZKY9K","img_art/3.jpg","0","","","","","","","","","","","","","","","","","","","","","","","","",""
"17480","","image-button-response","114","1719232","0.0-113.0-0.0","AB0LYB4PZKY9K","img_art/3.jpg","4","","","","","","","","","","","","","","","","","","","","","","","","",""
"null","","html-keyboard-response","115","1719734","0.0-114.0","AB0LYB4PZKY9K","<p style=""font-size: 48px;"">+</p>","","","","","null","allTrialResponses","500","1","10","img_art/3.jpg","-36","Looks like dull scribble scrabble","Destiny,Alyssa,Taylor,Tiffany,Kimberly,Jacqueline","im just getting more agitated and less appreciative of art. I have absolutely no scale to base on,-34,360,20","Looks like someone spilled ketchup and forgot to clean it up,-30,160,20","It doesn't make me think of art,-20,340,20","I feel uncomfortable, like I am looking at a crime scene.,-17,360,20","I like that it feels kind of simple but still chaotic,6,260,20","Looks like a bloody head with teeth.,-16,300,20","Taylor","It doesn't make me think of art,-20,340,20","Destiny","im just getting more agitated and less appreciative of art. I have absolutely no scale to base on,-34,360,20","Kimberly","I like that it feels kind of simple but still chaotic,6,260,20","2"
"14595","","survey-text","116","1734350","0.0-115.0-0.0","AB0LYB4PZKY9K","","","","{""Q0"":""our""}","","","","","","","","","","","","","","","","","","","","","","",""
"175663","","survey-text","117","1910014","0.0-116.0-0.0","AB0LYB4PZKY9K","","","","{""Q0"":""Beautiful reminds me a flowers""}","","","","","","","","","","","","","","","","","","","","","","",""
"6376.200000000186","","image-slider-response","118","1916393","0.0-117.0","AB0LYB4PZKY9K","","","","","42","","","","","","","","","","","","","","","","","","","","","",""
"3714","","image-button-response","119","1921404","0.0-118.0","AB0LYB4PZKY9K","img_art/14.jpg","2","","","","","","","","","","","","","","","","","","","","","","","","",""
"817","","image-button-response","120","1922225","0.0-119.0","AB0LYB4PZKY9K","img_art/14.jpg","2","","","","","","","","","","","","","","","","","","","","","","","","",""
"10220","","image-button-response","121","1932447","0.0-120.0-0.0","AB0LYB4PZKY9K","img_art/14.jpg","3","","","","","","","","","","","","","","","","","","","","","","","","",""
"2929","","image-button-response","122","1935379","0.0-121.0-0.0","AB0LYB4PZKY9K","img_art/14.jpg","4","","","","","","","","","","","","","","","","","","","","","","","","",""
"null","","html-keyboard-response","123","1935880","0.0-122.0","AB0LYB4PZKY9K","<p style=""font-size: 48px;"">+</p>","","","","","null","allTrialResponses","500","1","11","img_art/14.jpg","42","Beautiful reminds me a flowers","Destiny,Alexis,Taylor,Alexandra,Kimberly,Hannah","I dont really vibe with the grayish color palette,-7,360,20","Don't like the colors on this. Too simple,-20,100,20","Makes me think of my plants growing,11,340,20","Pretty, dainty, unique,22,60,20","In some ways it looks natural, but I'm just not feeling it,0,260,20","This doesn't speak to me on an emotional level,-6,240,20","Taylor","Makes me think of my plants growing,11,340,20","Alexandra","Pretty, dainty, unique,22,60,20","Kimberly","In some ways it looks natural, but I'm just not feeling it,0,260,20","2"
"15561","","survey-text","124","1951452","0.0-123.0-0.0","AB0LYB4PZKY9K","","","","{""Q0"":""Dark & depressing""}","","","","","","","","","","","","","","","","","","","","","","",""
"5990.199999999255","","image-slider-response","125","1957444","0.0-124.0","AB0LYB4PZKY9K","","","","","-48","","","","","","","","","","","","","","","","","","","","","",""
"null","","image-button-response","126","1962449","0.0-125.0","AB0LYB4PZKY9K","img_art/28.jpg","null","","","","","","","","","","","","","","","","","","","","","","","","",""
"6199","","image-button-response","127","1968651","0.0-126.0","AB0LYB4PZKY9K","img_art/28.jpg","3","","","","","","","","","","","","","","","","","","","","","","","","",""
"4116","","image-button-response","128","1972769","0.0-127.0-0.0","AB0LYB4PZKY9K","img_art/28.jpg","4","","","","","","","","","","","","","","","","","","","","","","","","",""
"6662","","image-button-response","129","1979434","0.0-128.0-0.0","AB0LYB4PZKY9K","img_art/28.jpg","2","","","","","","","","","","","","","","","","","","","","","","","","",""
"null","","html-keyboard-response","130","1979937","0.0-129.0","AB0LYB4PZKY9K","<p style=""font-size: 48px;"">+</p>","","","","","null","allTrialResponses","500","1","12","img_art/28.jpg","-48","Dark & depressing","Andrea,Brianna,Taylor,Alexandra,Kimberly,Diana","It reminds me of the cantina in Star Wars.,37,240,20","My grandparents would like this, maybe my great grandparents. It's not my style.,-30,20,20","Doesn't give me an emotional response,0,340,20","Boring, looks like it belongs in a coffee shop,-20,60,20","The thing on the right is kind of weird/fetus-y,-12,260,20","I think this piece is interesting. I love the faces drawn into it.,29,380,20","Alexandra","Boring, looks like it belongs in a coffee shop,-20,60,20","Kimberly","The thing on the right is kind of weird/fetus-y,-12,260,20","Taylor","Doesn't give me an emotional response,0,340,20","2"
"65692","","survey-text","131","2045640","0.0-130.0-0.0","AB0LYB4PZKY9K","","","","{""Q0"":""Looks like a collage""}","","","","","","","","","","","","","","","","","","","","","","",""
"6958.200000000186","","image-slider-response","132","2052600","0.0-131.0","AB0LYB4PZKY9K","","","","","25","","","","","","","","","","","","","","","","","","","","","",""
"3757","","image-button-response","133","2057619","0.0-132.0","AB0LYB4PZKY9K","img_art/8.jpg","0","","","","","","","","","","","","","","","","","","","","","","","","",""
"161","","image-button-response","134","2057784","0.0-133.0","AB0LYB4PZKY9K","img_art/8.jpg","0","","","","","","","","","","","","","","","","","","","","","","","","",""
"16663","","image-button-response","135","2074448","0.0-134.0-0.0","AB0LYB4PZKY9K","img_art/8.jpg","5","","","","","","","","","","","","","","","","","","","","","","","","",""
"1344","","image-button-response","136","2075794","0.0-135.0-0.0","AB0LYB4PZKY9K","img_art/8.jpg","2","","","","","","","","","","","","","","","","","","","","","","","","",""
"null","","html-keyboard-response","137","2077302","0.0-136.0","AB0LYB4PZKY9K","<p style=""font-size: 48px;"">+</p>","","","","","null","allTrialResponses","1500","1","13","img_art/8.jpg","25","Looks like a collage","Margaret,Briana,Taylor,Alexandra,Kimberly,Erin","its pretty exciting to look at, there is alot going on,15,100,20","Its abstract and interesting,24,400,20","Looks like it would be an interesting place to live,35,340,20","The colors are nice but the big face in the sky is creepy,-11,60,20","Feels very 90's but I like the doorway,15,260,20","Lots of depth, faces, city, arch,3,120,20","Margaret","its pretty exciting to look at, there is alot going on,15,100,20","Erin","Lots of depth, faces, city, arch,3,120,20","Taylor","Looks like it would be an interesting place to live,35,340,20","2"
"67272","","survey-text","138","2144585","0.0-137.0-0.0","AB0LYB4PZKY9K","","","","{""Q0"":""This is kind of soothing  and relaxing""}","","","","","","","","","","","","","","","","","","","","","","",""
"6478","","image-slider-response","139","2151065","0.0-138.0","AB0LYB4PZKY9K","","","","","14","","","","","","","","","","","","","","","","","","","","","",""
"null","","image-button-response","140","2156068","0.0-139.0","AB0LYB4PZKY9K","img_art/22.jpg","null","","","","","","","","","","","","","","","","","","","","","","","","",""
"7501","","image-button-response","141","2163573","0.0-140.0","AB0LYB4PZKY9K","img_art/22.jpg","4","","","","","","","","","","","","","","","","","","","","","","","","",""
"2961","","image-button-response","142","2166537","0.0-141.0-0.0","AB0LYB4PZKY9K","img_art/22.jpg","5","","","","","","","","","","","","","","","","","","","","","","","","",""
"2087","","image-button-response","143","2168627","0.0-142.0-0.0","AB0LYB4PZKY9K","img_art/22.jpg","2","","","","","","","","","","","","","","","","","","","","","","","","",""
"null","","html-keyboard-response","144","2169130","0.0-143.0","AB0LYB4PZKY9K","<p style=""font-size: 48px;"">+</p>","","","","","null","allTrialResponses","500","1","14","img_art/22.jpg","14","This is kind of soothing  and relaxing","Margaret,Victoria,Taylor,Paige,Mary,Erin","i feel like this is a a basic art piece that a school would have on the wall,-24,100,20","love how the colors blend,42,400,20","Doesn't make me feel anything,-4,340,20","Happy. I like to colors,33,60,20","I do not like the color combo. This piece is too much the same throughout.,-1,180,20","Seems dated with geometic forms,-20,120,20","Mary","I do not like the color combo. This piece is too much the same throughout.,-1,180,20","Erin","Seems dated with geometic forms,-20,120,20","Taylor","Doesn't make me feel anything,-4,340,20","2"
"13472","","survey-text","145","2182615","0.0-144.0-0.0","AB0LYB4PZKY9K","","","","{""Q0"":""Too busy""}","","","","","","","","","","","","","","","","","","","","","","",""
"8869.89999999851","","image-slider-response","146","2191486","0.0-145.0","AB0LYB4PZKY9K","","","","","-30","","","","","","","","","","","","","","","","","","","","","",""
"4354","","image-button-response","147","2196490","0.0-146.0","AB0LYB4PZKY9K","img_art/19.jpg","1","","","","","","","","","","","","","","","","","","","","","","","","",""
"911","","image-button-response","148","2197405","0.0-147.0","AB0LYB4PZKY9K","img_art/19.jpg","1","","","","","","","","","","","","","","","","","","","","","","","","",""
"6368","","image-button-response","149","2203775","0.0-148.0-0.0","AB0LYB4PZKY9K","img_art/19.jpg","5","","","","","","","","","","","","","","","","","","","","","","","","",""
"3281","","image-button-response","150","2207059","0.0-149.0-0.0","AB0LYB4PZKY9K","img_art/19.jpg","0","","","","","","","","","","","","","","","","","","","","","","","","",""
"null","","html-keyboard-response","151","2208061","0.0-150.0","AB0LYB4PZKY9K","<p style=""font-size: 48px;"">+</p>","","","","","null","allTrialResponses","1000","1","15","img_art/19.jpg","-30","Too busy","Mariah,Allison,Taylor,Jordan,Mary,Erin","I like the watercolor and colors, do not like the deconstructed city scene feel.,0,140,20","Messy mix of colors.,-5,140,20","It reminds me of sitting at a cafe on the side of a river.,45,340,20","I like it, I see someone walking his dog in the early morning time,23,20,20","I interpret an outdoor scene. It's good because it makes me want to look longer.,22,180,20","Childish music hall,-20,120,20","Allison","Messy mix of colors.,-5,140,20","Erin","Childish music hall,-20,120,20","Mariah","I like the watercolor and colors, do not like the deconstructed city scene feel.,0,140,20","2"
"6747","","survey-text","152","2214833","0.0-151.0-0.0","AB0LYB4PZKY9K","","","","{""Q0"":""course""}","","","","","","","","","","","","","","","","","","","","","","",""
"20229","","survey-text","153","2235063","0.0-152.0-0.0","AB0LYB4PZKY9K","","","","{""Q0"":""Bird sitting on the sun.""}","","","","","","","","","","","","","","","","","","","","","","",""
"7215.89999999851","","image-slider-response","154","2242281","0.0-153.0","AB0LYB4PZKY9K","","","","","40","","","","","","","","","","","","","","","","","","","","","",""
"null","","image-button-response","155","2247285","0.0-154.0","AB0LYB4PZKY9K","img_art/6.jpg","null","","","","","","","","","","","","","","","","","","","","","","","","",""
"12042","","image-button-response","156","2259330","0.0-155.0","AB0LYB4PZKY9K","img_art/6.jpg","0","","","","","","","","","","","","","","","","","","","","","","","","",""
"4475","","image-button-response","157","2263807","0.0-156.0-0.0","AB0LYB4PZKY9K","img_art/6.jpg","2","","","","","","","","","","","","","","","","","","","","","","","","",""
"2152","","image-button-response","158","2265961","0.0-157.0-0.0","AB0LYB4PZKY9K","img_art/6.jpg","5","","","","","","","","","","","","","","","","","","","","","","","","",""
"null","","html-keyboard-response","159","2266962","0.0-158.0","AB0LYB4PZKY9K","<p style=""font-size: 48px;"">+</p>","","","","","null","allTrialResponses","1000","1","16","img_art/6.jpg","40","Bird sitting on the sun.","Mariah,Allison,Kaylee,Claire,Molly,Erin","Clean and simple, a pleasant resting place for the eyes.,21,140,20","Simple desert scene.,5,140,20","just an another tree on a desert?,9,200,20","very minimalistic,22,260,20","Nothing special.,-20,340,20","Blackbird in the desert,27,120,20","Mariah","Clean and simple, a pleasant resting place for the eyes.,21,140,20","Kaylee","just an another tree on a desert?,9,200,20","Erin","Blackbird in the desert,27,120,20","2"
"64071","","survey-text","160","2331045","0.0-159.0-0.0","AB0LYB4PZKY9K","","","","{""Q0"":""Doesn't do anything for me.""}","","","","","","","","","","","","","","","","","","","","","","",""
"8593.700000001118","","image-slider-response","161","2339641","0.0-160.0","AB0LYB4PZKY9K","","","","","-1","","","","","","","","","","","","","","","","","","","","","",""
"4380","","image-button-response","162","2344643","0.0-161.0","AB0LYB4PZKY9K","img_art/5.jpg","1","","","","","","","","","","","","","","","","","","","","","","","","",""
"513","","image-button-response","163","2345161","0.0-162.0","AB0LYB4PZKY9K","img_art/5.jpg","1","","","","","","","","","","","","","","","","","","","","","","","","",""
"14703","","image-button-response","164","2359866","0.0-163.0-0.0","AB0LYB4PZKY9K","img_art/5.jpg","4","","","","","","","","","","","","","","","","","","","","","","","","",""
"9124","","image-button-response","165","2368993","0.0-164.0-0.0","AB0LYB4PZKY9K","img_art/5.jpg","0","","","","","","","","","","","","","","","","","","","","","","","","",""
"null","","html-keyboard-response","166","2370504","0.0-165.0","AB0LYB4PZKY9K","<p style=""font-size: 48px;"">+</p>","","","","","null","allTrialResponses","1500","1","17","img_art/5.jpg","-1","Doesn't do anything for me.","Mariah,Leslie,Kaylee,Madison,Christina,Erin","It feels very strong and open.,31,140,20","This elicits no reaction in me.,0,380,20","a volcano erruption,21,200,20","Bright and luminous,31,60,20","looks like a little kids painting,-50,240,20","Flame, candle, wind,30,120,20","Leslie","This elicits no reaction in me.,0,380,20","Christina","looks like a little kids painting,-50,240,20","Mariah","It feels very strong and open.,31,140,20","2"
"28348","","survey-text","167","2398865","0.0-166.0-0.0","AB0LYB4PZKY9K","","","","{""Q0"":""Rain from a hurricane hitting the window.""}","","","","","","","","","","","","","","","","","","","","","","",""
"9428.400000000373","","image-slider-response","168","2408295","0.0-167.0","AB0LYB4PZKY9K","","","","","30","","","","","","","","","","","","","","","","","","","","","",""
"null","","image-button-response","169","2413298","0.0-168.0","AB0LYB4PZKY9K","img_art/13.jpg","null","","","","","","","","","","","","","","","","","","","","","","","","",""
"11993","","image-button-response","170","2425295","0.0-169.0","AB0LYB4PZKY9K","img_art/13.jpg","4","","","","","","","","","","","","","","","","","","","","","","","","",""
"1488","","image-button-response","171","2426785","0.0-170.0-0.0","AB0LYB4PZKY9K","img_art/13.jpg","2","","","","","","","","","","","","","","","","","","","","","","","","",""
"3892","","image-button-response","172","2430679","0.0-171.0-0.0","AB0LYB4PZKY9K","img_art/13.jpg","0","","","","","","","","","","","","","","","","","","","","","","","","",""
"null","","html-keyboard-response","173","2431682","0.0-172.0","AB0LYB4PZKY9K","<p style=""font-size: 48px;"">+</p>","","","","","null","allTrialResponses","1000","1","18","img_art/13.jpg","30","Rain from a hurricane hitting the window.","Mariah,Leslie,Anna,Chelsea,Christina,Angelica","Rain on a cold window.,22,140,20","This elicits no reaction in me.,0,380,20","It reminds me of a window on a rainy day.,40,300,20","The colors are okay but I don't like the shapes here.,-18,180,20","i like the colors but it looks like something that would hang in a hotel,18,240,20","It's too violent looking and there's too much contrast between the white/black.,-21,280,20","Christina","i like the colors but it looks like something that would hang in a hotel,18,240,20","Anna","It reminds me of a window on a rainy day.,40,300,20","Mariah","Rain on a cold window.,22,140,20","2"
"31426","","survey-text","174","2463121","0.0-173.0-0.0","AB0LYB4PZKY9K","","","","{""Q0"":""A Thanksgiving center piece.""}","","","","","","","","","","","","","","","","","","","","","","",""
"5350","","image-slider-response","175","2468473","0.0-174.0","AB0LYB4PZKY9K","","","","","41","","","","","","","","","","","","","","","","","","","","","",""
"null","","image-button-response","176","2473486","0.0-175.0","AB0LYB4PZKY9K","img_art/4.jpg","null","","","","","","","","","","","","","","","","","","","","","","","","",""
"15006","","image-button-response","177","2488495","0.0-176.0","AB0LYB4PZKY9K","img_art/4.jpg","5","","","","","","","","","","","","","","","","","","","","","","","","",""
"7696","","image-button-response","178","2496193","0.0-177.0-0.0","AB0LYB4PZKY9K","img_art/4.jpg","0","","","","","","","","","","","","","","","","","","","","","","","","",""
"10548","","image-button-response","179","2506743","0.0-178.0-0.0","AB0LYB4PZKY9K","img_art/4.jpg","3","","","","","","","","","","","","","","","","","","","","","","","","",""
"null","","html-keyboard-response","180","2508260","0.0-179.0","AB0LYB4PZKY9K","<p style=""font-size: 48px;"">+</p>","","","","","null","allTrialResponses","1500","1","19","img_art/4.jpg","41","A Thanksgiving center piece.","Mariah,Breanna,Anna,Angela,Christina,Katherine","Movement. Snakes. Hair. The uncertainty makes my eye return.,21,140,20","Looks like a hand, not very impressed,-22,380,20","It doesn't make me feel anything it just looks like a kid did it.,-30,300,20","Really like the colors, but don't like the object/squiggle in darker gold and black,4,260,20","not enough color and too yellow for me. Not my favorite colors,-10,240,20","I like how many different ways there are to interpret this.,27,120,20","Katherine","I like how many different ways there are to interpret this.,27,120,20","Mariah","Movement. Snakes. Hair. The uncertainty makes my eye return.,21,140,20","Angela","Really like the colors, but don't like the object/squiggle in darker gold and black,4,260,20","2"
"55981","","survey-text","181","2564254","0.0-180.0-0.0","AB0LYB4PZKY9K","","","","{""Q0"":""Forest with snow on the trees with a walkway.""}","","","","","","","","","","","","","","","","","","","","","","",""
"9419.699999999255","","image-slider-response","182","2573675","0.0-181.0","AB0LYB4PZKY9K","","","","","44","","","","","","","","","","","","","","","","","","","","","",""
"null","","image-button-response","183","2578679","0.0-182.0","AB0LYB4PZKY9K","img_art/17.jpg","null","","","","","","","","","","","","","","","","","","","","","","","","",""
"1250","","image-button-response","184","2579932","0.0-183.0","AB0LYB4PZKY9K","img_art/17.jpg","0","","","","","","","","","","","","","","","","","","","","","","","","",""
"14122","","image-button-response","185","2594056","0.0-184.0-0.0","AB0LYB4PZKY9K","img_art/17.jpg","4","","","","","","","","","","","","","","","","","","","","","","","","",""
"15074","","image-button-response","186","2609133","0.0-185.0-0.0","AB0LYB4PZKY9K","img_art/17.jpg","5","","","","","","","","","","","","","","","","","","","","","","","","",""
"null","","html-keyboard-response","187","2610150","0.0-186.0","AB0LYB4PZKY9K","<p style=""font-size: 48px;"">+</p>","","","","","null","allTrialResponses","1000","1","20","img_art/17.jpg","44","Forest with snow on the trees with a walkway.","Mariah,Sophia,Autumn,Angela,Alexa,Katherine","It feels like nature overtaking civilization.,21,140,20","It kind of pulls you in to float away with it.,9,280,20","Looks awesome .,33,340,20","I like this, but it's a bit bland.,10,260,20","The colors are beautiful and the painting itself is magnificent,50,40,20","Looks like a weird blurry heaven again! I dig,32,120,20","Mariah","It feels like nature overtaking civilization.,21,140,20","Alexa","The colors are beautiful and the painting itself is magnificent,50,40,20","Katherine","Looks like a weird blurry heaven again! I dig,32,120,20","2"
"5434","","survey-text","188","2615607","0.0-187.0-0.0","AB0LYB4PZKY9K","","","","{""Q0"":""we""}","","","","","","","","","","","","","","","","","","","","","","",""
"31092","","survey-text","189","2646700","0.0-188.0-0.0","AB0LYB4PZKY9K","","","","{""Q0"":""Bad paint job with hairblower.""}","","","","","","","","","","","","","","","","","","","","","","",""
"4533.699999999255","","image-slider-response","190","2651236","0.0-189.0","AB0LYB4PZKY9K","","","","","-29","","","","","","","","","","","","","","","","","","","","","",""
"null","","image-button-response","191","2656239","0.0-190.0","AB0LYB4PZKY9K","img_art/29.jpg","null","","","","","","","","","","","","","","","","","","","","","","","","",""
"15113","","image-button-response","192","2671355","0.0-191.0","AB0LYB4PZKY9K","img_art/29.jpg","1","","","","","","","","","","","","","","","","","","","","","","","","",""
"4186","","image-button-response","193","2675543","0.0-192.0-0.0","AB0LYB4PZKY9K","img_art/29.jpg","2","","","","","","","","","","","","","","","","","","","","","","","","",""
"2248","","image-button-response","194","2677794","0.0-193.0-0.0","AB0LYB4PZKY9K","img_art/29.jpg","3","","","","","","","","","","","","","","","","","","","","","","","","",""
"null","","html-keyboard-response","195","2678295","0.0-194.0","AB0LYB4PZKY9K","<p style=""font-size: 48px;"">+</p>","","","","","null","allTrialResponses","500","1","21","img_art/29.jpg","-29","Bad paint job with hairblower.","Mariah,Makayla,Brittany,Meghan,Alexa,Katherine","It feels like looking through layers of frustration.,19,140,20","Looks like a jail cell,-15,80,20","It looks likes there's a lot going on, but they don't fit together.,2,40,20","feels random and not thoughtout,-37,220,20","Very wild and I like it,20,40,20","I think the grey and red inspire negative feelings but it's not the worst thing.,13,120,20","Makayla","Looks like a jail cell,-15,80,20","Brittany","It looks likes there's a lot going on, but they don't fit together.,2,40,20","Meghan","feels random and not thoughtout,-37,220,20","2"
"43949","","survey-text","196","2722258","0.0-195.0-0.0","AB0LYB4PZKY9K","","","","{""Q0"":""Mountain with snow on it & people skiing.""}","","","","","","","","","","","","","","","","","","","","","","",""
"7783.39999999851","","image-slider-response","197","2730042","0.0-196.0","AB0LYB4PZKY9K","","","","","16","","","","","","","","","","","","","","","","","","","","","",""
"null","","image-button-response","198","2735050","0.0-197.0","AB0LYB4PZKY9K","img_art/27.jpg","null","","","","","","","","","","","","","","","","","","","","","","","","",""
"17772","","image-button-response","199","2752825","0.0-198.0","AB0LYB4PZKY9K","img_art/27.jpg","1","","","","","","","","","","","","","","","","","","","","","","","","",""
"4789","","image-button-response","200","2757617","0.0-199.0-0.0","AB0LYB4PZKY9K","img_art/27.jpg","2","","","","","","","","","","","","","","","","","","","","","","","","",""
"2802","","image-button-response","201","2760421","0.0-200.0-0.0","AB0LYB4PZKY9K","img_art/27.jpg","5","","","","","","","","","","","","","","","","","","","","","","","","",""
"null","","html-keyboard-response","202","2761423","0.0-201.0","AB0LYB4PZKY9K","<p style=""font-size: 48px;"">+</p>","","","","","null","allTrialResponses","1000","1","22","img_art/27.jpg","16","Mountain with snow on it & people skiing.","Lindsey,Makayla,Brittany,Meghan,Kelsey,Jennifer","Looks like my niece's doodles.,-50,400,20","Calming sky , relaxing,23,80,20","The colors are put together in an interesting way.,-9,40,20","again looks like childrens artwork,-40,220,20","too messy dont like the color choices either,-17,240,20","Somewhat boring piece,-3,380,20","Makayla","Calming sky , relaxing,23,80,20","Brittany","The colors are put together in an interesting way.,-9,40,20","Jennifer","Somewhat boring piece,-3,380,20","2"
"69384","","survey-text","203","2830821","0.0-202.0-0.0","AB0LYB4PZKY9K","","","","{""Q0"":""Looks like an orchestra  in front of the back drop.""}","","","","","","","","","","","","","","","","","","","","","","",""
"7655.0999999996275","","image-slider-response","204","2838479","0.0-203.0","AB0LYB4PZKY9K","","","","","31","","","","","","","","","","","","","","","","","","","","","",""
"3154","","image-button-response","205","2843483","0.0-204.0","AB0LYB4PZKY9K","img_art/23.jpg","0","","","","","","","","","","","","","","","","","","","","","","","","",""
"19739","","image-button-response","206","2863225","0.0-205.0","AB0LYB4PZKY9K","img_art/23.jpg","2","","","","","","","","","","","","","","","","","","","","","","","","",""
"2226","","image-button-response","207","2865453","0.0-206.0-0.0","AB0LYB4PZKY9K","img_art/23.jpg","0","","","","","","","","","","","","","","","","","","","","","","","","",""
"9313","","image-button-response","208","2874769","0.0-207.0-0.0","AB0LYB4PZKY9K","img_art/23.jpg","4","","","","","","","","","","","","","","","","","","","","","","","","",""
"null","","html-keyboard-response","209","2876271","0.0-208.0","AB0LYB4PZKY9K","<p style=""font-size: 48px;"">+</p>","","","","","null","allTrialResponses","1500","1","23","img_art/23.jpg","31","Looks like an orchestra  in front of the back drop.","Sara,Makayla,Brittany,Caitlin,Cynthia,Jennifer","Beautiful color scheme,21,160,20","Reminds me of disco/70's, not my favorite design,-12,80,20","The white paint through the middle really draws the eye.,30,40,20","SOME thought was put into this one.,5,80,20","puzzled with curiosity,31,320,20","The cluster of white silhouettes against the colorful background makes me feel uneasy for some reason,-36,380,20","Brittany","The white paint through the middle really draws the eye.,30,40,20","Sara","Beautiful color scheme,21,160,20","Cynthia","puzzled with curiosity,31,320,20","2"
"126780","","survey-text","210","3003065","0.0-209.0-0.0","AB0LYB4PZKY9K","","","","{""Q0"":""Looks like my grandschild's painting I have that is hanging on my refrigerator.""}","","","","","","","","","","","","","","","","","","","","","","",""
"11269.5","","image-slider-response","211","3014337","0.0-210.0","AB0LYB4PZKY9K","","","","","50","","","","","","","","","","","","","","","","","","","","","",""
"null","","image-button-response","212","3019340","0.0-211.0","AB0LYB4PZKY9K","img_art/26.jpg","null","","","","","","","","","","","","","","","","","","","","","","","","",""
"7851","","image-button-response","213","3027194","0.0-212.0","AB0LYB4PZKY9K","img_art/26.jpg","5","","","","","","","","","","","","","","","","","","","","","","","","",""
"4547","","image-button-response","214","3031743","0.0-213.0-0.0","AB0LYB4PZKY9K","img_art/26.jpg","0","","","","","","","","","","","","","","","","","","","","","","","","",""
"3339","","image-button-response","215","3035085","0.0-214.0-0.0","AB0LYB4PZKY9K","img_art/26.jpg","3","","","","","","","","","","","","","","","","","","","","","","","","",""
"null","","html-keyboard-response","216","3035587","0.0-215.0","AB0LYB4PZKY9K","<p style=""font-size: 48px;"">+</p>","","","","","null","allTrialResponses","500","1","24","img_art/26.jpg","50","Looks like my grandschild's painting I have that is hanging on my refrigerator.","Sara,Melissa,Brittany,Sydney,Cynthia,Madeline","I can somewhat city a city in this drawing,11,160,20","feels incomplete,-50,240,20","It looks boring and too rough.,-9,40,20","I wish there was more detail, but I really like this simple piece.,35,320,20","dull and boring,-6,320,20","I like the shapes but needs more detail i think,3,40,20","Madeline","I like the shapes but needs more detail i think,3,40,20","Sara","I can somewhat city a city in this drawing,11,160,20","Sydney","I wish there was more detail, but I really like this simple piece.,35,320,20","2"
"34637","","survey-text","217","3070239","0.0-216.0-0.0","AB0LYB4PZKY9K","","","","{""Q0"":""Out of the Wild Wild West.""}","","","","","","","","","","","","","","","","","","","","","","",""
"5726.799999998882","","image-slider-response","218","3075967","0.0-217.0","AB0LYB4PZKY9K","","","","","46","","","","","","","","","","","","","","","","","","","","","",""
"null","","image-button-response","219","3080974","0.0-218.0","AB0LYB4PZKY9K","img_art/20.jpg","null","","","","","","","","","","","","","","","","","","","","","","","","",""
"13721","","image-button-response","220","3094698","0.0-219.0","AB0LYB4PZKY9K","img_art/20.jpg","0","","","","","","","","","","","","","","","","","","","","","","","","",""
"5227","","image-button-response","221","3099927","0.0-220.0-0.0","AB0LYB4PZKY9K","img_art/20.jpg","3","","","","","","","","","","","","","","","","","","","","","","","","",""
"3772","","image-button-response","222","3103702","0.0-221.0-0.0","AB0LYB4PZKY9K","img_art/20.jpg","4","","","","","","","","","","","","","","","","","","","","","","","","",""
"null","","html-keyboard-response","223","3105204","0.0-222.0","AB0LYB4PZKY9K","<p style=""font-size: 48px;"">+</p>","","","","","null","allTrialResponses","1500","1","25","img_art/20.jpg","46","Out of the Wild Wild West.","Sara,Leah,Mikayla,Sydney,Stephanie,Madeline","Looks calm but a bit dark,21,160,20","A sad past town, pollution, guess I like happier scenes,-30,360,20","Kinda freaks me out.,-40,300,20","I love the color choice.,25,320,20","Looks like an old gold mining down now deserted.,11,300,20","Looks somewhat dark and emotional,-10,40,20","Sara","Looks calm but a bit dark,21,160,20","Sydney","I love the color choice.,25,320,20","Stephanie","Looks like an old gold mining down now deserted.,11,300,20","2"
"8899","","survey-text","224","3114129","0.0-223.0-0.0","AB0LYB4PZKY9K","","","","{""Q0"":""table""}","","","","","","","","","","","","","","","","","","","","","","",""
"49386","","survey-text","225","3163517","0.0-224.0-0.0","AB0LYB4PZKY9K","","","","{""Q0"":""Doesn't do anything for me.""}","","","","","","","","","","","","","","","","","","","","","","",""
"5557.5","","image-slider-response","226","3169077","0.0-225.0","AB0LYB4PZKY9K","","","","","-17","","","","","","","","","","","","","","","","","","","","","",""
"null","","image-button-response","227","3174080","0.0-226.0","AB0LYB4PZKY9K","img_art/18.jpg","null","","","","","","","","","","","","","","","","","","","","","","","","",""
"6730","","image-button-response","228","3180814","0.0-227.0","AB0LYB4PZKY9K","img_art/18.jpg","4","","","","","","","","","","","","","","","","","","","","","","","","",""
"6286","","image-button-response","229","3187101","0.0-228.0-0.0","AB0LYB4PZKY9K","img_art/18.jpg","0","","","","","","","","","","","","","","","","","","","","","","","","",""
"3009","","image-button-response","230","3190113","0.0-229.0-0.0","AB0LYB4PZKY9K","img_art/18.jpg","0","","","","","","","","","","","","","","","","","","","","","","","","",""
"1056","","image-button-response","231","3207137","0.0-229.1-0.1","AB0LYB4PZKY9K","img_art/18.jpg","5","","","","","","","","","","","","","","","","","","","","","","","","",""
"null","","html-keyboard-response","232","3208140","0.0-230.0","AB0LYB4PZKY9K","<p style=""font-size: 48px;"">+</p>","","","","","null","allTrialResponses","1000","1","26","img_art/18.jpg","-17","Doesn't do anything for me.","Sara,Haley,Emily,Sydney,Stephanie,Kelly","Too abstract and swirly,-21,160,20","I could stare at this for long stretches of time and still find new details. I love it.,40,220,20","Not my style but I can see some serious skill went int it.,21,40,20","I like the colors being used, but I don't like the chaos in the middle of it.,20,320,20","It made me think of a car crash,-39,300,20","It's interesting. I'm not sure how I feel about it, but i enjoy the ghostly apparitions.,10,220,20","Stephanie","It made me think of a car crash,-39,300,20","Sara","Too abstract and swirly,-21,160,20","Kelly","It's interesting. I'm not sure how I feel about it, but i enjoy the ghostly apparitions.,10,220,20","4"
"44088","","survey-text","233","3252243","0.0-231.0-0.0","AB0LYB4PZKY9K","","","","{""Q0"":""I can sit and relax looking at this piece of art""}","","","","","","","","","","","","","","","","","","","","","","",""
"4057.4000000003725","","image-slider-response","234","3256303","0.0-232.0","AB0LYB4PZKY9K","","","","","50","","","","","","","","","","","","","","","","","","","","","",""
"4781","","image-button-response","235","3261307","0.0-233.0","AB0LYB4PZKY9K","img_art/21.jpg","1","","","","","","","","","","","","","","","","","","","","","","","","",""
"1507","","image-button-response","236","3262817","0.0-234.0","AB0LYB4PZKY9K","img_art/21.jpg","1","","","","","","","","","","","","","","","","","","","","","","","","",""
"17742","","image-button-response","237","3280562","0.0-235.0-0.0","AB0LYB4PZKY9K","img_art/21.jpg","5","","","","","","","","","","","","","","","","","","","","","","","","",""
"1470","","image-button-response","238","3282036","0.0-236.0-0.0","AB0LYB4PZKY9K","img_art/21.jpg","3","","","","","","","","","","","","","","","","","","","","","","","","",""
"null","","html-keyboard-response","239","3282538","0.0-237.0","AB0LYB4PZKY9K","<p style=""font-size: 48px;"">+</p>","","","","","null","allTrialResponses","500","1","27","img_art/21.jpg","50","I can sit and relax looking at this piece of art","Sara,Cassidy,Morgan,Michelle,Stephanie,Kelly","It looks confusing,-21,160,20","I really like these colors together and their placement. The dabs of white are a nice contrast to the soft blending,10,140,20","Survivable storm on the open sea.,27,380,20","The colors are very nice. I like the dots because they remind me of pearls,5,280,20","A battle at sea, the red is a bomb exploding.,-31,300,20","It actually reminded me of a place I've been to. So I had a positive reaction to it.,22,220,20","Cassidy","I really like these colors together and their placement. The dabs of white are a nice contrast to the soft blending,10,140,20","Kelly","It actually reminded me of a place I've been to. So I had a positive reaction to it.,22,220,20","Michelle","The colors are very nice. I like the dots because they remind me of pearls,5,280,20","4"
"80071","","survey-text","240","3362625","0.0-238.0-0.0","AB0LYB4PZKY9K","","","","{""Q0"":""Ocean City, MD by the boardwalk during a storm.""}","","","","","","","","","","","","","","","","","","","","","","",""
"9836.5","","image-slider-response","241","3372463","0.0-239.0","AB0LYB4PZKY9K","","","","","12","","","","","","","","","","","","","","","","","","","","","",""
"2279","","image-button-response","242","3377482","0.0-240.0","AB0LYB4PZKY9K","img_art/11.jpg","0","","","","","","","","","","","","","","","","","","","","","","","","",""
"14588","","image-button-response","243","3392074","0.0-241.0","AB0LYB4PZKY9K","img_art/11.jpg","4","","","","","","","","","","","","","","","","","","","","","","","","",""
"6301","","image-button-response","244","3398378","0.0-242.0-0.0","AB0LYB4PZKY9K","img_art/11.jpg","1","","","","","","","","","","","","","","","","","","","","","","","","",""
"3019","","image-button-response","245","3401400","0.0-243.0-0.0","AB0LYB4PZKY9K","img_art/11.jpg","0","","","","","","","","","","","","","","","","","","","","","","","","",""
"null","","html-keyboard-response","246","3402903","0.0-244.0","AB0LYB4PZKY9K","<p style=""font-size: 48px;"">+</p>","","","","","null","allTrialResponses","1500","1","28","img_art/11.jpg","12","Ocean City, MD by the boardwalk during a storm.","Katelyn,Cassidy,Cheyenne,Michelle,Caroline,Kelly","I like the dark lines and it interests me,13,100,20","Love the colors against the black and gray. The lines are calming.,22,140,20","Very good use of colors,44,200,20","I think this is a city but I'm not sure, very abstract,18,280,20","Makes me think of far away places and traveling. Makes me feel like wandering,20,100,20","Its a little psychedelic.,10,220,20","Caroline","Makes me think of far away places and traveling. Makes me feel like wandering,20,100,20","Cassidy","Love the colors against the black and gray. The lines are calming.,22,140,20","Katelyn","I like the dark lines and it interests me,13,100,20","4"
"91710","","survey-text","247","3494628","0.0-245.0-0.0","AB0LYB4PZKY9K","","","","{""Q0"":""pheasant running through the woods""}","","","","","","","","","","","","","","","","","","","","","","",""
"26101.400000000373","","image-slider-response","248","3520731","0.0-246.0","AB0LYB4PZKY9K","","","","","22","","","","","","","","","","","","","","","","","","","","","",""
"null","","image-button-response","249","3525736","0.0-247.0","AB0LYB4PZKY9K","img_art/24.jpg","null","","","","","","","","","","","","","","","","","","","","","","","","",""
"17873","","image-button-response","250","3543612","0.0-248.0","AB0LYB4PZKY9K","img_art/24.jpg","1","","","","","","","","","","","","","","","","","","","","","","","","",""
"1615","","image-button-response","251","3545230","0.0-249.0-0.0","AB0LYB4PZKY9K","img_art/24.jpg","1","","","","","","","","","","","","","","","","","","","","","","","","",""
"10805","","image-button-response","252","3564384","0.0-249.1-0.1","AB0LYB4PZKY9K","img_art/24.jpg","3","","","","","","","","","","","","","","","","","","","","","","","","",""
"3393","","image-button-response","253","3567780","0.0-250.0-0.0","AB0LYB4PZKY9K","img_art/24.jpg","4","","","","","","","","","","","","","","","","","","","","","","","","",""
"null","","html-keyboard-response","254","3568287","0.0-251.0","AB0LYB4PZKY9K","<p style=""font-size: 48px;"">+</p>","","","","","null","allTrialResponses","500","1","29","img_art/24.jpg","22","pheasant running through the woods","Katelyn,Cassidy,Monica,Dominique,Caroline,Gabrielle","Love the colors and contrast. Feels peaceful.,33,100,20","I don't even know. It's just kind of meh,1,140,20","It looks alive, like I can hear the water flowing,41,360,20","Spending a day in nature,21,400,20","Waterfalls and spring and gives me a sense of renewal,34,100,20","flowing water part is good, some of the rest is ok but dark,14,160,20","Cassidy","I don't even know. It's just kind of meh,1,140,20","Dominique","Spending a day in nature,21,400,20","Caroline","Waterfalls and spring and gives me a sense of renewal,34,100,20","6"
"41295","","survey-text","255","3609596","0.0-252.0-0.0","AB0LYB4PZKY9K","","","","{""Q0"":""Boring""}","","","","","","","","","","","","","","","","","","","","","","",""
"4892.0999999996275","","image-slider-response","256","3614490","0.0-253.0","AB0LYB4PZKY9K","","","","","-45","","","","","","","","","","","","","","","","","","","","","",""
"null","","image-button-response","257","3619498","0.0-254.0","AB0LYB4PZKY9K","img_art/10.jpg","null","","","","","","","","","","","","","","","","","","","","","","","","",""
"9416","","image-button-response","258","3628918","0.0-255.0","AB0LYB4PZKY9K","img_art/10.jpg","5","","","","","","","","","","","","","","","","","","","","","","","","",""
"3034","","image-button-response","259","3631954","0.0-256.0-0.0","AB0LYB4PZKY9K","img_art/10.jpg","1","","","","","","","","","","","","","","","","","","","","","","","","",""
"3313","","image-button-response","260","3635270","0.0-257.0-0.0","AB0LYB4PZKY9K","img_art/10.jpg","0","","","","","","","","","","","","","","","","","","","","","","","","",""
"null","","html-keyboard-response","261","3636280","0.0-258.0","AB0LYB4PZKY9K","<p style=""font-size: 48px;"">+</p>","","","","","null","allTrialResponses","1000","1","30","img_art/10.jpg","-45","Boring","Shelby,Cassidy,Catherine,Dominique,Caroline,Kaitlyn","Love the monotonal texture,20,240,20","Looks like someone just smeared some paint and called it good. Do not like.,-6,140,20","Circle of life, with highs and lows, good and bad. You always weather the storm and come out on top.,40,160,20","A very conversational piece could be of many different ideas,38,400,20","This painting made me think of a guitar which made me think of music which envoked happy feelings.,28,100,20","Picture looks smudged,-7,80,20","Kaitlyn","Picture looks smudged,-7,80,20","Cassidy","Looks like someone just smeared some paint and called it good. Do not like.,-6,140,20","Shelby","Love the monotonal texture,20,240,20","6"
"7251","","image-button-response_instructions","262","3643545","0.0-259.0","AB0LYB4PZKY9K","","0","instructions","","","","","","","","","","","","","","","","","","","","","","","",""
"5255","","image-button-response","263","3648807","0.0-260.0","AB0LYB4PZKY9K","","0","","","","","","","","","","","","","","","","","","","","","","","","",""
