"rt","url","trial_type","trial_index","time_elapsed","internal_node_id","participant_id","stimulus","button_pressed","Name","responses","response","key_press","variableName","fixationTime","condition","trial","photo","subjectRating","subjectResponse","agentsNames","agent_1_Response","agent_2_Response","agent_3_Response","agent_4_Response","agent_5_Response","agent_6_Response","kept_1_name","kept_1_response","kept_2_name","kept_2_response","kept_3_name","kept_3_response","errorCounter"
"10698","external_page_harvard.html","external-html","0","10815","0.0-0.0","ABXL9SD1N6ZQZ","","","","","","","","","","","","","","","","","","","","","","","","","","",""
"2059","","image-button-response","1","12876","0.0-1.0","ABXL9SD1N6ZQZ","","1","","","","","","","","","","","","","","","","","","","","","","","","",""
"1611","","image-button-response","2","14491","0.0-2.0-0.0","ABXL9SD1N6ZQZ","","1","phone","","","","","","","","","","","","","","","","","","","","","","","",""
"9141","","survey-text","3","23634","0.0-3.0-0.0","ABXL9SD1N6ZQZ","","","","{""Q0"":""ABXL9SD1N6ZQZ""}","","","","","","","","","","","","","","","","","","","","","","",""
"6307","","image-button-response_instructions","4","29944","0.0-4.0","ABXL9SD1N6ZQZ","","0","instructions","","","","","","","","","","","","","","","","","","","","","","","",""
"28429","","image-button-response_instructions","5","58375","0.0-5.0","ABXL9SD1N6ZQZ","img_art/ins/popularity/ins1.png","0","instructions","","","","","","","","","","","","","","","","","","","","","","","",""
"10169","","image-button-response_instructions","6","68546","0.0-6.0","ABXL9SD1N6ZQZ","img_art/ins/popularity/ins2.png","0","instructions","","","","","","","","","","","","","","","","","","","","","","","",""
"5182","","image-button-response_instructions","7","73730","0.0-7.0","ABXL9SD1N6ZQZ","img_art/ins/popularity/ins2Extreme.png","0","instructions","","","","","","","","","","","","","","","","","","","","","","","",""
"7089","","image-button-response_instructions","8","80821","0.0-8.0","ABXL9SD1N6ZQZ","img_art/ins/popularity/ins3KEEPpop.PNG","0","instructions","","","","","","","","","","","","","","","","","","","","","","","",""
"5993","","image-button-response_instructions","9","86816","0.0-9.0","ABXL9SD1N6ZQZ","img_art/ins/popularity/ins3ANamepop.PNG","0","instructions","","","","","","","","","","","","","","","","","","","","","","","",""
"1904","","image-button-response_instructions","10","88721","0.0-10.0","ABXL9SD1N6ZQZ","img_art/ins/popularity/ins3ARatingpop.png","0","instructions","","","","","","","","","","","","","","","","","","","","","","","",""
"1589","","image-button-response_instructions","11","90311","0.0-11.0","ABXL9SD1N6ZQZ","img_art/ins/popularity/ins3ATextpop.png","0","instructions","","","","","","","","","","","","","","","","","","","","","","","",""
"1993","","image-button-response_instructions","12","92306","0.0-12.0","ABXL9SD1N6ZQZ","img_art/ins/popularity/ins3ALikespop.png","0","instructions","","","","","","","","","","","","","","","","","","","","","","","",""
"11968","","image-button-response_instructions","13","104276","0.0-13.0","ABXL9SD1N6ZQZ","img_art/ins/popularity/ins3KEEPpop.PNG","0","instructions","","","","","","","","","","","","","","","","","","","","","","","",""
"16574","","image-button-response_instructions","14","120852","0.0-14.0","ABXL9SD1N6ZQZ","img_art/ins/popularity/ins3_5RED.png","0","instructions","","","","","","","","","","","","","","","","","","","","","","","",""
"4394","","image-button-response_instructions","15","125249","0.0-15.0","ABXL9SD1N6ZQZ","img_art/ins/popularity/ins3KEEPpop.PNG","0","instructions","","","","","","","","","","","","","","","","","","","","","","","",""
"10231","","image-button-response_instructions","16","135482","0.0-16.0","ABXL9SD1N6ZQZ","img_art/ins/popularity/ins4KEEPpop.PNG","0","instructions","","","","","","","","","","","","","","","","","","","","","","","",""
"1619","","image-button-response_instructions","17","137102","0.0-17.0","ABXL9SD1N6ZQZ","img_art/ins/popularity/ins5KEEPpop.PNG","0","instructions","","","","","","","","","","","","","","","","","","","","","","","",""
"1530","","image-button-response_instructions","18","138634","0.0-18.0","ABXL9SD1N6ZQZ","","0","instructions","","","","","","","","","","","","","","","","","","","","","","","",""
"12866","","survey-text","19","151527","0.0-19.0-0.0","ABXL9SD1N6ZQZ","","","","{""Q0"":""but ""}","","","","","","","","","","","","","","","","","","","","","","",""
"5904","","survey-text","20","161828","0.0-19.1-0.1","ABXL9SD1N6ZQZ","","","","{""Q0"":""but""}","","","","","","","","","","","","","","","","","","","","","","",""
"9541","","survey-text","21","171370","0.0-20.0-0.0","ABXL9SD1N6ZQZ","","","","{""Q0"":""peaceful flowers""}","","","","","","","","","","","","","","","","","","","","","","",""
"4738.700000047684","","image-slider-response","22","176113","0.0-21.0","ABXL9SD1N6ZQZ","","","","","22","","","","","","","","","","","","","","","","","","","","","",""
"null","","image-button-response","23","181121","0.0-22.0","ABXL9SD1N6ZQZ","img_art/ins/1.jpg","null","","","","","","","","","","","","","","","","","","","","","","","","",""
"2183","","image-button-response","24","183307","0.0-23.0","ABXL9SD1N6ZQZ","img_art/ins/1.jpg","0","","","","","","","","","","","","","","","","","","","","","","","","",""
"4829","","image-button-response","25","188140","0.0-24.0-0.0","ABXL9SD1N6ZQZ","img_art/ins/1.jpg","5","","","","","","","","","","","","","","","","","","","","","","","","",""
"1679","","image-button-response","26","189822","0.0-25.0-0.0","ABXL9SD1N6ZQZ","img_art/ins/1.jpg","4","","","","","","","","","","","","","","","","","","","","","","","","",""
"null","","html-keyboard-response","27","191325","0.0-26.0","ABXL9SD1N6ZQZ","<p style=""font-size: 48px;"">+</p>","","","","","null","allTrialResponses","1500","1","-2","img_art/ins/1.jpg","22","peaceful flowers","Allison,Ashley,Beth,Dora,Erika,Jen","looks like a lot of things going on in the mist,20,20,20","I just don't get why these type of art would be popular,-32,40,20","This color reminds me of poo,-46,60,20","looks like what my niece in 3rd grade did this afternoon,-50,80,20","I like the sophisticated brushwork,40,100,20","It reminds me of a candy land dream I had,36,120,20","Allison","looks like a lot of things going on in the mist,20,20,20","Jen","It reminds me of a candy land dream I had,36,120,20","Erika","I like the sophisticated brushwork,40,100,20","1"
"12097","","survey-text","28","203428","0.0-27.0-0.0","ABXL9SD1N6ZQZ","","","","{""Q0"":""I think the use of color is nice""}","","","","","","","","","","","","","","","","","","","","","","",""
"3547.900000035763","","image-slider-response","29","206978","0.0-28.0","ABXL9SD1N6ZQZ","","","","","6","","","","","","","","","","","","","","","","","","","","","",""
"null","","image-button-response","30","211982","0.0-29.0","ABXL9SD1N6ZQZ","img_art/ins/2.jpg","null","","","","","","","","","","","","","","","","","","","","","","","","",""
"312","","image-button-response","31","212297","0.0-30.0","ABXL9SD1N6ZQZ","img_art/ins/2.jpg","4","","","","","","","","","","","","","","","","","","","","","","","","",""
"2241","","image-button-response","32","214541","0.0-31.0-0.0","ABXL9SD1N6ZQZ","img_art/ins/2.jpg","5","","","","","","","","","","","","","","","","","","","","","","","","",""
"2274","","image-button-response","33","216819","0.0-32.0-0.0","ABXL9SD1N6ZQZ","img_art/ins/2.jpg","1","","","","","","","","","","","","","","","","","","","","","","","","",""
"null","","html-keyboard-response","34","217823","0.0-33.0","ABXL9SD1N6ZQZ","<p style=""font-size: 48px;"">+</p>","","","","","null","allTrialResponses","1000","1","-1","img_art/ins/2.jpg","6","I think the use of color is nice","Allison,Kara,Katie,Jenna,Erika,Jen","I don't have strong feelings about this,10,20,20","I like the blocks of color arrangements,30,160,20","too much color!,-28,180,20","One of my pet peevs,-48,140,20","I would never be able to compose a sophisticated pallete like this,48,100,20","It reminds me of a fireplace,36,120,20","Erika","I would never be able to compose a sophisticated pallete like this,48,100,20","Jen","It reminds me of a fireplace,36,120,20","Kara","I like the blocks of color arrangements,30,160,20","1"
"12499","","survey-text","35","230329","0.0-34.0-0.0","ABXL9SD1N6ZQZ","","","","{""Q0"":""This reminds me of tissue paper art we did in elementary""}","","","","","","","","","","","","","","","","","","","","","","",""
"4915.899999976158","","image-slider-response","36","235247","0.0-35.0","ABXL9SD1N6ZQZ","","","","","-11","","","","","","","","","","","","","","","","","","","","","",""
"2086","","image-button-response","37","240255","0.0-36.0","ABXL9SD1N6ZQZ","img_art/ins/3.jpg","1","","","","","","","","","","","","","","","","","","","","","","","","",""
"2545","","image-button-response","38","242804","0.0-37.0","ABXL9SD1N6ZQZ","img_art/ins/3.jpg","3","","","","","","","","","","","","","","","","","","","","","","","","",""
"1930","","image-button-response","39","244737","0.0-38.0-0.0","ABXL9SD1N6ZQZ","img_art/ins/3.jpg","1","","","","","","","","","","","","","","","","","","","","","","","","",""
"2064","","image-button-response","40","246804","0.0-39.0-0.0","ABXL9SD1N6ZQZ","img_art/ins/3.jpg","5","","","","","","","","","","","","","","","","","","","","","","","","",""
"null","","html-keyboard-response","41","248316","0.0-40.0","ABXL9SD1N6ZQZ","<p style=""font-size: 48px;"">+</p>","","","","","null","allTrialResponses","1500","1","0","img_art/ins/3.jpg","-11","This reminds me of tissue paper art we did in elementary","Mary,Kara,Rose,Leslie,Erika,Jen","I like the overlapping of brushes,41,220,20","calming blue is very nice,36,160,20","My daily routine, it's depressing,-20,240,20","It's an alright work,15,200,20","I feel connected to the artist,40,100,20","I can feel a rainy day from this painting,18,120,20","Leslie","It's an alright work,15,200,20","Kara","calming blue is very nice,36,160,20","Jen","I can feel a rainy day from this painting,18,120,20","1"
"3059","","image-button-response_instructions","42","251382","0.0-41.0","ABXL9SD1N6ZQZ","","0","instructions","","","","","","","","","","","","","","","","","","","","","","","",""
"12741","","survey-likert","43","264124","0.0-42.0-0.0","ABXL9SD1N6ZQZ","","","","{""Q0"":"""",""Q1"":0,""Q2"":1}","","","","","","","","","","","","","","","","","","","","","","",""
"5345","","survey-text","44","269476","0.0-43.0-0.0","ABXL9SD1N6ZQZ","","","","{""Q0"":""rock""}","","","","","","","","","","","","","","","","","","","","","","",""
"17680","","survey-text","45","287159","0.0-44.0-0.0","ABXL9SD1N6ZQZ","","","","{""Q0"":""I like the action of the water, but it's a bit brown for my taste""}","","","","","","","","","","","","","","","","","","","","","","",""
"3544.2999999523163","","image-slider-response","46","290706","0.0-45.0","ABXL9SD1N6ZQZ","","","","","-10","","","","","","","","","","","","","","","","","","","","","",""
"null","","image-button-response","47","295758","0.0-46.0","ABXL9SD1N6ZQZ","img_art/24.jpg","null","","","","","","","","","","","","","","","","","","","","","","","","",""
"5356","","image-button-response","48","301117","0.0-47.0","ABXL9SD1N6ZQZ","img_art/24.jpg","4","","","","","","","","","","","","","","","","","","","","","","","","",""
"2138","","image-button-response","49","303259","0.0-48.0-0.0","ABXL9SD1N6ZQZ","img_art/24.jpg","5","","","","","","","","","","","","","","","","","","","","","","","","",""
"2158","","image-button-response","50","305420","0.0-49.0-0.0","ABXL9SD1N6ZQZ","img_art/24.jpg","0","","","","","","","","","","","","","","","","","","","","","","","","",""
"null","","html-keyboard-response","51","306434","0.0-50.0","ABXL9SD1N6ZQZ","<p style=""font-size: 48px;"">+</p>","","","","","null","allTrialResponses","1000","1","1","img_art/24.jpg","-10","I like the action of the water, but it's a bit brown for my taste","Savannah,Madison,Cassidy,Molly,Julia,Jennifer","This is gorgeous. Strong, saturated colors and clear meaning.,50,200,20","Exceedingly garish,-19,60,20","I don't even know. It's just kind of meh,1,140,20","Extraordinary and unusual.,30,340,20","it's a nice stream, but I don't care for plain nature,-15,40,20","This piece resembles a waterfall surrounded by trees.,21,380,20","Julia","it's a nice stream, but I don't care for plain nature,-15,40,20","Jennifer","This piece resembles a waterfall surrounded by trees.,21,380,20","Savannah","This is gorgeous. Strong, saturated colors and clear meaning.,50,200,20","1"
"14855","","survey-text","52","321295","0.0-51.0-0.0","ABXL9SD1N6ZQZ","","","","{""Q0"":""This seems like a mess on the top and industrial on the bottom""}","","","","","","","","","","","","","","","","","","","","","","",""
"4380","","image-slider-response","53","325677","0.0-52.0","ABXL9SD1N6ZQZ","","","","","-19","","","","","","","","","","","","","","","","","","","","","",""
"null","","image-button-response","54","330684","0.0-53.0","ABXL9SD1N6ZQZ","img_art/17.jpg","null","","","","","","","","","","","","","","","","","","","","","","","","",""
"2354","","image-button-response","55","333039","0.0-54.0","ABXL9SD1N6ZQZ","img_art/17.jpg","1","","","","","","","","","","","","","","","","","","","","","","","","",""
"5402","","image-button-response","56","338444","0.0-55.0-0.0","ABXL9SD1N6ZQZ","img_art/17.jpg","3","","","","","","","","","","","","","","","","","","","","","","","","",""
"1811","","image-button-response","57","340258","0.0-56.0-0.0","ABXL9SD1N6ZQZ","img_art/17.jpg","5","","","","","","","","","","","","","","","","","","","","","","","","",""
"null","","html-keyboard-response","58","340761","0.0-57.0","ABXL9SD1N6ZQZ","<p style=""font-size: 48px;"">+</p>","","","","","null","allTrialResponses","500","1","2","img_art/17.jpg","-19","This seems like a mess on the top and industrial on the bottom","Savannah,Shelby,Margaret,Erin,Julia,Jennifer","Not even abstract to me, very clear meaning.,44,200,20","This feels like creativity and limitlessness,30,240,20","gentle watercolor vibes,12,100,20","Windows indoor tree, weird palette,-11,120,20","I'm not into paintings of trees,-18,40,20","Very elegant, this design reminds me of trees,31,380,20","Shelby","This feels like creativity and limitlessness,30,240,20","Erin","Windows indoor tree, weird palette,-11,120,20","Jennifer","Very elegant, this design reminds me of trees,31,380,20","1"
"16548","","survey-text","59","357313","0.0-58.0-0.0","ABXL9SD1N6ZQZ","","","","{""Q0"":""This seems like a tornado just went through the farm""}","","","","","","","","","","","","","","","","","","","","","","",""
"4016.899999976158","","image-slider-response","60","361333","0.0-59.0","ABXL9SD1N6ZQZ","","","","","-26","","","","","","","","","","","","","","","","","","","","","",""
"null","","image-button-response","61","366337","0.0-60.0","ABXL9SD1N6ZQZ","img_art/20.jpg","null","","","","","","","","","","","","","","","","","","","","","","","","",""
"1055","","image-button-response","62","367394","0.0-61.0","ABXL9SD1N6ZQZ","img_art/20.jpg","3","","","","","","","","","","","","","","","","","","","","","","","","",""
"2990","","image-button-response","63","370387","0.0-62.0-0.0","ABXL9SD1N6ZQZ","img_art/20.jpg","2","","","","","","","","","","","","","","","","","","","","","","","","",""
"1601","","image-button-response","64","371991","0.0-63.0-0.0","ABXL9SD1N6ZQZ","img_art/20.jpg","5","","","","","","","","","","","","","","","","","","","","","","","","",""
"null","","html-keyboard-response","65","372494","0.0-64.0","ABXL9SD1N6ZQZ","<p style=""font-size: 48px;"">+</p>","","","","","null","allTrialResponses","500","1","3","img_art/20.jpg","-26","This seems like a tornado just went through the farm","Amber,Shelby,Meghan,Erin,Autumn,Jennifer","Bold strokes and colors.,6,200,20","Makes me think if a car crash or some sort of disaster,-20,240,20","feels distorted and uncomfortable,-41,220,20","Dark frame overpowers the image,-6,120,20","It's ok. Very abstract.,18,340,20","Neutral, this piece doesn't strike me as particularly bad or good,0,380,20","Erin","Dark frame overpowers the image,-6,120,20","Meghan","feels distorted and uncomfortable,-41,220,20","Jennifer","Neutral, this piece doesn't strike me as particularly bad or good,0,380,20","1"
"17492","","survey-text","66","389991","0.0-65.0-0.0","ABXL9SD1N6ZQZ","","","","{""Q0"":""This reminds me of a quaint street, but the colors are very muted.""}","","","","","","","","","","","","","","","","","","","","","","",""
"4940.699999988079","","image-slider-response","67","394935","0.0-66.0","ABXL9SD1N6ZQZ","","","","","-21","","","","","","","","","","","","","","","","","","","","","",""
"null","","image-button-response","68","399952","0.0-67.0","ABXL9SD1N6ZQZ","img_art/26.jpg","null","","","","","","","","","","","","","","","","","","","","","","","","",""
"834","","image-button-response","69","400789","0.0-68.0","ABXL9SD1N6ZQZ","img_art/26.jpg","4","","","","","","","","","","","","","","","","","","","","","","","","",""
"919","","image-button-response","70","401711","0.0-69.0-0.0","ABXL9SD1N6ZQZ","img_art/26.jpg","5","","","","","","","","","","","","","","","","","","","","","","","","",""
"1480","","image-button-response","71","403194","0.0-70.0-0.0","ABXL9SD1N6ZQZ","img_art/26.jpg","0","","","","","","","","","","","","","","","","","","","","","","","","",""
"null","","html-keyboard-response","72","403700","0.0-71.0","ABXL9SD1N6ZQZ","<p style=""font-size: 48px;"">+</p>","","","","","null","allTrialResponses","500","1","4","img_art/26.jpg","-21","This reminds me of a quaint street, but the colors are very muted.","Brooke,Alyssa,Meghan,Erin,Alexis,Jennifer","street scene is okay?,15,60,20","Its pretty.And a nice use of water colors.,25,160,20","nothing really special, quite bland,1,220,20","City scene in a park,23,120,20","Much too simple and without color for my taste,-33,100,20","This picture doesn't really stand out.,0,380,20","Alexis","Much too simple and without color for my taste,-33,100,20","Jennifer","This picture doesn't really stand out.,0,380,20","Brooke","street scene is okay?,15,60,20","1"
"15677","","survey-text","73","419383","0.0-72.0-0.0","ABXL9SD1N6ZQZ","","","","{""Q0"":""This picture doesn't make any sense to me""}","","","","","","","","","","","","","","","","","","","","","","",""
"3411.399999976158","","image-slider-response","74","422797","0.0-73.0","ABXL9SD1N6ZQZ","","","","","-44","","","","","","","","","","","","","","","","","","","","","",""
"null","","image-button-response","75","427800","0.0-74.0","ABXL9SD1N6ZQZ","img_art/21.jpg","null","","","","","","","","","","","","","","","","","","","","","","","","",""
"1783","","image-button-response","76","429586","0.0-75.0","ABXL9SD1N6ZQZ","img_art/21.jpg","5","","","","","","","","","","","","","","","","","","","","","","","","",""
"3681","","image-button-response","77","433270","0.0-76.0-0.0","ABXL9SD1N6ZQZ","img_art/21.jpg","0","","","","","","","","","","","","","","","","","","","","","","","","",""
"1619","","image-button-response","78","434892","0.0-77.0-0.0","ABXL9SD1N6ZQZ","img_art/21.jpg","3","","","","","","","","","","","","","","","","","","","","","","","","",""
"null","","html-keyboard-response","79","435900","0.0-78.0","ABXL9SD1N6ZQZ","<p style=""font-size: 48px;"">+</p>","","","","","null","allTrialResponses","1000","1","5","img_art/21.jpg","-44","This picture doesn't make any sense to me","Brooke,Vanessa,Lindsey,Danielle,Alexis,Jennifer","Like the colors. Don't like the white dots on the right side of the painting though.,15,60,20","The colors and softness work together to make something that's lovely.,42,380,20","I like this piece more the more I look at. Still wouldn't want it in my home, though.,8,400,20","I like it. It's some of war-scene, bloodshed and battle on the left, field of dispair on the right, dark and rich,40,340,20","I love this. Reminds me of a coast. The colors flow beautifully,40,100,20","Bland, this painting is my least favorite,-20,380,20","Jennifer","Bland, this painting is my least favorite,-20,380,20","Brooke","Like the colors. Don't like the white dots on the right side of the painting though.,15,60,20","Danielle","I like it. It's some of war-scene, bloodshed and battle on the left, field of dispair on the right, dark and rich,40,340,20","1"
"4244","","survey-text","80","440155","0.0-79.0-0.0","ABXL9SD1N6ZQZ","","","","{""Q0"":""sky""}","","","","","","","","","","","","","","","","","","","","","","",""
"19684","","survey-text","81","459842","0.0-80.0-0.0","ABXL9SD1N6ZQZ","","","","{""Q0"":""I feel like the offset square is a face staring back at me""}","","","","","","","","","","","","","","","","","","","","","","",""
"4981.300000011921","","image-slider-response","82","464826","0.0-81.0","ABXL9SD1N6ZQZ","","","","","6","","","","","","","","","","","","","","","","","","","","","",""
"null","","image-button-response","83","469845","0.0-82.0","ABXL9SD1N6ZQZ","img_art/14.jpg","null","","","","","","","","","","","","","","","","","","","","","","","","",""
"935","","image-button-response","84","470782","0.0-83.0","ABXL9SD1N6ZQZ","img_art/14.jpg","5","","","","","","","","","","","","","","","","","","","","","","","","",""
"3581","","image-button-response","85","474364","0.0-84.0-0.0","ABXL9SD1N6ZQZ","img_art/14.jpg","1","","","","","","","","","","","","","","","","","","","","","","","","",""
"2337","","image-button-response","86","476705","0.0-85.0-0.0","ABXL9SD1N6ZQZ","img_art/14.jpg","4","","","","","","","","","","","","","","","","","","","","","","","","",""
"null","","html-keyboard-response","87","477220","0.0-86.0","ABXL9SD1N6ZQZ","<p style=""font-size: 48px;"">+</p>","","","","","null","allTrialResponses","500","1","6","img_art/14.jpg","6","I feel like the offset square is a face staring back at me","Brooke,Rebecca,Monica,Danielle,Michelle,Jennifer","cotton candy skies. pretty.,35,60,20","medium recalls back to an oriental style,16,100,20","Just don't like it, maybe it's the bleeding colors on the left of the tree-looking thing in the center or the faded background,-10,360,20","Too much yellow in this image, i'm not a fan of art that is overly-saturated with yellow,-30,340,20","Too abstract with annoying little details. Just draw a regular tree already,-6,280,20","This piece is average compared to the others.,1,380,20","Jennifer","This piece is average compared to the others.,1,380,20","Rebecca","medium recalls back to an oriental style,16,100,20","Michelle","Too abstract with annoying little details. Just draw a regular tree already,-6,280,20","1"
"14250","","survey-text","88","491475","0.0-87.0-0.0","ABXL9SD1N6ZQZ","","","","{""Q0"":""Wavy bridges in a stormy sky""}","","","","","","","","","","","","","","","","","","","","","","",""
"3858.699999988079","","image-slider-response","89","495337","0.0-88.0","ABXL9SD1N6ZQZ","","","","","7","","","","","","","","","","","","","","","","","","","","","",""
"null","","image-button-response","90","500350","0.0-89.0","ABXL9SD1N6ZQZ","img_art/11.jpg","null","","","","","","","","","","","","","","","","","","","","","","","","",""
"1349","","image-button-response","91","501701","0.0-90.0","ABXL9SD1N6ZQZ","img_art/11.jpg","5","","","","","","","","","","","","","","","","","","","","","","","","",""
"1225","","image-button-response","92","502929","0.0-91.0-0.0","ABXL9SD1N6ZQZ","img_art/11.jpg","3","","","","","","","","","","","","","","","","","","","","","","","","",""
"1207","","image-button-response","93","504139","0.0-92.0-0.0","ABXL9SD1N6ZQZ","img_art/11.jpg","1","","","","","","","","","","","","","","","","","","","","","","","","",""
"null","","html-keyboard-response","94","505154","0.0-93.0","ABXL9SD1N6ZQZ","<p style=""font-size: 48px;"">+</p>","","","","","null","allTrialResponses","1000","1","7","img_art/11.jpg","7","Wavy bridges in a stormy sky","Bailey,Rebecca,Stephanie,Jessica,Michelle,Jennifer","Kind of bizzare in that I can imagine ships or something from it.,11,360,20","to me, perfect reflection of the modern commute,32,100,20","Rainy dreary day in a town.,7,300,20","This looks cool, and definitely comes to life in a way,36,400,20","I think this is a city but I'm not sure, very abstract,18,280,20","The narrow groups of lines in the center make me feel uneasy for some reason,-31,380,20","Jennifer","The narrow groups of lines in the center make me feel uneasy for some reason,-31,380,20","Jessica","This looks cool, and definitely comes to life in a way,36,400,20","Rebecca","to me, perfect reflection of the modern commute,32,100,20","1"
"14315","","survey-text","95","519476","0.0-94.0-0.0","ABXL9SD1N6ZQZ","","","","{""Q0"":""A toddler clearly painted this picture""}","","","","","","","","","","","","","","","","","","","","","","",""
"4472.199999988079","","image-slider-response","96","523951","0.0-95.0","ABXL9SD1N6ZQZ","","","","","-50","","","","","","","","","","","","","","","","","","","","","",""
"null","","image-button-response","97","528959","0.0-96.0","ABXL9SD1N6ZQZ","img_art/5.jpg","null","","","","","","","","","","","","","","","","","","","","","","","","",""
"703","","image-button-response","98","529664","0.0-97.0","ABXL9SD1N6ZQZ","img_art/5.jpg","1","","","","","","","","","","","","","","","","","","","","","","","","",""
"1707","","image-button-response","99","531375","0.0-98.0-0.0","ABXL9SD1N6ZQZ","img_art/5.jpg","5","","","","","","","","","","","","","","","","","","","","","","","","",""
"900","","image-button-response","100","532278","0.0-99.0-0.0","ABXL9SD1N6ZQZ","img_art/5.jpg","3","","","","","","","","","","","","","","","","","","","","","","","","",""
"null","","html-keyboard-response","101","533293","0.0-100.0","ABXL9SD1N6ZQZ","<p style=""font-size: 48px;"">+</p>","","","","","null","allTrialResponses","1000","1","8","img_art/5.jpg","-50","A toddler clearly painted this picture","Breanna,Rebecca,Alexa,Jessica,Kaylee,Jennifer","Makes me feel weird,-16,380,20","sorry not my style,-37,100,20","It's okay. Don't hate it but don't love it either,0,40,20","Don't really know the point of this one.,-11,400,20","a volcano erruption,21,200,20","This piece doesn't really stand out.,0,380,20","Rebecca","sorry not my style,-37,100,20","Jennifer","This piece doesn't really stand out.,0,380,20","Jessica","Don't really know the point of this one.,-11,400,20","1"
"10912","","survey-text","102","544211","0.0-101.0-0.0","ABXL9SD1N6ZQZ","","","","{""Q0"":""Blueberry fields forever""}","","","","","","","","","","","","","","","","","","","","","","",""
"3887","","image-slider-response","103","548101","0.0-102.0","ABXL9SD1N6ZQZ","","","","","21","","","","","","","","","","","","","","","","","","","","","",""
"null","","image-button-response","104","553111","0.0-103.0","ABXL9SD1N6ZQZ","img_art/15.jpg","null","","","","","","","","","","","","","","","","","","","","","","","","",""
"3901","","image-button-response","105","557015","0.0-104.0","ABXL9SD1N6ZQZ","img_art/15.jpg","5","","","","","","","","","","","","","","","","","","","","","","","","",""
"927","","image-button-response","106","557945","0.0-105.0-0.0","ABXL9SD1N6ZQZ","img_art/15.jpg","3","","","","","","","","","","","","","","","","","","","","","","","","",""
"810","","image-button-response","107","558758","0.0-106.0-0.0","ABXL9SD1N6ZQZ","img_art/15.jpg","4","","","","","","","","","","","","","","","","","","","","","","","","",""
"null","","html-keyboard-response","108","560260","0.0-107.0","ABXL9SD1N6ZQZ","<p style=""font-size: 48px;"">+</p>","","","","","null","allTrialResponses","1500","1","9","img_art/15.jpg","21","Blueberry fields forever","Cassandra,Rebecca,Diana,Jessica,Olivia,Jennifer","Hate it...black dots.,-47,120,20","very unsettling! like reverse porcelain esp because of the colors,28,100,20","There should be more space between the black marks. The black comes off harsh and the blue between the trees can barely be seen.,-21,380,20","I think it's trying to execute a cool idea, but unfortunately it doesn't appeal,5,400,20","Black reminds me of darkness,-18,40,20","This piece isn't particularly attractive, but it's not ugly either.,1,380,20","Jennifer","This piece isn't particularly attractive, but it's not ugly either.,1,380,20","Jessica","I think it's trying to execute a cool idea, but unfortunately it doesn't appeal,5,400,20","Olivia","Black reminds me of darkness,-18,40,20","1"
"19246","","survey-text","109","579513","0.0-108.0-0.0","ABXL9SD1N6ZQZ","","","","{""Q0"":""This is just ugly, maybe it wants to be embracing fall""}","","","","","","","","","","","","","","","","","","","","","","",""
"4053","","image-slider-response","110","583569","0.0-109.0","ABXL9SD1N6ZQZ","","","","","-39","","","","","","","","","","","","","","","","","","","","","",""
"null","","image-button-response","111","588572","0.0-110.0","ABXL9SD1N6ZQZ","img_art/27.jpg","null","","","","","","","","","","","","","","","","","","","","","","","","",""
"963","","image-button-response","112","589538","0.0-111.0","ABXL9SD1N6ZQZ","img_art/27.jpg","5","","","","","","","","","","","","","","","","","","","","","","","","",""
"892","","image-button-response","113","590432","0.0-112.0-0.0","ABXL9SD1N6ZQZ","img_art/27.jpg","4","","","","","","","","","","","","","","","","","","","","","","","","",""
"923","","image-button-response","114","591358","0.0-113.0-0.0","ABXL9SD1N6ZQZ","img_art/27.jpg","3","","","","","","","","","","","","","","","","","","","","","","","","",""
"null","","html-keyboard-response","115","591866","0.0-114.0","ABXL9SD1N6ZQZ","<p style=""font-size: 48px;"">+</p>","","","","","null","allTrialResponses","500","1","10","img_art/27.jpg","-39","This is just ugly, maybe it wants to be embracing fall","Makayla,Brianna,Christina,Jessica,Olivia,Jennifer","Calming sky , relaxing,23,80,20","This painting is very unique,21,20,20","I like the orange but it's a little blah,1,240,20","Don't get the point of this piece that much, but it doesn't bug me,1,400,20","city at sunset brings happyness,10,40,20","Somewhat boring piece,-3,380,20","Jennifer","Somewhat boring piece,-3,380,20","Olivia","city at sunset brings happyness,10,40,20","Jessica","Don't get the point of this piece that much, but it doesn't bug me,1,400,20","1"
"4354","","survey-text","116","596230","0.0-115.0-0.0","ABXL9SD1N6ZQZ","","","","{""Q0"":""our""}","","","","","","","","","","","","","","","","","","","","","","",""
"11431","","survey-text","117","607664","0.0-116.0-0.0","ABXL9SD1N6ZQZ","","","","{""Q0"":""This seems like a woman after giving brith""}","","","","","","","","","","","","","","","","","","","","","","",""
"3717","","image-slider-response","118","611384","0.0-117.0","ABXL9SD1N6ZQZ","","","","","23","","","","","","","","","","","","","","","","","","","","","",""
"null","","image-button-response","119","616387","0.0-118.0","ABXL9SD1N6ZQZ","img_art/9.jpg","null","","","","","","","","","","","","","","","","","","","","","","","","",""
"1070","","image-button-response","120","617460","0.0-119.0","ABXL9SD1N6ZQZ","img_art/9.jpg","0","","","","","","","","","","","","","","","","","","","","","","","","",""
"928","","image-button-response","121","618391","0.0-120.0-0.0","ABXL9SD1N6ZQZ","img_art/9.jpg","1","","","","","","","","","","","","","","","","","","","","","","","","",""
"1415","","image-button-response","122","619809","0.0-121.0-0.0","ABXL9SD1N6ZQZ","img_art/9.jpg","0","","","","","","","","","","","","","","","","","","","","","","","","",""
"980","","image-button-response","123","631532","0.0-121.1-0.1","ABXL9SD1N6ZQZ","img_art/9.jpg","3","","","","","","","","","","","","","","","","","","","","","","","","",""
"null","","html-keyboard-response","124","632036","0.0-122.0","ABXL9SD1N6ZQZ","<p style=""font-size: 48px;"">+</p>","","","","","null","allTrialResponses","500","1","11","img_art/9.jpg","23","This seems like a woman after giving brith","Dominique,Lauren,Andrea,Jessica,Olivia,Jennifer","This speaks to me like a personalities and sides and not all are nice,19,400,20","I like how design can be interpreted differently, I see a person sleeping or a mountainous region.,10,340,20","Sleeping woman in a cave. Makes me feel safe.,20,240,20","So I don't really like this style but it looks somewhat okay,3,400,20","what a wild ride,11,40,20","This piece is very boring to look at.,-27,380,20","Dominique","This speaks to me like a personalities and sides and not all are nice,19,400,20","Lauren","I like how design can be interpreted differently, I see a person sleeping or a mountainous region.,10,340,20","Jessica","So I don't really like this style but it looks somewhat okay,3,400,20","3"
"8766","","survey-text","125","640810","0.0-123.0-0.0","ABXL9SD1N6ZQZ","","","","{""Q0"":""Ketchup art at its finest""}","","","","","","","","","","","","","","","","","","","","","","",""
"4035.300000011921","","image-slider-response","126","644848","0.0-124.0","ABXL9SD1N6ZQZ","","","","","28","","","","","","","","","","","","","","","","","","","","","",""
"null","","image-button-response","127","649860","0.0-125.0","ABXL9SD1N6ZQZ","img_art/3.jpg","null","","","","","","","","","","","","","","","","","","","","","","","","",""
"1165","","image-button-response","128","651028","0.0-126.0","ABXL9SD1N6ZQZ","img_art/3.jpg","4","","","","","","","","","","","","","","","","","","","","","","","","",""
"2029","","image-button-response","129","653060","0.0-127.0-0.0","ABXL9SD1N6ZQZ","img_art/3.jpg","1","","","","","","","","","","","","","","","","","","","","","","","","",""
"2968","","image-button-response","130","656031","0.0-128.0-0.0","ABXL9SD1N6ZQZ","img_art/3.jpg","5","","","","","","","","","","","","","","","","","","","","","","","","",""
"null","","html-keyboard-response","131","656535","0.0-129.0","ABXL9SD1N6ZQZ","<p style=""font-size: 48px;"">+</p>","","","","","null","allTrialResponses","500","1","12","img_art/3.jpg","28","Ketchup art at its finest","Dominique,Lauren,Katelyn,Jessica,Catherine,Maria","Iike this one it's a piece that I need to spend more time with to understand how i feel about it,20,400,20","No clue what I'm looking. This just looks a series of scribbles in a box.,-20,340,20","No substance or feeling to it,-20,100,20","Don't get the scribbles.,-13,400,20","Anger, like something a serial killer may paint.,-30,160,20","I struggle to see the art,-20,120,20","Catherine","Anger, like something a serial killer may paint.,-30,160,20","Lauren","No clue what I'm looking. This just looks a series of scribbles in a box.,-20,340,20","Maria","I struggle to see the art,-20,120,20","3"
"10518","","survey-text","132","667059","0.0-130.0-0.0","ABXL9SD1N6ZQZ","","","","{""Q0"":""This just looks like a mess to me""}","","","","","","","","","","","","","","","","","","","","","","",""
"4742.5","","image-slider-response","133","671804","0.0-131.0","ABXL9SD1N6ZQZ","","","","","-40","","","","","","","","","","","","","","","","","","","","","",""
"null","","image-button-response","134","676808","0.0-132.0","ABXL9SD1N6ZQZ","img_art/2.jpg","null","","","","","","","","","","","","","","","","","","","","","","","","",""
"932","","image-button-response","135","677742","0.0-133.0","ABXL9SD1N6ZQZ","img_art/2.jpg","4","","","","","","","","","","","","","","","","","","","","","","","","",""
"1323","","image-button-response","136","679068","0.0-134.0-0.0","ABXL9SD1N6ZQZ","img_art/2.jpg","5","","","","","","","","","","","","","","","","","","","","","","","","",""
"1358","","image-button-response","137","680430","0.0-135.0-0.0","ABXL9SD1N6ZQZ","img_art/2.jpg","2","","","","","","","","","","","","","","","","","","","","","","","","",""
"null","","html-keyboard-response","138","680935","0.0-136.0","ABXL9SD1N6ZQZ","<p style=""font-size: 48px;"">+</p>","","","","","null","allTrialResponses","500","1","13","img_art/2.jpg","-40","This just looks like a mess to me","Briana,Lauren,Caroline,Sydney,Catherine,Maria","Childish smiley face,-19,400,20","I feel that its too abstract for me to understand what I'm looking at.,-15,340,20","Colors are drab and cause a sense of blandness,-28,100,20","I like the color, but I feel like I see a creepy face which I dislike.,-5,320,20","Dependence. Things relying on each other. Caring,-4,160,20","again, I struggle to see the art and I dislike the green in particular.,-31,120,20","Catherine","Dependence. Things relying on each other. Caring,-4,160,20","Maria","again, I struggle to see the art and I dislike the green in particular.,-31,120,20","Caroline","Colors are drab and cause a sense of blandness,-28,100,20","3"
"8968","","survey-text","139","689909","0.0-137.0-0.0","ABXL9SD1N6ZQZ","","","","{""Q0"":""It looks like a battle in the sky""}","","","","","","","","","","","","","","","","","","","","","","",""
"4158.599999964237","","image-slider-response","140","694070","0.0-138.0","ABXL9SD1N6ZQZ","","","","","17","","","","","","","","","","","","","","","","","","","","","",""
"null","","image-button-response","141","699074","0.0-139.0","ABXL9SD1N6ZQZ","img_art/18.jpg","null","","","","","","","","","","","","","","","","","","","","","","","","",""
"932","","image-button-response","142","700008","0.0-140.0","ABXL9SD1N6ZQZ","img_art/18.jpg","0","","","","","","","","","","","","","","","","","","","","","","","","",""
"1340","","image-button-response","143","701351","0.0-141.0-0.0","ABXL9SD1N6ZQZ","img_art/18.jpg","5","","","","","","","","","","","","","","","","","","","","","","","","",""
"2032","","image-button-response","144","703386","0.0-142.0-0.0","ABXL9SD1N6ZQZ","img_art/18.jpg","1","","","","","","","","","","","","","","","","","","","","","","","","",""
"null","","html-keyboard-response","145","704401","0.0-143.0","ABXL9SD1N6ZQZ","<p style=""font-size: 48px;"">+</p>","","","","","null","allTrialResponses","1000","1","14","img_art/18.jpg","17","It looks like a battle in the sky","Hannah,Allison,Caroline,Courtney,Catherine,Maria","Looks like ghost figures on a boat. It's okay.,7,240,20","Colors are okay. Reminds me of cavalry.,10,140,20","I think of the ocean and a boat tossed about on the waves. In the upper left is a figure. It is pleasant,30,100,20","Pirate ship in stormy seas before it sank.,11,280,20","Karma. being ruthless and all the time knowing the shit is gonna catch up with you.,10,160,20","enjoy the juxtaposition of abstract with tangible elements & the use of color,10,120,20","Hannah","Looks like ghost figures on a boat. It's okay.,7,240,20","Maria","enjoy the juxtaposition of abstract with tangible elements & the use of color,10,120,20","Allison","Colors are okay. Reminds me of cavalry.,10,140,20","3"
"11052","","survey-text","146","715460","0.0-144.0-0.0","ABXL9SD1N6ZQZ","","","","{""Q0"":""A crow in the desert""}","","","","","","","","","","","","","","","","","","","","","","",""
"4862.300000011921","","image-slider-response","147","720324","0.0-145.0","ABXL9SD1N6ZQZ","","","","","-13","","","","","","","","","","","","","","","","","","","","","",""
"null","","image-button-response","148","725342","0.0-146.0","ABXL9SD1N6ZQZ","img_art/6.jpg","null","","","","","","","","","","","","","","","","","","","","","","","","",""
"2059","","image-button-response","149","727403","0.0-147.0","ABXL9SD1N6ZQZ","img_art/6.jpg","5","","","","","","","","","","","","","","","","","","","","","","","","",""
"3909","","image-button-response","150","731315","0.0-148.0-0.0","ABXL9SD1N6ZQZ","img_art/6.jpg","3","","","","","","","","","","","","","","","","","","","","","","","","",""
"1392","","image-button-response","151","732710","0.0-149.0-0.0","ABXL9SD1N6ZQZ","img_art/6.jpg","0","","","","","","","","","","","","","","","","","","","","","","","","",""
"null","","html-keyboard-response","152","733725","0.0-150.0","ABXL9SD1N6ZQZ","<p style=""font-size: 48px;"">+</p>","","","","","null","allTrialResponses","1000","1","15","img_art/6.jpg","-13","A crow in the desert","Hannah,Allison,Gabriela,Alicia,Melissa,Maria","Looks like a bird. It's fine.,7,240,20","Simple desert scene.,5,140,20","This looks like a crow, sort of bleak,-26,140,20","kids book cover, uninteresting.,-10,120,20","composition is engaging,28,240,20","intrigues me - not sure what I'm seeing, but I like combination of colour and texture,21,120,20","Maria","intrigues me - not sure what I'm seeing, but I like combination of colour and texture,21,120,20","Alicia","kids book cover, uninteresting.,-10,120,20","Hannah","Looks like a bird. It's fine.,7,240,20","3"
"3989","","survey-text","153","737727","0.0-151.0-0.0","ABXL9SD1N6ZQZ","","","","{""Q0"":""course""}","","","","","","","","","","","","","","","","","","","","","","",""
"13898","","survey-text","154","751628","0.0-152.0-0.0","ABXL9SD1N6ZQZ","","","","{""Q0"":""A man and a woman having an argument""}","","","","","","","","","","","","","","","","","","","","","","",""
"4061.599999964237","","image-slider-response","155","755693","0.0-153.0","ABXL9SD1N6ZQZ","","","","","-10","","","","","","","","","","","","","","","","","","","","","",""
"null","","image-button-response","156","760698","0.0-154.0","ABXL9SD1N6ZQZ","img_art/28.jpg","null","","","","","","","","","","","","","","","","","","","","","","","","",""
"8505","","image-button-response","157","769205","0.0-155.0","ABXL9SD1N6ZQZ","img_art/28.jpg","1","","","","","","","","","","","","","","","","","","","","","","","","",""
"1305","","image-button-response","158","770514","0.0-156.0-0.0","ABXL9SD1N6ZQZ","img_art/28.jpg","0","","","","","","","","","","","","","","","","","","","","","","","","",""
"1162","","image-button-response","159","771679","0.0-157.0-0.0","ABXL9SD1N6ZQZ","img_art/28.jpg","4","","","","","","","","","","","","","","","","","","","","","","","","",""
"null","","html-keyboard-response","160","772189","0.0-158.0","ABXL9SD1N6ZQZ","<p style=""font-size: 48px;"">+</p>","","","","","null","allTrialResponses","500","1","16","img_art/28.jpg","-10","A man and a woman having an argument","Hannah,Anna,Alexandra,Alicia,Angela,Maria","The colors are drab and a little depressing.,-20,240,20","It's drab and looks like stereotypical abstract art.,-30,300,20","Boring, looks like it belongs in a coffee shop,-20,60,20","bland busy ugly,-31,120,20","This reminds me of internal organs.,-10,260,20","I want to like it, but I'm not really sure what to make of it,2,120,20","Anna","It's drab and looks like stereotypical abstract art.,-30,300,20","Hannah","The colors are drab and a little depressing.,-20,240,20","Angela","This reminds me of internal organs.,-10,260,20","3"
"11922","","survey-text","161","784118","0.0-159.0-0.0","ABXL9SD1N6ZQZ","","","","{""Q0"":""Hopscotch on the asphalt at recess""}","","","","","","","","","","","","","","","","","","","","","","",""
"3092.100000023842","","image-slider-response","162","787213","0.0-160.0","ABXL9SD1N6ZQZ","","","","","15","","","","","","","","","","","","","","","","","","","","","",""
"null","","image-button-response","163","792217","0.0-161.0","ABXL9SD1N6ZQZ","img_art/29.jpg","null","","","","","","","","","","","","","","","","","","","","","","","","",""
"1005","","image-button-response","164","793225","0.0-162.0","ABXL9SD1N6ZQZ","img_art/29.jpg","5","","","","","","","","","","","","","","","","","","","","","","","","",""
"1991","","image-button-response","165","795219","0.0-163.0-0.0","ABXL9SD1N6ZQZ","img_art/29.jpg","1","","","","","","","","","","","","","","","","","","","","","","","","",""
"3108","","image-button-response","166","798330","0.0-164.0-0.0","ABXL9SD1N6ZQZ","img_art/29.jpg","3","","","","","","","","","","","","","","","","","","","","","","","","",""
"null","","html-keyboard-response","167","799345","0.0-165.0","ABXL9SD1N6ZQZ","<p style=""font-size: 48px;"">+</p>","","","","","null","allTrialResponses","1000","1","17","img_art/29.jpg","15","Hopscotch on the asphalt at recess","Hannah,Anna,Mikayla,Erika,Angela,Taylor","I don't like the red X through it.,-20,240,20","I like the texture and colors and how it makes me feel. I like how it's different from other abstract art.,45,300,20","Its kinda scary,-35,300,20","Feels like an abandoned dream,13,100,20","I would like this piece better without the red X across it,-10,260,20","It seems like there's anger in the painting.,-20,340,20","Taylor","It seems like there's anger in the painting.,-20,340,20","Anna","I like the texture and colors and how it makes me feel. I like how it's different from other abstract art.,45,300,20","Erika","Feels like an abandoned dream,13,100,20","3"
"13066","","survey-text","168","812418","0.0-166.0-0.0","ABXL9SD1N6ZQZ","","","","{""Q0"":""Fingerpaint by my five year old neice""}","","","","","","","","","","","","","","","","","","","","","","",""
"3842.100000023842","","image-slider-response","169","816263","0.0-167.0","ABXL9SD1N6ZQZ","","","","","-33","","","","","","","","","","","","","","","","","","","","","",""
"null","","image-button-response","170","821270","0.0-168.0","ABXL9SD1N6ZQZ","img_art/30.jpg","null","","","","","","","","","","","","","","","","","","","","","","","","",""
"865","","image-button-response","171","822138","0.0-169.0","ABXL9SD1N6ZQZ","img_art/30.jpg","2","","","","","","","","","","","","","","","","","","","","","","","","",""
"1188","","image-button-response","172","823330","0.0-170.0-0.0","ABXL9SD1N6ZQZ","img_art/30.jpg","3","","","","","","","","","","","","","","","","","","","","","","","","",""
"785","","image-button-response","173","824118","0.0-171.0-0.0","ABXL9SD1N6ZQZ","img_art/30.jpg","4","","","","","","","","","","","","","","","","","","","","","","","","",""
"null","","html-keyboard-response","174","824631","0.0-172.0","ABXL9SD1N6ZQZ","<p style=""font-size: 48px;"">+</p>","","","","","null","allTrialResponses","500","1","18","img_art/30.jpg","-33","Fingerpaint by my five year old neice","Abigail,Anna,Kaitlyn,Erika,Tiffany,Taylor","Combination of colors arent good,-6,20,20","It looks like a pretty but unremarkable painting in a doctors office,15,300,20","Do not like the streaks,-14,80,20","I can't parse any intention or emotion,-17,100,20","The painting doesn't elicit any response from me.,0,360,20","It's a really interesting piece,20,340,20","Kaitlyn","Do not like the streaks,-14,80,20","Erika","I can't parse any intention or emotion,-17,100,20","Tiffany","The painting doesn't elicit any response from me.,0,360,20","3"
"12787","","survey-text","175","837425","0.0-173.0-0.0","ABXL9SD1N6ZQZ","","","","{""Q0"":""Artwork from a 1980's hotel room""}","","","","","","","","","","","","","","","","","","","","","","",""
"5196.099999964237","","image-slider-response","176","842624","0.0-174.0","ABXL9SD1N6ZQZ","","","","","-35","","","","","","","","","","","","","","","","","","","","","",""
"null","","image-button-response","177","847641","0.0-175.0","ABXL9SD1N6ZQZ","img_art/12.jpg","null","","","","","","","","","","","","","","","","","","","","","","","","",""
"848","","image-button-response","178","848491","0.0-176.0","ABXL9SD1N6ZQZ","img_art/12.jpg","4","","","","","","","","","","","","","","","","","","","","","","","","",""
"829","","image-button-response","179","849323","0.0-177.0-0.0","ABXL9SD1N6ZQZ","img_art/12.jpg","5","","","","","","","","","","","","","","","","","","","","","","","","",""
"1050","","image-button-response","180","850376","0.0-178.0-0.0","ABXL9SD1N6ZQZ","img_art/12.jpg","3","","","","","","","","","","","","","","","","","","","","","","","","",""
"null","","html-keyboard-response","181","851878","0.0-179.0","ABXL9SD1N6ZQZ","<p style=""font-size: 48px;"">+</p>","","","","","null","allTrialResponses","1500","1","19","img_art/12.jpg","-35","Artwork from a 1980's hotel room","Jenna,Katherine,Kaitlyn,Erika,Tiffany,Miranda","interesting, but feels like someone cut up a picture and pasted it together wrong. want to see the original,15,360,20","Not sure why but this is my favorite. I'd put it on my wall,50,120,20","The shapes present in the picture make it very interesting,17,80,20","I don't like it, but I appreciate the effort and technique,11,100,20","The painting makes me uncomfortable. The smears in the boxes feel like a giant mess.,-16,360,20","This is like going to a really old mcdoanlds in a tiny town and it's never been renovated so it's breaking down,-31,320,20","Tiffany","The painting makes me uncomfortable. The smears in the boxes feel like a giant mess.,-16,360,20","Miranda","This is like going to a really old mcdoanlds in a tiny town and it's never been renovated so it's breaking down,-31,320,20","Erika","I don't like it, but I appreciate the effort and technique,11,100,20","3"
"11170","","survey-text","182","863055","0.0-180.0-0.0","ABXL9SD1N6ZQZ","","","","{""Q0"":""Rainy day indoors""}","","","","","","","","","","","","","","","","","","","","","","",""
"3982.300000011921","","image-slider-response","183","867040","0.0-181.0","ABXL9SD1N6ZQZ","","","","","31","","","","","","","","","","","","","","","","","","","","","",""
"4706","","image-button-response","184","872047","0.0-182.0","ABXL9SD1N6ZQZ","img_art/13.jpg","3","","","","","","","","","","","","","","","","","","","","","","","","",""
"977","","image-button-response","185","873027","0.0-183.0","ABXL9SD1N6ZQZ","img_art/13.jpg","2","","","","","","","","","","","","","","","","","","","","","","","","",""
"1702","","image-button-response","186","874731","0.0-184.0-0.0","ABXL9SD1N6ZQZ","img_art/13.jpg","3","","","","","","","","","","","","","","","","","","","","","","","","",""
"3737","","image-button-response","187","878471","0.0-185.0-0.0","ABXL9SD1N6ZQZ","img_art/13.jpg","4","","","","","","","","","","","","","","","","","","","","","","","","",""
"null","","html-keyboard-response","188","879482","0.0-186.0","ABXL9SD1N6ZQZ","<p style=""font-size: 48px;"">+</p>","","","","","null","allTrialResponses","1000","1","20","img_art/13.jpg","31","Rainy day indoors","Haley,Chelsea,Marissa,Erika,Tiffany,Miranda","Nothing about this stands out to me,-10,220,20","The colors are okay but I don't like the shapes here.,-18,180,20","It reminds me of looking out the window on a stormy night at cars drive by,21,160,20","Gorgeous contrast and color choice, very pleasing,50,100,20","The painting makes me feel awe and like I am very little. Like I am alone at the bottom of the ocean.,41,360,20","This looks like something that could be made off of windows paint, not a huge fan.,-30,320,20","Marissa","It reminds me of looking out the window on a stormy night at cars drive by,21,160,20","Erika","Gorgeous contrast and color choice, very pleasing,50,100,20","Tiffany","The painting makes me feel awe and like I am very little. Like I am alone at the bottom of the ocean.,41,360,20","3"
"4593","","survey-text","189","884085","0.0-187.0-0.0","ABXL9SD1N6ZQZ","","","","{""Q0"":""we""}","","","","","","","","","","","","","","","","","","","","","","",""
"10690","","survey-text","190","894778","0.0-188.0-0.0","ABXL9SD1N6ZQZ","","","","{""Q0"":""The surface of mars. I like the texture.""}","","","","","","","","","","","","","","","","","","","","","","",""
"3696.699999988079","","image-slider-response","191","898477","0.0-189.0","ABXL9SD1N6ZQZ","","","","","35","","","","","","","","","","","","","","","","","","","","","",""
"null","","image-button-response","192","903481","0.0-190.0","ABXL9SD1N6ZQZ","img_art/7.jpg","null","","","","","","","","","","","","","","","","","","","","","","","","",""
"1608","","image-button-response","193","905091","0.0-191.0","ABXL9SD1N6ZQZ","img_art/7.jpg","0","","","","","","","","","","","","","","","","","","","","","","","","",""
"1256","","image-button-response","194","906349","0.0-192.0-0.0","ABXL9SD1N6ZQZ","img_art/7.jpg","4","","","","","","","","","","","","","","","","","","","","","","","","",""
"781","","image-button-response","195","907133","0.0-193.0-0.0","ABXL9SD1N6ZQZ","img_art/7.jpg","3","","","","","","","","","","","","","","","","","","","","","","","","",""
"null","","html-keyboard-response","196","908634","0.0-194.0","ABXL9SD1N6ZQZ","<p style=""font-size: 48px;"">+</p>","","","","","null","allTrialResponses","1500","1","21","img_art/7.jpg","35","The surface of mars. I like the texture.","Paige,Jamie,Marissa,Erika,Tiffany,Kayla","Happy. Looking at the moon,43,60,20","Looks like a battle raging on,20,320,20","I feel confused, am I looking at a painting or a close up picture of some sort of fly stone?,-19,160,20","Detail oriented, like cracked paint wall,15,100,20","I feel relaxed and a little nostalgic, like I'm exploring the wall of a very old building.,18,360,20","Dinosaur bones. Death.,-14,180,20","Paige","Happy. Looking at the moon,43,60,20","Tiffany","I feel relaxed and a little nostalgic, like I'm exploring the wall of a very old building.,18,360,20","Erika","Detail oriented, like cracked paint wall,15,100,20","3"
"14508","","survey-text","197","923150","0.0-195.0-0.0","ABXL9SD1N6ZQZ","","","","{""Q0"":""Heirogliphics found on a cave wall""}","","","","","","","","","","","","","","","","","","","","","","",""
"5124.699999988079","","image-slider-response","198","928278","0.0-196.0","ABXL9SD1N6ZQZ","","","","","-20","","","","","","","","","","","","","","","","","","","","","",""
"null","","image-button-response","199","933281","0.0-197.0","ABXL9SD1N6ZQZ","img_art/25.jpg","null","","","","","","","","","","","","","","","","","","","","","","","","",""
"767","","image-button-response","200","934051","0.0-198.0","ABXL9SD1N6ZQZ","img_art/25.jpg","3","","","","","","","","","","","","","","","","","","","","","","","","",""
"1209","","image-button-response","201","935263","0.0-199.0-0.0","ABXL9SD1N6ZQZ","img_art/25.jpg","4","","","","","","","","","","","","","","","","","","","","","","","","",""
"1070","","image-button-response","202","936336","0.0-200.0-0.0","ABXL9SD1N6ZQZ","img_art/25.jpg","5","","","","","","","","","","","","","","","","","","","","","","","","",""
"null","","html-keyboard-response","203","937344","0.0-201.0","ABXL9SD1N6ZQZ","<p style=""font-size: 48px;"">+</p>","","","","","null","allTrialResponses","1000","1","22","img_art/25.jpg","-20","Heirogliphics found on a cave wall","Paige,Hailey,Megan,Erika,Tiffany,Katie","reminds me of ancient history which makes me happy,40,60,20","ugly color and very sad old lady,-45,200,20","Beautiful color with an interesting otherworldly figure,29,200,20","Very cryptic and ancient,36,100,20","I feel little to no emotion looking at this painting.,0,360,20","Reminds me of ancient civilization art. I like the aqua color; soothing to me.,1,160,20","Erika","Very cryptic and ancient,36,100,20","Tiffany","I feel little to no emotion looking at this painting.,0,360,20","Katie","Reminds me of ancient civilization art. I like the aqua color; soothing to me.,1,160,20","3"
"10818","","survey-text","204","948168","0.0-202.0-0.0","ABXL9SD1N6ZQZ","","","","{""Q0"":""Makes me think of a riverboat ride in fall""}","","","","","","","","","","","","","","","","","","","","","","",""
"5141.199999988079","","image-slider-response","205","953313","0.0-203.0","ABXL9SD1N6ZQZ","","","","","28","","","","","","","","","","","","","","","","","","","","","",""
"null","","image-button-response","206","958317","0.0-204.0","ABXL9SD1N6ZQZ","img_art/1.jpg","null","","","","","","","","","","","","","","","","","","","","","","","","",""
"844","","image-button-response","207","959163","0.0-205.0","ABXL9SD1N6ZQZ","img_art/1.jpg","0","","","","","","","","","","","","","","","","","","","","","","","","",""
"876","","image-button-response","208","960041","0.0-206.0-0.0","ABXL9SD1N6ZQZ","img_art/1.jpg","1","","","","","","","","","","","","","","","","","","","","","","","","",""
"1183","","image-button-response","209","961226","0.0-207.0-0.0","ABXL9SD1N6ZQZ","img_art/1.jpg","5","","","","","","","","","","","","","","","","","","","","","","","","",""
"null","","html-keyboard-response","210","962728","0.0-208.0","ABXL9SD1N6ZQZ","<p style=""font-size: 48px;"">+</p>","","","","","null","allTrialResponses","1500","1","23","img_art/1.jpg","28","Makes me think of a riverboat ride in fall","Claire,Ashley,Natalie,Erika,Tiffany,Katie","the colors are nice,8,260,20","More passable, colorful, abstract.,13,320,20","my reaction is that the picture is that Ive seen it before,-14,400,20","Vague and directionless,-14,100,20","I feel relaxed, like I'm watching the leaves change color.,17,360,20","Too messy. Just looks like a mess of dark colors.,-20,160,20","Claire","the colors are nice,8,260,20","Ashley","More passable, colorful, abstract.,13,320,20","Katie","Too messy. Just looks like a mess of dark colors.,-20,160,20","3"
"13240","","survey-text","211","975976","0.0-209.0-0.0","ABXL9SD1N6ZQZ","","","","{""Q0"":""A city scene with vendors in France""}","","","","","","","","","","","","","","","","","","","","","","",""
"3527.400000035763","","image-slider-response","212","979506","0.0-210.0","ABXL9SD1N6ZQZ","","","","","17","","","","","","","","","","","","","","","","","","","","","",""
"null","","image-button-response","213","984509","0.0-211.0","ABXL9SD1N6ZQZ","img_art/19.jpg","null","","","","","","","","","","","","","","","","","","","","","","","","",""
"2323","","image-button-response","214","986834","0.0-212.0","ABXL9SD1N6ZQZ","img_art/19.jpg","1","","","","","","","","","","","","","","","","","","","","","","","","",""
"2554","","image-button-response","215","989391","0.0-213.0-0.0","ABXL9SD1N6ZQZ","img_art/19.jpg","3","","","","","","","","","","","","","","","","","","","","","","","","",""
"1036","","image-button-response","216","990430","0.0-214.0-0.0","ABXL9SD1N6ZQZ","img_art/19.jpg","2","","","","","","","","","","","","","","","","","","","","","","","","",""
"null","","html-keyboard-response","217","991445","0.0-215.0","ABXL9SD1N6ZQZ","<p style=""font-size: 48px;"">+</p>","","","","","null","allTrialResponses","1000","1","24","img_art/19.jpg","17","A city scene with vendors in France","Claire,Ashley,Sierra,Angelica,Sarah,Katie","way too much going on,-33,260,20","someone at the beach maybe?,27,320,20","green and orange are my favorite colors.  this cityscape feels warm,34,260,20","This is like an ugly version of a Basquiat.,-24,280,20","too much of a mix of lines and shading,-22,180,20","Too busy, makes me anxious and frustrated. Lots of movement in the brush strokes.,-9,160,20","Ashley","someone at the beach maybe?,27,320,20","Angelica","This is like an ugly version of a Basquiat.,-24,280,20","Sierra","green and orange are my favorite colors.  this cityscape feels warm,34,260,20","3"
"13890","","survey-text","218","1005344","0.0-216.0-0.0","ABXL9SD1N6ZQZ","","","","{""Q0"":""Beautiful southwest art with a touch of whimsy""}","","","","","","","","","","","","","","","","","","","","","","",""
"5332.599999964237","","image-slider-response","219","1010679","0.0-217.0","ABXL9SD1N6ZQZ","","","","","41","","","","","","","","","","","","","","","","","","","","","",""
"null","","image-button-response","220","1015683","0.0-218.0","ABXL9SD1N6ZQZ","img_art/8.jpg","null","","","","","","","","","","","","","","","","","","","","","","","","",""
"681","","image-button-response","221","1016367","0.0-219.0","ABXL9SD1N6ZQZ","img_art/8.jpg","1","","","","","","","","","","","","","","","","","","","","","","","","",""
"828","","image-button-response","222","1017197","0.0-220.0-0.0","ABXL9SD1N6ZQZ","img_art/8.jpg","2","","","","","","","","","","","","","","","","","","","","","","","","",""
"892","","image-button-response","223","1018093","0.0-221.0-0.0","ABXL9SD1N6ZQZ","img_art/8.jpg","5","","","","","","","","","","","","","","","","","","","","","","","","",""
"null","","html-keyboard-response","224","1018599","0.0-222.0","ABXL9SD1N6ZQZ","<p style=""font-size: 48px;"">+</p>","","","","","null","allTrialResponses","500","1","25","img_art/8.jpg","41","Beautiful southwest art with a touch of whimsy","Sophia,Ashley,Sierra,Angelica,Grace,Isabella","Interesting but it has a bit of a dark feel to it.,6,280,20","Escher? Dali? Could be their lovechild?,50,320,20","i love the colors, the church and the face,42,260,20","It's a poor rendition of an MC Escher inspired piece.,-25,280,20","Like the colors & the imagery - old city, native peoples maybe.,20,180,20","Ancient city looked after by diety,38,280,20","Ashley","Escher? Dali? Could be their lovechild?,50,320,20","Sierra","i love the colors, the church and the face,42,260,20","Isabella","Ancient city looked after by diety,38,280,20","3"
"4226","","survey-text","225","1022840","0.0-223.0-0.0","ABXL9SD1N6ZQZ","","","","{""Q0"":""table""}","","","","","","","","","","","","","","","","","","","","","","",""
"12454","","survey-text","226","1035296","0.0-224.0-0.0","ABXL9SD1N6ZQZ","","","","{""Q0"":""This is just weird, is that a gun?""}","","","","","","","","","","","","","","","","","","","","","","",""
"4251.599999964237","","image-slider-response","227","1039551","0.0-225.0","ABXL9SD1N6ZQZ","","","","","-50","","","","","","","","","","","","","","","","","","","","","",""
"null","","image-button-response","228","1044556","0.0-226.0","ABXL9SD1N6ZQZ","img_art/16.jpg","null","","","","","","","","","","","","","","","","","","","","","","","","",""
"1827","","image-button-response","229","1046386","0.0-227.0","ABXL9SD1N6ZQZ","img_art/16.jpg","2","","","","","","","","","","","","","","","","","","","","","","","","",""
"920","","image-button-response","230","1047307","0.0-228.0-0.0","ABXL9SD1N6ZQZ","img_art/16.jpg","0","","","","","","","","","","","","","","","","","","","","","","","","",""
"1197","","image-button-response","231","1048507","0.0-229.0-0.0","ABXL9SD1N6ZQZ","img_art/16.jpg","5","","","","","","","","","","","","","","","","","","","","","","","","",""
"null","","html-keyboard-response","232","1049014","0.0-230.0","ABXL9SD1N6ZQZ","<p style=""font-size: 48px;"">+</p>","","","","","null","allTrialResponses","500","1","26","img_art/16.jpg","-50","This is just weird, is that a gun?","Leah,Ashley,Sierra,Laura,Jordan,Isabella","Know it is a piece relating to children and gun violence. Sad,-30,360,20","A lot fo these could abstract or childrens work.,23,320,20","it looks psychotic,-31,260,20","depressing and confrontational,-9,320,20","Not interested at all,-15,20,20","This looks chaotic,-25,280,20","Sierra","it looks psychotic,-31,260,20","Leah","Know it is a piece relating to children and gun violence. Sad,-30,360,20","Isabella","This looks chaotic,-25,280,20","3"
"13110","","survey-text","233","1062132","0.0-231.0-0.0","ABXL9SD1N6ZQZ","","","","{""Q0"":""White horses in battle, like the colors""}","","","","","","","","","","","","","","","","","","","","","","",""
"2810.600000023842","","image-slider-response","234","1064945","0.0-232.0","ABXL9SD1N6ZQZ","","","","","40","","","","","","","","","","","","","","","","","","","","","",""
"null","","image-button-response","235","1069949","0.0-233.0","ABXL9SD1N6ZQZ","img_art/23.jpg","null","","","","","","","","","","","","","","","","","","","","","","","","",""
"275","","image-button-response","236","1070225","0.0-234.0","ABXL9SD1N6ZQZ","img_art/23.jpg","0","","","","","","","","","","","","","","","","","","","","","","","","",""
"554","","image-button-response","237","1070782","0.0-235.0-0.0","ABXL9SD1N6ZQZ","img_art/23.jpg","0","","","","","","","","","","","","","","","","","","","","","","","","",""
"1039","","image-button-response","238","1074650","0.0-235.1-0.1","ABXL9SD1N6ZQZ","img_art/23.jpg","1","","","","","","","","","","","","","","","","","","","","","","","","",""
"1406","","image-button-response","239","1076060","0.0-236.0-0.0","ABXL9SD1N6ZQZ","img_art/23.jpg","5","","","","","","","","","","","","","","","","","","","","","","","","",""
"null","","html-keyboard-response","240","1077075","0.0-237.0","ABXL9SD1N6ZQZ","<p style=""font-size: 48px;"">+</p>","","","","","null","allTrialResponses","1000","1","27","img_art/23.jpg","40","White horses in battle, like the colors","Leah,Kelly,Sierra,Jasmine,Sabrina,Isabella","Interesting, want to look at it more to identify,25,360,20","Love this. I love the white, really pops with the colors surrounding it.,44,220,20","it makes me aggitated,-21,260,20","Mostly neutral but a bit too guady with the brash colors,-6,340,20","I dont like the chaos of this,-20,120,20","Love the line in the middle separating the two dark sides,50,280,20","Leah","Interesting, want to look at it more to identify,25,360,20","Kelly","Love this. I love the white, really pops with the colors surrounding it.,44,220,20","Isabella","Love the line in the middle separating the two dark sides,50,280,20","5"
"12509","","survey-text","241","1089592","0.0-238.0-0.0","ABXL9SD1N6ZQZ","","","","{""Q0"":""I like the colors, but it's confusing""}","","","","","","","","","","","","","","","","","","","","","","",""
"4078.100000023842","","image-slider-response","242","1093673","0.0-239.0","ABXL9SD1N6ZQZ","","","","","-15","","","","","","","","","","","","","","","","","","","","","",""
"null","","image-button-response","243","1098696","0.0-240.0","ABXL9SD1N6ZQZ","img_art/22.jpg","null","","","","","","","","","","","","","","","","","","","","","","","","",""
"955","","image-button-response","244","1099654","0.0-241.0","ABXL9SD1N6ZQZ","img_art/22.jpg","0","","","","","","","","","","","","","","","","","","","","","","","","",""
"1472","","image-button-response","245","1101130","0.0-242.0-0.0","ABXL9SD1N6ZQZ","img_art/22.jpg","3","","","","","","","","","","","","","","","","","","","","","","","","",""
"716","","image-button-response","246","1101849","0.0-243.0-0.0","ABXL9SD1N6ZQZ","img_art/22.jpg","4","","","","","","","","","","","","","","","","","","","","","","","","",""
"null","","html-keyboard-response","247","1103352","0.0-244.0","ABXL9SD1N6ZQZ","<p style=""font-size: 48px;"">+</p>","","","","","null","allTrialResponses","1500","1","28","img_art/22.jpg","-15","I like the colors, but it's confusing","Leah,Kelly,Morgan,Alexandria,Caitlin,Isabella","Pretty colors but too blocky for me,-19,360,20","I really enjoy the blended colors.,20,220,20","Glowing city of many emotions.,10,380,20","the colors and shapes makes me want to keep looking at it,22,80,20","Looks like the kind of art I would see at the doctor's office.,-5,80,20","Sunsets at the beach,42,280,20","Leah","Pretty colors but too blocky for me,-19,360,20","Alexandria","the colors and shapes makes me want to keep looking at it,22,80,20","Caitlin","Looks like the kind of art I would see at the doctor's office.,-5,80,20","5"
"13473","","survey-text","248","1116834","0.0-245.0-0.0","ABXL9SD1N6ZQZ","","","","{""Q0"":""Smoking coming from a pipe""}","","","","","","","","","","","","","","","","","","","","","","",""
"4335.300000011921","","image-slider-response","249","1121172","0.0-246.0","ABXL9SD1N6ZQZ","","","","","-22","","","","","","","","","","","","","","","","","","","","","",""
"null","","image-button-response","250","1126186","0.0-247.0","ABXL9SD1N6ZQZ","img_art/4.jpg","null","","","","","","","","","","","","","","","","","","","","","","","","",""
"793","","image-button-response","251","1126980","0.0-248.0","ABXL9SD1N6ZQZ","img_art/4.jpg","0","","","","","","","","","","","","","","","","","","","","","","","","",""
"1164","","image-button-response","252","1128147","0.0-249.0-0.0","ABXL9SD1N6ZQZ","img_art/4.jpg","3","","","","","","","","","","","","","","","","","","","","","","","","",""
"855","","image-button-response","253","1129005","0.0-250.0-0.0","ABXL9SD1N6ZQZ","img_art/4.jpg","4","","","","","","","","","","","","","","","","","","","","","","","","",""
"null","","html-keyboard-response","254","1129508","0.0-251.0","ABXL9SD1N6ZQZ","<p style=""font-size: 48px;"">+</p>","","","","","null","allTrialResponses","500","1","29","img_art/4.jpg","-22","Smoking coming from a pipe","Leah,Samantha,Kathryn,Alexandria,Caitlin,Destiny","To me just looking at paint scrawls,-41,360,20","I domt like the yellow black blended smear,-50,140,20","I feel kind of guilty looking at this, like I'm receiving a reward I don't I deserve.,-10,140,20","it looks like a simple finger painting, yet i liked the color choices,-12,80,20","They give out trophies now for fighting with brass knuckles?,-20,80,20","it looks like a preschooler just dragged his fingers around,-36,360,20","Leah","To me just looking at paint scrawls,-41,360,20","Alexandria","it looks like a simple finger painting, yet i liked the color choices,-12,80,20","Caitlin","They give out trophies now for fighting with brass knuckles?,-20,80,20","5"
"11639","","survey-text","255","1141157","0.0-252.0-0.0","ABXL9SD1N6ZQZ","","","","{""Q0"":""Violin ""}","","","","","","","","","","","","","","","","","","","","","","",""
"4496.599999964237","","image-slider-response","256","1145656","0.0-253.0","ABXL9SD1N6ZQZ","","","","","23","","","","","","","","","","","","","","","","","","","","","",""
"null","","image-button-response","257","1150673","0.0-254.0","ABXL9SD1N6ZQZ","img_art/10.jpg","null","","","","","","","","","","","","","","","","","","","","","","","","",""
"787","","image-button-response","258","1151463","0.0-255.0","ABXL9SD1N6ZQZ","img_art/10.jpg","3","","","","","","","","","","","","","","","","","","","","","","","","",""
"2810","","image-button-response","259","1154276","0.0-256.0-0.0","ABXL9SD1N6ZQZ","img_art/10.jpg","1","","","","","","","","","","","","","","","","","","","","","","","","",""
"1806","","image-button-response","260","1156085","0.0-257.0-0.0","ABXL9SD1N6ZQZ","img_art/10.jpg","5","","","","","","","","","","","","","","","","","","","","","","","","",""
"null","","html-keyboard-response","261","1157587","0.0-258.0","ABXL9SD1N6ZQZ","<p style=""font-size: 48px;"">+</p>","","","","","null","allTrialResponses","1500","1","30","img_art/10.jpg","23","Violin ","Leah,Sara,Emily,Alexandria,Caitlin,Leslie","Dark with no object, looks like experimentation, slightly like a storm on the ocean,-21,360,20","I don't like the colors,-20,160,20","Ugly and low skill. I wouldn't want it.,-50,40,20","it reminds me of a musical instrument,19,80,20","The roller coaster from hell !!!,-10,80,20","I love the chaotic feel of the brush strokes.,35,380,20","Alexandria","it reminds me of a musical instrument,19,80,20","Sara","I don't like the colors,-20,160,20","Leslie","I love the chaotic feel of the brush strokes.,35,380,20","5"
"2957","","image-button-response_instructions","262","1160554","0.0-259.0","ABXL9SD1N6ZQZ","","0","instructions","","","","","","","","","","","","","","","","","","","","","","","",""
"2021","","image-button-response","263","1162583","0.0-260.0","ABXL9SD1N6ZQZ","","0","","","","","","","","","","","","","","","","","","","","","","","","",""
