"rt","url","trial_type","trial_index","time_elapsed","internal_node_id","participant_id","stimulus","button_pressed","Name","responses","response","key_press","variableName","fixationTime","condition","trial","photo","subjectRating","subjectResponse","agentsNames","agent_1_Response","agent_2_Response","agent_3_Response","agent_4_Response","agent_5_Response","agent_6_Response","kept_1_name","kept_1_response","kept_2_name","kept_2_response","kept_3_name","kept_3_response","errorCounter"
"36764","external_page_harvard.html","external-html","0","36883","0.0-0.0","AEGW8HAGURDRY","","","","","","","","","","","","","","","","","","","","","","","","","","",""
"2044","","image-button-response","1","38931","0.0-1.0","AEGW8HAGURDRY","","1","","","","","","","","","","","","","","","","","","","","","","","","",""
"3103","","image-button-response","2","42042","0.0-2.0-0.0","AEGW8HAGURDRY","","1","phone","","","","","","","","","","","","","","","","","","","","","","","",""
"9450","","survey-text","3","51495","0.0-3.0-0.0","AEGW8HAGURDRY","","","","{""Q0"":""AEGW8HAGURDRY""}","","","","","","","","","","","","","","","","","","","","","","",""
"8725","","image-button-response_instructions","4","60224","0.0-4.0","AEGW8HAGURDRY","","0","instructions","","","","","","","","","","","","","","","","","","","","","","","",""
"34287","","image-button-response_instructions","5","94513","0.0-5.0","AEGW8HAGURDRY","img_art/ins/popularity/ins1.png","0","instructions","","","","","","","","","","","","","","","","","","","","","","","",""
"10957","","image-button-response_instructions","6","105472","0.0-6.0","AEGW8HAGURDRY","img_art/ins/popularity/ins2.png","0","instructions","","","","","","","","","","","","","","","","","","","","","","","",""
"9303","","image-button-response_instructions","7","114776","0.0-7.0","AEGW8HAGURDRY","img_art/ins/popularity/ins2Extreme.png","0","instructions","","","","","","","","","","","","","","","","","","","","","","","",""
"16248","","image-button-response_instructions","8","131027","0.0-8.0","AEGW8HAGURDRY","img_art/ins/popularity/ins3KEEPpop.PNG","0","instructions","","","","","","","","","","","","","","","","","","","","","","","",""
"9870","","image-button-response_instructions","9","140899","0.0-9.0","AEGW8HAGURDRY","img_art/ins/popularity/ins3ANamepop.PNG","0","instructions","","","","","","","","","","","","","","","","","","","","","","","",""
"6557","","image-button-response_instructions","10","147458","0.0-10.0","AEGW8HAGURDRY","img_art/ins/popularity/ins3ARatingpop.png","0","instructions","","","","","","","","","","","","","","","","","","","","","","","",""
"4328","","image-button-response_instructions","11","151787","0.0-11.0","AEGW8HAGURDRY","img_art/ins/popularity/ins3ATextpop.png","0","instructions","","","","","","","","","","","","","","","","","","","","","","","",""
"11967","","image-button-response_instructions","12","163756","0.0-12.0","AEGW8HAGURDRY","img_art/ins/popularity/ins3ALikespop.png","0","instructions","","","","","","","","","","","","","","","","","","","","","","","",""
"16962","","image-button-response_instructions","13","180720","0.0-13.0","AEGW8HAGURDRY","img_art/ins/popularity/ins3KEEPpop.PNG","0","instructions","","","","","","","","","","","","","","","","","","","","","","","",""
"14032","","image-button-response_instructions","14","194754","0.0-14.0","AEGW8HAGURDRY","img_art/ins/popularity/ins3_5RED.png","0","instructions","","","","","","","","","","","","","","","","","","","","","","","",""
"6379","","image-button-response_instructions","15","201135","0.0-15.0","AEGW8HAGURDRY","img_art/ins/popularity/ins3KEEPpop.PNG","0","instructions","","","","","","","","","","","","","","","","","","","","","","","",""
"16190","","image-button-response_instructions","16","217325","0.0-16.0","AEGW8HAGURDRY","img_art/ins/popularity/ins4KEEPpop.PNG","0","instructions","","","","","","","","","","","","","","","","","","","","","","","",""
"8260","","image-button-response_instructions","17","225586","0.0-17.0","AEGW8HAGURDRY","img_art/ins/popularity/ins5KEEPpop.PNG","0","instructions","","","","","","","","","","","","","","","","","","","","","","","",""
"3868","","image-button-response_instructions","18","229456","0.0-18.0","AEGW8HAGURDRY","","0","instructions","","","","","","","","","","","","","","","","","","","","","","","",""
"9050","","survey-text","19","238568","0.0-19.0-0.0","AEGW8HAGURDRY","","","","{""Q0"":""but""}","","","","","","","","","","","","","","","","","","","","","","",""
"59037","","survey-text","20","297608","0.0-20.0-0.0","AEGW8HAGURDRY","","","","{""Q0"":""It looks like how I feel most mornings.""}","","","","","","","","","","","","","","","","","","","","","","",""
"6485.10000038147","","image-slider-response","21","304097","0.0-21.0","AEGW8HAGURDRY","","","","","-46","","","","","","","","","","","","","","","","","","","","","",""
"null","","image-button-response","22","309106","0.0-22.0","AEGW8HAGURDRY","img_art/ins/1.jpg","null","","","","","","","","","","","","","","","","","","","","","","","","",""
"21444","","image-button-response","23","330554","0.0-23.0","AEGW8HAGURDRY","img_art/ins/1.jpg","3","","","","","","","","","","","","","","","","","","","","","","","","",""
"1735","","image-button-response","24","332294","0.0-24.0-0.0","AEGW8HAGURDRY","img_art/ins/1.jpg","5","","","","","","","","","","","","","","","","","","","","","","","","",""
"3777","","image-button-response","25","336075","0.0-25.0-0.0","AEGW8HAGURDRY","img_art/ins/1.jpg","2","","","","","","","","","","","","","","","","","","","","","","","","",""
"null","","html-keyboard-response","26","337081","0.0-26.0","AEGW8HAGURDRY","<p style=""font-size: 48px;"">+</p>","","","","","null","allTrialResponses","1000","1","-2","img_art/ins/1.jpg","-46","It looks like how I feel most mornings.","Allison,Ashley,Beth,Dora,Erika,Jen","looks like a lot of things going on in the mist,20,20,20","I just don't get why these type of art would be popular,-32,40,20","This color reminds me of poo,-46,60,20","looks like what my niece in 3rd grade did this afternoon,-50,80,20","I like the sophisticated brushwork,40,100,20","It reminds me of a candy land dream I had,36,120,20","Dora","looks like what my niece in 3rd grade did this afternoon,-50,80,20","Jen","It reminds me of a candy land dream I had,36,120,20","Beth","This color reminds me of poo,-46,60,20","0"
"58860","","survey-text","27","395948","0.0-27.0-0.0","AEGW8HAGURDRY","","","","{""Q0"":""The red hurts my eyes.""}","","","","","","","","","","","","","","","","","","","","","","",""
"4785.199999809265","","image-slider-response","28","400736","0.0-28.0","AEGW8HAGURDRY","","","","","-48","","","","","","","","","","","","","","","","","","","","","",""
"null","","image-button-response","29","405743","0.0-29.0","AEGW8HAGURDRY","img_art/ins/2.jpg","null","","","","","","","","","","","","","","","","","","","","","","","","",""
"3282","","image-button-response","30","409029","0.0-30.0","AEGW8HAGURDRY","img_art/ins/2.jpg","5","","","","","","","","","","","","","","","","","","","","","","","","",""
"4946","","image-button-response","31","413979","0.0-31.0-0.0","AEGW8HAGURDRY","img_art/ins/2.jpg","0","","","","","","","","","","","","","","","","","","","","","","","","",""
"6596","","image-button-response","32","420578","0.0-32.0-0.0","AEGW8HAGURDRY","img_art/ins/2.jpg","0","","","","","","","","","","","","","","","","","","","","","","","","",""
"4269","","image-button-response","33","429117","0.0-32.1-0.1","AEGW8HAGURDRY","img_art/ins/2.jpg","3","","","","","","","","","","","","","","","","","","","","","","","","",""
"null","","html-keyboard-response","34","430619","0.0-33.0","AEGW8HAGURDRY","<p style=""font-size: 48px;"">+</p>","","","","","null","allTrialResponses","1500","1","-1","img_art/ins/2.jpg","-48","The red hurts my eyes.","Katie,Jenna,Beth,Dora,Kara,Jen","too much color!,-28,180,20","One of my pet peevs,-48,140,20","meaningless painting,-45,60,20","looks too angry,-50,80,20","I like the blocks of color arrangements,30,160,20","It reminds me of a fireplace,36,120,20","Jen","It reminds me of a fireplace,36,120,20","Katie","too much color!,-28,180,20","Dora","looks too angry,-50,80,20","2"
"43058","","survey-text","35","473682","0.0-34.0-0.0","AEGW8HAGURDRY","","","","{""Q0"":""The contrasting blues are nice to look at.""}","","","","","","","","","","","","","","","","","","","","","","",""
"6619.300000190735","","image-slider-response","36","480304","0.0-35.0","AEGW8HAGURDRY","","","","","25","","","","","","","","","","","","","","","","","","","","","",""
"null","","image-button-response","37","485310","0.0-36.0","AEGW8HAGURDRY","img_art/ins/3.jpg","null","","","","","","","","","","","","","","","","","","","","","","","","",""
"6695","","image-button-response","38","492010","0.0-37.0","AEGW8HAGURDRY","img_art/ins/3.jpg","5","","","","","","","","","","","","","","","","","","","","","","","","",""
"6469","","image-button-response","39","498483","0.0-38.0-0.0","AEGW8HAGURDRY","img_art/ins/3.jpg","4","","","","","","","","","","","","","","","","","","","","","","","","",""
"4822","","image-button-response","40","503309","0.0-39.0-0.0","AEGW8HAGURDRY","img_art/ins/3.jpg","2","","","","","","","","","","","","","","","","","","","","","","","","",""
"null","","html-keyboard-response","41","504812","0.0-40.0","AEGW8HAGURDRY","<p style=""font-size: 48px;"">+</p>","","","","","null","allTrialResponses","1500","1","0","img_art/ins/3.jpg","25","The contrasting blues are nice to look at.","Katie,Rose,Leslie,Dora,Mary,Jen","It looks depressing,-26,180,20","My daily routine, it's depressing,-20,240,20","It's an alright work,15,200,20","My worst nightmare,-42,80,20","I like the overlapping of brushes,41,220,20","I can feel a rainy day from this painting,18,120,20","Jen","I can feel a rainy day from this painting,18,120,20","Mary","I like the overlapping of brushes,41,220,20","Leslie","It's an alright work,15,200,20","2"
"9415","","image-button-response_instructions","42","514233","0.0-41.0","AEGW8HAGURDRY","","0","instructions","","","","","","","","","","","","","","","","","","","","","","","",""
"39215","","survey-likert","43","553451","0.0-42.0-0.0","AEGW8HAGURDRY","","","","{""Q0"":"""",""Q1"":0,""Q2"":1}","","","","","","","","","","","","","","","","","","","","","","",""
"6639","","survey-text","44","560103","0.0-43.0-0.0","AEGW8HAGURDRY","","","","{""Q0"":""rock""}","","","","","","","","","","","","","","","","","","","","","","",""
"49332","","survey-text","45","609437","0.0-44.0-0.0","AEGW8HAGURDRY","","","","{""Q0"":""A bit too simple, though the colors are nice.""}","","","","","","","","","","","","","","","","","","","","","","",""
"9949.699999809265","","image-slider-response","46","619389","0.0-45.0","AEGW8HAGURDRY","","","","","-33","","","","","","","","","","","","","","","","","","","","","",""
"null","","image-button-response","47","624447","0.0-46.0","AEGW8HAGURDRY","img_art/6.jpg","null","","","","","","","","","","","","","","","","","","","","","","","","",""
"7485","","image-button-response","48","631936","0.0-47.0","AEGW8HAGURDRY","img_art/6.jpg","4","","","","","","","","","","","","","","","","","","","","","","","","",""
"6259","","image-button-response","49","638198","0.0-48.0-0.0","AEGW8HAGURDRY","img_art/6.jpg","1","","","","","","","","","","","","","","","","","","","","","","","","",""
"2271","","image-button-response","50","640474","0.0-49.0-0.0","AEGW8HAGURDRY","img_art/6.jpg","0","","","","","","","","","","","","","","","","","","","","","","","","",""
"null","","html-keyboard-response","51","641478","0.0-50.0","AEGW8HAGURDRY","<p style=""font-size: 48px;"">+</p>","","","","","null","allTrialResponses","1000","1","1","img_art/6.jpg","-33","A bit too simple, though the colors are nice.","Breanna,Kaylee,Lauren,Alexandria,Brooke,Savannah","Not impressed, just very plain,-10,380,20","just an another tree on a desert?,9,200,20","I like the simplicity of the piece.,10,340,20","i like it but it is very neutral,9,80,20","Kind of neat, but then that's a weird looking bird. too weird.,0,60,20","Despite how simple it is, this piece has clear meaning.,34,200,20","Brooke","Kind of neat, but then that's a weird looking bird. too weird.,0,60,20","Kaylee","just an another tree on a desert?,9,200,20","Breanna","Not impressed, just very plain,-10,380,20","2"
"74820","","survey-text","52","716304","0.0-51.0-0.0","AEGW8HAGURDRY","","","","{""Q0"":""Too bleak to get any enjoyment out of.""}","","","","","","","","","","","","","","","","","","","","","","",""
"4846.299999713898","","image-slider-response","53","721153","0.0-52.0","AEGW8HAGURDRY","","","","","-48","","","","","","","","","","","","","","","","","","","","","",""
"null","","image-button-response","54","726157","0.0-53.0","AEGW8HAGURDRY","img_art/19.jpg","null","","","","","","","","","","","","","","","","","","","","","","","","",""
"3416","","image-button-response","55","729577","0.0-54.0","AEGW8HAGURDRY","img_art/19.jpg","5","","","","","","","","","","","","","","","","","","","","","","","","",""
"10273","","image-button-response","56","739853","0.0-55.0-0.0","AEGW8HAGURDRY","img_art/19.jpg","2","","","","","","","","","","","","","","","","","","","","","","","","",""
"2235","","image-button-response","57","742093","0.0-56.0-0.0","AEGW8HAGURDRY","img_art/19.jpg","3","","","","","","","","","","","","","","","","","","","","","","","","",""
"null","","html-keyboard-response","58","743599","0.0-57.0","AEGW8HAGURDRY","<p style=""font-size: 48px;"">+</p>","","","","","null","allTrialResponses","1500","1","2","img_art/19.jpg","-48","Too bleak to get any enjoyment out of.","Breanna,Kaylee,Makayla,Molly,Brooke,Bailey","The details are amazing,36,380,20","beautiful old town,37,200,20","Looks like hustle and bustle ,,3,80,20","I can see kind of beach and sea full of people and buildings.,25,340,20","Snowy winter scene,25,60,20","Horrible. Squiggly lines everywhere.,-50,360,20","Bailey","Horrible. Squiggly lines everywhere.,-50,360,20","Makayla","Looks like hustle and bustle ,,3,80,20","Molly","I can see kind of beach and sea full of people and buildings.,25,340,20","2"
"35452","","survey-text","59","779058","0.0-58.0-0.0","AEGW8HAGURDRY","","","","{""Q0"":""Creepy. I like the details.""}","","","","","","","","","","","","","","","","","","","","","","",""
"6406.5","","image-slider-response","60","785467","0.0-59.0","AEGW8HAGURDRY","","","","","13","","","","","","","","","","","","","","","","","","","","","",""
"null","","image-button-response","61","790473","0.0-60.0","AEGW8HAGURDRY","img_art/25.jpg","null","","","","","","","","","","","","","","","","","","","","","","","","",""
"356","","image-button-response","62","790833","0.0-61.0","AEGW8HAGURDRY","img_art/25.jpg","2","","","","","","","","","","","","","","","","","","","","","","","","",""
"2516","","image-button-response","63","793353","0.0-62.0-0.0","AEGW8HAGURDRY","img_art/25.jpg","5","","","","","","","","","","","","","","","","","","","","","","","","",""
"2801","","image-button-response","64","796159","0.0-63.0-0.0","AEGW8HAGURDRY","img_art/25.jpg","3","","","","","","","","","","","","","","","","","","","","","","","","",""
"null","","html-keyboard-response","65","797666","0.0-64.0","AEGW8HAGURDRY","<p style=""font-size: 48px;"">+</p>","","","","","null","allTrialResponses","1500","1","3","img_art/25.jpg","13","Creepy. I like the details.","Amy,Jacqueline,Makayla,Molly,Caitlin,Bailey","The limited palette make this figure mysterious and interpret-able.,20,220,20","Not particularly interesting for me. The green color is strange mixed with this.,-11,300,20","It's very mystical.,5,80,20","Well-designed, interesting.,30,340,20","Wish I was that thin.,-5,80,20","I love the background color and it's creepy...but cool.,30,360,20","Makayla","It's very mystical.,5,80,20","Bailey","I love the background color and it's creepy...but cool.,30,360,20","Molly","Well-designed, interesting.,30,340,20","2"
"26164","","survey-text","66","823836","0.0-65.0-0.0","AEGW8HAGURDRY","","","","{""Q0"":""Hideous. Not sure what it's supposed to be either.""}","","","","","","","","","","","","","","","","","","","","","","",""
"4847","","image-slider-response","67","828685","0.0-66.0","AEGW8HAGURDRY","","","","","-48","","","","","","","","","","","","","","","","","","","","","",""
"null","","image-button-response","68","833688","0.0-67.0","AEGW8HAGURDRY","img_art/4.jpg","null","","","","","","","","","","","","","","","","","","","","","","","","",""
"373","","image-button-response","69","834067","0.0-68.0","AEGW8HAGURDRY","img_art/4.jpg","0","","","","","","","","","","","","","","","","","","","","","","","","",""
"2562","","image-button-response","70","836633","0.0-69.0-0.0","AEGW8HAGURDRY","img_art/4.jpg","2","","","","","","","","","","","","","","","","","","","","","","","","",""
"2702","","image-button-response","71","839339","0.0-70.0-0.0","AEGW8HAGURDRY","img_art/4.jpg","5","","","","","","","","","","","","","","","","","","","","","","","","",""
"null","","html-keyboard-response","72","839845","0.0-71.0","AEGW8HAGURDRY","<p style=""font-size: 48px;"">+</p>","","","","","null","allTrialResponses","500","1","4","img_art/4.jpg","-48","Hideous. Not sure what it's supposed to be either.","Gabrielle,Michelle,Makayla,Molly,Hannah,Bailey","too childish, not really art in my world,-50,160,20","Looks like more paint smearing but at least there is structure,-5,280,20","Looks like poop on walks,-27,80,20","Not bad at all.,20,340,20","looks very rudimentary and too simple.,-14,240,20","Boring and tasteless. Almost reminds me of when an art gallery called a banana 'art',-42,360,20","Gabrielle","too childish, not really art in my world,-50,160,20","Makayla","Looks like poop on walks,-27,80,20","Bailey","Boring and tasteless. Almost reminds me of when an art gallery called a banana 'art',-42,360,20","2"
"59293","","survey-text","73","899146","0.0-72.0-0.0","AEGW8HAGURDRY","","","","{""Q0"":""Busy, but interesting enough to look at when you're bored.""}","","","","","","","","","","","","","","","","","","","","","","",""
"3732.800000190735","","image-slider-response","74","902882","0.0-73.0","AEGW8HAGURDRY","","","","","10","","","","","","","","","","","","","","","","","","","","","",""
"3598","","image-button-response","75","907886","0.0-74.0","AEGW8HAGURDRY","img_art/1.jpg","1","","","","","","","","","","","","","","","","","","","","","","","","",""
"5176","","image-button-response","76","913065","0.0-75.0","AEGW8HAGURDRY","img_art/1.jpg","0","","","","","","","","","","","","","","","","","","","","","","","","",""
"5711","","image-button-response","77","918781","0.0-76.0-0.0","AEGW8HAGURDRY","img_art/1.jpg","5","","","","","","","","","","","","","","","","","","","","","","","","",""
"7661","","image-button-response","78","926445","0.0-77.0-0.0","AEGW8HAGURDRY","img_art/1.jpg","1","","","","","","","","","","","","","","","","","","","","","","","","",""
"null","","html-keyboard-response","79","926949","0.0-78.0","AEGW8HAGURDRY","<p style=""font-size: 48px;"">+</p>","","","","","null","allTrialResponses","500","1","5","img_art/1.jpg","10","Busy, but interesting enough to look at when you're bored.","Gabrielle,Chelsea,Makayla,Alexa,Kathryn,Bailey","nice piece, fall like,31,160,20","The colors are a little too intense.,1,180,20","Nothing whatsoever,2,80,20","The blend of colors are gorgeous and reminds me of fall,32,40,20","For some reason this makes me want to go ice skating. It's whimsical and free but also very smooth.,20,140,20","A bit of a smokey mess, but it does have an air of mystery I like,7,360,20","Gabrielle","nice piece, fall like,31,160,20","Bailey","A bit of a smokey mess, but it does have an air of mystery I like,7,360,20","Chelsea","The colors are a little too intense.,1,180,20","2"
"5698","","survey-text","80","932660","0.0-79.0-0.0","AEGW8HAGURDRY","","","","{""Q0"":""sky""}","","","","","","","","","","","","","","","","","","","","","","",""
"28008","","survey-text","81","960670","0.0-80.0-0.0","AEGW8HAGURDRY","","","","{""Q0"":""It's soft and calming.""}","","","","","","","","","","","","","","","","","","","","","","",""
"5002.39999961853","","image-slider-response","82","965675","0.0-81.0","AEGW8HAGURDRY","","","","","22","","","","","","","","","","","","","","","","","","","","","",""
"4474","","image-button-response","83","970682","0.0-82.0","AEGW8HAGURDRY","img_art/14.jpg","0","","","","","","","","","","","","","","","","","","","","","","","","",""
"1596","","image-button-response","84","972281","0.0-83.0","AEGW8HAGURDRY","img_art/14.jpg","1","","","","","","","","","","","","","","","","","","","","","","","","",""
"1097","","image-button-response","85","973381","0.0-84.0-0.0","AEGW8HAGURDRY","img_art/14.jpg","0","","","","","","","","","","","","","","","","","","","","","","","","",""
"6906","","image-button-response","86","980291","0.0-85.0-0.0","AEGW8HAGURDRY","img_art/14.jpg","5","","","","","","","","","","","","","","","","","","","","","","","","",""
"null","","html-keyboard-response","87","981296","0.0-86.0","AEGW8HAGURDRY","<p style=""font-size: 48px;"">+</p>","","","","","null","allTrialResponses","1000","1","6","img_art/14.jpg","22","It's soft and calming.","Gabrielle,Chelsea,Meghan,Julia,Madeline,Bailey","the colors are peaceful and nature colors, soft,37,160,20","The colors are pleasing.,29,180,20","its okay nothing special,11,220,20","I don't care for the style,-38,40,20","It looks nice colorwise but detail is lacking,18,40,20","Not quite the style I'd like, but it does have a certain air of emptiness.,12,360,20","Chelsea","The colors are pleasing.,29,180,20","Gabrielle","the colors are peaceful and nature colors, soft,37,160,20","Bailey","Not quite the style I'd like, but it does have a certain air of emptiness.,12,360,20","2"
"45120","","survey-text","88","1026420","0.0-87.0-0.0","AEGW8HAGURDRY","","","","{""Q0"":""The limited colors make this unique.""}","","","","","","","","","","","","","","","","","","","","","","",""
"6469.099999904633","","image-slider-response","89","1032891","0.0-88.0","AEGW8HAGURDRY","","","","","21","","","","","","","","","","","","","","","","","","","","","",""
"4598","","image-button-response","90","1037898","0.0-89.0","AEGW8HAGURDRY","img_art/10.jpg","0","","","","","","","","","","","","","","","","","","","","","","","","",""
"1625","","image-button-response","91","1039526","0.0-90.0","AEGW8HAGURDRY","img_art/10.jpg","0","","","","","","","","","","","","","","","","","","","","","","","","",""
"1886","","image-button-response","92","1041415","0.0-91.0-0.0","AEGW8HAGURDRY","img_art/10.jpg","1","","","","","","","","","","","","","","","","","","","","","","","","",""
"5929","","image-button-response","93","1047348","0.0-92.0-0.0","AEGW8HAGURDRY","img_art/10.jpg","4","","","","","","","","","","","","","","","","","","","","","","","","",""
"null","","html-keyboard-response","94","1047850","0.0-93.0","AEGW8HAGURDRY","<p style=""font-size: 48px;"">+</p>","","","","","null","allTrialResponses","500","1","7","img_art/10.jpg","21","The limited colors make this unique.","Gabrielle,Chelsea,Rachel,Madison,Kylie,Bailey","interesting portrayal of a violin?,10,160,20","It looks intricate.,15,180,20","Reminds me of a terrarium with cacti inside. It reminds me of home.,27,80,20","In proper lighting I might enjoy this,11,60,20","Musical guitar whimsy,45,300,20","For black and white, this is pretty vibrant and cool. I like this.,39,360,20","Gabrielle","interesting portrayal of a violin?,10,160,20","Chelsea","It looks intricate.,15,180,20","Kylie","Musical guitar whimsy,45,300,20","2"
"50115","","survey-text","95","1097973","0.0-94.0-0.0","AEGW8HAGURDRY","","","","{""Q0"":""It's ugly. That's it.""}","","","","","","","","","","","","","","","","","","","","","","",""
"4715.60000038147","","image-slider-response","96","1102691","0.0-95.0","AEGW8HAGURDRY","","","","","-50","","","","","","","","","","","","","","","","","","","","","",""
"4621","","image-button-response","97","1107695","0.0-96.0","AEGW8HAGURDRY","img_art/27.jpg","2","","","","","","","","","","","","","","","","","","","","","","","","",""
"1409","","image-button-response","98","1109108","0.0-97.0","AEGW8HAGURDRY","img_art/27.jpg","2","","","","","","","","","","","","","","","","","","","","","","","","",""
"4442","","image-button-response","99","1113554","0.0-98.0-0.0","AEGW8HAGURDRY","img_art/27.jpg","3","","","","","","","","","","","","","","","","","","","","","","","","",""
"2849","","image-button-response","100","1116406","0.0-99.0-0.0","AEGW8HAGURDRY","img_art/27.jpg","0","","","","","","","","","","","","","","","","","","","","","","","","",""
"null","","html-keyboard-response","101","1116908","0.0-100.0","AEGW8HAGURDRY","<p style=""font-size: 48px;"">+</p>","","","","","null","allTrialResponses","500","1","8","img_art/27.jpg","-50","It's ugly. That's it.","Gabrielle,Chelsea,Marissa,Jasmine,Kylie,Chloe","like the patterns and colors all but the orange blob on the right,32,160,20","The green lines look like a child drew over a painting.,-36,180,20","I am bothered by the green doodles,-20,160,20","I have no strong reactions to this,-1,340,20","Soothing in the middle of some confusion,40,300,20","Like the movement of the lines and dripping paint.,30,220,20","Marissa","I am bothered by the green doodles,-20,160,20","Jasmine","I have no strong reactions to this,-1,340,20","Gabrielle","like the patterns and colors all but the orange blob on the right,32,160,20","2"
"35628","","survey-text","102","1152543","0.0-101.0-0.0","AEGW8HAGURDRY","","","","{""Q0"":""Looks like the beat-up roads in my town.""}","","","","","","","","","","","","","","","","","","","","","","",""
"4287.199999809265","","image-slider-response","103","1156833","0.0-102.0","AEGW8HAGURDRY","","","","","-47","","","","","","","","","","","","","","","","","","","","","",""
"null","","image-button-response","104","1161837","0.0-103.0","AEGW8HAGURDRY","img_art/7.jpg","null","","","","","","","","","","","","","","","","","","","","","","","","",""
"4785","","image-button-response","105","1166627","0.0-104.0","AEGW8HAGURDRY","img_art/7.jpg","3","","","","","","","","","","","","","","","","","","","","","","","","",""
"1580","","image-button-response","106","1168211","0.0-105.0-0.0","AEGW8HAGURDRY","img_art/7.jpg","2","","","","","","","","","","","","","","","","","","","","","","","","",""
"1578","","image-button-response","107","1169792","0.0-106.0-0.0","AEGW8HAGURDRY","img_art/7.jpg","1","","","","","","","","","","","","","","","","","","","","","","","","",""
"null","","html-keyboard-response","108","1170797","0.0-107.0","AEGW8HAGURDRY","<p style=""font-size: 48px;"">+</p>","","","","","null","allTrialResponses","1000","1","9","img_art/7.jpg","-47","Looks like the beat-up roads in my town.","Gabrielle,Danielle,Marissa,Jasmine,Kelly,Miranda","looks like wallpaper,-6,160,20","I don't like this kind of color scheme or look they went for,-50,340,20","I feel confused, am I looking at a painting or a close up picture of some sort of fly stone?,-19,160,20","It just reminds me of dirt,-10,340,20","My firs thought was ""gross""...not sure what this is and I dont think i want to know.,-19,220,20","This looks like a literal picture of the ground so I'm really not too sure about this one.,-42,320,20","Jasmine","It just reminds me of dirt,-10,340,20","Marissa","I feel confused, am I looking at a painting or a close up picture of some sort of fly stone?,-19,160,20","Danielle","I don't like this kind of color scheme or look they went for,-50,340,20","2"
"86027","","survey-text","109","1256830","0.0-108.0-0.0","AEGW8HAGURDRY","","","","{""Q0"":""The colors are good, but that's it.""}","","","","","","","","","","","","","","","","","","","","","","",""
"6002.10000038147","","image-slider-response","110","1262834","0.0-109.0","AEGW8HAGURDRY","","","","","-38","","","","","","","","","","","","","","","","","","","","","",""
"null","","image-button-response","111","1267837","0.0-110.0","AEGW8HAGURDRY","img_art/21.jpg","null","","","","","","","","","","","","","","","","","","","","","","","","",""
"506","","image-button-response","112","1268347","0.0-111.0","AEGW8HAGURDRY","img_art/21.jpg","2","","","","","","","","","","","","","","","","","","","","","","","","",""
"5900","","image-button-response","113","1274251","0.0-112.0-0.0","AEGW8HAGURDRY","img_art/21.jpg","3","","","","","","","","","","","","","","","","","","","","","","","","",""
"1556","","image-button-response","114","1275811","0.0-113.0-0.0","AEGW8HAGURDRY","img_art/21.jpg","5","","","","","","","","","","","","","","","","","","","","","","","","",""
"null","","html-keyboard-response","115","1276313","0.0-114.0","AEGW8HAGURDRY","<p style=""font-size: 48px;"">+</p>","","","","","null","allTrialResponses","500","1","10","img_art/21.jpg","-38","The colors are good, but that's it.","Erica,Danielle,Marissa,Jasmine,Jamie,Stephanie","Relaxing and easy to look at,27,80,20","I like it. It's some of war-scene, bloodshed and battle on the left, field of dispair on the right, dark and rich,40,340,20","I feel confused,-18,160,20","The blues make me feel sadder as my mood is already not the best right now,-10,340,20","Contrast of fire and water looks cool,20,320,20","A battle at sea, the red is a bomb exploding.,-31,300,20","Marissa","I feel confused,-18,160,20","Jasmine","The blues make me feel sadder as my mood is already not the best right now,-10,340,20","Stephanie","A battle at sea, the red is a bomb exploding.,-31,300,20","2"
"6620","","survey-text","116","1282945","0.0-115.0-0.0","AEGW8HAGURDRY","","","","{""Q0"":""our""}","","","","","","","","","","","","","","","","","","","","","","",""
"28926","","survey-text","117","1311874","0.0-116.0-0.0","AEGW8HAGURDRY","","","","{""Q0"":""Looks like fireworks. It's fine I guess.""}","","","","","","","","","","","","","","","","","","","","","","",""
"4448.700000286102","","image-slider-response","118","1316325","0.0-117.0","AEGW8HAGURDRY","","","","","-33","","","","","","","","","","","","","","","","","","","","","",""
"null","","image-button-response","119","1321328","0.0-118.0","AEGW8HAGURDRY","img_art/23.jpg","null","","","","","","","","","","","","","","","","","","","","","","","","",""
"709","","image-button-response","120","1322040","0.0-119.0","AEGW8HAGURDRY","img_art/23.jpg","0","","","","","","","","","","","","","","","","","","","","","","","","",""
"3219","","image-button-response","121","1325262","0.0-120.0-0.0","AEGW8HAGURDRY","img_art/23.jpg","0","","","","","","","","","","","","","","","","","","","","","","","","",""
"4412","","image-button-response","122","1332140","0.0-120.1-0.1","AEGW8HAGURDRY","img_art/23.jpg","3","","","","","","","","","","","","","","","","","","","","","","","","",""
"3425","","image-button-response","123","1335570","0.0-121.0-0.0","AEGW8HAGURDRY","img_art/23.jpg","5","","","","","","","","","","","","","","","","","","","","","","","","",""
"null","","html-keyboard-response","124","1337073","0.0-122.0","AEGW8HAGURDRY","<p style=""font-size: 48px;"">+</p>","","","","","null","allTrialResponses","1500","1","11","img_art/23.jpg","-33","Looks like fireworks. It's fine I guess.","Angela,Erika,Marissa,Jasmine,Sara,Stephanie","Like the background colors and the energy, but the white bits ruin it for me,-7,260,20","Very intense and unique,3,100,20","It feels exciting,23,160,20","Mostly neutral but a bit too guady with the brash colors,-6,340,20","Beautiful color scheme,21,160,20","This makes me think of an orchestra playing a forth of july song,12,300,20","Angela","Like the background colors and the energy, but the white bits ruin it for me,-7,260,20","Jasmine","Mostly neutral but a bit too guady with the brash colors,-6,340,20","Stephanie","This makes me think of an orchestra playing a forth of july song,12,300,20","4"
"37147","","survey-text","125","1374227","0.0-123.0-0.0","AEGW8HAGURDRY","","","","{""Q0"":""Could possibly cure insomnia?""}","","","","","","","","","","","","","","","","","","","","","","",""
"7452","","image-slider-response","126","1381681","0.0-124.0","AEGW8HAGURDRY","","","","","-43","","","","","","","","","","","","","","","","","","","","","",""
"2795","","image-button-response","127","1386686","0.0-125.0","AEGW8HAGURDRY","img_art/5.jpg","1","","","","","","","","","","","","","","","","","","","","","","","","",""
"3599","","image-button-response","128","1390290","0.0-126.0","AEGW8HAGURDRY","img_art/5.jpg","2","","","","","","","","","","","","","","","","","","","","","","","","",""
"5259","","image-button-response","129","1395554","0.0-127.0-0.0","AEGW8HAGURDRY","img_art/5.jpg","3","","","","","","","","","","","","","","","","","","","","","","","","",""
"2040","","image-button-response","130","1397598","0.0-128.0-0.0","AEGW8HAGURDRY","img_art/5.jpg","5","","","","","","","","","","","","","","","","","","","","","","","","",""
"null","","html-keyboard-response","131","1399101","0.0-129.0","AEGW8HAGURDRY","<p style=""font-size: 48px;"">+</p>","","","","","null","allTrialResponses","1500","1","12","img_art/5.jpg","-43","Could possibly cure insomnia?","Angela,Grace,Maria,Jasmine,Melissa,Stephanie","I really dislike this. It's ugly and looks dirty.,-44,260,20","Looks like a yellow plastic trash bag.,-42,180,20","this feels like something I should like, but I'm not feeling the execution,-10,120,20","Not sure what to say about this piece honestly. It's okay I guess.,0,340,20","strong appeal in contrast,27,240,20","This did not do a thing for me.,-50,300,20","Maria","this feels like something I should like, but I'm not feeling the execution,-10,120,20","Jasmine","Not sure what to say about this piece honestly. It's okay I guess.,0,340,20","Stephanie","This did not do a thing for me.,-50,300,20","4"
"40980","","survey-text","132","1440091","0.0-130.0-0.0","AEGW8HAGURDRY","","","","{""Q0"":""Lots of little details and good colors.""}","","","","","","","","","","","","","","","","","","","","","","",""
"5376.89999961853","","image-slider-response","133","1445470","0.0-131.0","AEGW8HAGURDRY","","","","","33","","","","","","","","","","","","","","","","","","","","","",""
"4076","","image-button-response","134","1450474","0.0-132.0","AEGW8HAGURDRY","img_art/18.jpg","2","","","","","","","","","","","","","","","","","","","","","","","","",""
"6159","","image-button-response","135","1456637","0.0-133.0","AEGW8HAGURDRY","img_art/18.jpg","0","","","","","","","","","","","","","","","","","","","","","","","","",""
"3429","","image-button-response","136","1460069","0.0-134.0-0.0","AEGW8HAGURDRY","img_art/18.jpg","5","","","","","","","","","","","","","","","","","","","","","","","","",""
"2405","","image-button-response","137","1462479","0.0-135.0-0.0","AEGW8HAGURDRY","img_art/18.jpg","1","","","","","","","","","","","","","","","","","","","","","","","","",""
"null","","html-keyboard-response","138","1463983","0.0-136.0","AEGW8HAGURDRY","<p style=""font-size: 48px;"">+</p>","","","","","null","allTrialResponses","1500","1","13","img_art/18.jpg","33","Lots of little details and good colors.","Natalie,Tiffany,Maria,Jasmine,Sierra,Stephanie","my response to the picture is a little bit of anxiety but I like the detail,16,400,20","I'm mildly disgusted by the colors, and can't piece together the story the figures are trying to tell.,-10,360,20","enjoy the juxtaposition of abstract with tangible elements & the use of color,10,120,20","I feel indifferent about this one,0,340,20","it looks like people,9,260,20","It made me think of a car crash,-39,300,20","Natalie","my response to the picture is a little bit of anxiety but I like the detail,16,400,20","Stephanie","It made me think of a car crash,-39,300,20","Tiffany","I'm mildly disgusted by the colors, and can't piece together the story the figures are trying to tell.,-10,360,20","4"
"32148","","survey-text","139","1496138","0.0-137.0-0.0","AEGW8HAGURDRY","","","","{""Q0"":""It's making me carsick. The repeating patterns are way too much.""}","","","","","","","","","","","","","","","","","","","","","","",""
"5150.89999961853","","image-slider-response","140","1501291","0.0-138.0","AEGW8HAGURDRY","","","","","-50","","","","","","","","","","","","","","","","","","","","","",""
"4894","","image-button-response","141","1506295","0.0-139.0","AEGW8HAGURDRY","img_art/12.jpg","1","","","","","","","","","","","","","","","","","","","","","","","","",""
"5824","","image-button-response","142","1512122","0.0-140.0","AEGW8HAGURDRY","img_art/12.jpg","0","","","","","","","","","","","","","","","","","","","","","","","","",""
"6219","","image-button-response","143","1518346","0.0-141.0-0.0","AEGW8HAGURDRY","img_art/12.jpg","4","","","","","","","","","","","","","","","","","","","","","","","","",""
"4916","","image-button-response","144","1523267","0.0-142.0-0.0","AEGW8HAGURDRY","img_art/12.jpg","1","","","","","","","","","","","","","","","","","","","","","","","","",""
"null","","html-keyboard-response","145","1523771","0.0-143.0","AEGW8HAGURDRY","<p style=""font-size: 48px;"">+</p>","","","","","null","allTrialResponses","500","1","14","img_art/12.jpg","-50","It's making me carsick. The repeating patterns are way too much.","Natalie,Tiffany,Alyssa,Monica,Erin,Stephanie","my reaction is that the picture is wierd,-11,400,20","The painting makes me uncomfortable. The smears in the boxes feel like a giant mess.,-16,360,20","Its cool,reminiscent of Andy Warhol type of style,10,160,20","Reminds me of collages we made in elementary school. I like the contrast of the colors from top to bottom,43,360,20","City scape but palette is odd,4,120,20","I like the pattern to it.,31,300,20","Natalie","my reaction is that the picture is wierd,-11,400,20","Erin","City scape but palette is odd,4,120,20","Tiffany","The painting makes me uncomfortable. The smears in the boxes feel like a giant mess.,-16,360,20","4"
"71453","","survey-text","146","1595233","0.0-144.0-0.0","AEGW8HAGURDRY","","","","{""Q0"":""Reminds me of a Bob Ross painting. Calming and pretty.""}","","","","","","","","","","","","","","","","","","","","","","",""
"5196.699999809265","","image-slider-response","147","1600432","0.0-145.0","AEGW8HAGURDRY","","","","","50","","","","","","","","","","","","","","","","","","","","","",""
"null","","image-button-response","148","1605436","0.0-146.0","AEGW8HAGURDRY","img_art/24.jpg","null","","","","","","","","","","","","","","","","","","","","","","","","",""
"708","","image-button-response","149","1606148","0.0-147.0","AEGW8HAGURDRY","img_art/24.jpg","0","","","","","","","","","","","","","","","","","","","","","","","","",""
"2274","","image-button-response","150","1608426","0.0-148.0-0.0","AEGW8HAGURDRY","img_art/24.jpg","2","","","","","","","","","","","","","","","","","","","","","","","","",""
"5025","","image-button-response","151","1613456","0.0-149.0-0.0","AEGW8HAGURDRY","img_art/24.jpg","5","","","","","","","","","","","","","","","","","","","","","","","","",""
"null","","html-keyboard-response","152","1613963","0.0-150.0","AEGW8HAGURDRY","<p style=""font-size: 48px;"">+</p>","","","","","null","allTrialResponses","500","1","15","img_art/24.jpg","50","Reminds me of a Bob Ross painting. Calming and pretty.","Natalie,Tiffany,Jessica,Shelby,Erin,Katherine","I like the waterfall,22,400,20","I feel relaxed and happy, looking at the stream, but it feels hollow, like something is fake.,5,360,20","Vibrant, beautiful depiction.,50,400,20","Earthy wonderful, love everything about it,50,240,20","Too literal, not abstract,-29,120,20","The combination of nature / realism with abstract colors is unique.,39,120,20","Natalie","I like the waterfall,22,400,20","Jessica","Vibrant, beautiful depiction.,50,400,20","Katherine","The combination of nature / realism with abstract colors is unique.,39,120,20","4"
"6677","","survey-text","153","1620651","0.0-151.0-0.0","AEGW8HAGURDRY","","","","{""Q0"":""course""}","","","","","","","","","","","","","","","","","","","","","","",""
"78844","","survey-text","154","1699498","0.0-152.0-0.0","AEGW8HAGURDRY","","","","{""Q0"":""A kid definitely painted this one.""}","","","","","","","","","","","","","","","","","","","","","","",""
"5166.199999809265","","image-slider-response","155","1704667","0.0-153.0","AEGW8HAGURDRY","","","","","-44","","","","","","","","","","","","","","","","","","","","","",""
"4061","","image-button-response","156","1709670","0.0-154.0","AEGW8HAGURDRY","img_art/9.jpg","0","","","","","","","","","","","","","","","","","","","","","","","","",""
"1519","","image-button-response","157","1711194","0.0-155.0","AEGW8HAGURDRY","img_art/9.jpg","0","","","","","","","","","","","","","","","","","","","","","","","","",""
"2111","","image-button-response","158","1713309","0.0-156.0-0.0","AEGW8HAGURDRY","img_art/9.jpg","3","","","","","","","","","","","","","","","","","","","","","","","","",""
"4557","","image-button-response","159","1717871","0.0-157.0-0.0","AEGW8HAGURDRY","img_art/9.jpg","5","","","","","","","","","","","","","","","","","","","","","","","","",""
"null","","html-keyboard-response","160","1718874","0.0-158.0","AEGW8HAGURDRY","<p style=""font-size: 48px;"">+</p>","","","","","null","allTrialResponses","1000","1","16","img_art/9.jpg","-44","A kid definitely painted this one.","Natalie,Allison,Jessica,Lindsey,Brianna,Katherine","Gives me anxiety,-23,400,20","Very eclectic and messy. Not my preference, but may work for some.,-20,140,20","So I don't really like this style but it looks somewhat okay,3,400,20","Looks like my niece's doodles.,-50,400,20","This has some of my favorite colors, and I like it,21,20,20","Idk what is in the middle but the blurry image makes it seem like the subject is of the painters interest,22,120,20","Natalie","Gives me anxiety,-23,400,20","Lindsey","Looks like my niece's doodles.,-50,400,20","Katherine","Idk what is in the middle but the blurry image makes it seem like the subject is of the painters interest,22,120,20","4"
"52808","","survey-text","161","1771690","0.0-159.0-0.0","AEGW8HAGURDRY","","","","{""Q0"":""Bizarre and dream-like,""}","","","","","","","","","","","","","","","","","","","","","","",""
"5767.10000038147","","image-slider-response","162","1777460","0.0-160.0","AEGW8HAGURDRY","","","","","40","","","","","","","","","","","","","","","","","","","","","",""
"null","","image-button-response","163","1782466","0.0-161.0","AEGW8HAGURDRY","img_art/16.jpg","null","","","","","","","","","","","","","","","","","","","","","","","","",""
"6071","","image-button-response","164","1788541","0.0-162.0","AEGW8HAGURDRY","img_art/16.jpg","5","","","","","","","","","","","","","","","","","","","","","","","","",""
"2179","","image-button-response","165","1790725","0.0-163.0-0.0","AEGW8HAGURDRY","img_art/16.jpg","2","","","","","","","","","","","","","","","","","","","","","","","","",""
"1391","","image-button-response","166","1792121","0.0-164.0-0.0","AEGW8HAGURDRY","img_art/16.jpg","1","","","","","","","","","","","","","","","","","","","","","","","","",""
"null","","html-keyboard-response","167","1792623","0.0-165.0","AEGW8HAGURDRY","<p style=""font-size: 48px;"">+</p>","","","","","null","allTrialResponses","500","1","17","img_art/16.jpg","40","Bizarre and dream-like,","Natalie,Angelica,Cassandra,Lindsey,Shannon,Katherine","my reaction is that the picture is creepy,-19,400,20","This is creepy and puerile.,-45,280,20","I like the teddy bear,but a neutral feeling,5,120,20","It's depressing. Probably achieved its goal. But I wouldn't want it hanging in my home.,-31,400,20","I think this picture is weird and the colors are very boring.,-50,220,20","Super weird. Id like to know more about it,24,120,20","Katherine","Super weird. Id like to know more about it,24,120,20","Cassandra","I like the teddy bear,but a neutral feeling,5,120,20","Angelica","This is creepy and puerile.,-45,280,20","4"
"51582","","survey-text","168","1844213","0.0-166.0-0.0","AEGW8HAGURDRY","","","","{""Q0"":""Dull as a doorknob.""}","","","","","","","","","","","","","","","","","","","","","","",""
"3663.699999809265","","image-slider-response","169","1847880","0.0-167.0","AEGW8HAGURDRY","","","","","-50","","","","","","","","","","","","","","","","","","","","","",""
"3802","","image-button-response","170","1852885","0.0-168.0","AEGW8HAGURDRY","img_art/3.jpg","2","","","","","","","","","","","","","","","","","","","","","","","","",""
"1189","","image-button-response","171","1854079","0.0-169.0","AEGW8HAGURDRY","img_art/3.jpg","2","","","","","","","","","","","","","","","","","","","","","","","","",""
"11055","","image-button-response","172","1865137","0.0-170.0-0.0","AEGW8HAGURDRY","img_art/3.jpg","0","","","","","","","","","","","","","","","","","","","","","","","","",""
"8470","","image-button-response","173","1873613","0.0-171.0-0.0","AEGW8HAGURDRY","img_art/3.jpg","5","","","","","","","","","","","","","","","","","","","","","","","","",""
"null","","html-keyboard-response","174","1874616","0.0-172.0","AEGW8HAGURDRY","<p style=""font-size: 48px;"">+</p>","","","","","null","allTrialResponses","1000","1","18","img_art/3.jpg","-50","Dull as a doorknob.","Samantha,Angelica,Cassandra,Katie,Mary,Katherine","Too angry and scribbly,-43,140,20","This is angry and childish looking.,-49,280,20","I hate this...just a scribble of red.,-50,120,20","Messy. Looks like a children's drawing being passed off as expensive art. Too much red.,-50,160,20","I usually don't like red. Red in this angry piece is very fitting.,19,180,20","Too much red! Reminds me of blood. I hate blood.,-34,120,20","Cassandra","I hate this...just a scribble of red.,-50,120,20","Samantha","Too angry and scribbly,-43,140,20","Katherine","Too much red! Reminds me of blood. I hate blood.,-34,120,20","4"
"119694","","survey-text","175","1994318","0.0-173.0-0.0","AEGW8HAGURDRY","","","","{""Q0"":""Just smears of paint, nothing special.""}","","","","","","","","","","","","","","","","","","","","","","",""
"3600.7999997138977","","image-slider-response","176","1997922","0.0-174.0","AEGW8HAGURDRY","","","","","-50","","","","","","","","","","","","","","","","","","","","","",""
"null","","image-button-response","177","2002925","0.0-175.0","AEGW8HAGURDRY","img_art/30.jpg","null","","","","","","","","","","","","","","","","","","","","","","","","",""
"936","","image-button-response","178","2003865","0.0-176.0","AEGW8HAGURDRY","img_art/30.jpg","0","","","","","","","","","","","","","","","","","","","","","","","","",""
"2429","","image-button-response","179","2006297","0.0-177.0-0.0","AEGW8HAGURDRY","img_art/30.jpg","3","","","","","","","","","","","","","","","","","","","","","","","","",""
"3709","","image-button-response","180","2010011","0.0-178.0-0.0","AEGW8HAGURDRY","img_art/30.jpg","2","","","","","","","","","","","","","","","","","","","","","","","","",""
"null","","html-keyboard-response","181","2011514","0.0-179.0","AEGW8HAGURDRY","<p style=""font-size: 48px;"">+</p>","","","","","null","allTrialResponses","1500","1","19","img_art/30.jpg","-50","Just smears of paint, nothing special.","Samantha,Alexandra,Cassandra,Kimberly,Courtney,Katherine","Too much like childrens finger paint. I dont like the smear of blended colors,-50,140,20","I really love the pastel colors and the 3D design in this,43,60,20","I didn't like this...it looks like someone just finger painted it.,-10,120,20","looks like eels,-20,260,20","Some people dancing.,-7,280,20","For some reason I like the red in this one. Maybe it's the style of lines/blurs,46,120,20","Samantha","Too much like childrens finger paint. I dont like the smear of blended colors,-50,140,20","Kimberly","looks like eels,-20,260,20","Cassandra","I didn't like this...it looks like someone just finger painted it.,-10,120,20","4"
"37434","","survey-text","182","2048957","0.0-180.0-0.0","AEGW8HAGURDRY","","","","{""Q0"":""It's cute with soft colors.""}","","","","","","","","","","","","","","","","","","","","","","",""
"3601.1000003814697","","image-slider-response","183","2052561","0.0-181.0","AEGW8HAGURDRY","","","","","31","","","","","","","","","","","","","","","","","","","","","",""
"3482","","image-button-response","184","2057565","0.0-182.0","AEGW8HAGURDRY","img_art/26.jpg","0","","","","","","","","","","","","","","","","","","","","","","","","",""
"6143","","image-button-response","185","2063713","0.0-183.0","AEGW8HAGURDRY","img_art/26.jpg","5","","","","","","","","","","","","","","","","","","","","","","","","",""
"2227","","image-button-response","186","2065944","0.0-184.0-0.0","AEGW8HAGURDRY","img_art/26.jpg","3","","","","","","","","","","","","","","","","","","","","","","","","",""
"2178","","image-button-response","187","2068125","0.0-185.0-0.0","AEGW8HAGURDRY","img_art/26.jpg","0","","","","","","","","","","","","","","","","","","","","","","","","",""
"null","","html-keyboard-response","188","2068627","0.0-186.0","AEGW8HAGURDRY","<p style=""font-size: 48px;"">+</p>","","","","","null","allTrialResponses","500","1","20","img_art/26.jpg","31","It's cute with soft colors.","Samantha,Victoria,Cassandra,Kimberly,Cynthia,Haley","I like the colors and trees. Seems cheap vintage retail store art but i love it anyways,50,140,20","feels a tad old,30,400,20","Neutral...nothing to say.,3,120,20","It looks like I'm staring out of the window of a nice house, but the house is mine,20,260,20","dull and boring,-6,320,20","It feels almost unfinished, but I like the color palette,9,220,20","Haley","It feels almost unfinished, but I like the color palette,9,220,20","Kimberly","It looks like I'm staring out of the window of a nice house, but the house is mine,20,260,20","Samantha","I like the colors and trees. Seems cheap vintage retail store art but i love it anyways,50,140,20","4"
"4081","","survey-text","189","2072726","0.0-187.0-0.0","AEGW8HAGURDRY","","","","{""Q0"":""we""}","","","","","","","","","","","","","","","","","","","","","","",""
"65828","","survey-text","190","2138555","0.0-188.0-0.0","AEGW8HAGURDRY","","","","{""Q0"":""It's ok. ""}","","","","","","","","","","","","","","","","","","","","","","",""
"4341.800000190735","","image-slider-response","191","2142899","0.0-189.0","AEGW8HAGURDRY","","","","","-47","","","","","","","","","","","","","","","","","","","","","",""
"null","","image-button-response","192","2147903","0.0-190.0","AEGW8HAGURDRY","img_art/15.jpg","null","","","","","","","","","","","","","","","","","","","","","","","","",""
"1855","","image-button-response","193","2149763","0.0-191.0","AEGW8HAGURDRY","img_art/15.jpg","1","","","","","","","","","","","","","","","","","","","","","","","","",""
"1448","","image-button-response","194","2151214","0.0-192.0-0.0","AEGW8HAGURDRY","img_art/15.jpg","0","","","","","","","","","","","","","","","","","","","","","","","","",""
"1462","","image-button-response","195","2152681","0.0-193.0-0.0","AEGW8HAGURDRY","img_art/15.jpg","2","","","","","","","","","","","","","","","","","","","","","","","","",""
"null","","html-keyboard-response","196","2154185","0.0-194.0","AEGW8HAGURDRY","<p style=""font-size: 48px;"">+</p>","","","","","null","allTrialResponses","1500","1","21","img_art/15.jpg","-47","It's ok. ","Samantha,Alicia,Gabriela,Kimberly,Sabrina,Haley","Not interesting enough. Boring,-37,140,20","It's ok, it makes me think. That's something I guess.,8,120,20","it is dark and gloomy,-9,140,20","it looks like lavender,10,260,20","Extreme darkness and sadness,-30,120,20","Interesting, and I don't dislike it.,9,220,20","Alicia","It's ok, it makes me think. That's something I guess.,8,120,20","Samantha","Not interesting enough. Boring,-37,140,20","Gabriela","it is dark and gloomy,-9,140,20","4"
"37245","","survey-text","197","2191439","0.0-195.0-0.0","AEGW8HAGURDRY","","","","{""Q0"":""Love the teal blue, and the details are interesting.""}","","","","","","","","","","","","","","","","","","","","","","",""
"4965.39999961853","","image-slider-response","198","2196407","0.0-196.0","AEGW8HAGURDRY","","","","","37","","","","","","","","","","","","","","","","","","","","","",""
"null","","image-button-response","199","2201414","0.0-197.0","AEGW8HAGURDRY","img_art/13.jpg","null","","","","","","","","","","","","","","","","","","","","","","","","",""
"215","","image-button-response","200","2201632","0.0-198.0","AEGW8HAGURDRY","img_art/13.jpg","0","","","","","","","","","","","","","","","","","","","","","","","","",""
"2157","","image-button-response","201","2203793","0.0-199.0-0.0","AEGW8HAGURDRY","img_art/13.jpg","3","","","","","","","","","","","","","","","","","","","","","","","","",""
"2023","","image-button-response","202","2205820","0.0-200.0-0.0","AEGW8HAGURDRY","img_art/13.jpg","4","","","","","","","","","","","","","","","","","","","","","","","","",""
"null","","html-keyboard-response","203","2206826","0.0-201.0","AEGW8HAGURDRY","<p style=""font-size: 48px;"">+</p>","","","","","null","allTrialResponses","1000","1","22","img_art/13.jpg","37","Love the teal blue, and the details are interesting.","Samantha,Alicia,Gabriela,Alexis,Cheyenne,Mackenzie","Nice colors. beautiful blue,50,140,20","meh, 80's. retro,-9,120,20","It looks too common, is a bit boring,-41,140,20","Simple, but pleasing. The blue gradient is a favorite of mine,32,100,20","Like how realistic it looks.,33,200,20","I enjoy the cool colors mixed together,31,20,20","Samantha","Nice colors. beautiful blue,50,140,20","Alexis","Simple, but pleasing. The blue gradient is a favorite of mine,32,100,20","Cheyenne","Like how realistic it looks.,33,200,20","4"
"34304","","survey-text","204","2241138","0.0-202.0-0.0","AEGW8HAGURDRY","","","","{""Q0"":""Bizarre dreamscape.""}","","","","","","","","","","","","","","","","","","","","","","",""
"4981","","image-slider-response","205","2246122","0.0-203.0","AEGW8HAGURDRY","","","","","-37","","","","","","","","","","","","","","","","","","","","","",""
"3555","","image-button-response","206","2251127","0.0-204.0","AEGW8HAGURDRY","img_art/28.jpg","0","","","","","","","","","","","","","","","","","","","","","","","","",""
"2236","","image-button-response","207","2253367","0.0-205.0","AEGW8HAGURDRY","img_art/28.jpg","0","","","","","","","","","","","","","","","","","","","","","","","","",""
"3399","","image-button-response","208","2256769","0.0-206.0-0.0","AEGW8HAGURDRY","img_art/28.jpg","4","","","","","","","","","","","","","","","","","","","","","","","","",""
"7195","","image-button-response","209","2263969","0.0-207.0-0.0","AEGW8HAGURDRY","img_art/28.jpg","3","","","","","","","","","","","","","","","","","","","","","","","","",""
"null","","html-keyboard-response","210","2264973","0.0-208.0","AEGW8HAGURDRY","<p style=""font-size: 48px;"">+</p>","","","","","null","allTrialResponses","1000","1","23","img_art/28.jpg","-37","Bizarre dreamscape.","Samantha,Crystal,Jordan,Alexis,Cheyenne,Caroline","Interesting and weird. Perfect conversational piece,33,140,20","I like the flow and abstract nature of what seems to be humans,40,300,20","It's a bike that was left abandoned by someone who doesnt care for it,1,20,20","Interesting. I like the ""old woman"" on the left. Lots of different entities to look at,21,100,20","Good use of shapes.,7,200,20","Colors are pleasing. Made me think of two people kneeling and talking. A curious feeling.,15,100,20","Samantha","Interesting and weird. Perfect conversational piece,33,140,20","Cheyenne","Good use of shapes.,7,200,20","Alexis","Interesting. I like the ""old woman"" on the left. Lots of different entities to look at,21,100,20","4"
"38130","","survey-text","211","2303113","0.0-209.0-0.0","AEGW8HAGURDRY","","","","{""Q0"":""Busy city on a gloomy day. Good use of color.""}","","","","","","","","","","","","","","","","","","","","","","",""
"4848.700000286102","","image-slider-response","212","2307964","0.0-210.0","AEGW8HAGURDRY","","","","","44","","","","","","","","","","","","","","","","","","","","","",""
"4145","","image-button-response","213","2312969","0.0-211.0","AEGW8HAGURDRY","img_art/11.jpg","2","","","","","","","","","","","","","","","","","","","","","","","","",""
"1917","","image-button-response","214","2314890","0.0-212.0","AEGW8HAGURDRY","img_art/11.jpg","2","","","","","","","","","","","","","","","","","","","","","","","","",""
"1728","","image-button-response","215","2316622","0.0-213.0-0.0","AEGW8HAGURDRY","img_art/11.jpg","1","","","","","","","","","","","","","","","","","","","","","","","","",""
"1540","","image-button-response","216","2318165","0.0-214.0-0.0","AEGW8HAGURDRY","img_art/11.jpg","0","","","","","","","","","","","","","","","","","","","","","","","","",""
"null","","html-keyboard-response","217","2318669","0.0-215.0","AEGW8HAGURDRY","<p style=""font-size: 48px;"">+</p>","","","","","null","allTrialResponses","500","1","24","img_art/11.jpg","44","Busy city on a gloomy day. Good use of color.","Samantha,Vanessa,Sydney,Alexis,Cheyenne,Leah","Love the colors and flow,50,140,20","It makes me think of a rainy day and I like the colors. Also like the wavy lines.,22,380,20","I don't like the gloomy color, but it reminds me of a city which I like.,35,320,20","Don't like cityscapes, which this picture reminds me of,-29,100,20","Very good use of colors,44,200,20","Even with the colors, it is dreary to me,-32,360,20","Sydney","I don't like the gloomy color, but it reminds me of a city which I like.,35,320,20","Vanessa","It makes me think of a rainy day and I like the colors. Also like the wavy lines.,22,380,20","Samantha","Love the colors and flow,50,140,20","4"
"44866","","survey-text","218","2363545","0.0-216.0-0.0","AEGW8HAGURDRY","","","","{""Q0"":""Looks like someone spilled a bunch of paint.""}","","","","","","","","","","","","","","","","","","","","","","",""
"3747.199999809265","","image-slider-response","219","2367295","0.0-217.0","AEGW8HAGURDRY","","","","","-50","","","","","","","","","","","","","","","","","","","","","",""
"null","","image-button-response","220","2372300","0.0-218.0","AEGW8HAGURDRY","img_art/2.jpg","null","","","","","","","","","","","","","","","","","","","","","","","","",""
"4225","","image-button-response","221","2376530","0.0-219.0","AEGW8HAGURDRY","img_art/2.jpg","4","","","","","","","","","","","","","","","","","","","","","","","","",""
"1626","","image-button-response","222","2378160","0.0-220.0-0.0","AEGW8HAGURDRY","img_art/2.jpg","5","","","","","","","","","","","","","","","","","","","","","","","","",""
"2577","","image-button-response","223","2380741","0.0-221.0-0.0","AEGW8HAGURDRY","img_art/2.jpg","1","","","","","","","","","","","","","","","","","","","","","","","","",""
"null","","html-keyboard-response","224","2381244","0.0-222.0","AEGW8HAGURDRY","<p style=""font-size: 48px;"">+</p>","","","","","null","allTrialResponses","500","1","25","img_art/2.jpg","-50","Looks like someone spilled a bunch of paint.","Samantha,Vanessa,Sydney,Ashley,Christina,Andrea","Cute and happy,22,140,20","I don't like the abstract nature of this painting or the colors used.,-50,380,20","I like the color, but I feel like I see a creepy face which I dislike.,-5,320,20","I think I can make out a face in there.,25,320,20","It looks like a little kids primary color picture,3,240,20","It feels like a party and Moulin Rouge.,20,240,20","Christina","It looks like a little kids primary color picture,3,240,20","Andrea","It feels like a party and Moulin Rouge.,20,240,20","Vanessa","I don't like the abstract nature of this painting or the colors used.,-50,380,20","4"
"5478","","survey-text","225","2386738","0.0-223.0-0.0","AEGW8HAGURDRY","","","","{""Q0"":""table""}","","","","","","","","","","","","","","","","","","","","","","",""
"76268","","survey-text","226","2463008","0.0-224.0-0.0","AEGW8HAGURDRY","","","","{""Q0"":""Quiet and calming with good colors.""}","","","","","","","","","","","","","","","","","","","","","","",""
"4730.10000038147","","image-slider-response","227","2467742","0.0-225.0","AEGW8HAGURDRY","","","","","46","","","","","","","","","","","","","","","","","","","","","",""
"null","","image-button-response","228","2472745","0.0-226.0","AEGW8HAGURDRY","img_art/20.jpg","null","","","","","","","","","","","","","","","","","","","","","","","","",""
"570","","image-button-response","229","2473320","0.0-227.0","AEGW8HAGURDRY","img_art/20.jpg","5","","","","","","","","","","","","","","","","","","","","","","","","",""
"4558","","image-button-response","230","2477883","0.0-228.0-0.0","AEGW8HAGURDRY","img_art/20.jpg","3","","","","","","","","","","","","","","","","","","","","","","","","",""
"3059","","image-button-response","231","2480947","0.0-229.0-0.0","AEGW8HAGURDRY","img_art/20.jpg","2","","","","","","","","","","","","","","","","","","","","","","","","",""
"null","","html-keyboard-response","232","2481953","0.0-230.0","AEGW8HAGURDRY","<p style=""font-size: 48px;"">+</p>","","","","","null","allTrialResponses","1000","1","26","img_art/20.jpg","46","Quiet and calming with good colors.","Amanda,Vanessa,Emma,Kayla,Christina,Andrea","Too negative looks like a car and plane crash,-50,180,20","I like the deep blues, but I don't like the way this picture makes me feel.,-13,380,20","I like the distortion of the objects, good colors,20,60,20","Something fell over and is burning, but it's kinda dope, you know?,14,180,20","it looks like a piccasso knock off,-23,240,20","Reminds me of persistance of time (a favorite of mine).,30,240,20","Andrea","Reminds me of persistance of time (a favorite of mine).,30,240,20","Kayla","Something fell over and is burning, but it's kinda dope, you know?,14,180,20","Emma","I like the distortion of the objects, good colors,20,60,20","4"
"36790","","survey-text","233","2518753","0.0-231.0-0.0","AEGW8HAGURDRY","","","","{""Q0"":""Not a fan of patterns, but the colors are ok.""}","","","","","","","","","","","","","","","","","","","","","","",""
"3569.0999999046326","","image-slider-response","234","2522324","0.0-232.0","AEGW8HAGURDRY","","","","","-46","","","","","","","","","","","","","","","","","","","","","",""
"null","","image-button-response","235","2527331","0.0-233.0","AEGW8HAGURDRY","img_art/22.jpg","null","","","","","","","","","","","","","","","","","","","","","","","","",""
"1354","","image-button-response","236","2528688","0.0-234.0","AEGW8HAGURDRY","img_art/22.jpg","3","","","","","","","","","","","","","","","","","","","","","","","","",""
"1159","","image-button-response","237","2529851","0.0-235.0-0.0","AEGW8HAGURDRY","img_art/22.jpg","4","","","","","","","","","","","","","","","","","","","","","","","","",""
"1400","","image-button-response","238","2531255","0.0-236.0-0.0","AEGW8HAGURDRY","img_art/22.jpg","5","","","","","","","","","","","","","","","","","","","","","","","","",""
"null","","html-keyboard-response","239","2531759","0.0-237.0","AEGW8HAGURDRY","<p style=""font-size: 48px;"">+</p>","","","","","null","allTrialResponses","500","1","27","img_art/22.jpg","-46","Not a fan of patterns, but the colors are ok.","Paige,Dominique,Emma,Kayla,Kelsey,Andrea","Happy. I like to colors,33,60,20","Can fit with anyone. And in any home a great piece of art,35,400,20","Love the use of color,50,60,20","I don't like that it looks like a person is there upside down.,-16,180,20","its messy, like a child painted it,-14,240,20","I don't feel much of anything.,0,240,20","Kayla","I don't like that it looks like a person is there upside down.,-16,180,20","Kelsey","its messy, like a child painted it,-14,240,20","Andrea","I don't feel much of anything.,0,240,20","4"
"23858","","survey-text","240","2555628","0.0-238.0-0.0","AEGW8HAGURDRY","","","","{""Q0"":""Creeps me out, but there's a lot of good detail.""}","","","","","","","","","","","","","","","","","","","","","","",""
"5722.599999904633","","image-slider-response","241","2561353","0.0-239.0","AEGW8HAGURDRY","","","","","-13","","","","","","","","","","","","","","","","","","","","","",""
"3506","","image-button-response","242","2566361","0.0-240.0","AEGW8HAGURDRY","img_art/8.jpg","0","","","","","","","","","","","","","","","","","","","","","","","","",""
"1205","","image-button-response","243","2567570","0.0-241.0","AEGW8HAGURDRY","img_art/8.jpg","1","","","","","","","","","","","","","","","","","","","","","","","","",""
"3054","","image-button-response","244","2570627","0.0-242.0-0.0","AEGW8HAGURDRY","img_art/8.jpg","2","","","","","","","","","","","","","","","","","","","","","","","","",""
"1173","","image-button-response","245","2571805","0.0-243.0-0.0","AEGW8HAGURDRY","img_art/8.jpg","3","","","","","","","","","","","","","","","","","","","","","","","","",""
"null","","html-keyboard-response","246","2572812","0.0-244.0","AEGW8HAGURDRY","<p style=""font-size: 48px;"">+</p>","","","","","null","allTrialResponses","1000","1","28","img_art/8.jpg","-13","Creeps me out, but there's a lot of good detail.","Elizabeth,Briana,Kaitlyn,Kayla,Kelsey,Andrea","Very unique and different,31,20,20","Its abstract and interesting,24,400,20","There are a lot of different interesting elements in the picture.,12,80,20","The faces are kinda freaky.,-17,180,20","i like all the different faces,19,240,20","The face makes me think its a statement of the almighty of big brother watching us. onfuCsion limits my enjoyment.,6,240,20","Briana","Its abstract and interesting,24,400,20","Kaitlyn","There are a lot of different interesting elements in the picture.,12,80,20","Kayla","The faces are kinda freaky.,-17,180,20","4"
"45216","","survey-text","247","2618036","0.0-245.0-0.0","AEGW8HAGURDRY","","","","{""Q0"":""Lots of layers and a calming air to it.""}","","","","","","","","","","","","","","","","","","","","","","",""
"4084","","image-slider-response","248","2622122","0.0-246.0","AEGW8HAGURDRY","","","","","50","","","","","","","","","","","","","","","","","","","","","",""
"2086","","image-button-response","249","2627129","0.0-247.0","AEGW8HAGURDRY","img_art/17.jpg","2","","","","","","","","","","","","","","","","","","","","","","","","",""
"354","","image-button-response","250","2627487","0.0-248.0","AEGW8HAGURDRY","img_art/17.jpg","0","","","","","","","","","","","","","","","","","","","","","","","","",""
"6752","","image-button-response","251","2634243","0.0-249.0-0.0","AEGW8HAGURDRY","img_art/17.jpg","3","","","","","","","","","","","","","","","","","","","","","","","","",""
"1539","","image-button-response","252","2635787","0.0-250.0-0.0","AEGW8HAGURDRY","img_art/17.jpg","2","","","","","","","","","","","","","","","","","","","","","","","","",""
"null","","html-keyboard-response","253","2636793","0.0-251.0","AEGW8HAGURDRY","<p style=""font-size: 48px;"">+</p>","","","","","null","allTrialResponses","1000","1","29","img_art/17.jpg","50","Lots of layers and a calming air to it.","Nicole,Briana,Kaitlyn,Kayla,Olivia,Rebecca","Feels nostalgic somehow,31,20,20","It looks unfinished,-7,400,20","Very beautiful,19,80,20","I like the way the forest is taking over the buildings.,21,180,20","muted tones brings me down,-13,40,20","tree sprouting out of a box (house) the invasion of nature?,39,100,20","Nicole","Feels nostalgic somehow,31,20,20","Kayla","I like the way the forest is taking over the buildings.,21,180,20","Kaitlyn","Very beautiful,19,80,20","4"
"36927","","survey-text","254","2673731","0.0-252.0-0.0","AEGW8HAGURDRY","","","","{""Q0"":""Weird and ugly.""}","","","","","","","","","","","","","","","","","","","","","","",""
"3077.2000002861023","","image-slider-response","255","2676810","0.0-253.0","AEGW8HAGURDRY","","","","","-50","","","","","","","","","","","","","","","","","","","","","",""
"null","","image-button-response","256","2681817","0.0-254.0","AEGW8HAGURDRY","img_art/29.jpg","null","","","","","","","","","","","","","","","","","","","","","","","","",""
"6998","","image-button-response","257","2688818","0.0-255.0","AEGW8HAGURDRY","img_art/29.jpg","2","","","","","","","","","","","","","","","","","","","","","","","","",""
"1585","","image-button-response","258","2690407","0.0-256.0-0.0","AEGW8HAGURDRY","img_art/29.jpg","1","","","","","","","","","","","","","","","","","","","","","","","","",""
"2734","","image-button-response","259","2693146","0.0-257.0-0.0","AEGW8HAGURDRY","img_art/29.jpg","4","","","","","","","","","","","","","","","","","","","","","","","","",""
"null","","html-keyboard-response","260","2693648","0.0-258.0","AEGW8HAGURDRY","<p style=""font-size: 48px;"">+</p>","","","","","null","allTrialResponses","500","1","30","img_art/29.jpg","-50","Weird and ugly.","Nicole,Sarah,Kaitlyn,Kayla,Kristen,Anna","This one feels scary in a good way,30,20,20","it's interesting but not my style,9,180,20","I do not like the red x present in the picture,-6,80,20","It looks like graffiti in a subway tunnel- destruction.,-20,180,20","danger, crime scene,,10,280,20","I like the texture and colors and how it makes me feel. I like how it's different from other abstract art.,45,300,20","Kaitlyn","I do not like the red x present in the picture,-6,80,20","Sarah","it's interesting but not my style,9,180,20","Kristen","danger, crime scene,,10,280,20","4"
"7032","","image-button-response_instructions","261","2700687","0.0-259.0","AEGW8HAGURDRY","","0","instructions","","","","","","","","","","","","","","","","","","","","","","","",""
"2223","","image-button-response","262","2702919","0.0-260.0","AEGW8HAGURDRY","","0","","","","","","","","","","","","","","","","","","","","","","","","",""
