"rt","url","trial_type","trial_index","time_elapsed","internal_node_id","participant_id","stimulus","button_pressed","Name","responses","response","key_press","variableName","fixationTime","condition","trial","photo","subjectRating","subjectResponse","agentsNames","agent_1_Response","agent_2_Response","agent_3_Response","agent_4_Response","agent_5_Response","agent_6_Response","kept_1_name","kept_1_response","kept_2_name","kept_2_response","kept_3_name","kept_3_response","errorCounter"
"15997","external_page_harvard.html","external-html","0","16230","0.0-0.0","AF3G89Q97D0DR","","","","","","","","","","","","","","","","","","","","","","","","","","",""
"1694","","image-button-response","1","17926","0.0-1.0","AF3G89Q97D0DR","","1","","","","","","","","","","","","","","","","","","","","","","","","",""
"2357","","image-button-response","2","20286","0.0-2.0-0.0","AF3G89Q97D0DR","","1","phone","","","","","","","","","","","","","","","","","","","","","","","",""
"5151","","survey-text","3","25439","0.0-3.0-0.0","AF3G89Q97D0DR","","","","{""Q0"":""AF3G89Q97D0DR""}","","","","","","","","","","","","","","","","","","","","","","",""
"53438","","image-button-response_instructions","4","78878","0.0-4.0","AF3G89Q97D0DR","","0","instructions","","","","","","","","","","","","","","","","","","","","","","","",""
"14658","","image-button-response_instructions","5","93536","0.0-5.0","AF3G89Q97D0DR","img_art/ins/popularity/ins1.png","0","instructions","","","","","","","","","","","","","","","","","","","","","","","",""
"7664","","image-button-response_instructions","6","101201","0.0-6.0","AF3G89Q97D0DR","img_art/ins/popularity/ins2.png","0","instructions","","","","","","","","","","","","","","","","","","","","","","","",""
"9984","","image-button-response_instructions","7","111187","0.0-7.0","AF3G89Q97D0DR","img_art/ins/popularity/ins2Extreme.png","0","instructions","","","","","","","","","","","","","","","","","","","","","","","",""
"30619","","image-button-response_instructions","8","141807","0.0-8.0","AF3G89Q97D0DR","img_art/ins/popularity/ins3KEEPpop.PNG","0","instructions","","","","","","","","","","","","","","","","","","","","","","","",""
"2720","","image-button-response_instructions","9","144527","0.0-9.0","AF3G89Q97D0DR","img_art/ins/popularity/ins3ANamepop.PNG","0","instructions","","","","","","","","","","","","","","","","","","","","","","","",""
"3737","","image-button-response_instructions","10","148264","0.0-10.0","AF3G89Q97D0DR","img_art/ins/popularity/ins3ARatingpop.png","0","instructions","","","","","","","","","","","","","","","","","","","","","","","",""
"2960","","image-button-response_instructions","11","151225","0.0-11.0","AF3G89Q97D0DR","img_art/ins/popularity/ins3ATextpop.png","0","instructions","","","","","","","","","","","","","","","","","","","","","","","",""
"115527","","image-button-response_instructions","12","266752","0.0-12.0","AF3G89Q97D0DR","img_art/ins/popularity/ins3ALikespop.png","0","instructions","","","","","","","","","","","","","","","","","","","","","","","",""
"29683","","image-button-response_instructions","13","296436","0.0-13.0","AF3G89Q97D0DR","img_art/ins/popularity/ins3KEEPpop.PNG","0","instructions","","","","","","","","","","","","","","","","","","","","","","","",""
"11649","","image-button-response_instructions","14","308086","0.0-14.0","AF3G89Q97D0DR","img_art/ins/popularity/ins3_5RED.png","0","instructions","","","","","","","","","","","","","","","","","","","","","","","",""
"5959","","image-button-response_instructions","15","314046","0.0-15.0","AF3G89Q97D0DR","img_art/ins/popularity/ins3KEEPpop.PNG","0","instructions","","","","","","","","","","","","","","","","","","","","","","","",""
"16539","","image-button-response_instructions","16","330586","0.0-16.0","AF3G89Q97D0DR","img_art/ins/popularity/ins4KEEPpop.PNG","0","instructions","","","","","","","","","","","","","","","","","","","","","","","",""
"8241","","image-button-response_instructions","17","338827","0.0-17.0","AF3G89Q97D0DR","img_art/ins/popularity/ins5KEEPpop.PNG","0","instructions","","","","","","","","","","","","","","","","","","","","","","","",""
"1951","","image-button-response_instructions","18","340779","0.0-18.0","AF3G89Q97D0DR","","0","instructions","","","","","","","","","","","","","","","","","","","","","","","",""
"7076","","survey-text","19","347868","0.0-19.0-0.0","AF3G89Q97D0DR","","","","{""Q0"":""but""}","","","","","","","","","","","","","","","","","","","","","","",""
"97932","","survey-text","20","445801","0.0-20.0-0.0","AF3G89Q97D0DR","","","","{""Q0"":""It looks to me like a reddish field and yellowy sky with some trees off to the left at the edge of the field, obscured by fog or smoke.""}","","","","","","","","","","","","","","","","","","","","","","",""
"9607.700000047684","","image-slider-response","21","455410","0.0-21.0","AF3G89Q97D0DR","","","","","10","","","","","","","","","","","","","","","","","","","","","",""
"null","","image-button-response","22","460413","0.0-22.0","AF3G89Q97D0DR","img_art/ins/1.jpg","null","","","","","","","","","","","","","","","","","","","","","","","","",""
"3229","","image-button-response","23","463645","0.0-23.0","AF3G89Q97D0DR","img_art/ins/1.jpg","4","","","","","","","","","","","","","","","","","","","","","","","","",""
"2399","","image-button-response","24","466045","0.0-24.0-0.0","AF3G89Q97D0DR","img_art/ins/1.jpg","5","","","","","","","","","","","","","","","","","","","","","","","","",""
"6631","","image-button-response","25","472677","0.0-25.0-0.0","AF3G89Q97D0DR","img_art/ins/1.jpg","0","","","","","","","","","","","","","","","","","","","","","","","","",""
"null","","html-keyboard-response","26","474179","0.0-26.0","AF3G89Q97D0DR","<p style=""font-size: 48px;"">+</p>","","","","","null","allTrialResponses","1500","1","-2","img_art/ins/1.jpg","10","It looks to me like a reddish field and yellowy sky with some trees off to the left at the edge of the field, obscured by fog or smoke.","Allison,Ashley,Beth,Dora,Erika,Jen","looks like a lot of things going on in the mist,20,20,20","I just don't get why these type of art would be popular,-32,40,20","This color reminds me of poo,-46,60,20","looks like what my niece in 3rd grade did this afternoon,-50,80,20","I like the sophisticated brushwork,40,100,20","It reminds me of a candy land dream I had,36,120,20","Erika","I like the sophisticated brushwork,40,100,20","Jen","It reminds me of a candy land dream I had,36,120,20","Allison","looks like a lot of things going on in the mist,20,20,20","0"
"60080","","survey-text","27","534263","0.0-27.0-0.0","AF3G89Q97D0DR","","","","{""Q0"":""I can't tell what it's supposed to represent but the bold red is really striking. It's almost like the suggestion of a really eye-catching painting rather than an actual painting, but I don't mean that in a bad way.""}","","","","","","","","","","","","","","","","","","","","","","",""
"12480","","image-slider-response","28","546744","0.0-28.0","AF3G89Q97D0DR","","","","","15","","","","","","","","","","","","","","","","","","","","","",""
"null","","image-button-response","29","551747","0.0-29.0","AF3G89Q97D0DR","img_art/ins/2.jpg","null","","","","","","","","","","","","","","","","","","","","","","","","",""
"4566","","image-button-response","30","556314","0.0-30.0","AF3G89Q97D0DR","img_art/ins/2.jpg","1","","","","","","","","","","","","","","","","","","","","","","","","",""
"16993","","image-button-response","31","573309","0.0-31.0-0.0","AF3G89Q97D0DR","img_art/ins/2.jpg","4","","","","","","","","","","","","","","","","","","","","","","","","",""
"710","","image-button-response","32","574021","0.0-32.0-0.0","AF3G89Q97D0DR","img_art/ins/2.jpg","5","","","","","","","","","","","","","","","","","","","","","","","","",""
"null","","html-keyboard-response","33","575022","0.0-33.0","AF3G89Q97D0DR","<p style=""font-size: 48px;"">+</p>","","","","","null","allTrialResponses","1000","1","-1","img_art/ins/2.jpg","15","I can't tell what it's supposed to represent but the bold red is really striking. It's almost like the suggestion of a really eye-catching painting rather than an actual painting, but I don't mean that in a bad way.","Allison,Kara,Katie,Jenna,Erika,Jen","I don't have strong feelings about this,10,20,20","I like the blocks of color arrangements,30,160,20","too much color!,-28,180,20","One of my pet peevs,-48,140,20","I would never be able to compose a sophisticated pallete like this,48,100,20","It reminds me of a fireplace,36,120,20","Kara","I like the blocks of color arrangements,30,160,20","Erika","I would never be able to compose a sophisticated pallete like this,48,100,20","Jen","It reminds me of a fireplace,36,120,20","0"
"81032","","survey-text","34","656056","0.0-34.0-0.0","AF3G89Q97D0DR","","","","{""Q0"":""It's so pretty! Icy or maybe aquatic. I like the jagged violet streaks.""}","","","","","","","","","","","","","","","","","","","","","","",""
"5951.399999976158","","image-slider-response","35","662009","0.0-35.0","AF3G89Q97D0DR","","","","","25","","","","","","","","","","","","","","","","","","","","","",""
"null","","image-button-response","36","667012","0.0-36.0","AF3G89Q97D0DR","img_art/ins/3.jpg","null","","","","","","","","","","","","","","","","","","","","","","","","",""
"4413","","image-button-response","37","671427","0.0-37.0","AF3G89Q97D0DR","img_art/ins/3.jpg","4","","","","","","","","","","","","","","","","","","","","","","","","",""
"1054","","image-button-response","38","672483","0.0-38.0-0.0","AF3G89Q97D0DR","img_art/ins/3.jpg","5","","","","","","","","","","","","","","","","","","","","","","","","",""
"20834","","image-button-response","39","693317","0.0-39.0-0.0","AF3G89Q97D0DR","img_art/ins/3.jpg","1","","","","","","","","","","","","","","","","","","","","","","","","",""
"null","","html-keyboard-response","40","694319","0.0-40.0","AF3G89Q97D0DR","<p style=""font-size: 48px;"">+</p>","","","","","null","allTrialResponses","1000","1","0","img_art/ins/3.jpg","25","It's so pretty! Icy or maybe aquatic. I like the jagged violet streaks.","Mary,Kara,Rose,Leslie,Erika,Jen","I like the overlapping of brushes,41,220,20","calming blue is very nice,36,160,20","My daily routine, it's depressing,-20,240,20","It's an alright work,15,200,20","I feel connected to the artist,40,100,20","I can feel a rainy day from this painting,18,120,20","Erika","I feel connected to the artist,40,100,20","Jen","I can feel a rainy day from this painting,18,120,20","Kara","calming blue is very nice,36,160,20","0"
"7332","","image-button-response_instructions","41","701654","0.0-41.0","AF3G89Q97D0DR","","0","instructions","","","","","","","","","","","","","","","","","","","","","","","",""
"14817","","survey-likert","42","716472","0.0-42.0-0.0","AF3G89Q97D0DR","","","","{""Q0"":"""",""Q1"":0,""Q2"":1}","","","","","","","","","","","","","","","","","","","","","","",""
"3802","","survey-text","43","720280","0.0-43.0-0.0","AF3G89Q97D0DR","","","","{""Q0"":""rock""}","","","","","","","","","","","","","","","","","","","","","","",""
"119649","","survey-text","44","839930","0.0-44.0-0.0","AF3G89Q97D0DR","","","","{""Q0"":""At first glance it reminds me of blood, and I can't help but feel that was intentional given the striking red hue chosen. But the chaotic squiggles at the bottom just make it feel like a doodle and don't seem to serve a purpose. And what's with the little hints of green and gray??""}","","","","","","","","","","","","","","","","","","","","","","",""
"8224.399999976158","","image-slider-response","45","848156","0.0-45.0","AF3G89Q97D0DR","","","","","-15","","","","","","","","","","","","","","","","","","","","","",""
"null","","image-button-response","46","853171","0.0-46.0","AF3G89Q97D0DR","img_art/3.jpg","null","","","","","","","","","","","","","","","","","","","","","","","","",""
"24635","","image-button-response","47","877808","0.0-47.0","AF3G89Q97D0DR","img_art/3.jpg","0","","","","","","","","","","","","","","","","","","","","","","","","",""
"6143","","image-button-response","48","883953","0.0-48.0-0.0","AF3G89Q97D0DR","img_art/3.jpg","4","","","","","","","","","","","","","","","","","","","","","","","","",""
"12328","","image-button-response","49","896283","0.0-49.0-0.0","AF3G89Q97D0DR","img_art/3.jpg","2","","","","","","","","","","","","","","","","","","","","","","","","",""
"null","","html-keyboard-response","50","896785","0.0-50.0","AF3G89Q97D0DR","<p style=""font-size: 48px;"">+</p>","","","","","null","allTrialResponses","500","1","1","img_art/3.jpg","-15","At first glance it reminds me of blood, and I can't help but feel that was intentional given the striking red hue chosen. But the chaotic squiggles at the bottom just make it feel like a doodle and don't seem to serve a purpose. And what's with the little hints of green and gray??","Madeline,Caitlin,Cassidy,Nicole,Savannah,Alyssa","Scribbly a bit too much,-30,40,20","Why kids with color crayons is called art is beyond me. People pay for this???,-40,80,20","Again, looks like a child's work. I don't get these types of pieces. Too simple,-47,140,20","Something I'd paint when I'm mad. I feel that,20,20,20","Completely incomprehensible.,-33,200,20","Looks like someone spilled ketchup and forgot to clean it up,-30,160,20","Madeline","Scribbly a bit too much,-30,40,20","Savannah","Completely incomprehensible.,-33,200,20","Cassidy","Again, looks like a child's work. I don't get these types of pieces. Too simple,-47,140,20","0"
"97723","","survey-text","51","994513","0.0-51.0-0.0","AF3G89Q97D0DR","","","","{""Q0"":""The style is still strange but at least this one feels like I'm looking at something. It looks like hills of amber grain seen from up on a hill framed by nearby autumn trees.""}","","","","","","","","","","","","","","","","","","","","","","",""
"10495.399999976158","","image-slider-response","52","1005009","0.0-52.0","AF3G89Q97D0DR","","","","","20","","","","","","","","","","","","","","","","","","","","","",""
"null","","image-button-response","53","1010011","0.0-53.0","AF3G89Q97D0DR","img_art/27.jpg","null","","","","","","","","","","","","","","","","","","","","","","","","",""
"49500","","image-button-response","54","1059514","0.0-54.0","AF3G89Q97D0DR","img_art/27.jpg","5","","","","","","","","","","","","","","","","","","","","","","","","",""
"6966","","image-button-response","55","1066482","0.0-55.0-0.0","AF3G89Q97D0DR","img_art/27.jpg","1","","","","","","","","","","","","","","","","","","","","","","","","",""
"1663","","image-button-response","56","1068146","0.0-56.0-0.0","AF3G89Q97D0DR","img_art/27.jpg","0","","","","","","","","","","","","","","","","","","","","","","","","",""
"null","","html-keyboard-response","57","1068648","0.0-57.0","AF3G89Q97D0DR","<p style=""font-size: 48px;"">+</p>","","","","","null","allTrialResponses","500","1","2","img_art/27.jpg","20","The style is still strange but at least this one feels like I'm looking at something. It looks like hills of amber grain seen from up on a hill framed by nearby autumn trees.","Madeline,Breanna,Cassidy,Shannon,Savannah,Chelsea","Looks like the green bits were added on later,-1,40,20","Not too impressed with the work,6,380,20","doesn't look like any effort was put into this piece.,-19,140,20","This image could do a better job of showing what is going on and it could use more colors.,-42,220,20","An abstract piece with such lifeless colors.,-26,200,20","The green lines look like a child drew over a painting.,-36,180,20","Chelsea","The green lines look like a child drew over a painting.,-36,180,20","Breanna","Not too impressed with the work,6,380,20","Madeline","Looks like the green bits were added on later,-1,40,20","0"
"111124","","survey-text","58","1179778","0.0-58.0-0.0","AF3G89Q97D0DR","","","","{""Q0"":""Very abstract, it's fun to look at it and find more and more new details in what originally looked like a bunch of visual noise.""}","","","","","","","","","","","","","","","","","","","","","","",""
"6247.600000023842","","image-slider-response","59","1186027","0.0-59.0","AF3G89Q97D0DR","","","","","35","","","","","","","","","","","","","","","","","","","","","",""
"null","","image-button-response","60","1191030","0.0-60.0","AF3G89Q97D0DR","img_art/8.jpg","null","","","","","","","","","","","","","","","","","","","","","","","","",""
"12751","","image-button-response","61","1203782","0.0-61.0","AF3G89Q97D0DR","img_art/8.jpg","2","","","","","","","","","","","","","","","","","","","","","","","","",""
"13520","","image-button-response","62","1217304","0.0-62.0-0.0","AF3G89Q97D0DR","img_art/8.jpg","4","","","","","","","","","","","","","","","","","","","","","","","","",""
"9776","","image-button-response","63","1227081","0.0-63.0-0.0","AF3G89Q97D0DR","img_art/8.jpg","5","","","","","","","","","","","","","","","","","","","","","","","","",""
"null","","html-keyboard-response","64","1228583","0.0-64.0","AF3G89Q97D0DR","<p style=""font-size: 48px;"">+</p>","","","","","null","allTrialResponses","1500","1","3","img_art/8.jpg","35","Very abstract, it's fun to look at it and find more and more new details in what originally looked like a bunch of visual noise.","Madeline,Breanna,Madison,Kaitlin,Taylor,Chelsea","Very nice detail and colors!,10,40,20","Makes me feel nice,23,380,20","The composition is striking, and some of the images are quite dramatic,11,60,20","wow - the colors were very well mixed,12,60,20","Looks like it would be an interesting place to live,35,340,20","It looks like it took a lot of time to complete.,34,180,20","Madison","The composition is striking, and some of the images are quite dramatic,11,60,20","Taylor","Looks like it would be an interesting place to live,35,340,20","Chelsea","It looks like it took a lot of time to complete.,34,180,20","0"
"51335","","survey-text","65","1279921","0.0-65.0-0.0","AF3G89Q97D0DR","","","","{""Q0"":""This looks like one of those AI-generated images. It kind of gives me a headache to look at for too long.""}","","","","","","","","","","","","","","","","","","","","","","",""
"19465.700000047684","","image-slider-response","66","1299387","0.0-66.0","AF3G89Q97D0DR","","","","","-15","","","","","","","","","","","","","","","","","","","","","",""
"null","","image-button-response","67","1304390","0.0-67.0","AF3G89Q97D0DR","img_art/2.jpg","null","","","","","","","","","","","","","","","","","","","","","","","","",""
"13230","","image-button-response","68","1317622","0.0-68.0","AF3G89Q97D0DR","img_art/2.jpg","3","","","","","","","","","","","","","","","","","","","","","","","","",""
"16777","","image-button-response","69","1334401","0.0-69.0-0.0","AF3G89Q97D0DR","img_art/2.jpg","1","","","","","","","","","","","","","","","","","","","","","","","","",""
"4350","","image-button-response","70","1338753","0.0-70.0-0.0","AF3G89Q97D0DR","img_art/2.jpg","2","","","","","","","","","","","","","","","","","","","","","","","","",""
"null","","html-keyboard-response","71","1339255","0.0-71.0","AF3G89Q97D0DR","<p style=""font-size: 48px;"">+</p>","","","","","null","allTrialResponses","500","1","4","img_art/2.jpg","-15","This looks like one of those AI-generated images. It kind of gives me a headache to look at for too long.","Shelby,Michelle,Madison,Maria,Taylor,Chelsea","The contrasting colors are a bit harsh,-10,240,20","Don't like the puke green color and also too abstact,-14,280,20","Grim and overwhelming,-6,60,20","again, I struggle to see the art and I dislike the green in particular.,-31,120,20","Doesn't give me a reaction,10,340,20","Not sure what is happening. I'm not a big fan of the colors but they don't bother me either.,1,180,20","Maria","again, I struggle to see the art and I dislike the green in particular.,-31,120,20","Michelle","Don't like the puke green color and also too abstact,-14,280,20","Madison","Grim and overwhelming,-6,60,20","0"
"76594","","survey-text","72","1415851","0.0-72.0-0.0","AF3G89Q97D0DR","","","","{""Q0"":""What am I looking at? Was this actually generated by an AI??""}","","","","","","","","","","","","","","","","","","","","","","",""
"13592.900000095367","","image-slider-response","73","1429446","0.0-73.0","AF3G89Q97D0DR","","","","","-15","","","","","","","","","","","","","","","","","","","","","",""
"null","","image-button-response","74","1434448","0.0-74.0","AF3G89Q97D0DR","img_art/28.jpg","null","","","","","","","","","","","","","","","","","","","","","","","","",""
"50076","","image-button-response","75","1484526","0.0-75.0","AF3G89Q97D0DR","img_art/28.jpg","1","","","","","","","","","","","","","","","","","","","","","","","","",""
"2136","","image-button-response","76","1486663","0.0-76.0-0.0","AF3G89Q97D0DR","img_art/28.jpg","0","","","","","","","","","","","","","","","","","","","","","","","","",""
"1918","","image-button-response","77","1488583","0.0-77.0-0.0","AF3G89Q97D0DR","img_art/28.jpg","0","","","","","","","","","","","","","","","","","","","","","","","","",""
"2320","","image-button-response","78","1494912","0.0-77.1-0.1","AF3G89Q97D0DR","img_art/28.jpg","5","","","","","","","","","","","","","","","","","","","","","","","","",""
"null","","html-keyboard-response","79","1496414","0.0-78.0","AF3G89Q97D0DR","<p style=""font-size: 48px;"">+</p>","","","","","null","allTrialResponses","1500","1","5","img_art/28.jpg","-15","What am I looking at? Was this actually generated by an AI??","Jennifer,Michelle,Madison,Maria,Alexis,Rachel","This picture doesn't really stand out to me,1,380,20","This piece is depressing to me, reminds me of German paintings,-6,280,20","It's okay. There is harmony and balance.,11,60,20","I want to like it, but I'm not really sure what to make of it,2,120,20","Interesting. I like the ""old woman"" on the left. Lots of different entities to look at,21,100,20","Too muted and bland. I like my art to be vivid.,-11,80,20","Michelle","This piece is depressing to me, reminds me of German paintings,-6,280,20","Jennifer","This picture doesn't really stand out to me,1,380,20","Rachel","Too muted and bland. I like my art to be vivid.,-11,80,20","2"
"22760","","survey-text","80","1519179","0.0-79.0-0.0","AF3G89Q97D0DR","","","","{""Q0"":""sky""}","","","","","","","","","","","","","","","","","","","","","","",""
"63230","","survey-text","81","1582411","0.0-80.0-0.0","AF3G89Q97D0DR","","","","{""Q0"":""It's very simple but I don't mind it. There's a lot of empty space but that kind of gives the whole picture \""shape.\""""}","","","","","","","","","","","","","","","","","","","","","","",""
"6687.399999976158","","image-slider-response","82","1589100","0.0-81.0","AF3G89Q97D0DR","","","","","20","","","","","","","","","","","","","","","","","","","","","",""
"null","","image-button-response","83","1594102","0.0-82.0","AF3G89Q97D0DR","img_art/6.jpg","null","","","","","","","","","","","","","","","","","","","","","","","","",""
"9742","","image-button-response","84","1603847","0.0-83.0","AF3G89Q97D0DR","img_art/6.jpg","4","","","","","","","","","","","","","","","","","","","","","","","","",""
"3495","","image-button-response","85","1607344","0.0-84.0-0.0","AF3G89Q97D0DR","img_art/6.jpg","5","","","","","","","","","","","","","","","","","","","","","","","","",""
"8279","","image-button-response","86","1615624","0.0-85.0-0.0","AF3G89Q97D0DR","img_art/6.jpg","0","","","","","","","","","","","","","","","","","","","","","","","","",""
"null","","html-keyboard-response","87","1616626","0.0-86.0","AF3G89Q97D0DR","<p style=""font-size: 48px;"">+</p>","","","","","null","allTrialResponses","1000","1","6","img_art/6.jpg","20","It's very simple but I don't mind it. There's a lot of empty space but that kind of gives the whole picture ""shape.""","Jennifer,Michelle,Cheyenne,Miranda,Elizabeth,Rachel","I am neutral towards this piece.,0,380,20","Definitely belongs at a doctor's office, I think it's a crow or a tree?,-3,280,20","Good painting but too simple to care about it for very long.,-15,200,20","It's slightly unnerving to look at, it looks a little creepy/eerie,-16,320,20","Love the simplicity of it,41,20,20","Reminds me of a plant poking through the soil. It reminds me of new life.,31,80,20","Elizabeth","Love the simplicity of it,41,20,20","Rachel","Reminds me of a plant poking through the soil. It reminds me of new life.,31,80,20","Jennifer","I am neutral towards this piece.,0,380,20","2"
"119804","","survey-text","88","1736433","0.0-87.0-0.0","AF3G89Q97D0DR","","","","{""Q0"":""It's simple but I like the main colors. I wish there weren't random splotches of yellow and red though. Maybe just the red would be alright.""}","","","","","","","","","","","","","","","","","","","","","","",""
"4119.400000095367","","image-slider-response","89","1740554","0.0-88.0","AF3G89Q97D0DR","","","","","15","","","","","","","","","","","","","","","","","","","","","",""
"null","","image-button-response","90","1745556","0.0-89.0","AF3G89Q97D0DR","img_art/13.jpg","null","","","","","","","","","","","","","","","","","","","","","","","","",""
"14838","","image-button-response","91","1760397","0.0-90.0","AF3G89Q97D0DR","img_art/13.jpg","3","","","","","","","","","","","","","","","","","","","","","","","","",""
"1095","","image-button-response","92","1761493","0.0-91.0-0.0","AF3G89Q97D0DR","img_art/13.jpg","4","","","","","","","","","","","","","","","","","","","","","","","","",""
"1070","","image-button-response","93","1762565","0.0-92.0-0.0","AF3G89Q97D0DR","img_art/13.jpg","0","","","","","","","","","","","","","","","","","","","","","","","","",""
"null","","html-keyboard-response","94","1763566","0.0-93.0","AF3G89Q97D0DR","<p style=""font-size: 48px;"">+</p>","","","","","null","allTrialResponses","1000","1","7","img_art/13.jpg","15","It's simple but I like the main colors. I wish there weren't random splotches of yellow and red though. Maybe just the red would be alright.","Jennifer,Abigail,Megan,Samantha,Elizabeth,Rachel","I like the color scheme,41,380,20","This is easy to look at,46,20,20","Average overly symmetrical safe,-26,200,20","Nice colors. beautiful blue,50,140,20","Love the splash of colors,50,20,20","Peaceful colors.,20,80,20","Samantha","Nice colors. beautiful blue,50,140,20","Elizabeth","Love the splash of colors,50,20,20","Jennifer","I like the color scheme,41,380,20","2"
"71343","","survey-text","95","1834911","0.0-94.0-0.0","AF3G89Q97D0DR","","","","{""Q0"":""I love this one! It totally brings to mind a necromancer or some kind of eldritch horror. This piece has a strong identity. Very cool.""}","","","","","","","","","","","","","","","","","","","","","","",""
"2150.5","","image-slider-response","96","1837064","0.0-95.0","AF3G89Q97D0DR","","","","","50","","","","","","","","","","","","","","","","","","","","","",""
"null","","image-button-response","97","1842067","0.0-96.0","AF3G89Q97D0DR","img_art/25.jpg","null","","","","","","","","","","","","","","","","","","","","","","","","",""
"12580","","image-button-response","98","1854650","0.0-97.0","AF3G89Q97D0DR","img_art/25.jpg","0","","","","","","","","","","","","","","","","","","","","","","","","",""
"550","","image-button-response","99","1855202","0.0-98.0-0.0","AF3G89Q97D0DR","img_art/25.jpg","1","","","","","","","","","","","","","","","","","","","","","","","","",""
"3535","","image-button-response","100","1858739","0.0-99.0-0.0","AF3G89Q97D0DR","img_art/25.jpg","4","","","","","","","","","","","","","","","","","","","","","","","","",""
"null","","html-keyboard-response","101","1860240","0.0-100.0","AF3G89Q97D0DR","<p style=""font-size: 48px;"">+</p>","","","","","null","allTrialResponses","1500","1","8","img_art/25.jpg","50","I love this one! It totally brings to mind a necromancer or some kind of eldritch horror. This piece has a strong identity. Very cool.","Jennifer,Erika,Cassandra,Samantha,Elizabeth,Alexa","Spooky, but in a good way. I like the green and black color palette.,42,380,20","Very cryptic and ancient,36,100,20","I hate the colors and the scene,-46,120,20","It is interesting but too creapy for me,-29,140,20","Love the color hues and the texture it creates,50,20,20","It's really neat and cool looking,20,40,20","Jennifer","Spooky, but in a good way. I like the green and black color palette.,42,380,20","Erika","Very cryptic and ancient,36,100,20","Elizabeth","Love the color hues and the texture it creates,50,20,20","2"
"71913","","survey-text","102","1932157","0.0-101.0-0.0","AF3G89Q97D0DR","","","","{""Q0"":""Looks like a scene outdoors in town. It's very quaint and the muted but pleasant palette compliments that vibe.""}","","","","","","","","","","","","","","","","","","","","","","",""
"5743","","image-slider-response","103","1937901","0.0-102.0","AF3G89Q97D0DR","","","","","25","","","","","","","","","","","","","","","","","","","","","",""
"null","","image-button-response","104","1942903","0.0-103.0","AF3G89Q97D0DR","img_art/26.jpg","null","","","","","","","","","","","","","","","","","","","","","","","","",""
"18951","","image-button-response","105","1961857","0.0-104.0","AF3G89Q97D0DR","img_art/26.jpg","4","","","","","","","","","","","","","","","","","","","","","","","","",""
"840","","image-button-response","106","1962697","0.0-105.0-0.0","AF3G89Q97D0DR","img_art/26.jpg","2","","","","","","","","","","","","","","","","","","","","","","","","",""
"4303","","image-button-response","107","1967001","0.0-106.0-0.0","AF3G89Q97D0DR","img_art/26.jpg","3","","","","","","","","","","","","","","","","","","","","","","","","",""
"null","","html-keyboard-response","108","1968004","0.0-107.0","AF3G89Q97D0DR","<p style=""font-size: 48px;"">+</p>","","","","","null","allTrialResponses","1000","1","9","img_art/26.jpg","25","Looks like a scene outdoors in town. It's very quaint and the muted but pleasant palette compliments that vibe.","Jennifer,Erika,Jamie,Michaela,Elizabeth,Catherine","This picture doesn't really stand out.,0,380,20","Feels like still life,-13,100,20","Street corner on a sunny day,5,320,20","Elevator art but the watercolors are good,29,260,20","Like the soft blend of colors,26,20,20","Incomplete, The artist painted his impression of somthing he was thinking of,0,160,20","Elizabeth","Like the soft blend of colors,26,20,20","Jamie","Street corner on a sunny day,5,320,20","Michaela","Elevator art but the watercolors are good,29,260,20","2"
"64083","","survey-text","109","2032099","0.0-108.0-0.0","AF3G89Q97D0DR","","","","{""Q0"":""Is it supposed to be a plant? Is that wood? I'm not sure I like the haphazard style of this one, to me it's mess with no meaning or expression.""}","","","","","","","","","","","","","","","","","","","","","","",""
"5191.700000047684","","image-slider-response","110","2037291","0.0-109.0","AF3G89Q97D0DR","","","","","-15","","","","","","","","","","","","","","","","","","","","","",""
"null","","image-button-response","111","2042293","0.0-110.0","AF3G89Q97D0DR","img_art/4.jpg","null","","","","","","","","","","","","","","","","","","","","","","","","",""
"5846","","image-button-response","112","2048141","0.0-111.0","AF3G89Q97D0DR","img_art/4.jpg","2","","","","","","","","","","","","","","","","","","","","","","","","",""
"1886","","image-button-response","113","2050029","0.0-112.0-0.0","AF3G89Q97D0DR","img_art/4.jpg","5","","","","","","","","","","","","","","","","","","","","","","","","",""
"2839","","image-button-response","114","2052869","0.0-113.0-0.0","AF3G89Q97D0DR","img_art/4.jpg","1","","","","","","","","","","","","","","","","","","","","","","","","",""
"null","","html-keyboard-response","115","2054371","0.0-114.0","AF3G89Q97D0DR","<p style=""font-size: 48px;"">+</p>","","","","","null","allTrialResponses","1500","1","10","img_art/4.jpg","-15","Is it supposed to be a plant? Is that wood? I'm not sure I like the haphazard style of this one, to me it's mess with no meaning or expression.","Ashley,Sierra,Jamie,Michaela,Elizabeth,Makayla","It looks like a hand.,25,320,20","it looks like a deformed hand,-9,260,20","Mustard yellow doesn't do it for me,-25,320,20","It reminds me of something a kid would make for their parents,13,260,20","Like the color vibrancy,29,20,20","Looks like poop on walks,-27,80,20","Jamie","Mustard yellow doesn't do it for me,-25,320,20","Makayla","Looks like poop on walks,-27,80,20","Sierra","it looks like a deformed hand,-9,260,20","2"
"3977","","survey-text","116","2058358","0.0-115.0-0.0","AF3G89Q97D0DR","","","","{""Q0"":""our""}","","","","","","","","","","","","","","","","","","","","","","",""
"37796","","survey-text","117","2096156","0.0-116.0-0.0","AF3G89Q97D0DR","","","","{""Q0"":""It's unpleasant to look at, it brings to mind something yucky.""}","","","","","","","","","","","","","","","","","","","","","","",""
"5399.899999976158","","image-slider-response","118","2101557","0.0-117.0","AF3G89Q97D0DR","","","","","-10","","","","","","","","","","","","","","","","","","","","","",""
"null","","image-button-response","119","2106560","0.0-118.0","AF3G89Q97D0DR","img_art/7.jpg","null","","","","","","","","","","","","","","","","","","","","","","","","",""
"2964","","image-button-response","120","2109526","0.0-119.0","AF3G89Q97D0DR","img_art/7.jpg","1","","","","","","","","","","","","","","","","","","","","","","","","",""
"2438","","image-button-response","121","2111966","0.0-120.0-0.0","AF3G89Q97D0DR","img_art/7.jpg","5","","","","","","","","","","","","","","","","","","","","","","","","",""
"3183","","image-button-response","122","2115151","0.0-121.0-0.0","AF3G89Q97D0DR","img_art/7.jpg","4","","","","","","","","","","","","","","","","","","","","","","","","",""
"null","","html-keyboard-response","123","2115652","0.0-122.0","AF3G89Q97D0DR","<p style=""font-size: 48px;"">+</p>","","","","","null","allTrialResponses","500","1","11","img_art/7.jpg","-10","It's unpleasant to look at, it brings to mind something yucky.","Mikayla,Sierra,Jamie,Destiny,Hannah,Makayla","I love the texture.,20,300,20","it looks like a dog ran through some wet cement,-22,260,20","Looks like a battle raging on,20,320,20","mars also crunchy leaves maybe a beehive,32,360,20","Looks almost like a photograph of nature.,11,240,20","It's just like sand from the beach,2,80,20","Sierra","it looks like a dog ran through some wet cement,-22,260,20","Makayla","It's just like sand from the beach,2,80,20","Hannah","Looks almost like a photograph of nature.,11,240,20","2"
"23427","","survey-text","124","2139083","0.0-123.0-0.0","AF3G89Q97D0DR","","","","{""Q0"":""It's sleeping beauty! Cute.""}","","","","","","","","","","","","","","","","","","","","","","",""
"11279.400000095367","","image-slider-response","125","2150363","0.0-124.0","AF3G89Q97D0DR","","","","","25","","","","","","","","","","","","","","","","","","","","","",""
"null","","image-button-response","126","2155366","0.0-125.0","AF3G89Q97D0DR","img_art/9.jpg","null","","","","","","","","","","","","","","","","","","","","","","","","",""
"4982","","image-button-response","127","2160349","0.0-126.0","AF3G89Q97D0DR","img_art/9.jpg","2","","","","","","","","","","","","","","","","","","","","","","","","",""
"18162","","image-button-response","128","2178512","0.0-127.0-0.0","AF3G89Q97D0DR","img_art/9.jpg","1","","","","","","","","","","","","","","","","","","","","","","","","",""
"3711","","image-button-response","129","2182225","0.0-128.0-0.0","AF3G89Q97D0DR","img_art/9.jpg","3","","","","","","","","","","","","","","","","","","","","","","","","",""
"null","","html-keyboard-response","130","2183227","0.0-129.0","AF3G89Q97D0DR","<p style=""font-size: 48px;"">+</p>","","","","","null","allTrialResponses","1000","1","12","img_art/9.jpg","25","It's sleeping beauty! Cute.","Erin,Sierra,Brittany,Crystal,Hannah,Makayla","Framing is overwhelming,-35,120,20","it looks like a lady resting. it is soothing.,4,260,20","It reminds me of an illustration for a fairy tale.,19,40,20","Evokes triumph of a mountain over powering a drowning sea,24,300,20","Someone lying in bed?  Don't care for it.,-14,240,20","Looks like a monster's teeth , unsettling,-18,80,20","Brittany","It reminds me of an illustration for a fairy tale.,19,40,20","Sierra","it looks like a lady resting. it is soothing.,4,260,20","Crystal","Evokes triumph of a mountain over powering a drowning sea,24,300,20","2"
"74457","","survey-text","131","2257691","0.0-130.0-0.0","AF3G89Q97D0DR","","","","{""Q0"":""It's just a bunch of basic strokes but it manages to evoke a sense of physicality.""}","","","","","","","","","","","","","","","","","","","","","","",""
"7871.600000023842","","image-slider-response","132","2265563","0.0-131.0","AF3G89Q97D0DR","","","","","15","","","","","","","","","","","","","","","","","","","","","",""
"null","","image-button-response","133","2270566","0.0-132.0","AF3G89Q97D0DR","img_art/30.jpg","null","","","","","","","","","","","","","","","","","","","","","","","","",""
"28938","","image-button-response","134","2299505","0.0-133.0","AF3G89Q97D0DR","img_art/30.jpg","2","","","","","","","","","","","","","","","","","","","","","","","","",""
"3239","","image-button-response","135","2302746","0.0-134.0-0.0","AF3G89Q97D0DR","img_art/30.jpg","3","","","","","","","","","","","","","","","","","","","","","","","","",""
"6607","","image-button-response","136","2309355","0.0-135.0-0.0","AF3G89Q97D0DR","img_art/30.jpg","1","","","","","","","","","","","","","","","","","","","","","","","","",""
"null","","html-keyboard-response","137","2309857","0.0-136.0","AF3G89Q97D0DR","<p style=""font-size: 48px;"">+</p>","","","","","null","allTrialResponses","500","1","13","img_art/30.jpg","15","It's just a bunch of basic strokes but it manages to evoke a sense of physicality.","Sophia,Sierra,Brittany,Crystal,Sara,Kaylee","Hmmm. I think the artist is trying to direct me to a spreadsheet?  (s/s),-10,280,20","i dont like how the colors are mixed,-6,260,20","The colors and the brushstrokes are interesting enough.,17,40,20","An interesting design but don't like the colors. I value the time and effort put into it, but not a huge fan.,10,300,20","I don't like the blended colors,-20,160,20","i cant really get it,-35,200,20","Brittany","The colors and the brushstrokes are interesting enough.,17,40,20","Crystal","An interesting design but don't like the colors. I value the time and effort put into it, but not a huge fan.,10,300,20","Sierra","i dont like how the colors are mixed,-6,260,20","2"
"111070","","survey-text","138","2420929","0.0-137.0-0.0","AF3G89Q97D0DR","","","","{""Q0"":""Kind of a lot going on, kind of abstract, but it's a horseman riding over something or someone while another creature or person watches from on high. Very striking, albeit not very high contrast.""}","","","","","","","","","","","","","","","","","","","","","","",""
"7631.700000047684","","image-slider-response","139","2428562","0.0-138.0","AF3G89Q97D0DR","","","","","30","","","","","","","","","","","","","","","","","","","","","",""
"null","","image-button-response","140","2433565","0.0-139.0","AF3G89Q97D0DR","img_art/18.jpg","null","","","","","","","","","","","","","","","","","","","","","","","","",""
"11439","","image-button-response","141","2445005","0.0-140.0","AF3G89Q97D0DR","img_art/18.jpg","3","","","","","","","","","","","","","","","","","","","","","","","","",""
"6159","","image-button-response","142","2451166","0.0-141.0-0.0","AF3G89Q97D0DR","img_art/18.jpg","2","","","","","","","","","","","","","","","","","","","","","","","","",""
"4631","","image-button-response","143","2455799","0.0-142.0-0.0","AF3G89Q97D0DR","img_art/18.jpg","1","","","","","","","","","","","","","","","","","","","","","","","","",""
"null","","html-keyboard-response","144","2456300","0.0-143.0","AF3G89Q97D0DR","<p style=""font-size: 48px;"">+</p>","","","","","null","allTrialResponses","500","1","14","img_art/18.jpg","30","Kind of a lot going on, kind of abstract, but it's a horseman riding over something or someone while another creature or person watches from on high. Very striking, albeit not very high contrast.","Brooke,Sierra,Brittany,Crystal,Christina,Mariah","Don't like the color scheme. Or the theme.,-5,60,20","it looks like people,9,260,20","This is really interesting to look at. I like the colors and the spectral look.,27,40,20","I love this because abstractly depicts the apocalypse. The white horse and its rider as Death, described in religious texts and pop culture. ""He rode a pale horse and his name was death."",50,300,20","it looks dreary and not uplifting,-10,240,20","It is too busy, but the colors are pleasant.,15,140,20","Crystal","I love this because abstractly depicts the apocalypse. The white horse and its rider as Death, described in religious texts and pop culture. ""He rode a pale horse and his name was death."",50,300,20","Brittany","This is really interesting to look at. I like the colors and the spectral look.,27,40,20","Sierra","it looks like people,9,260,20","2"
"23991","","survey-text","145","2480298","0.0-144.0-0.0","AF3G89Q97D0DR","","","","{""Q0"":""It's...a pattern. It's fine I guess.""}","","","","","","","","","","","","","","","","","","","","","","",""
"8031.900000095367","","image-slider-response","146","2488331","0.0-145.0","AF3G89Q97D0DR","","","","","-1","","","","","","","","","","","","","","","","","","","","","",""
"null","","image-button-response","147","2493333","0.0-146.0","AF3G89Q97D0DR","img_art/12.jpg","null","","","","","","","","","","","","","","","","","","","","","","","","",""
"3158","","image-button-response","148","2496492","0.0-147.0","AF3G89Q97D0DR","img_art/12.jpg","2","","","","","","","","","","","","","","","","","","","","","","","","",""
"14529","","image-button-response","149","2511023","0.0-148.0-0.0","AF3G89Q97D0DR","img_art/12.jpg","5","","","","","","","","","","","","","","","","","","","","","","","","",""
"2054","","image-button-response","150","2513078","0.0-149.0-0.0","AF3G89Q97D0DR","img_art/12.jpg","1","","","","","","","","","","","","","","","","","","","","","","","","",""
"null","","html-keyboard-response","151","2514579","0.0-150.0","AF3G89Q97D0DR","<p style=""font-size: 48px;"">+</p>","","","","","null","allTrialResponses","1500","1","15","img_art/12.jpg","-1","It's...a pattern. It's fine I guess.","Cynthia,Sierra,Brittany,Crystal,Bailey,Brianna","Windows to a different story,6,320,20","i dont see the point.,-19,260,20","Too blocky and not interesting enough.,-15,40,20","I like the sectioned nature of the squares and curves. Not my favorite but still a good one.,27,300,20","Too many blocks. I can't see a purpose or a focal point,-44,360,20","Don't like it or despise it,1,20,20","Brittany","Too blocky and not interesting enough.,-15,40,20","Brianna","Don't like it or despise it,1,20,20","Sierra","i dont see the point.,-19,260,20","2"
"3791","","survey-text","152","2518375","0.0-151.0-0.0","AF3G89Q97D0DR","","","","{""Q0"":""course""}","","","","","","","","","","","","","","","","","","","","","","",""
"182793","","survey-text","153","2701169","0.0-152.0-0.0","AF3G89Q97D0DR","","","","{""Q0"":""Really unsettling. That looks like an old-fashioned pistol down in the corner, with its barrel opened up. And on the right it looks like...well I'm not even going to describe what it looks like happened.""}","","","","","","","","","","","","","","","","","","","","","","",""
"5519.599999904633","","image-slider-response","154","2706690","0.0-153.0","AF3G89Q97D0DR","","","","","-10","","","","","","","","","","","","","","","","","","","","","",""
"null","","image-button-response","155","2711692","0.0-154.0","AF3G89Q97D0DR","img_art/16.jpg","null","","","","","","","","","","","","","","","","","","","","","","","","",""
"1270","","image-button-response","156","2712963","0.0-155.0","AF3G89Q97D0DR","img_art/16.jpg","0","","","","","","","","","","","","","","","","","","","","","","","","",""
"5767","","image-button-response","157","2718732","0.0-156.0-0.0","AF3G89Q97D0DR","img_art/16.jpg","1","","","","","","","","","","","","","","","","","","","","","","","","",""
"2030","","image-button-response","158","2720764","0.0-157.0-0.0","AF3G89Q97D0DR","img_art/16.jpg","3","","","","","","","","","","","","","","","","","","","","","","","","",""
"null","","html-keyboard-response","159","2721266","0.0-158.0","AF3G89Q97D0DR","<p style=""font-size: 48px;"">+</p>","","","","","null","allTrialResponses","500","1","16","img_art/16.jpg","-10","Really unsettling. That looks like an old-fashioned pistol down in the corner, with its barrel opened up. And on the right it looks like...well I'm not even going to describe what it looks like happened.","Lindsey,Sierra,Brittany,Molly,Haley,Brianna","It's depressing. Probably achieved its goal. But I wouldn't want it hanging in my home.,-31,400,20","it looks psychotic,-31,260,20","Kind of dull, colors and drawings are not really interesting.,0,40,20","It's frightening.,30,340,20","Makes me want to know more,5,220,20","It is interesting to say the least,0,20,20","Lindsey","It's depressing. Probably achieved its goal. But I wouldn't want it hanging in my home.,-31,400,20","Sierra","it looks psychotic,-31,260,20","Molly","It's frightening.,30,340,20","2"
"31403","","survey-text","160","2752672","0.0-159.0-0.0","AF3G89Q97D0DR","","","","{""Q0"":""Branches, leaves, and some kind of flower or fruit. It's not bad.""}","","","","","","","","","","","","","","","","","","","","","","",""
"5767.600000023842","","image-slider-response","161","2758441","0.0-160.0","AF3G89Q97D0DR","","","","","10","","","","","","","","","","","","","","","","","","","","","",""
"null","","image-button-response","162","2763445","0.0-161.0","AF3G89Q97D0DR","img_art/15.jpg","null","","","","","","","","","","","","","","","","","","","","","","","","",""
"10725","","image-button-response","163","2774172","0.0-162.0","AF3G89Q97D0DR","img_art/15.jpg","4","","","","","","","","","","","","","","","","","","","","","","","","",""
"2382","","image-button-response","164","2776556","0.0-163.0-0.0","AF3G89Q97D0DR","img_art/15.jpg","5","","","","","","","","","","","","","","","","","","","","","","","","",""
"6176","","image-button-response","165","2782733","0.0-164.0-0.0","AF3G89Q97D0DR","img_art/15.jpg","0","","","","","","","","","","","","","","","","","","","","","","","","",""
"null","","html-keyboard-response","166","2783234","0.0-165.0","AF3G89Q97D0DR","<p style=""font-size: 48px;"">+</p>","","","","","null","allTrialResponses","500","1","17","img_art/15.jpg","10","Branches, leaves, and some kind of flower or fruit. It's not bad.","Lindsey,Sierra,Hailey,Molly,Alexandria,Kylie","Not a fan. This piece would only go with very specific decor in a modern home.,-35,400,20","i cant find somthing ilike about it,-31,260,20","ugly picture and don't like it,-22,200,20","I can't see the meaning of the painting.,-30,340,20","it looks like trees but they are up to interpretation,16,80,20","I don't know how I feel about this,31,300,20","Alexandria","it looks like trees but they are up to interpretation,16,80,20","Kylie","I don't know how I feel about this,31,300,20","Lindsey","Not a fan. This piece would only go with very specific decor in a modern home.,-35,400,20","2"
"33323","","survey-text","167","2816562","0.0-166.0-0.0","AF3G89Q97D0DR","","","","{""Q0"":""Is it perhaps a water treatment plant? It looks interesting.""}","","","","","","","","","","","","","","","","","","","","","","",""
"5527.700000047684","","image-slider-response","168","2822091","0.0-167.0","AF3G89Q97D0DR","","","","","20","","","","","","","","","","","","","","","","","","","","","",""
"null","","image-button-response","169","2827093","0.0-168.0","AF3G89Q97D0DR","img_art/20.jpg","null","","","","","","","","","","","","","","","","","","","","","","","","",""
"28648","","image-button-response","170","2855743","0.0-169.0","AF3G89Q97D0DR","img_art/20.jpg","5","","","","","","","","","","","","","","","","","","","","","","","","",""
"1487","","image-button-response","171","2857232","0.0-170.0-0.0","AF3G89Q97D0DR","img_art/20.jpg","1","","","","","","","","","","","","","","","","","","","","","","","","",""
"28466","","image-button-response","172","2885700","0.0-171.0-0.0","AF3G89Q97D0DR","img_art/20.jpg","3","","","","","","","","","","","","","","","","","","","","","","","","",""
"null","","html-keyboard-response","173","2886201","0.0-172.0","AF3G89Q97D0DR","<p style=""font-size: 48px;"">+</p>","","","","","null","allTrialResponses","500","1","18","img_art/20.jpg","20","Is it perhaps a water treatment plant? It looks interesting.","Lindsey,Marissa,Jordan,Danielle,Alexandria,Kylie","Not sure what it is. The colors are pleasant; makes me want to figure it out. An animal skull in the desert?,10,400,20","I feel intrigued and impressed,34,160,20","It's okay, I see what looks like a truck laying on it's side. Meh,10,20,20","Don't really like the subject it focuses on, however the color usage is great,-10,340,20","it looks like a car crash which is depressing,-19,80,20","City life vs shore life,40,300,20","Kylie","City life vs shore life,40,300,20","Marissa","I feel intrigued and impressed,34,160,20","Danielle","Don't really like the subject it focuses on, however the color usage is great,-10,340,20","2"
"44109","","survey-text","174","2930314","0.0-173.0-0.0","AF3G89Q97D0DR","","","","{""Q0"":""I have no idea, but I kind of like looking at it.""}","","","","","","","","","","","","","","","","","","","","","","",""
"4071.399999976158","","image-slider-response","175","2934386","0.0-174.0","AF3G89Q97D0DR","","","","","10","","","","","","","","","","","","","","","","","","","","","",""
"null","","image-button-response","176","2939389","0.0-175.0","AF3G89Q97D0DR","img_art/29.jpg","null","","","","","","","","","","","","","","","","","","","","","","","","",""
"13606","","image-button-response","177","2952997","0.0-176.0","AF3G89Q97D0DR","img_art/29.jpg","2","","","","","","","","","","","","","","","","","","","","","","","","",""
"5855","","image-button-response","178","2958854","0.0-177.0-0.0","AF3G89Q97D0DR","img_art/29.jpg","4","","","","","","","","","","","","","","","","","","","","","","","","",""
"775","","image-button-response","179","2959630","0.0-178.0-0.0","AF3G89Q97D0DR","img_art/29.jpg","5","","","","","","","","","","","","","","","","","","","","","","","","",""
"null","","html-keyboard-response","180","2960633","0.0-179.0","AF3G89Q97D0DR","<p style=""font-size: 48px;"">+</p>","","","","","null","allTrialResponses","1000","1","19","img_art/29.jpg","10","I have no idea, but I kind of like looking at it.","Tiffany,Marissa,Victoria,Danielle,Diana,Kylie","I feel a little disgust. There is something off-putting about the smooth shapes and dark colors.,-43,360,20","It makes me feel as though the artist put in a lot of time and effort and then gave up,10,160,20","makes me think of destruction,-20,400,20","Quite ugly in my opinion,-30,340,20","I rated it lower because it looked like a crime scene. It didn't make me feel good.,-44,380,20","Reminds me of graffitti gone wrong,15,300,20","Victoria","makes me think of destruction,-20,400,20","Diana","I rated it lower because it looked like a crime scene. It didn't make me feel good.,-44,380,20","Kylie","Reminds me of graffitti gone wrong,15,300,20","2"
"46564","","survey-text","181","3007204","0.0-180.0-0.0","AF3G89Q97D0DR","","","","{""Q0"":""Why does it look to me like a bridge collapsing and vehicles falling in the water?""}","","","","","","","","","","","","","","","","","","","","","","",""
"4199.700000047684","","image-slider-response","182","3011405","0.0-181.0","AF3G89Q97D0DR","","","","","5","","","","","","","","","","","","","","","","","","","","","",""
"null","","image-button-response","183","3016407","0.0-182.0","AF3G89Q97D0DR","img_art/10.jpg","null","","","","","","","","","","","","","","","","","","","","","","","","",""
"4671","","image-button-response","184","3021079","0.0-183.0","AF3G89Q97D0DR","img_art/10.jpg","0","","","","","","","","","","","","","","","","","","","","","","","","",""
"5743","","image-button-response","185","3026823","0.0-184.0-0.0","AF3G89Q97D0DR","img_art/10.jpg","4","","","","","","","","","","","","","","","","","","","","","","","","",""
"2863","","image-button-response","186","3029688","0.0-185.0-0.0","AF3G89Q97D0DR","img_art/10.jpg","5","","","","","","","","","","","","","","","","","","","","","","","","",""
"null","","html-keyboard-response","187","3031190","0.0-186.0","AF3G89Q97D0DR","<p style=""font-size: 48px;"">+</p>","","","","","null","allTrialResponses","1500","1","20","img_art/10.jpg","5","Why does it look to me like a bridge collapsing and vehicles falling in the water?","Morgan,Mary,Victoria,Autumn,Diana,Kylie","Roller coaster on an island.,9,380,20","The flow of lines is off. There are curvy and straight angry lines. It's not flattering at all.,-27,180,20","absolutely beautiful piece of art,49,400,20","It just looks like a dirty stain.,-38,340,20","It reminds me of the ocean. Almost like a battlefield, but on the water.,19,380,20","Musical guitar whimsy,45,300,20","Morgan","Roller coaster on an island.,9,380,20","Diana","It reminds me of the ocean. Almost like a battlefield, but on the water.,19,380,20","Kylie","Musical guitar whimsy,45,300,20","2"
"2670","","survey-text","188","3033865","0.0-187.0-0.0","AF3G89Q97D0DR","","","","{""Q0"":""we""}","","","","","","","","","","","","","","","","","","","","","","",""
"28907","","survey-text","189","3062774","0.0-188.0-0.0","AF3G89Q97D0DR","","","","{""Q0"":""It's like a row of people on a cosmic backdrop. Groovy.""}","","","","","","","","","","","","","","","","","","","","","","",""
"3870.6999999284744","","image-slider-response","190","3066645","0.0-189.0","AF3G89Q97D0DR","","","","","5","","","","","","","","","","","","","","","","","","","","","",""
"4792","","image-button-response","191","3071647","0.0-190.0","AF3G89Q97D0DR","img_art/23.jpg","0","","","","","","","","","","","","","","","","","","","","","","","","",""
"23625","","image-button-response","192","3095274","0.0-191.0","AF3G89Q97D0DR","img_art/23.jpg","4","","","","","","","","","","","","","","","","","","","","","","","","",""
"542","","image-button-response","193","3095818","0.0-192.0-0.0","AF3G89Q97D0DR","img_art/23.jpg","5","","","","","","","","","","","","","","","","","","","","","","","","",""
"2607","","image-button-response","194","3098426","0.0-193.0-0.0","AF3G89Q97D0DR","img_art/23.jpg","0","","","","","","","","","","","","","","","","","","","","","","","","",""
"null","","html-keyboard-response","195","3099428","0.0-194.0","AF3G89Q97D0DR","<p style=""font-size: 48px;"">+</p>","","","","","null","allTrialResponses","1000","1","21","img_art/23.jpg","5","It's like a row of people on a cosmic backdrop. Groovy.","Morgan,Rebecca,Chloe,Jenna,Diana,Kylie","Unicorns flying through a colorful space.,25,380,20","love the contrast (was this painted by a left-handed artist?),7,100,20","Poster shop camp.,-40,220,20","awesome colors. love the white drawing the eye to the center. oddly comforting.,50,360,20","I thought this art was exciting and it reminded me of dancing people.,12,380,20","Universal celebration,40,300,20","Diana","I thought this art was exciting and it reminded me of dancing people.,12,380,20","Kylie","Universal celebration,40,300,20","Morgan","Unicorns flying through a colorful space.,25,380,20","2"
"110951","","survey-text","196","3210386","0.0-195.0-0.0","AF3G89Q97D0DR","","","","{""Q0"":""A nice sky, a cliff, and is that...a flying whale rising out of the sea on the right?! It must be all that red lyrium!""}","","","","","","","","","","","","","","","","","","","","","","",""
"5519.200000047684","","image-slider-response","197","3215907","0.0-196.0","AF3G89Q97D0DR","","","","","25","","","","","","","","","","","","","","","","","","","","","",""
"null","","image-button-response","198","3220909","0.0-197.0","AF3G89Q97D0DR","img_art/21.jpg","null","","","","","","","","","","","","","","","","","","","","","","","","",""
"12653","","image-button-response","199","3233565","0.0-198.0","AF3G89Q97D0DR","img_art/21.jpg","4","","","","","","","","","","","","","","","","","","","","","","","","",""
"1319","","image-button-response","200","3234885","0.0-199.0-0.0","AF3G89Q97D0DR","img_art/21.jpg","1","","","","","","","","","","","","","","","","","","","","","","","","",""
"295","","image-button-response","201","3235182","0.0-200.0-0.0","AF3G89Q97D0DR","img_art/21.jpg","0","","","","","","","","","","","","","","","","","","","","","","","","",""
"null","","html-keyboard-response","202","3235683","0.0-201.0","AF3G89Q97D0DR","<p style=""font-size: 48px;"">+</p>","","","","","null","allTrialResponses","500","1","22","img_art/21.jpg","25","A nice sky, a cliff, and is that...a flying whale rising out of the sea on the right?! It must be all that red lyrium!","Morgan,Erica,Andrea,Margaret,Diana,Kylie","Survivable storm on the open sea.,27,380,20","Relaxing and easy to look at,27,80,20","It feels like a day at sea but the pink is slightly jarring and holding my eye.,26,240,20","i like the colors and the blending,17,100,20","Makes me feel light and airy. Like I've gone back in time to 1700th century France.,43,380,20","Makes me think of a battleship targeting a beautiful mountainside,0,300,20","Diana","Makes me feel light and airy. Like I've gone back in time to 1700th century France.,43,380,20","Erica","Relaxing and easy to look at,27,80,20","Morgan","Survivable storm on the open sea.,27,380,20","2"
"31539","","survey-text","203","3267226","0.0-202.0-0.0","AF3G89Q97D0DR","","","","{""Q0"":""Some kind of strange tree. It's interesting to imagine what unusual elements it's composed of.""}","","","","","","","","","","","","","","","","","","","","","","",""
"3263.5","","image-slider-response","204","3270490","0.0-203.0","AF3G89Q97D0DR","","","","","5","","","","","","","","","","","","","","","","","","","","","",""
"null","","image-button-response","205","3275492","0.0-204.0","AF3G89Q97D0DR","img_art/14.jpg","null","","","","","","","","","","","","","","","","","","","","","","","","",""
"6535","","image-button-response","206","3282028","0.0-205.0","AF3G89Q97D0DR","img_art/14.jpg","1","","","","","","","","","","","","","","","","","","","","","","","","",""
"1031","","image-button-response","207","3283060","0.0-206.0-0.0","AF3G89Q97D0DR","img_art/14.jpg","2","","","","","","","","","","","","","","","","","","","","","","","","",""
"1247","","image-button-response","208","3284308","0.0-207.0-0.0","AF3G89Q97D0DR","img_art/14.jpg","4","","","","","","","","","","","","","","","","","","","","","","","","",""
"null","","html-keyboard-response","209","3284809","0.0-208.0","AF3G89Q97D0DR","<p style=""font-size: 48px;"">+</p>","","","","","null","allTrialResponses","500","1","23","img_art/14.jpg","5","Some kind of strange tree. It's interesting to imagine what unusual elements it's composed of.","Morgan,Erica,Anna,Alicia,Diana,Kelsey","Angled, colored, boxy.,10,380,20","positive colours, makes me to look at it and investigate what is going on,27,80,20","It reminds me of a tree in the desert.,15,300,20","ok, gloomy though.,12,120,20","This piece feels inviting. It's like opening up the pages of your favorite book for the first time.,26,380,20","i like this one!,23,240,20","Erica","positive colours, makes me to look at it and investigate what is going on,27,80,20","Anna","It reminds me of a tree in the desert.,15,300,20","Diana","This piece feels inviting. It's like opening up the pages of your favorite book for the first time.,26,380,20","2"
"30905","","survey-text","210","3315721","0.0-209.0-0.0","AF3G89Q97D0DR","","","","{""Q0"":""It makes me think of a city awash in the glow of the setting sun.""}","","","","","","","","","","","","","","","","","","","","","","",""
"7047.599999904633","","image-slider-response","211","3322770","0.0-210.0","AF3G89Q97D0DR","","","","","25","","","","","","","","","","","","","","","","","","","","","",""
"null","","image-button-response","212","3327771","0.0-211.0","AF3G89Q97D0DR","img_art/22.jpg","null","","","","","","","","","","","","","","","","","","","","","","","","",""
"5246","","image-button-response","213","3333020","0.0-212.0","AF3G89Q97D0DR","img_art/22.jpg","4","","","","","","","","","","","","","","","","","","","","","","","","",""
"5071","","image-button-response","214","3338092","0.0-213.0-0.0","AF3G89Q97D0DR","img_art/22.jpg","1","","","","","","","","","","","","","","","","","","","","","","","","",""
"695","","image-button-response","215","3338788","0.0-214.0-0.0","AF3G89Q97D0DR","img_art/22.jpg","5","","","","","","","","","","","","","","","","","","","","","","","","",""
"null","","html-keyboard-response","216","3339290","0.0-215.0","AF3G89Q97D0DR","<p style=""font-size: 48px;"">+</p>","","","","","null","allTrialResponses","500","1","24","img_art/22.jpg","25","It makes me think of a city awash in the glow of the setting sun.","Katherine,Erica,Anna,Kristen,Diana,Claire","Cool squares but what's the circle?,38,120,20","Picture is very relaxing,32,80,20","Boring, typical abstract art,-30,300,20","fire, danger, resentful,-17,280,20","I think the colors are beautiful they remind me of a sunset.,13,380,20","I enjoy the colors used,24,260,20","Diana","I think the colors are beautiful they remind me of a sunset.,13,380,20","Erica","Picture is very relaxing,32,80,20","Claire","I enjoy the colors used,24,260,20","2"
"81142","","survey-text","217","3420439","0.0-216.0-0.0","AF3G89Q97D0DR","","","","{""Q0"":""It looks like the main dining area of a cruise ship.""}","","","","","","","","","","","","","","","","","","","","","","",""
"2999.100000023842","","image-slider-response","218","3423440","0.0-217.0","AF3G89Q97D0DR","","","","","5","","","","","","","","","","","","","","","","","","","","","",""
"null","","image-button-response","219","3428441","0.0-218.0","AF3G89Q97D0DR","img_art/19.jpg","null","","","","","","","","","","","","","","","","","","","","","","","","",""
"10664","","image-button-response","220","3439106","0.0-219.0","AF3G89Q97D0DR","img_art/19.jpg","4","","","","","","","","","","","","","","","","","","","","","","","","",""
"6656","","image-button-response","221","3445763","0.0-220.0-0.0","AF3G89Q97D0DR","img_art/19.jpg","0","","","","","","","","","","","","","","","","","","","","","","","","",""
"591","","image-button-response","222","3446356","0.0-221.0-0.0","AF3G89Q97D0DR","img_art/19.jpg","2","","","","","","","","","","","","","","","","","","","","","","","","",""
"null","","html-keyboard-response","223","3447357","0.0-222.0","AF3G89Q97D0DR","<p style=""font-size: 48px;"">+</p>","","","","","null","allTrialResponses","1000","1","25","img_art/19.jpg","5","It looks like the main dining area of a cruise ship.","Kathryn,Erica,Julia,Dominique,Diana,Claire","This one feels pretty neutral. Like a window into someone's life, one person in a bustling metropolis.,0,140,20","very lively and colourful,21,80,20","I like this style but don't really like the specific setting of the landscape,-7,40,20","I really like the colors and feel of this one and alot of life,41,400,20","I wasn't sure if I liked it or hated it. It oddly reminds me of a clothing store.,11,380,20","way too much going on,-33,260,20","Diana","I wasn't sure if I liked it or hated it. It oddly reminds me of a clothing store.,11,380,20","Kathryn","This one feels pretty neutral. Like a window into someone's life, one person in a bustling metropolis.,0,140,20","Julia","I like this style but don't really like the specific setting of the landscape,-7,40,20","2"
"4224","","survey-text","224","3451588","0.0-223.0-0.0","AF3G89Q97D0DR","","","","{""Q0"":""table""}","","","","","","","","","","","","","","","","","","","","","","",""
"91947","","survey-text","225","3543537","0.0-224.0-0.0","AF3G89Q97D0DR","","","","{""Q0"":""A path bordered by low fences. A large tree reaches its branches out over the path from behind the fence. The scene is washed out in the harsh daylight.""}","","","","","","","","","","","","","","","","","","","","","","",""
"4975.5","","image-slider-response","226","3548514","0.0-225.0","AF3G89Q97D0DR","","","","","40","","","","","","","","","","","","","","","","","","","","","",""
"null","","image-button-response","227","3553517","0.0-226.0","AF3G89Q97D0DR","img_art/17.jpg","null","","","","","","","","","","","","","","","","","","","","","","","","",""
"14197","","image-button-response","228","3567716","0.0-227.0","AF3G89Q97D0DR","img_art/17.jpg","5","","","","","","","","","","","","","","","","","","","","","","","","",""
"36196","","image-button-response","229","3603913","0.0-228.0-0.0","AF3G89Q97D0DR","img_art/17.jpg","3","","","","","","","","","","","","","","","","","","","","","","","","",""
"4232","","image-button-response","230","3608146","0.0-229.0-0.0","AF3G89Q97D0DR","img_art/17.jpg","4","","","","","","","","","","","","","","","","","","","","","","","","",""
"null","","html-keyboard-response","231","3608647","0.0-230.0","AF3G89Q97D0DR","<p style=""font-size: 48px;"">+</p>","","","","","null","allTrialResponses","500","1","26","img_art/17.jpg","40","A path bordered by low fences. A large tree reaches its branches out over the path from behind the fence. The scene is washed out in the harsh daylight.","Kathryn,Meghan,Julia,Amy,Diana,Laura","Reminds me of the modern art museum in Rome. I didn't ""get"" many pieces, but had a positive cultural experience overall.,20,140,20","pretty bland in coloring,1,220,20","I'm not into paintings of trees,-18,40,20","peaceful. contemplative. balanced. old,10,220,20","I really enjoyed this piece, it's a play on bringing the outside indoors.,32,380,20","home - reminds me of fond memories of the Barnes Museum courtyard (looks just like it),30,320,20","Laura","home - reminds me of fond memories of the Barnes Museum courtyard (looks just like it),30,320,20","Amy","peaceful. contemplative. balanced. old,10,220,20","Diana","I really enjoyed this piece, it's a play on bringing the outside indoors.,32,380,20","2"
"36329","","survey-text","232","3644983","0.0-231.0-0.0","AF3G89Q97D0DR","","","","{""Q0"":""I don't know what this is but it's uncomfortable.""}","","","","","","","","","","","","","","","","","","","","","","",""
"7687.5","","image-slider-response","233","3652672","0.0-232.0","AF3G89Q97D0DR","","","","","-10","","","","","","","","","","","","","","","","","","","","","",""
"null","","image-button-response","234","3657674","0.0-233.0","AF3G89Q97D0DR","img_art/11.jpg","null","","","","","","","","","","","","","","","","","","","","","","","","",""
"23664","","image-button-response","235","3681340","0.0-234.0","AF3G89Q97D0DR","img_art/11.jpg","1","","","","","","","","","","","","","","","","","","","","","","","","",""
"1231","","image-button-response","236","3682573","0.0-235.0-0.0","AF3G89Q97D0DR","img_art/11.jpg","2","","","","","","","","","","","","","","","","","","","","","","","","",""
"2878","","image-button-response","237","3685453","0.0-236.0-0.0","AF3G89Q97D0DR","img_art/11.jpg","0","","","","","","","","","","","","","","","","","","","","","","","","",""
"null","","html-keyboard-response","238","3685955","0.0-237.0","AF3G89Q97D0DR","<p style=""font-size: 48px;"">+</p>","","","","","null","allTrialResponses","500","1","27","img_art/11.jpg","-10","I don't know what this is but it's uncomfortable.","Grace,Lauren,Jacqueline,Amy,Diana,Laura","Rainy asian city scape.,31,180,20","I like how this piece can be interpreted in different ways, such as a village on hilly terrain.,10,340,20","It's too dark and dingy.,-30,300,20","Simple and complex. Hopeful yet dark. I love this,35,220,20","It makes my head feel dizzy. So I rated it lower.,-25,380,20","i think of beatnik music and dark piano lounges,25,320,20","Lauren","I like how this piece can be interpreted in different ways, such as a village on hilly terrain.,10,340,20","Jacqueline","It's too dark and dingy.,-30,300,20","Grace","Rainy asian city scape.,31,180,20","2"
"15150","","survey-text","239","3701112","0.0-238.0-0.0","AF3G89Q97D0DR","","","","{""Q0"":""It's like a sunset river.""}","","","","","","","","","","","","","","","","","","","","","","",""
"6583.399999976158","","image-slider-response","240","3707696","0.0-239.0","AF3G89Q97D0DR","","","","","10","","","","","","","","","","","","","","","","","","","","","",""
"3616","","image-button-response","241","3712699","0.0-240.0","AF3G89Q97D0DR","img_art/1.jpg","0","","","","","","","","","","","","","","","","","","","","","","","","",""
"7846","","image-button-response","242","3720547","0.0-241.0","AF3G89Q97D0DR","img_art/1.jpg","1","","","","","","","","","","","","","","","","","","","","","","","","",""
"10368","","image-button-response","243","3730916","0.0-242.0-0.0","AF3G89Q97D0DR","img_art/1.jpg","5","","","","","","","","","","","","","","","","","","","","","","","","",""
"2239","","image-button-response","244","3733156","0.0-243.0-0.0","AF3G89Q97D0DR","img_art/1.jpg","0","","","","","","","","","","","","","","","","","","","","","","","","",""
"null","","html-keyboard-response","245","3734658","0.0-244.0","AF3G89Q97D0DR","<p style=""font-size: 48px;"">+</p>","","","","","null","allTrialResponses","1500","1","28","img_art/1.jpg","10","It's like a sunset river.","Grace,Lauren,Jacqueline,Jessica,Leah,Gabriela","Again, like the colors & abstractness.,29,180,20","This image doesn't invoke much in me.,0,340,20","It's alright but lacks any depth.,-5,300,20","Looks like the same thing as the last piece shown to me,10,400,20","Pretty intermeshing of colors, happy,32,360,20","This photo reminds me of a fall afternoon, serene,11,140,20","Lauren","This image doesn't invoke much in me.,0,340,20","Gabriela","This photo reminds me of a fall afternoon, serene,11,140,20","Grace","Again, like the colors & abstractness.,29,180,20","2"
"20133","","survey-text","246","3754799","0.0-245.0-0.0","AF3G89Q97D0DR","","","","{""Q0"":""Yellow trash bag? It's fine I guess.""}","","","","","","","","","","","","","","","","","","","","","","",""
"3983.5","","image-slider-response","247","3758783","0.0-246.0","AF3G89Q97D0DR","","","","","-1","","","","","","","","","","","","","","","","","","","","","",""
"4439","","image-button-response","248","3763784","0.0-247.0","AF3G89Q97D0DR","img_art/5.jpg","0","","","","","","","","","","","","","","","","","","","","","","","","",""
"9616","","image-button-response","249","3773402","0.0-248.0","AF3G89Q97D0DR","img_art/5.jpg","1","","","","","","","","","","","","","","","","","","","","","","","","",""
"1367","","image-button-response","250","3774770","0.0-249.0-0.0","AF3G89Q97D0DR","img_art/5.jpg","5","","","","","","","","","","","","","","","","","","","","","","","","",""
"1967","","image-button-response","251","3776737","0.0-250.0-0.0","AF3G89Q97D0DR","img_art/5.jpg","0","","","","","","","","","","","","","","","","","","","","","","","","",""
"null","","html-keyboard-response","252","3777739","0.0-251.0","AF3G89Q97D0DR","<p style=""font-size: 48px;"">+</p>","","","","","null","allTrialResponses","1000","1","29","img_art/5.jpg","-1","Yellow trash bag? It's fine I guess.","Grace,Lauren,Heather,Gabrielle,Caroline,Gabriela","Looks like a yellow plastic trash bag.,-42,180,20","I like the simplicity of the design, but I can't tell what the image is trying to depict.,10,340,20","its something. i just dont know what it is.,1,260,20","looks like a 2nd grader did it,-50,160,20","Too much angular things happening, makes me think of stabbing something which makes me uncomfortable,-50,100,20","I am confused as to what this is supposed to be,6,140,20","Lauren","I like the simplicity of the design, but I can't tell what the image is trying to depict.,10,340,20","Gabriela","I am confused as to what this is supposed to be,6,140,20","Grace","Looks like a yellow plastic trash bag.,-42,180,20","2"
"20217","","survey-text","253","3797964","0.0-252.0-0.0","AF3G89Q97D0DR","","","","{""Q0"":""A waterfall. I don't mind it. Not the best I've seen.""}","","","","","","","","","","","","","","","","","","","","","","",""
"2871","","image-slider-response","254","3800837","0.0-253.0","AF3G89Q97D0DR","","","","","5","","","","","","","","","","","","","","","","","","","","","",""
"null","","image-button-response","255","3805838","0.0-254.0","AF3G89Q97D0DR","img_art/24.jpg","null","","","","","","","","","","","","","","","","","","","","","","","","",""
"1101","","image-button-response","256","3806942","0.0-255.0","AF3G89Q97D0DR","img_art/24.jpg","1","","","","","","","","","","","","","","","","","","","","","","","","",""
"1654","","image-button-response","257","3808598","0.0-256.0-0.0","AF3G89Q97D0DR","img_art/24.jpg","2","","","","","","","","","","","","","","","","","","","","","","","","",""
"5928","","image-button-response","258","3814527","0.0-257.0-0.0","AF3G89Q97D0DR","img_art/24.jpg","3","","","","","","","","","","","","","","","","","","","","","","","","",""
"null","","html-keyboard-response","259","3815029","0.0-258.0","AF3G89Q97D0DR","<p style=""font-size: 48px;"">+</p>","","","","","null","allTrialResponses","500","1","30","img_art/24.jpg","5","A waterfall. I don't mind it. Not the best I've seen.","Grace,Lauren,Sydney,Briana,Paige,Gabriela","Abstract falls & nature.,41,180,20","Invokes a strong sense of nature, since the piece can interpreted as a stream or an abstracted bird.,40,340,20","I'm reminded of a waterfall, but I feel like it could've been better portrayed.,5,320,20","Abstract waterfall landscape. Confusing,-13,400,20","somewhat happy. I like the colors,38,60,20","I love how bold and vibrant the colors are,40,140,20","Lauren","Invokes a strong sense of nature, since the piece can interpreted as a stream or an abstracted bird.,40,340,20","Sydney","I'm reminded of a waterfall, but I feel like it could've been better portrayed.,5,320,20","Briana","Abstract waterfall landscape. Confusing,-13,400,20","2"
"4379","","image-button-response_instructions","260","3819416","0.0-259.0","AF3G89Q97D0DR","","0","instructions","","","","","","","","","","","","","","","","","","","","","","","",""
"1252","","image-button-response","261","3820672","0.0-260.0","AF3G89Q97D0DR","","0","","","","","","","","","","","","","","","","","","","","","","","","",""
