"rt","url","trial_type","trial_index","time_elapsed","internal_node_id","participant_id","stimulus","button_pressed","Name","responses","response","key_press","variableName","fixationTime","condition","trial","photo","subjectRating","subjectResponse","agentsNames","agent_1_Response","agent_2_Response","agent_3_Response","agent_4_Response","agent_5_Response","agent_6_Response","kept_1_name","kept_1_response","kept_2_name","kept_2_response","kept_3_name","kept_3_response","errorCounter"
"32000","external_page_harvard.html","external-html","0","32112","0.0-0.0","AFH2OHPQSO6SS","","","","","","","","","","","","","","","","","","","","","","","","","","",""
"2243","","image-button-response","1","34357","0.0-1.0","AFH2OHPQSO6SS","","1","","","","","","","","","","","","","","","","","","","","","","","","",""
"4572","","image-button-response","2","38936","0.0-2.0-0.0","AFH2OHPQSO6SS","","1","phone","","","","","","","","","","","","","","","","","","","","","","","",""
"8875","","survey-text","3","47815","0.0-3.0-0.0","AFH2OHPQSO6SS","","","","{""Q0"":""AFH2OHPQSO6SS""}","","","","","","","","","","","","","","","","","","","","","","",""
"5777","","image-button-response_instructions","4","53597","0.0-4.0","AFH2OHPQSO6SS","","0","instructions","","","","","","","","","","","","","","","","","","","","","","","",""
"14469","","image-button-response_instructions","5","68068","0.0-5.0","AFH2OHPQSO6SS","img_art/ins/popularity/ins1.png","0","instructions","","","","","","","","","","","","","","","","","","","","","","","",""
"7941","","image-button-response_instructions","6","76012","0.0-6.0","AFH2OHPQSO6SS","img_art/ins/popularity/ins2.png","0","instructions","","","","","","","","","","","","","","","","","","","","","","","",""
"7602","","image-button-response_instructions","7","83615","0.0-7.0","AFH2OHPQSO6SS","img_art/ins/popularity/ins2Extreme.png","0","instructions","","","","","","","","","","","","","","","","","","","","","","","",""
"21847","","image-button-response_instructions","8","105465","0.0-8.0","AFH2OHPQSO6SS","img_art/ins/popularity/ins3KEEPpop.PNG","0","instructions","","","","","","","","","","","","","","","","","","","","","","","",""
"4742","","image-button-response_instructions","9","110210","0.0-9.0","AFH2OHPQSO6SS","img_art/ins/popularity/ins3ANamepop.PNG","0","instructions","","","","","","","","","","","","","","","","","","","","","","","",""
"2266","","image-button-response_instructions","10","112478","0.0-10.0","AFH2OHPQSO6SS","img_art/ins/popularity/ins3ARatingpop.png","0","instructions","","","","","","","","","","","","","","","","","","","","","","","",""
"2944","","image-button-response_instructions","11","115424","0.0-11.0","AFH2OHPQSO6SS","img_art/ins/popularity/ins3ATextpop.png","0","instructions","","","","","","","","","","","","","","","","","","","","","","","",""
"5484","","image-button-response_instructions","12","120909","0.0-12.0","AFH2OHPQSO6SS","img_art/ins/popularity/ins3ALikespop.png","0","instructions","","","","","","","","","","","","","","","","","","","","","","","",""
"17459","","image-button-response_instructions","13","138371","0.0-13.0","AFH2OHPQSO6SS","img_art/ins/popularity/ins3KEEPpop.PNG","0","instructions","","","","","","","","","","","","","","","","","","","","","","","",""
"9608","","image-button-response_instructions","14","147981","0.0-14.0","AFH2OHPQSO6SS","img_art/ins/popularity/ins3_5RED.png","0","instructions","","","","","","","","","","","","","","","","","","","","","","","",""
"3410","","image-button-response_instructions","15","151393","0.0-15.0","AFH2OHPQSO6SS","img_art/ins/popularity/ins3KEEPpop.PNG","0","instructions","","","","","","","","","","","","","","","","","","","","","","","",""
"10426","","image-button-response_instructions","16","161821","0.0-16.0","AFH2OHPQSO6SS","img_art/ins/popularity/ins4KEEPpop.PNG","0","instructions","","","","","","","","","","","","","","","","","","","","","","","",""
"3778","","image-button-response_instructions","17","165601","0.0-17.0","AFH2OHPQSO6SS","img_art/ins/popularity/ins5KEEPpop.PNG","0","instructions","","","","","","","","","","","","","","","","","","","","","","","",""
"2613","","image-button-response_instructions","18","168217","0.0-18.0","AFH2OHPQSO6SS","","0","instructions","","","","","","","","","","","","","","","","","","","","","","","",""
"6589","","survey-text","19","174827","0.0-19.0-0.0","AFH2OHPQSO6SS","","","","{""Q0"":""but""}","","","","","","","","","","","","","","","","","","","","","","",""
"28943","","survey-text","20","203772","0.0-20.0-0.0","AFH2OHPQSO6SS","","","","{""Q0"":""i don't like the colors but the brushwork reminds me of rolling fields""}","","","","","","","","","","","","","","","","","","","","","","",""
"10473.89999999851","","image-slider-response","21","214251","0.0-21.0","AFH2OHPQSO6SS","","","","","-7","","","","","","","","","","","","","","","","","","","","","",""
"5002","","image-button-response","22","219257","0.0-22.0","AFH2OHPQSO6SS","img_art/ins/1.jpg","1","","","","","","","","","","","","","","","","","","","","","","","","",""
"3618","","image-button-response","23","222880","0.0-23.0","AFH2OHPQSO6SS","img_art/ins/1.jpg","1","","","","","","","","","","","","","","","","","","","","","","","","",""
"8013","","image-button-response","24","230897","0.0-24.0-0.0","AFH2OHPQSO6SS","img_art/ins/1.jpg","2","","","","","","","","","","","","","","","","","","","","","","","","",""
"11746","","image-button-response","25","242649","0.0-25.0-0.0","AFH2OHPQSO6SS","img_art/ins/1.jpg","4","","","","","","","","","","","","","","","","","","","","","","","","",""
"null","","html-keyboard-response","26","243654","0.0-26.0","AFH2OHPQSO6SS","<p style=""font-size: 48px;"">+</p>","","","","","null","allTrialResponses","1000","1","-2","img_art/ins/1.jpg","-7","i don't like the colors but the brushwork reminds me of rolling fields","Allison,Ashley,Beth,Dora,Erika,Jen","looks like a lot of things going on in the mist,20,20,20","I just don't get why these type of art would be popular,-32,40,20","This color reminds me of poo,-46,60,20","looks like what my niece in 3rd grade did this afternoon,-50,80,20","I like the sophisticated brushwork,40,100,20","It reminds me of a candy land dream I had,36,120,20","Ashley","I just don't get why these type of art would be popular,-32,40,20","Beth","This color reminds me of poo,-46,60,20","Erika","I like the sophisticated brushwork,40,100,20","0"
"17181","","survey-text","27","260842","0.0-27.0-0.0","AFH2OHPQSO6SS","","","","{""Q0"":""reminds me of a torture scene""}","","","","","","","","","","","","","","","","","","","","","","",""
"6469.5","","image-slider-response","28","267315","0.0-28.0","AFH2OHPQSO6SS","","","","","-37","","","","","","","","","","","","","","","","","","","","","",""
"null","","image-button-response","29","272333","0.0-29.0","AFH2OHPQSO6SS","img_art/ins/2.jpg","null","","","","","","","","","","","","","","","","","","","","","","","","",""
"7771","","image-button-response","30","280106","0.0-30.0","AFH2OHPQSO6SS","img_art/ins/2.jpg","0","","","","","","","","","","","","","","","","","","","","","","","","",""
"11521","","image-button-response","31","291629","0.0-31.0-0.0","AFH2OHPQSO6SS","img_art/ins/2.jpg","2","","","","","","","","","","","","","","","","","","","","","","","","",""
"3978","","image-button-response","32","295608","0.0-32.0-0.0","AFH2OHPQSO6SS","img_art/ins/2.jpg","4","","","","","","","","","","","","","","","","","","","","","","","","",""
"null","","html-keyboard-response","33","296611","0.0-33.0","AFH2OHPQSO6SS","<p style=""font-size: 48px;"">+</p>","","","","","null","allTrialResponses","1000","1","-1","img_art/ins/2.jpg","-37","reminds me of a torture scene","Kara,Ashley,Beth,Jenna,Erika,Katie","I like the blocks of color arrangements,30,160,20","Idk, it is just annoying,-32,40,20","meaningless painting,-45,60,20","One of my pet peevs,-48,140,20","I would never be able to compose a sophisticated pallete like this,48,100,20","too much color!,-28,180,20","Kara","I like the blocks of color arrangements,30,160,20","Beth","meaningless painting,-45,60,20","Erika","I would never be able to compose a sophisticated pallete like this,48,100,20","0"
"23175","","survey-text","34","319791","0.0-34.0-0.0","AFH2OHPQSO6SS","","","","{""Q0"":""feels very icy and cold, like a frozen lake from beneath the ice""}","","","","","","","","","","","","","","","","","","","","","","",""
"4462.10000000149","","image-slider-response","35","324258","0.0-35.0","AFH2OHPQSO6SS","","","","","21","","","","","","","","","","","","","","","","","","","","","",""
"null","","image-button-response","36","329273","0.0-36.0","AFH2OHPQSO6SS","img_art/ins/3.jpg","null","","","","","","","","","","","","","","","","","","","","","","","","",""
"4400","","image-button-response","37","333677","0.0-37.0","AFH2OHPQSO6SS","img_art/ins/3.jpg","0","","","","","","","","","","","","","","","","","","","","","","","","",""
"2878","","image-button-response","38","336559","0.0-38.0-0.0","AFH2OHPQSO6SS","img_art/ins/3.jpg","1","","","","","","","","","","","","","","","","","","","","","","","","",""
"3193","","image-button-response","39","339756","0.0-39.0-0.0","AFH2OHPQSO6SS","img_art/ins/3.jpg","2","","","","","","","","","","","","","","","","","","","","","","","","",""
"null","","html-keyboard-response","40","341274","0.0-40.0","AFH2OHPQSO6SS","<p style=""font-size: 48px;"">+</p>","","","","","null","allTrialResponses","1500","1","0","img_art/ins/3.jpg","21","feels very icy and cold, like a frozen lake from beneath the ice","Kara,Mary,Beth,Leslie,Erika,Rose","calming blue is very nice,36,160,20","I like the overlapping of brushes,41,220,20","This thing gives me anxiety,-41,60,20","It's an alright work,15,200,20","I feel connected to the artist,40,100,20","My daily routine, it's depressing,-20,240,20","Kara","calming blue is very nice,36,160,20","Mary","I like the overlapping of brushes,41,220,20","Beth","This thing gives me anxiety,-41,60,20","0"
"5357","","image-button-response_instructions","41","346636","0.0-41.0","AFH2OHPQSO6SS","","0","instructions","","","","","","","","","","","","","","","","","","","","","","","",""
"13120","","survey-likert","42","359760","0.0-42.0-0.0","AFH2OHPQSO6SS","","","","{""Q0"":"""",""Q1"":0,""Q2"":1}","","","","","","","","","","","","","","","","","","","","","","",""
"4157","","survey-text","43","363923","0.0-43.0-0.0","AFH2OHPQSO6SS","","","","{""Q0"":""rock""}","","","","","","","","","","","","","","","","","","","","","","",""
"18065","","survey-text","44","381991","0.0-44.0-0.0","AFH2OHPQSO6SS","","","","{""Q0"":""the longer i look at this, the more fascinating it gets""}","","","","","","","","","","","","","","","","","","","","","","",""
"5143.70000000298","","image-slider-response","45","387139","0.0-45.0","AFH2OHPQSO6SS","","","","","45","","","","","","","","","","","","","","","","","","","","","",""
"3537","","image-button-response","46","392161","0.0-46.0","AFH2OHPQSO6SS","img_art/18.jpg","0","","","","","","","","","","","","","","","","","","","","","","","","",""
"930","","image-button-response","47","393095","0.0-47.0","AFH2OHPQSO6SS","img_art/18.jpg","0","","","","","","","","","","","","","","","","","","","","","","","","",""
"7009","","image-button-response","48","400108","0.0-48.0-0.0","AFH2OHPQSO6SS","img_art/18.jpg","2","","","","","","","","","","","","","","","","","","","","","","","","",""
"1947","","image-button-response","49","402056","0.0-49.0-0.0","AFH2OHPQSO6SS","img_art/18.jpg","4","","","","","","","","","","","","","","","","","","","","","","","","",""
"null","","html-keyboard-response","50","403569","0.0-50.0","AFH2OHPQSO6SS","<p style=""font-size: 48px;"">+</p>","","","","","null","allTrialResponses","1500","1","1","img_art/18.jpg","45","the longer i look at this, the more fascinating it gets","Anna,Vanessa,Sabrina,Emily,Sophia,Sierra","I could spend a long time looking at it and see different things in the shapes.,21,300,20","Again, this is too abtract.,-25,380,20","I love the battle vibe in this,50,120,20","Not my style but I can see some serious skill went int it.,21,40,20","This one is very dark and apocalyptic indeed!,-30,280,20","it looks like people,9,260,20","Anna","I could spend a long time looking at it and see different things in the shapes.,21,300,20","Sabrina","I love the battle vibe in this,50,120,20","Sophia","This one is very dark and apocalyptic indeed!,-30,280,20","0"
"18881","","survey-text","51","422457","0.0-51.0-0.0","AFH2OHPQSO6SS","","","","{""Q0"":""like cities on rolling hills! i love the gloomy colors""}","","","","","","","","","","","","","","","","","","","","","","",""
"4357.69999999553","","image-slider-response","52","426818","0.0-52.0","AFH2OHPQSO6SS","","","","","13","","","","","","","","","","","","","","","","","","","","","",""
"null","","image-button-response","53","431835","0.0-53.0","AFH2OHPQSO6SS","img_art/11.jpg","null","","","","","","","","","","","","","","","","","","","","","","","","",""
"7787","","image-button-response","54","439626","0.0-54.0","AFH2OHPQSO6SS","img_art/11.jpg","4","","","","","","","","","","","","","","","","","","","","","","","","",""
"3831","","image-button-response","55","443462","0.0-55.0-0.0","AFH2OHPQSO6SS","img_art/11.jpg","2","","","","","","","","","","","","","","","","","","","","","","","","",""
"3635","","image-button-response","56","447101","0.0-56.0-0.0","AFH2OHPQSO6SS","img_art/11.jpg","0","","","","","","","","","","","","","","","","","","","","","","","","",""
"null","","html-keyboard-response","57","447605","0.0-57.0","AFH2OHPQSO6SS","<p style=""font-size: 48px;"">+</p>","","","","","null","allTrialResponses","500","1","2","img_art/11.jpg","13","like cities on rolling hills! i love the gloomy colors","Anna,Jessica,Sabrina,Alexandria,Sophia,Gabriela","It makes me think of a coastal sea town.,50,300,20","This looks cool, and definitely comes to life in a way,36,400,20","I love the city chaos from this,50,120,20","it reminds me of music,43,80,20","WOW!  I love how the ships and the seas become one in this piece.,50,280,20","This photo makes me feel bleak,-16,140,20","Sophia","WOW!  I love how the ships and the seas become one in this piece.,50,280,20","Sabrina","I love the city chaos from this,50,120,20","Anna","It makes me think of a coastal sea town.,50,300,20","0"
"19164","","survey-text","58","466780","0.0-58.0-0.0","AFH2OHPQSO6SS","","","","{""Q0"":""looks like a dirty window""}","","","","","","","","","","","","","","","","","","","","","","",""
"4981.0999999940395","","image-slider-response","59","471765","0.0-59.0","AFH2OHPQSO6SS","","","","","-19","","","","","","","","","","","","","","","","","","","","","",""
"null","","image-button-response","60","476783","0.0-60.0","AFH2OHPQSO6SS","img_art/13.jpg","null","","","","","","","","","","","","","","","","","","","","","","","","",""
"6769","","image-button-response","61","483556","0.0-61.0","AFH2OHPQSO6SS","img_art/13.jpg","0","","","","","","","","","","","","","","","","","","","","","","","","",""
"7038","","image-button-response","62","490598","0.0-62.0-0.0","AFH2OHPQSO6SS","img_art/13.jpg","5","","","","","","","","","","","","","","","","","","","","","","","","",""
"6027","","image-button-response","63","496629","0.0-63.0-0.0","AFH2OHPQSO6SS","img_art/13.jpg","4","","","","","","","","","","","","","","","","","","","","","","","","",""
"null","","html-keyboard-response","64","497132","0.0-64.0","AFH2OHPQSO6SS","<p style=""font-size: 48px;"">+</p>","","","","","null","allTrialResponses","500","1","3","img_art/13.jpg","-19","looks like a dirty window","Anna,Jordan,Sabrina,Hailey,Sophia,Meghan","It reminds me of a window on a rainy day.,40,300,20","It's just paint splatter, no real meaning to me,-50,20,20","I love the edgy nature,50,120,20","warm splash of salt water from ocean,16,200,20","I like the colors used in this piece.,2,280,20","I like the transition to other colors,24,220,20","Anna","It reminds me of a window on a rainy day.,40,300,20","Meghan","I like the transition to other colors,24,220,20","Sophia","I like the colors used in this piece.,2,280,20","0"
"36923","","survey-text","65","534063","0.0-65.0-0.0","AFH2OHPQSO6SS","","","","{""Q0"":""something about this looks like it should be in an art gallery but in a bad way""}","","","","","","","","","","","","","","","","","","","","","","",""
"4412.60000000149","","image-slider-response","66","538478","0.0-66.0","AFH2OHPQSO6SS","","","","","-34","","","","","","","","","","","","","","","","","","","","","",""
"null","","image-button-response","67","543492","0.0-67.0","AFH2OHPQSO6SS","img_art/30.jpg","null","","","","","","","","","","","","","","","","","","","","","","","","",""
"8373","","image-button-response","68","551870","0.0-68.0","AFH2OHPQSO6SS","img_art/30.jpg","5","","","","","","","","","","","","","","","","","","","","","","","","",""
"2850","","image-button-response","69","554725","0.0-69.0-0.0","AFH2OHPQSO6SS","img_art/30.jpg","2","","","","","","","","","","","","","","","","","","","","","","","","",""
"1818","","image-button-response","70","556548","0.0-70.0-0.0","AFH2OHPQSO6SS","img_art/30.jpg","4","","","","","","","","","","","","","","","","","","","","","","","","",""
"null","","html-keyboard-response","71","557558","0.0-71.0","AFH2OHPQSO6SS","<p style=""font-size: 48px;"">+</p>","","","","","null","allTrialResponses","1000","1","4","img_art/30.jpg","-34","something about this looks like it should be in an art gallery but in a bad way","Anna,Leah,Brittany,Courtney,Sophia,Meghan","It looks like a pretty but unremarkable painting in a doctors office,15,300,20","Interesting, almost an underworld of plant life,11,360,20","The colors and the brushstrokes are interesting enough.,17,40,20","Some people dancing.,-7,280,20","Hmmm. I think the artist is trying to direct me to a spreadsheet?  (s/s),-10,280,20","nothing special about it,1,220,20","Meghan","nothing special about it,1,220,20","Brittany","The colors and the brushstrokes are interesting enough.,17,40,20","Sophia","Hmmm. I think the artist is trying to direct me to a spreadsheet?  (s/s),-10,280,20","0"
"34600","","survey-text","72","592165","0.0-72.0-0.0","AFH2OHPQSO6SS","","","","{""Q0"":""the shapes in white are like musicians lost in their musical world""}","","","","","","","","","","","","","","","","","","","","","","",""
"3829.10000000149","","image-slider-response","73","595998","0.0-73.0","AFH2OHPQSO6SS","","","","","12","","","","","","","","","","","","","","","","","","","","","",""
"4936","","image-button-response","74","601015","0.0-74.0","AFH2OHPQSO6SS","img_art/23.jpg","0","","","","","","","","","","","","","","","","","","","","","","","","",""
"1342","","image-button-response","75","602360","0.0-75.0","AFH2OHPQSO6SS","img_art/23.jpg","0","","","","","","","","","","","","","","","","","","","","","","","","",""
"10404","","image-button-response","76","612766","0.0-76.0-0.0","AFH2OHPQSO6SS","img_art/23.jpg","3","","","","","","","","","","","","","","","","","","","","","","","","",""
"3693","","image-button-response","77","616462","0.0-77.0-0.0","AFH2OHPQSO6SS","img_art/23.jpg","1","","","","","","","","","","","","","","","","","","","","","","","","",""
"null","","html-keyboard-response","78","617465","0.0-78.0","AFH2OHPQSO6SS","<p style=""font-size: 48px;"">+</p>","","","","","null","allTrialResponses","1000","1","5","img_art/23.jpg","12","the shapes in white are like musicians lost in their musical world","Kathryn,Stephanie,Brittany,Angelica,Sophia,Meghan","I feel positive community and comfort. Singing along at a concert, united with a bunch of strangers through shared joy.,20,140,20","This makes me think of an orchestra playing a forth of july song,12,300,20","The white paint through the middle really draws the eye.,30,40,20","This looks like hotel room art, it's ugly and odd.,-2,280,20","I like the contrast and the bright colors in this one.,6,280,20","reminds me of an album cover,36,220,20","Kathryn","I feel positive community and comfort. Singing along at a concert, united with a bunch of strangers through shared joy.,20,140,20","Angelica","This looks like hotel room art, it's ugly and odd.,-2,280,20","Stephanie","This makes me think of an orchestra playing a forth of july song,12,300,20","0"
"5449","","survey-text","79","622927","0.0-79.0-0.0","AFH2OHPQSO6SS","","","","{""Q0"":""sky""}","","","","","","","","","","","","","","","","","","","","","","",""
"20793","","survey-text","80","643723","0.0-80.0-0.0","AFH2OHPQSO6SS","","","","{""Q0"":""this feels like old grafiti""}","","","","","","","","","","","","","","","","","","","","","","",""
"4924.60000000149","","image-slider-response","81","648649","0.0-81.0","AFH2OHPQSO6SS","","","","","-12","","","","","","","","","","","","","","","","","","","","","",""
"4563","","image-button-response","82","653664","0.0-82.0","AFH2OHPQSO6SS","img_art/28.jpg","0","","","","","","","","","","","","","","","","","","","","","","","","",""
"1639","","image-button-response","83","655307","0.0-83.0","AFH2OHPQSO6SS","img_art/28.jpg","0","","","","","","","","","","","","","","","","","","","","","","","","",""
"7447","","image-button-response","84","662758","0.0-84.0-0.0","AFH2OHPQSO6SS","img_art/28.jpg","3","","","","","","","","","","","","","","","","","","","","","","","","",""
"8538","","image-button-response","85","671301","0.0-85.0-0.0","AFH2OHPQSO6SS","img_art/28.jpg","4","","","","","","","","","","","","","","","","","","","","","","","","",""
"null","","html-keyboard-response","86","671811","0.0-86.0","AFH2OHPQSO6SS","<p style=""font-size: 48px;"">+</p>","","","","","null","allTrialResponses","500","1","6","img_art/28.jpg","-12","this feels like old grafiti","Kathryn,Stephanie,Alexa,Angelica,Mariah,Jenna","My immediate reaction was to think of smog. It recalls choking on dirty air.,-20,140,20","The colors are neutral but I see a mother helping her child,31,300,20","The colors are dull but there's some kind of nostalgic essence of this painting,15,40,20","This is very ugly with poor colors.,-23,280,20","Colors are pleasing, shapes are vaguely unpleasant. Kidneys at a smoky bar.,5,140,20","looks like humanoid figures in distress. I like it, but makes me slightly uncomfortable,35,360,20","Kathryn","My immediate reaction was to think of smog. It recalls choking on dirty air.,-20,140,20","Angelica","This is very ugly with poor colors.,-23,280,20","Mariah","Colors are pleasing, shapes are vaguely unpleasant. Kidneys at a smoky bar.,5,140,20","0"
"21016","","survey-text","87","692833","0.0-87.0-0.0","AFH2OHPQSO6SS","","","","{""Q0"":""a deity looking down upon a doomed city""}","","","","","","","","","","","","","","","","","","","","","","",""
"4147.29999999702","","image-slider-response","88","696982","0.0-88.0","AFH2OHPQSO6SS","","","","","5","","","","","","","","","","","","","","","","","","","","","",""
"null","","image-button-response","89","702000","0.0-89.0","AFH2OHPQSO6SS","img_art/8.jpg","null","","","","","","","","","","","","","","","","","","","","","","","","",""
"12848","","image-button-response","90","714851","0.0-90.0","AFH2OHPQSO6SS","img_art/8.jpg","0","","","","","","","","","","","","","","","","","","","","","","","","",""
"2591","","image-button-response","91","717446","0.0-91.0-0.0","AFH2OHPQSO6SS","img_art/8.jpg","1","","","","","","","","","","","","","","","","","","","","","","","","",""
"10354","","image-button-response","92","727804","0.0-92.0-0.0","AFH2OHPQSO6SS","img_art/8.jpg","2","","","","","","","","","","","","","","","","","","","","","","","","",""
"null","","html-keyboard-response","93","728316","0.0-93.0","AFH2OHPQSO6SS","<p style=""font-size: 48px;"">+</p>","","","","","null","allTrialResponses","500","1","7","img_art/8.jpg","5","a deity looking down upon a doomed city","Kathryn,Katie,Shelby,Angelica,Mariah,Laura","The angle makes it kind of disorienting but I enjoy the fantastical colors and imagery. It's like a dream.,10,140,20","I like the colors. But I don't like the faces, they look distraught. Faces and sharp shapes make me anxious,1,160,20","Too much going on, too many colors, makes me feel uneasy,-20,240,20","It's a poor rendition of an MC Escher inspired piece.,-25,280,20","Clean and stark. The colors are pleasant.,15,140,20","chaotic and disassembled,-8,320,20","Kathryn","The angle makes it kind of disorienting but I enjoy the fantastical colors and imagery. It's like a dream.,10,140,20","Katie","I like the colors. But I don't like the faces, they look distraught. Faces and sharp shapes make me anxious,1,160,20","Shelby","Too much going on, too many colors, makes me feel uneasy,-20,240,20","0"
"10869","","survey-text","94","739193","0.0-94.0-0.0","AFH2OHPQSO6SS","","","","{""Q0"":""looks like a close up of a rock""}","","","","","","","","","","","","","","","","","","","","","","",""
"5842.10000000149","","image-slider-response","95","745038","0.0-95.0","AFH2OHPQSO6SS","","","","","-21","","","","","","","","","","","","","","","","","","","","","",""
"null","","image-button-response","96","750044","0.0-96.0","AFH2OHPQSO6SS","img_art/7.jpg","null","","","","","","","","","","","","","","","","","","","","","","","","",""
"505","","image-button-response","97","750552","0.0-97.0","AFH2OHPQSO6SS","img_art/7.jpg","0","","","","","","","","","","","","","","","","","","","","","","","","",""
"16769","","image-button-response","98","767324","0.0-98.0-0.0","AFH2OHPQSO6SS","img_art/7.jpg","2","","","","","","","","","","","","","","","","","","","","","","","","",""
"14654","","image-button-response","99","781982","0.0-99.0-0.0","AFH2OHPQSO6SS","img_art/7.jpg","1","","","","","","","","","","","","","","","","","","","","","","","","",""
"null","","html-keyboard-response","100","783487","0.0-100.0","AFH2OHPQSO6SS","<p style=""font-size: 48px;"">+</p>","","","","","null","allTrialResponses","1500","1","8","img_art/7.jpg","-21","looks like a close up of a rock","Kathryn,Katie,Shelby,Savannah,Kimberly,Monica","It's off-putting because it reminds me of walking over rough sand/rocks or having scabs on my skin.,-10,140,20","I see dryness, which is sad. Dirt, sand, the dessert. Barren dry lifeless,-30,160,20","This feels very earthy and grounded,20,240,20","More saturated color, even more interpretations to have.,44,200,20","Looks like a bad picture of a beach,-21,260,20","It looks like bloody scabs on skin, I don't like it,-42,360,20","Kathryn","It's off-putting because it reminds me of walking over rough sand/rocks or having scabs on my skin.,-10,140,20","Shelby","This feels very earthy and grounded,20,240,20","Katie","I see dryness, which is sad. Dirt, sand, the dessert. Barren dry lifeless,-30,160,20","0"
"17672","","survey-text","101","801167","0.0-101.0-0.0","AFH2OHPQSO6SS","","","","{""Q0"":""the colors are lovely. looks like a small plant trying its best""}","","","","","","","","","","","","","","","","","","","","","","",""
"4661.10000000149","","image-slider-response","102","805832","0.0-102.0","AFH2OHPQSO6SS","","","","","20","","","","","","","","","","","","","","","","","","","","","",""
"null","","image-button-response","103","810841","0.0-103.0","AFH2OHPQSO6SS","img_art/14.jpg","null","","","","","","","","","","","","","","","","","","","","","","","","",""
"3154","","image-button-response","104","813998","0.0-104.0","AFH2OHPQSO6SS","img_art/14.jpg","1","","","","","","","","","","","","","","","","","","","","","","","","",""
"8614","","image-button-response","105","822617","0.0-105.0-0.0","AFH2OHPQSO6SS","img_art/14.jpg","4","","","","","","","","","","","","","","","","","","","","","","","","",""
"3320","","image-button-response","106","825943","0.0-106.0-0.0","AFH2OHPQSO6SS","img_art/14.jpg","5","","","","","","","","","","","","","","","","","","","","","","","","",""
"null","","html-keyboard-response","107","826456","0.0-107.0","AFH2OHPQSO6SS","<p style=""font-size: 48px;"">+</p>","","","","","null","allTrialResponses","500","1","9","img_art/14.jpg","20","the colors are lovely. looks like a small plant trying its best","Kathryn,Katie,Shelby,Madison,Kayla,Lindsey","This reminds me of a tree but the tree is sickly, and poorly cared for.,-10,140,20","It represents growth. I see a plant/tree growing out of the ground. I like the rainbow of color in the painting.,31,160,20","Something about the cahotic imagery makes me uncomfortable,-15,240,20","No strong feelings either direction.,-4,60,20","I like that it looks like plants on a table, which reminds me of life.,4,180,20","Warm, positive, growth.,8,400,20","Katie","It represents growth. I see a plant/tree growing out of the ground. I like the rainbow of color in the painting.,31,160,20","Kayla","I like that it looks like plants on a table, which reminds me of life.,4,180,20","Lindsey","Warm, positive, growth.,8,400,20","0"
"12724","","survey-text","108","839188","0.0-108.0-0.0","AFH2OHPQSO6SS","","","","{""Q0"":""looks like a dustpan""}","","","","","","","","","","","","","","","","","","","","","","",""
"6174.10000000149","","image-slider-response","109","845366","0.0-109.0","AFH2OHPQSO6SS","","","","","-15","","","","","","","","","","","","","","","","","","","","","",""
"null","","image-button-response","110","850371","0.0-110.0","AFH2OHPQSO6SS","img_art/5.jpg","null","","","","","","","","","","","","","","","","","","","","","","","","",""
"4422","","image-button-response","111","854796","0.0-111.0","AFH2OHPQSO6SS","img_art/5.jpg","1","","","","","","","","","","","","","","","","","","","","","","","","",""
"11558","","image-button-response","112","866359","0.0-112.0-0.0","AFH2OHPQSO6SS","img_art/5.jpg","5","","","","","","","","","","","","","","","","","","","","","","","","",""
"4787","","image-button-response","113","871150","0.0-113.0-0.0","AFH2OHPQSO6SS","img_art/5.jpg","2","","","","","","","","","","","","","","","","","","","","","","","","",""
"null","","html-keyboard-response","114","872663","0.0-114.0","AFH2OHPQSO6SS","<p style=""font-size: 48px;"">+</p>","","","","","null","allTrialResponses","1500","1","10","img_art/5.jpg","-15","looks like a dustpan","Mary,Katie,Jennifer,Tiffany,Kayla,Lindsey","This piece has a good flow. I like the yellow with black combo.,11,180,20","I don't get it at all. But, maybe it is the top portion of a piece of fruit.,-50,160,20","This piece doesn't really stand out.,0,380,20","I feel nothing looking at this.,-5,360,20","I like that the pyramid is putting off a beacon of light.,11,180,20","Black bit reminds me of a giant splinter. Yellow bit reminds me of urine. I hate it.,-50,400,20","Katie","I don't get it at all. But, maybe it is the top portion of a piece of fruit.,-50,160,20","Lindsey","Black bit reminds me of a giant splinter. Yellow bit reminds me of urine. I hate it.,-50,400,20","Jennifer","This piece doesn't really stand out.,0,380,20","0"
"4260","","survey-text","115","876928","0.0-115.0-0.0","AFH2OHPQSO6SS","","","","{""Q0"":""our""}","","","","","","","","","","","","","","","","","","","","","","",""
"37087","","survey-text","116","914019","0.0-116.0-0.0","AFH2OHPQSO6SS","","","","{""Q0"":""a lake on an autumn day, with the gold and orange and red leaves reflecting in the water. very calming""}","","","","","","","","","","","","","","","","","","","","","","",""
"4217.60000000149","","image-slider-response","117","918240","0.0-117.0","AFH2OHPQSO6SS","","","","","11","","","","","","","","","","","","","","","","","","","","","",""
"null","","image-button-response","118","923244","0.0-118.0","AFH2OHPQSO6SS","img_art/1.jpg","null","","","","","","","","","","","","","","","","","","","","","","","","",""
"1213","","image-button-response","119","924460","0.0-119.0","AFH2OHPQSO6SS","img_art/1.jpg","2","","","","","","","","","","","","","","","","","","","","","","","","",""
"5276","","image-button-response","120","929739","0.0-120.0-0.0","AFH2OHPQSO6SS","img_art/1.jpg","3","","","","","","","","","","","","","","","","","","","","","","","","",""
"1524","","image-button-response","121","931268","0.0-121.0-0.0","AFH2OHPQSO6SS","img_art/1.jpg","5","","","","","","","","","","","","","","","","","","","","","","","","",""
"null","","html-keyboard-response","122","932269","0.0-122.0","AFH2OHPQSO6SS","<p style=""font-size: 48px;"">+</p>","","","","","null","allTrialResponses","1000","1","11","img_art/1.jpg","11","a lake on an autumn day, with the gold and orange and red leaves reflecting in the water. very calming","Alyssa,Katie,Jennifer,Kelsey,Julia,Lindsey","Its okay,not great.,1,160,20","Too messy. Just looks like a mess of dark colors.,-20,160,20","Bright and colorful without being overpowering,32,380,20","this ones alright,10,240,20","I don't feel like much is happening in this painting,-25,40,20","Not a fan of the colors. Makes me think of the Australian bush fires.,-5,400,20","Jennifer","Bright and colorful without being overpowering,32,380,20","Kelsey","this ones alright,10,240,20","Lindsey","Not a fan of the colors. Makes me think of the Australian bush fires.,-5,400,20","0"
"18512","","survey-text","123","950788","0.0-123.0-0.0","AFH2OHPQSO6SS","","","","{""Q0"":""a decaying carcass of perhaps a rabbit. this unsettles me""}","","","","","","","","","","","","","","","","","","","","","","",""
"7910.20000000298","","image-slider-response","124","958701","0.0-124.0","AFH2OHPQSO6SS","","","","","-6","","","","","","","","","","","","","","","","","","","","","",""
"null","","image-button-response","125","963705","0.0-125.0","AFH2OHPQSO6SS","img_art/24.jpg","null","","","","","","","","","","","","","","","","","","","","","","","","",""
"13757","","image-button-response","126","977465","0.0-126.0","AFH2OHPQSO6SS","img_art/24.jpg","3","","","","","","","","","","","","","","","","","","","","","","","","",""
"6342","","image-button-response","127","983812","0.0-127.0-0.0","AFH2OHPQSO6SS","img_art/24.jpg","1","","","","","","","","","","","","","","","","","","","","","","","","",""
"3028","","image-button-response","128","986842","0.0-128.0-0.0","AFH2OHPQSO6SS","img_art/24.jpg","2","","","","","","","","","","","","","","","","","","","","","","","","",""
"null","","html-keyboard-response","129","988345","0.0-129.0","AFH2OHPQSO6SS","<p style=""font-size: 48px;"">+</p>","","","","","null","allTrialResponses","1500","1","12","img_art/24.jpg","-6","a decaying carcass of perhaps a rabbit. this unsettles me","Cassandra,Caroline,Jennifer,Kelsey,Morgan,Lindsey","I like it...looks like a waterfall.,11,120,20","Waterfalls and spring and gives me a sense of renewal,34,100,20","This piece resembles a waterfall surrounded by trees.,21,380,20","this one is just a bit too harsh,-13,240,20","Water through the fruit.,15,380,20","I like the colors and see a stream in a wooded setting. Makes me feel calm and cheerful.,27,400,20","Kelsey","this one is just a bit too harsh,-13,240,20","Caroline","Waterfalls and spring and gives me a sense of renewal,34,100,20","Jennifer","This piece resembles a waterfall surrounded by trees.,21,380,20","0"
"13543","","survey-text","130","1001896","0.0-130.0-0.0","AFH2OHPQSO6SS","","","","{""Q0"":""blocky and boring""}","","","","","","","","","","","","","","","","","","","","","","",""
"5259.29999999702","","image-slider-response","131","1007159","0.0-131.0","AFH2OHPQSO6SS","","","","","-11","","","","","","","","","","","","","","","","","","","","","",""
"null","","image-button-response","132","1012175","0.0-132.0","AFH2OHPQSO6SS","img_art/12.jpg","null","","","","","","","","","","","","","","","","","","","","","","","","",""
"5523","","image-button-response","133","1017701","0.0-133.0","AFH2OHPQSO6SS","img_art/12.jpg","2","","","","","","","","","","","","","","","","","","","","","","","","",""
"6523","","image-button-response","134","1024229","0.0-134.0-0.0","AFH2OHPQSO6SS","img_art/12.jpg","4","","","","","","","","","","","","","","","","","","","","","","","","",""
"1610","","image-button-response","135","1025844","0.0-135.0-0.0","AFH2OHPQSO6SS","img_art/12.jpg","5","","","","","","","","","","","","","","","","","","","","","","","","",""
"null","","html-keyboard-response","136","1026848","0.0-136.0","AFH2OHPQSO6SS","<p style=""font-size: 48px;"">+</p>","","","","","null","allTrialResponses","1000","1","13","img_art/12.jpg","-11","blocky and boring","Claire,Caroline,Jennifer,Kelsey,Andrea,Leslie","i like the repetition,30,260,20","I like the colors in both sections, brights compared to neutrals. Each block has a different view. I think of the future,11,100,20","This piece doesn't provoke any kind of reaction,0,380,20","dont like the squares,-16,240,20","It just feels like a jigsaw puzzle,-4,240,20","This elicits no reaction in me.,0,380,20","Jennifer","This piece doesn't provoke any kind of reaction,0,380,20","Andrea","It just feels like a jigsaw puzzle,-4,240,20","Leslie","This elicits no reaction in me.,0,380,20","0"
"30942","","survey-text","137","1057803","0.0-137.0-0.0","AFH2OHPQSO6SS","","","","{""Q0"":""the climax of a battle with the enemies clashing with the final strike""}","","","","","","","","","","","","","","","","","","","","","","",""
"3542","","image-slider-response","138","1061349","0.0-138.0","AFH2OHPQSO6SS","","","","","36","","","","","","","","","","","","","","","","","","","","","",""
"3874","","image-button-response","139","1066354","0.0-139.0","AFH2OHPQSO6SS","img_art/21.jpg","1","","","","","","","","","","","","","","","","","","","","","","","","",""
"489","","image-button-response","140","1066846","0.0-140.0","AFH2OHPQSO6SS","img_art/21.jpg","1","","","","","","","","","","","","","","","","","","","","","","","","",""
"7504","","image-button-response","141","1074352","0.0-141.0-0.0","AFH2OHPQSO6SS","img_art/21.jpg","5","","","","","","","","","","","","","","","","","","","","","","","","",""
"7858","","image-button-response","142","1082215","0.0-142.0-0.0","AFH2OHPQSO6SS","img_art/21.jpg","4","","","","","","","","","","","","","","","","","","","","","","","","",""
"null","","html-keyboard-response","143","1082727","0.0-143.0","AFH2OHPQSO6SS","<p style=""font-size: 48px;"">+</p>","","","","","null","allTrialResponses","500","1","14","img_art/21.jpg","36","the climax of a battle with the enemies clashing with the final strike","Breanna,Danielle,Jennifer,Rebecca,Andrea,Leslie","Can't understand what it is,-27,380,20","I like it. It's some of war-scene, bloodshed and battle on the left, field of dispair on the right, dark and rich,40,340,20","Bland, this painting is my least favorite,-20,380,20","stormy with gold lining,0,100,20","It feels like a day at sea but the pink is slightly jarring and holding my eye.,26,240,20","The colors make me think of a perilous scene at sea, and are pretty interesting.,15,380,20","Danielle","I like it. It's some of war-scene, bloodshed and battle on the left, field of dispair on the right, dark and rich,40,340,20","Leslie","The colors make me think of a perilous scene at sea, and are pretty interesting.,15,380,20","Andrea","It feels like a day at sea but the pink is slightly jarring and holding my eye.,26,240,20","0"
"15489","","survey-text","144","1098222","0.0-144.0-0.0","AFH2OHPQSO6SS","","","","{""Q0"":""a bird hanging out""}","","","","","","","","","","","","","","","","","","","","","","",""
"6339.19999999553","","image-slider-response","145","1104563","0.0-145.0","AFH2OHPQSO6SS","","","","","2","","","","","","","","","","","","","","","","","","","","","",""
"null","","image-button-response","146","1109578","0.0-146.0","AFH2OHPQSO6SS","img_art/6.jpg","null","","","","","","","","","","","","","","","","","","","","","","","","",""
"5122","","image-button-response","147","1114704","0.0-147.0","AFH2OHPQSO6SS","img_art/6.jpg","4","","","","","","","","","","","","","","","","","","","","","","","","",""
"2775","","image-button-response","148","1117483","0.0-148.0-0.0","AFH2OHPQSO6SS","img_art/6.jpg","3","","","","","","","","","","","","","","","","","","","","","","","","",""
"6773","","image-button-response","149","1124261","0.0-149.0-0.0","AFH2OHPQSO6SS","img_art/6.jpg","1","","","","","","","","","","","","","","","","","","","","","","","","",""
"null","","html-keyboard-response","150","1125264","0.0-150.0","AFH2OHPQSO6SS","<p style=""font-size: 48px;"">+</p>","","","","","null","allTrialResponses","1000","1","15","img_art/6.jpg","2","a bird hanging out","Jamie,Danielle,Kaylee,Shannon,Andrea,Leslie","Tree growing in a desert. Gives me feelings of hope,5,320,20","Not a fan of anything in this,-43,340,20","just an another tree on a desert?,9,200,20","I can't tell what this image is, but it's boring because of lack of color variety and nothing in it,-41,220,20","So forlorn, and beauty amid desolation.,25,240,20","The limited colors make me feel lonely.,36,380,20","Andrea","So forlorn, and beauty amid desolation.,25,240,20","Shannon","I can't tell what this image is, but it's boring because of lack of color variety and nothing in it,-41,220,20","Danielle","Not a fan of anything in this,-43,340,20","0"
"5563","","survey-text","151","1130840","0.0-151.0-0.0","AFH2OHPQSO6SS","","","","{""Q0"":""course""}","","","","","","","","","","","","","","","","","","","","","","",""
"25292","","survey-text","152","1156134","0.0-152.0-0.0","AFH2OHPQSO6SS","","","","{""Q0"":""trees over a house in japan. frightening but also calming somehow""}","","","","","","","","","","","","","","","","","","","","","","",""
"6910.39999999851","","image-slider-response","153","1163049","0.0-153.0","AFH2OHPQSO6SS","","","","","8","","","","","","","","","","","","","","","","","","","","","",""
"null","","image-button-response","154","1168066","0.0-154.0","AFH2OHPQSO6SS","img_art/17.jpg","null","","","","","","","","","","","","","","","","","","","","","","","","",""
"4208","","image-button-response","155","1172276","0.0-155.0","AFH2OHPQSO6SS","img_art/17.jpg","2","","","","","","","","","","","","","","","","","","","","","","","","",""
"4107","","image-button-response","156","1176385","0.0-156.0-0.0","AFH2OHPQSO6SS","img_art/17.jpg","3","","","","","","","","","","","","","","","","","","","","","","","","",""
"10556","","image-button-response","157","1186946","0.0-157.0-0.0","AFH2OHPQSO6SS","img_art/17.jpg","0","","","","","","","","","","","","","","","","","","","","","","","","",""
"null","","html-keyboard-response","158","1187460","0.0-158.0","AFH2OHPQSO6SS","<p style=""font-size: 48px;"">+</p>","","","","","null","allTrialResponses","500","1","16","img_art/17.jpg","8","trees over a house in japan. frightening but also calming somehow","Cassidy,Danielle,Alexandra,Shannon,Andrea,Emma","cool. Sharp and blocky below, light and flowing on top. Overall pleasing to look at,32,140,20","It's alright, nothing I particularly like but it's just fine,-10,340,20","This is very beautiful and elegant.,42,60,20","I like the way the colors were used behind the tree. Makes the image colorful and interesting.,30,220,20","A coming storm but I think I would appreciate it more with more contrast.,-12,240,20","Love the colors and the movement,46,60,20","Alexandra","This is very beautiful and elegant.,42,60,20","Shannon","I like the way the colors were used behind the tree. Makes the image colorful and interesting.,30,220,20","Cassidy","cool. Sharp and blocky below, light and flowing on top. Overall pleasing to look at,32,140,20","0"
"30036","","survey-text","159","1217503","0.0-159.0-0.0","AFH2OHPQSO6SS","","","","{""Q0"":""i see a wolf and a burning building with a sky in turmoil ""}","","","","","","","","","","","","","","","","","","","","","","",""
"3957.89999999851","","image-slider-response","160","1221465","0.0-160.0","AFH2OHPQSO6SS","","","","","5","","","","","","","","","","","","","","","","","","","","","",""
"null","","image-button-response","161","1226476","0.0-161.0","AFH2OHPQSO6SS","img_art/20.jpg","null","","","","","","","","","","","","","","","","","","","","","","","","",""
"5326","","image-button-response","162","1231806","0.0-162.0","AFH2OHPQSO6SS","img_art/20.jpg","2","","","","","","","","","","","","","","","","","","","","","","","","",""
"5877","","image-button-response","163","1237688","0.0-163.0-0.0","AFH2OHPQSO6SS","img_art/20.jpg","5","","","","","","","","","","","","","","","","","","","","","","","","",""
"7974","","image-button-response","164","1245665","0.0-164.0-0.0","AFH2OHPQSO6SS","img_art/20.jpg","3","","","","","","","","","","","","","","","","","","","","","","","","",""
"null","","html-keyboard-response","165","1247170","0.0-165.0","AFH2OHPQSO6SS","<p style=""font-size: 48px;"">+</p>","","","","","null","allTrialResponses","1500","1","17","img_art/20.jpg","5","i see a wolf and a burning building with a sky in turmoil ","Cassidy,Molly,Alexandra,Shannon,Megan,Rachel","sort of pleasant to look at, but can't tell if it's supposed to be something,13,140,20","Phenomenal painting of building.,25,340,20","The white blob looks like a face and it's creepy,-30,60,20","I really like this. There are lots of objects the artist wanted to show and the colors are good.,38,220,20","Fails to capture what similar styles do,-12,200,20","While interesting in technique.. It looks like a blurry car wreck. Does not evoke great emotions.,-20,80,20","Alexandra","The white blob looks like a face and it's creepy,-30,60,20","Rachel","While interesting in technique.. It looks like a blurry car wreck. Does not evoke great emotions.,-20,80,20","Shannon","I really like this. There are lots of objects the artist wanted to show and the colors are good.,38,220,20","0"
"30850","","survey-text","166","1278028","0.0-166.0-0.0","AFH2OHPQSO6SS","","","","{""Q0"":""it looks like a crime scene and i hate it. it makes me feel icky and the painting looks sticky""}","","","","","","","","","","","","","","","","","","","","","","",""
"4522.10000000149","","image-slider-response","167","1282554","0.0-167.0","AFH2OHPQSO6SS","","","","","-37","","","","","","","","","","","","","","","","","","","","","",""
"null","","image-button-response","168","1287563","0.0-168.0","AFH2OHPQSO6SS","img_art/29.jpg","null","","","","","","","","","","","","","","","","","","","","","","","","",""
"1155","","image-button-response","169","1288721","0.0-169.0","AFH2OHPQSO6SS","img_art/29.jpg","2","","","","","","","","","","","","","","","","","","","","","","","","",""
"4661","","image-button-response","170","1293386","0.0-170.0-0.0","AFH2OHPQSO6SS","img_art/29.jpg","3","","","","","","","","","","","","","","","","","","","","","","","","",""
"4263","","image-button-response","171","1297653","0.0-171.0-0.0","AFH2OHPQSO6SS","img_art/29.jpg","3","","","","","","","","","","","","","","","","","","","","","","","","",""
"2625","","image-button-response","172","1305249","0.0-171.1-0.1","AFH2OHPQSO6SS","img_art/29.jpg","4","","","","","","","","","","","","","","","","","","","","","","","","",""
"null","","html-keyboard-response","173","1306768","0.0-172.0","AFH2OHPQSO6SS","<p style=""font-size: 48px;"">+</p>","","","","","null","allTrialResponses","1500","1","18","img_art/29.jpg","-37","it looks like a crime scene and i hate it. it makes me feel icky and the painting looks sticky","Crystal,Isabella,Alexandra,Shannon,Melissa,Rachel","Reminiscent of Jackson Pollock with a hint of abstract structure with the bordering.,32,300,20","Darkness and torment,-50,280,20","I don't like this. It is ugly and dark,-29,60,20","I think this image looks ugly and needs more colors so it looks nicer.,-30,220,20","abrasive and grotesque textures,-36,240,20","It looks like someone did not like their art and drew an x over it.,-32,80,20","Alexandra","I don't like this. It is ugly and dark,-29,60,20","Shannon","I think this image looks ugly and needs more colors so it looks nicer.,-30,220,20","Melissa","abrasive and grotesque textures,-36,240,20","2"
"26781","","survey-text","174","1333555","0.0-173.0-0.0","AFH2OHPQSO6SS","","","","{""Q0"":""i can see a smiley face in there that amuses me but the colors look like vomit""}","","","","","","","","","","","","","","","","","","","","","","",""
"4095.7000000029802","","image-slider-response","175","1337655","0.0-174.0","AFH2OHPQSO6SS","","","","","-16","","","","","","","","","","","","","","","","","","","","","",""
"null","","image-button-response","176","1342674","0.0-175.0","AFH2OHPQSO6SS","img_art/2.jpg","null","","","","","","","","","","","","","","","","","","","","","","","","",""
"1368","","image-button-response","177","1344045","0.0-176.0","AFH2OHPQSO6SS","img_art/2.jpg","2","","","","","","","","","","","","","","","","","","","","","","","","",""
"3013","","image-button-response","178","1347060","0.0-177.0-0.0","AFH2OHPQSO6SS","img_art/2.jpg","5","","","","","","","","","","","","","","","","","","","","","","","","",""
"1795","","image-button-response","179","1348860","0.0-178.0-0.0","AFH2OHPQSO6SS","img_art/2.jpg","0","","","","","","","","","","","","","","","","","","","","","","","","",""
"null","","html-keyboard-response","180","1349364","0.0-179.0","AFH2OHPQSO6SS","<p style=""font-size: 48px;"">+</p>","","","","","null","allTrialResponses","500","1","19","img_art/2.jpg","-16","i can see a smiley face in there that amuses me but the colors look like vomit","Haley,Olivia,Alexandra,Shannon,Melissa,Jacqueline","My first thought was that it looks like a children's art project,-30,220,20","i liked the bright colors,13,40,20","This is ugly- too plain and busy at the same time,-9,60,20","I like this picture a little because the colors make it look a little vibrant.,10,220,20","appealing colors,4,240,20","A bit ugly with the greens.,-20,300,20","Alexandra","This is ugly- too plain and busy at the same time,-9,60,20","Jacqueline","A bit ugly with the greens.,-20,300,20","Haley","My first thought was that it looks like a children's art project,-30,220,20","2"
"18353","","survey-text","181","1367726","0.0-180.0-0.0","AFH2OHPQSO6SS","","","","{""Q0"":""reminiscent of dying flowers and ash""}","","","","","","","","","","","","","","","","","","","","","","",""
"3299","","image-slider-response","182","1371029","0.0-181.0","AFH2OHPQSO6SS","","","","","-11","","","","","","","","","","","","","","","","","","","","","",""
"null","","image-button-response","183","1376038","0.0-182.0","AFH2OHPQSO6SS","img_art/15.jpg","null","","","","","","","","","","","","","","","","","","","","","","","","",""
"6346","","image-button-response","184","1382388","0.0-183.0","AFH2OHPQSO6SS","img_art/15.jpg","3","","","","","","","","","","","","","","","","","","","","","","","","",""
"3172","","image-button-response","185","1385566","0.0-184.0-0.0","AFH2OHPQSO6SS","img_art/15.jpg","4","","","","","","","","","","","","","","","","","","","","","","","","",""
"1608","","image-button-response","186","1387179","0.0-185.0-0.0","AFH2OHPQSO6SS","img_art/15.jpg","5","","","","","","","","","","","","","","","","","","","","","","","","",""
"null","","html-keyboard-response","187","1388183","0.0-186.0","AFH2OHPQSO6SS","<p style=""font-size: 48px;"">+</p>","","","","","null","allTrialResponses","1000","1","20","img_art/15.jpg","-11","reminiscent of dying flowers and ash","Haley,Erin,Alexandra,Lauren,Michelle,Jacqueline","Interesting, and I don't dislike it.,9,220,20","Neat to explore meaning, blue is interesting,11,120,20","This is sort of ugly, but I do like the design.,10,60,20","Hard to tell what I'm looking at, but it does a gives a slight impression of a of garden.,5,340,20","Interesting to look at but I don't appreciate the abstraction,2,280,20","I don't like how the black dots are aligned.,-20,300,20","Lauren","Hard to tell what I'm looking at, but it does a gives a slight impression of a of garden.,5,340,20","Michelle","Interesting to look at but I don't appreciate the abstraction,2,280,20","Jacqueline","I don't like how the black dots are aligned.,-20,300,20","2"
"4404","","survey-text","188","1392608","0.0-187.0-0.0","AFH2OHPQSO6SS","","","","{""Q0"":""we""}","","","","","","","","","","","","","","","","","","","","","","",""
"16503","","survey-text","189","1409114","0.0-188.0-0.0","AFH2OHPQSO6SS","","","","{""Q0"":""sunset on a city after the rain""}","","","","","","","","","","","","","","","","","","","","","","",""
"5421.69999999553","","image-slider-response","190","1414539","0.0-189.0","AFH2OHPQSO6SS","","","","","-2","","","","","","","","","","","","","","","","","","","","","",""
"4705","","image-button-response","191","1419544","0.0-190.0","AFH2OHPQSO6SS","img_art/22.jpg","5","","","","","","","","","","","","","","","","","","","","","","","","",""
"1369","","image-button-response","192","1420919","0.0-191.0","AFH2OHPQSO6SS","img_art/22.jpg","5","","","","","","","","","","","","","","","","","","","","","","","","",""
"6453","","image-button-response","193","1427377","0.0-192.0-0.0","AFH2OHPQSO6SS","img_art/22.jpg","0","","","","","","","","","","","","","","","","","","","","","","","","",""
"2145","","image-button-response","194","1429526","0.0-193.0-0.0","AFH2OHPQSO6SS","img_art/22.jpg","1","","","","","","","","","","","","","","","","","","","","","","","","",""
"null","","html-keyboard-response","195","1430040","0.0-194.0","AFH2OHPQSO6SS","<p style=""font-size: 48px;"">+</p>","","","","","null","allTrialResponses","500","1","21","img_art/22.jpg","-2","sunset on a city after the rain","Sarah,Alexis,Mikayla,Lauren,Michelle,Jacqueline","boring, too many red and yellow tones for my taste,-15,180,20","Don't like this type of abstract work,-39,100,20","So colorful i love it!,22,300,20","This doesn't invoke anything, since I can't tell what the piece represents.,0,340,20","Not a huge fan of the blocks, also very abstract, I have no idea what it is,8,280,20","I feel like I've seen this one already.,-9,300,20","Jacqueline","I feel like I've seen this one already.,-9,300,20","Sarah","boring, too many red and yellow tones for my taste,-15,180,20","Alexis","Don't like this type of abstract work,-39,100,20","2"
"15951","","survey-text","196","1445999","0.0-195.0-0.0","AFH2OHPQSO6SS","","","","{""Q0"":""i do not like this style. that teddy bear scares me""}","","","","","","","","","","","","","","","","","","","","","","",""
"3875.39999999851","","image-slider-response","197","1449879","0.0-196.0","AFH2OHPQSO6SS","","","","","-36","","","","","","","","","","","","","","","","","","","","","",""
"2858","","image-button-response","198","1454888","0.0-197.0","AFH2OHPQSO6SS","img_art/16.jpg","0","","","","","","","","","","","","","","","","","","","","","","","","",""
"463","","image-button-response","199","1455356","0.0-198.0","AFH2OHPQSO6SS","img_art/16.jpg","1","","","","","","","","","","","","","","","","","","","","","","","","",""
"3380","","image-button-response","200","1458739","0.0-199.0-0.0","AFH2OHPQSO6SS","img_art/16.jpg","0","","","","","","","","","","","","","","","","","","","","","","","","",""
"3002","","image-button-response","201","1461744","0.0-200.0-0.0","AFH2OHPQSO6SS","img_art/16.jpg","4","","","","","","","","","","","","","","","","","","","","","","","","",""
"null","","html-keyboard-response","202","1462760","0.0-201.0","AFH2OHPQSO6SS","<p style=""font-size: 48px;"">+</p>","","","","","null","allTrialResponses","1000","1","22","img_art/16.jpg","-36","i do not like this style. that teddy bear scares me","Sarah,Alexis,Maria,Mackenzie,Kaitlyn,Jacqueline","i don't like the collage aspect,-25,180,20","Don't like this technique. Too serial killer.,-50,100,20","feel a little creeped out,-20,120,20","I like the mixture of images,23,20,20","The bear is a weird choice,-22,80,20","Seems very twisted and dark.,-35,300,20","Alexis","Don't like this technique. Too serial killer.,-50,100,20","Sarah","i don't like the collage aspect,-25,180,20","Kaitlyn","The bear is a weird choice,-22,80,20","2"
"15212","","survey-text","203","1477977","0.0-202.0-0.0","AFH2OHPQSO6SS","","","","{""Q0"":""looks like an unfinished painting that a child ruined""}","","","","","","","","","","","","","","","","","","","","","","",""
"3087.7999999970198","","image-slider-response","204","1481067","0.0-203.0","AFH2OHPQSO6SS","","","","","-23","","","","","","","","","","","","","","","","","","","","","",""
"null","","image-button-response","205","1486084","0.0-204.0","AFH2OHPQSO6SS","img_art/27.jpg","null","","","","","","","","","","","","","","","","","","","","","","","","",""
"2491","","image-button-response","206","1488581","0.0-205.0","AFH2OHPQSO6SS","img_art/27.jpg","1","","","","","","","","","","","","","","","","","","","","","","","","",""
"3693","","image-button-response","207","1492277","0.0-206.0-0.0","AFH2OHPQSO6SS","img_art/27.jpg","2","","","","","","","","","","","","","","","","","","","","","","","","",""
"5356","","image-button-response","208","1497638","0.0-207.0-0.0","AFH2OHPQSO6SS","img_art/27.jpg","3","","","","","","","","","","","","","","","","","","","","","","","","",""
"null","","html-keyboard-response","209","1498149","0.0-208.0","AFH2OHPQSO6SS","<p style=""font-size: 48px;"">+</p>","","","","","null","allTrialResponses","500","1","23","img_art/27.jpg","-23","looks like an unfinished painting that a child ruined","Sarah,Alexis,Bailey,Michaela,Kaitlyn,Nicole","i don't think i should like this one because it's a little chaotic and simple but I do,6,180,20","Too abstract, doesn't remind me of anything,-42,100,20","Looks like a splash of different colors and designs without purpose,-44,360,20","It looks like a kid colored a picture and an adult added to it,19,260,20","The variation of orange is nice,9,80,20","Very cool colors and I like the contrast of lights and darks,30,20,20","Alexis","Too abstract, doesn't remind me of anything,-42,100,20","Bailey","Looks like a splash of different colors and designs without purpose,-44,360,20","Michaela","It looks like a kid colored a picture and an adult added to it,19,260,20","2"
"27142","","survey-text","210","1525298","0.0-209.0-0.0","AFH2OHPQSO6SS","","","","{""Q0"":""death coming for us all. the green gives a certain glow and feeling of the supernatural""}","","","","","","","","","","","","","","","","","","","","","","",""
"4679.60000000149","","image-slider-response","211","1529982","0.0-210.0","AFH2OHPQSO6SS","","","","","10","","","","","","","","","","","","","","","","","","","","","",""
"null","","image-button-response","212","1534988","0.0-211.0","AFH2OHPQSO6SS","img_art/25.jpg","null","","","","","","","","","","","","","","","","","","","","","","","","",""
"686","","image-button-response","213","1535678","0.0-212.0","AFH2OHPQSO6SS","img_art/25.jpg","1","","","","","","","","","","","","","","","","","","","","","","","","",""
"2608","","image-button-response","214","1538290","0.0-213.0-0.0","AFH2OHPQSO6SS","img_art/25.jpg","2","","","","","","","","","","","","","","","","","","","","","","","","",""
"4596","","image-button-response","215","1542890","0.0-214.0-0.0","AFH2OHPQSO6SS","img_art/25.jpg","3","","","","","","","","","","","","","","","","","","","","","","","","",""
"null","","html-keyboard-response","216","1543402","0.0-215.0","AFH2OHPQSO6SS","<p style=""font-size: 48px;"">+</p>","","","","","null","allTrialResponses","500","1","24","img_art/25.jpg","10","death coming for us all. the green gives a certain glow and feeling of the supernatural","Christina,Alexis,Bailey,Michaela,Grace,Allison","nice colors and it looks like a native work,32,240,20","Reminds me of cave drawings,21,100,20","I love the background color and it's creepy...but cool.,30,360,20","It looks like people worshipping a statue,33,260,20","Scary. Something out of a Stephen King book/movie.,-31,180,20","high contrast draws attention to the image, but I'm not sure what I'm seeing,-5,140,20","Alexis","Reminds me of cave drawings,21,100,20","Bailey","I love the background color and it's creepy...but cool.,30,360,20","Michaela","It looks like people worshipping a statue,33,260,20","2"
"20754","","survey-text","217","1564163","0.0-216.0-0.0","AFH2OHPQSO6SS","","","","{""Q0"":""it kind of looks like a messed up mouth with ruined braces. i don't like this""}","","","","","","","","","","","","","","","","","","","","","","",""
"3570.5","","image-slider-response","218","1567738","0.0-217.0","AFH2OHPQSO6SS","","","","","-24","","","","","","","","","","","","","","","","","","","","","",""
"null","","image-button-response","219","1572743","0.0-218.0","AFH2OHPQSO6SS","img_art/9.jpg","null","","","","","","","","","","","","","","","","","","","","","","","","",""
"8506","","image-button-response","220","1581253","0.0-219.0","AFH2OHPQSO6SS","img_art/9.jpg","1","","","","","","","","","","","","","","","","","","","","","","","","",""
"1211","","image-button-response","221","1582467","0.0-220.0-0.0","AFH2OHPQSO6SS","img_art/9.jpg","0","","","","","","","","","","","","","","","","","","","","","","","","",""
"3210","","image-button-response","222","1585679","0.0-221.0-0.0","AFH2OHPQSO6SS","img_art/9.jpg","2","","","","","","","","","","","","","","","","","","","","","","","","",""
"null","","html-keyboard-response","223","1587184","0.0-222.0","AFH2OHPQSO6SS","<p style=""font-size: 48px;"">+</p>","","","","","null","allTrialResponses","1500","1","25","img_art/9.jpg","-24","it kind of looks like a messed up mouth with ruined braces. i don't like this","Kelly,Alexis,Bailey,Michaela,Catherine,Ashley","It looks like a child drew it.,-28,220,20","I like the sense of forboding, the green creates a claustrophobic feeling,10,100,20","Not very enticing. No real substance other than a lady laying down,-35,360,20","The colors remind me of peacocks,24,260,20","Cozy, In her own world. feminine .,30,160,20","Similar to the tohers, but not as clear.,11,320,20","Alexis","I like the sense of forboding, the green creates a claustrophobic feeling,10,100,20","Kelly","It looks like a child drew it.,-28,220,20","Bailey","Not very enticing. No real substance other than a lady laying down,-35,360,20","2"
"4266","","survey-text","224","1591462","0.0-223.0-0.0","AFH2OHPQSO6SS","","","","{""Q0"":""table""}","","","","","","","","","","","","","","","","","","","","","","",""
"13071","","survey-text","225","1604537","0.0-224.0-0.0","AFH2OHPQSO6SS","","","","{""Q0"":""blood, knife, very serial killer""}","","","","","","","","","","","","","","","","","","","","","","",""
"3909.2000000029802","","image-slider-response","226","1608448","0.0-225.0","AFH2OHPQSO6SS","","","","","-42","","","","","","","","","","","","","","","","","","","","","",""
"4761","","image-button-response","227","1613461","0.0-226.0","AFH2OHPQSO6SS","img_art/3.jpg","0","","","","","","","","","","","","","","","","","","","","","","","","",""
"1261","","image-button-response","228","1614727","0.0-227.0","AFH2OHPQSO6SS","img_art/3.jpg","0","","","","","","","","","","","","","","","","","","","","","","","","",""
"4774","","image-button-response","229","1619504","0.0-228.0-0.0","AFH2OHPQSO6SS","img_art/3.jpg","3","","","","","","","","","","","","","","","","","","","","","","","","",""
"1614","","image-button-response","230","1621122","0.0-229.0-0.0","AFH2OHPQSO6SS","img_art/3.jpg","5","","","","","","","","","","","","","","","","","","","","","","","","",""
"null","","html-keyboard-response","231","1622123","0.0-230.0","AFH2OHPQSO6SS","<p style=""font-size: 48px;"">+</p>","","","","","null","allTrialResponses","1000","1","26","img_art/3.jpg","-42","blood, knife, very serial killer","Kelly,Alexis,Bailey,Samantha,Erika,Brooke","Reminds me of blood.,-28,220,20","Just scribbles. Not a fan.,-40,100,20","Just scribbles. People buy that?,-47,360,20","Too angry and scribbly,-43,140,20","Unaure what the artist  was doing, needs context,11,100,20","kid scribbled on the wall again,-35,60,20","Kelly","Reminds me of blood.,-28,220,20","Samantha","Too angry and scribbly,-43,140,20","Brooke","kid scribbled on the wall again,-35,60,20","2"
"28794","","survey-text","232","1650931","0.0-231.0-0.0","AFH2OHPQSO6SS","","","","{""Q0"":""a riverside town, though it looks like there's a giant pacifier in the sky""}","","","","","","","","","","","","","","","","","","","","","","",""
"3497.10000000149","","image-slider-response","233","1654430","0.0-232.0","AFH2OHPQSO6SS","","","","","-14","","","","","","","","","","","","","","","","","","","","","",""
"null","","image-button-response","234","1659446","0.0-233.0","AFH2OHPQSO6SS","img_art/19.jpg","null","","","","","","","","","","","","","","","","","","","","","","","","",""
"2619","","image-button-response","235","1662068","0.0-234.0","AFH2OHPQSO6SS","img_art/19.jpg","3","","","","","","","","","","","","","","","","","","","","","","","","",""
"1796","","image-button-response","236","1663867","0.0-235.0-0.0","AFH2OHPQSO6SS","img_art/19.jpg","4","","","","","","","","","","","","","","","","","","","","","","","","",""
"3660","","image-button-response","237","1667531","0.0-236.0-0.0","AFH2OHPQSO6SS","img_art/19.jpg","0","","","","","","","","","","","","","","","","","","","","","","","","",""
"null","","html-keyboard-response","238","1668534","0.0-237.0","AFH2OHPQSO6SS","<p style=""font-size: 48px;"">+</p>","","","","","null","allTrialResponses","1000","1","27","img_art/19.jpg","-14","a riverside town, though it looks like there's a giant pacifier in the sky","Kelly,Caitlin,Victoria,Samantha,Katelyn,Brooke","TOo much brown.,-24,220,20","Looks like a homeless man and this painting should be too.,-5,80,20","to much going on,-22,400,20","Intersting but not for me,21,140,20","I dont like the smudge effect,-7,100,20","Snowy winter scene,25,60,20","Samantha","Intersting but not for me,21,140,20","Katelyn","I dont like the smudge effect,-7,100,20","Kelly","TOo much brown.,-24,220,20","2"
"25178","","survey-text","239","1693726","0.0-238.0-0.0","AFH2OHPQSO6SS","","","","{""Q0"":""a little too faded, though i like the nature and city combination""}","","","","","","","","","","","","","","","","","","","","","","",""
"3443.89999999851","","image-slider-response","240","1697174","0.0-239.0","AFH2OHPQSO6SS","","","","","7","","","","","","","","","","","","","","","","","","","","","",""
"null","","image-button-response","241","1702180","0.0-240.0","AFH2OHPQSO6SS","img_art/26.jpg","null","","","","","","","","","","","","","","","","","","","","","","","","",""
"205","","image-button-response","242","1702388","0.0-241.0","AFH2OHPQSO6SS","img_art/26.jpg","2","","","","","","","","","","","","","","","","","","","","","","","","",""
"3909","","image-button-response","243","1706301","0.0-242.0-0.0","AFH2OHPQSO6SS","img_art/26.jpg","3","","","","","","","","","","","","","","","","","","","","","","","","",""
"3705","","image-button-response","244","1710011","0.0-243.0-0.0","AFH2OHPQSO6SS","img_art/26.jpg","0","","","","","","","","","","","","","","","","","","","","","","","","",""
"null","","html-keyboard-response","245","1710528","0.0-244.0","AFH2OHPQSO6SS","<p style=""font-size: 48px;"">+</p>","","","","","null","allTrialResponses","500","1","28","img_art/26.jpg","7","a little too faded, though i like the nature and city combination","Kelly,Amber,Makayla,Samantha,Katelyn,Margaret","Very subdued, but wouldn't give it a 2nd notice.,4,220,20","The colors are muted.,1,200,20","Reminds me of a European street, I desire to walk in this picture,28,80,20","I like the colors and trees. Seems cheap vintage retail store art but i love it anyways,50,140,20","Looks bland and boring,-5,100,20","its boring and i dont like the color palette,3,100,20","Makayla","Reminds me of a European street, I desire to walk in this picture,28,80,20","Samantha","I like the colors and trees. Seems cheap vintage retail store art but i love it anyways,50,140,20","Kelly","Very subdued, but wouldn't give it a 2nd notice.,4,220,20","2"
"8040","","survey-text","246","1718574","0.0-245.0-0.0","AFH2OHPQSO6SS","","","","{""Q0"":""salad fingers""}","","","","","","","","","","","","","","","","","","","","","","",""
"3561.6999999955297","","image-slider-response","247","1722137","0.0-246.0","AFH2OHPQSO6SS","","","","","-42","","","","","","","","","","","","","","","","","","","","","",""
"3083","","image-button-response","248","1727144","0.0-247.0","AFH2OHPQSO6SS","img_art/4.jpg","0","","","","","","","","","","","","","","","","","","","","","","","","",""
"2134","","image-button-response","249","1729283","0.0-248.0","AFH2OHPQSO6SS","img_art/4.jpg","0","","","","","","","","","","","","","","","","","","","","","","","","",""
"5690","","image-button-response","250","1734974","0.0-249.0-0.0","AFH2OHPQSO6SS","img_art/4.jpg","3","","","","","","","","","","","","","","","","","","","","","","","","",""
"2796","","image-button-response","251","1737775","0.0-250.0-0.0","AFH2OHPQSO6SS","img_art/4.jpg","2","","","","","","","","","","","","","","","","","","","","","","","","",""
"null","","html-keyboard-response","252","1738779","0.0-251.0","AFH2OHPQSO6SS","<p style=""font-size: 48px;"">+</p>","","","","","null","allTrialResponses","1000","1","29","img_art/4.jpg","-42","salad fingers","Kelly,Kaitlin,Makayla,Samantha,Autumn,Paige","The longer I stare at this the less I like it.,-19,220,20","heart symbol - this tells a story of hidden love,30,60,20","Looks like poop on walks,-27,80,20","I domt like the yellow black blended smear,-50,140,20","I don't like murky colors.,-40,340,20","the colors are calming,31,60,20","Kelly","The longer I stare at this the less I like it.,-19,220,20","Samantha","I domt like the yellow black blended smear,-50,140,20","Makayla","Looks like poop on walks,-27,80,20","2"
"19427","","survey-text","253","1758213","0.0-252.0-0.0","AFH2OHPQSO6SS","","","","{""Q0"":""looks like a musician got angry and smashed their cello""}","","","","","","","","","","","","","","","","","","","","","","",""
"3625","","image-slider-response","254","1761840","0.0-253.0","AFH2OHPQSO6SS","","","","","11","","","","","","","","","","","","","","","","","","","","","",""
"null","","image-button-response","255","1766846","0.0-254.0","AFH2OHPQSO6SS","img_art/10.jpg","null","","","","","","","","","","","","","","","","","","","","","","","","",""
"5835","","image-button-response","256","1772686","0.0-255.0","AFH2OHPQSO6SS","img_art/10.jpg","3","","","","","","","","","","","","","","","","","","","","","","","","",""
"4236","","image-button-response","257","1776927","0.0-256.0-0.0","AFH2OHPQSO6SS","img_art/10.jpg","5","","","","","","","","","","","","","","","","","","","","","","","","",""
"4323","","image-button-response","258","1781256","0.0-257.0-0.0","AFH2OHPQSO6SS","img_art/10.jpg","2","","","","","","","","","","","","","","","","","","","","","","","","",""
"null","","html-keyboard-response","259","1782763","0.0-258.0","AFH2OHPQSO6SS","<p style=""font-size: 48px;"">+</p>","","","","","null","allTrialResponses","1500","1","30","img_art/10.jpg","11","looks like a musician got angry and smashed their cello","Kelly,Miranda,Makayla,Samantha,Erica,Sydney","I cant tell what this is supposed to be, but I enjoy the simplicity of it.,28,220,20","It reminds me of how my dog has to run all over the place just to poop in one specific location.,-20,320,20","I don't hate but don't like it because it looks like a oil slick,2,80,20","I like it but do not love it. It is sort of depressing,13,140,20","Relaxing; a lot of going on but colours make it easy to look at,20,80,20","This piece is unusual in a way that makes me uncomfortable.,-5,320,20","Samantha","I like it but do not love it. It is sort of depressing,13,140,20","Sydney","This piece is unusual in a way that makes me uncomfortable.,-5,320,20","Makayla","I don't hate but don't like it because it looks like a oil slick,2,80,20","2"
"2897","","image-button-response_instructions","260","1785668","0.0-259.0","AFH2OHPQSO6SS","","0","instructions","","","","","","","","","","","","","","","","","","","","","","","",""
"1662","","image-button-response","261","1787333","0.0-260.0","AFH2OHPQSO6SS","","0","","","","","","","","","","","","","","","","","","","","","","","","",""
