"rt","url","trial_type","trial_index","time_elapsed","internal_node_id","participant_id","stimulus","button_pressed","Name","responses","response","key_press","variableName","fixationTime","condition","trial","photo","subjectRating","subjectResponse","agentsNames","agent_1_Response","agent_2_Response","agent_3_Response","agent_4_Response","agent_5_Response","agent_6_Response","kept_1_name","kept_1_response","kept_2_name","kept_2_response","kept_3_name","kept_3_response","errorCounter"
"5024","external_page_harvard.html","external-html","0","5180","0.0-0.0","AFK9ALQK5GPNG","","","","","","","","","","","","","","","","","","","","","","","","","","",""
"1675","","image-button-response","1","6857","0.0-1.0","AFK9ALQK5GPNG","","0","","","","","","","","","","","","","","","","","","","","","","","","",""
"1420","","image-button-response","2","8284","0.0-2.0-0.0","AFK9ALQK5GPNG","","1","phone","","","","","","","","","","","","","","","","","","","","","","","",""
"4630","","survey-text","3","12917","0.0-3.0-0.0","AFK9ALQK5GPNG","","","","{""Q0"":""AFK9ALQK5GPNG""}","","","","","","","","","","","","","","","","","","","","","","",""
"2285","","image-button-response_instructions","4","15205","0.0-4.0","AFK9ALQK5GPNG","","0","instructions","","","","","","","","","","","","","","","","","","","","","","","",""
"27768","","image-button-response_instructions","5","42976","0.0-5.0","AFK9ALQK5GPNG","img_art/ins/popularity/ins1.png","0","instructions","","","","","","","","","","","","","","","","","","","","","","","",""
"2794","","image-button-response_instructions","6","45772","0.0-6.0","AFK9ALQK5GPNG","img_art/ins/popularity/ins2.png","0","instructions","","","","","","","","","","","","","","","","","","","","","","","",""
"6145","","image-button-response_instructions","7","51919","0.0-7.0","AFK9ALQK5GPNG","img_art/ins/popularity/ins2Extreme.png","0","instructions","","","","","","","","","","","","","","","","","","","","","","","",""
"13506","","image-button-response_instructions","8","65427","0.0-8.0","AFK9ALQK5GPNG","img_art/ins/popularity/ins3KEEPpop.PNG","0","instructions","","","","","","","","","","","","","","","","","","","","","","","",""
"2043","","image-button-response_instructions","9","67472","0.0-9.0","AFK9ALQK5GPNG","img_art/ins/popularity/ins3ANamepop.PNG","0","instructions","","","","","","","","","","","","","","","","","","","","","","","",""
"1924","","image-button-response_instructions","10","69397","0.0-10.0","AFK9ALQK5GPNG","img_art/ins/popularity/ins3ARatingpop.png","0","instructions","","","","","","","","","","","","","","","","","","","","","","","",""
"1144","","image-button-response_instructions","11","70543","0.0-11.0","AFK9ALQK5GPNG","img_art/ins/popularity/ins3ATextpop.png","0","instructions","","","","","","","","","","","","","","","","","","","","","","","",""
"1960","","image-button-response_instructions","12","72503","0.0-12.0","AFK9ALQK5GPNG","img_art/ins/popularity/ins3ALikespop.png","0","instructions","","","","","","","","","","","","","","","","","","","","","","","",""
"3625","","image-button-response_instructions","13","76131","0.0-13.0","AFK9ALQK5GPNG","img_art/ins/popularity/ins3KEEPpop.PNG","0","instructions","","","","","","","","","","","","","","","","","","","","","","","",""
"2195","","image-button-response_instructions","14","78328","0.0-14.0","AFK9ALQK5GPNG","img_art/ins/popularity/ins3_5RED.png","0","instructions","","","","","","","","","","","","","","","","","","","","","","","",""
"3981","","image-button-response_instructions","15","82310","0.0-15.0","AFK9ALQK5GPNG","img_art/ins/popularity/ins3KEEPpop.PNG","0","instructions","","","","","","","","","","","","","","","","","","","","","","","",""
"3724","","image-button-response_instructions","16","86035","0.0-16.0","AFK9ALQK5GPNG","img_art/ins/popularity/ins4KEEPpop.PNG","0","instructions","","","","","","","","","","","","","","","","","","","","","","","",""
"2494","","image-button-response_instructions","17","88531","0.0-17.0","AFK9ALQK5GPNG","img_art/ins/popularity/ins5KEEPpop.PNG","0","instructions","","","","","","","","","","","","","","","","","","","","","","","",""
"1541","","image-button-response_instructions","18","90073","0.0-18.0","AFK9ALQK5GPNG","","0","instructions","","","","","","","","","","","","","","","","","","","","","","","",""
"3937","","survey-text","19","94042","0.0-19.0-0.0","AFK9ALQK5GPNG","","","","{""Q0"":""but""}","","","","","","","","","","","","","","","","","","","","","","",""
"25525","","survey-text","20","119569","0.0-20.0-0.0","AFK9ALQK5GPNG","","","","{""Q0"":""It looks like poop smeared on a hippie canvas.""}","","","","","","","","","","","","","","","","","","","","","","",""
"9670.899999976158","","image-slider-response","21","129243","0.0-21.0","AFK9ALQK5GPNG","","","","","-31","","","","","","","","","","","","","","","","","","","","","",""
"4173","","image-button-response","22","134250","0.0-22.0","AFK9ALQK5GPNG","img_art/ins/1.jpg","2","","","","","","","","","","","","","","","","","","","","","","","","",""
"1858","","image-button-response","23","136114","0.0-23.0","AFK9ALQK5GPNG","img_art/ins/1.jpg","2","","","","","","","","","","","","","","","","","","","","","","","","",""
"6634","","image-button-response","24","142750","0.0-24.0-0.0","AFK9ALQK5GPNG","img_art/ins/1.jpg","0","","","","","","","","","","","","","","","","","","","","","","","","",""
"3758","","image-button-response","25","146512","0.0-25.0-0.0","AFK9ALQK5GPNG","img_art/ins/1.jpg","1","","","","","","","","","","","","","","","","","","","","","","","","",""
"null","","html-keyboard-response","26","147015","0.0-26.0","AFK9ALQK5GPNG","<p style=""font-size: 48px;"">+</p>","","","","","null","allTrialResponses","500","1","-2","img_art/ins/1.jpg","-31","It looks like poop smeared on a hippie canvas.","Adam,Alex,Ben,Carl,Daniel,Jack","Seems like doodles,-20,20,20","very creative work.,36,40,20","This color reminds me of poo,-46,60,20","very calming artwork,42,80,20","It looks like a murder scene.,-48,100,20","I like the sophisticated brushwork,40,120,20","Ben","This color reminds me of poo,-46,60,20","Adam","Seems like doodles,-20,20,20","Alex","very creative work.,36,40,20","0"
"14850","","survey-text","27","161873","0.0-27.0-0.0","AFK9ALQK5GPNG","","","","{""Q0"":""This makes me think of a fire truck.""}","","","","","","","","","","","","","","","","","","","","","","",""
"3184.5","","image-slider-response","28","165060","0.0-28.0","AFK9ALQK5GPNG","","","","","7","","","","","","","","","","","","","","","","","","","","","",""
"null","","image-button-response","29","170066","0.0-29.0","AFK9ALQK5GPNG","img_art/ins/2.jpg","null","","","","","","","","","","","","","","","","","","","","","","","","",""
"926","","image-button-response","30","171001","0.0-30.0","AFK9ALQK5GPNG","img_art/ins/2.jpg","4","","","","","","","","","","","","","","","","","","","","","","","","",""
"2363","","image-button-response","31","173372","0.0-31.0-0.0","AFK9ALQK5GPNG","img_art/ins/2.jpg","3","","","","","","","","","","","","","","","","","","","","","","","","",""
"2649","","image-button-response","32","176028","0.0-32.0-0.0","AFK9ALQK5GPNG","img_art/ins/2.jpg","3","","","","","","","","","","","","","","","","","","","","","","","","",""
"1296","","image-button-response","33","179886","0.0-32.1-0.1","AFK9ALQK5GPNG","img_art/ins/2.jpg","1","","","","","","","","","","","","","","","","","","","","","","","","",""
"null","","html-keyboard-response","34","180388","0.0-33.0","AFK9ALQK5GPNG","<p style=""font-size: 48px;"">+</p>","","","","","null","allTrialResponses","500","1","-1","img_art/ins/2.jpg","7","This makes me think of a fire truck.","Adam,Alex,Ben,James,John,Kyle","too much color,-18,20,20","I like the blocks of color arrangements,30,40,20","meaningless painting,-45,60,20","looks too angry,-50,140,20","love the texture of paint,48,160,20","Idk, it is just annoying,-32,180,20","John","love the texture of paint,48,160,20","James","looks too angry,-50,140,20","Alex","I like the blocks of color arrangements,30,40,20","2"
"18751","","survey-text","35","199152","0.0-34.0-0.0","AFK9ALQK5GPNG","","","","{""Q0"":""""}","","","","","","","","","","","","","","","","","","","","","","",""
"19864","","survey-text","36","220815","0.0-34.1-0.1","AFK9ALQK5GPNG","","","","{""Q0"":""This seems very basic and bland to me.""}","","","","","","","","","","","","","","","","","","","","","","",""
"3343","","image-slider-response","37","224160","0.0-35.0","AFK9ALQK5GPNG","","","","","-18","","","","","","","","","","","","","","","","","","","","","",""
"3760","","image-button-response","38","229164","0.0-36.0","AFK9ALQK5GPNG","img_art/ins/3.jpg","2","","","","","","","","","","","","","","","","","","","","","","","","",""
"959","","image-button-response","39","230131","0.0-37.0","AFK9ALQK5GPNG","img_art/ins/3.jpg","5","","","","","","","","","","","","","","","","","","","","","","","","",""
"1935","","image-button-response","40","232072","0.0-38.0-0.0","AFK9ALQK5GPNG","img_art/ins/3.jpg","1","","","","","","","","","","","","","","","","","","","","","","","","",""
"2593","","image-button-response","41","234668","0.0-39.0-0.0","AFK9ALQK5GPNG","img_art/ins/3.jpg","2","","","","","","","","","","","","","","","","","","","","","","","","",""
"null","","html-keyboard-response","42","235170","0.0-40.0","AFK9ALQK5GPNG","<p style=""font-size: 48px;"">+</p>","","","","","null","allTrialResponses","500","1","0","img_art/ins/3.jpg","-18","This seems very basic and bland to me.","Mike,Alex,Ron,James,John,Sam","enjoy the different shades of blue,22,200,20","calming blue is very nice,36,40,20","It looks depressing,-26,220,20","My worst nightmare,-42,140,20","I like the overlapping of brushes,41,160,20","I can feel a rainy day from this painting,18,240,20","Sam","I can feel a rainy day from this painting,18,240,20","Alex","calming blue is very nice,36,40,20","Ron","It looks depressing,-26,220,20","2"
"3215","","image-button-response_instructions","43","238397","0.0-41.0","AFK9ALQK5GPNG","","0","instructions","","","","","","","","","","","","","","","","","","","","","","","",""
"5487","","survey-likert","44","243886","0.0-42.0-0.0","AFK9ALQK5GPNG","","","","{""Q0"":"""",""Q1"":0,""Q2"":1}","","","","","","","","","","","","","","","","","","","","","","",""
"3426","","survey-text","45","247319","0.0-43.0-0.0","AFK9ALQK5GPNG","","","","{""Q0"":""rock""}","","","","","","","","","","","","","","","","","","","","","","",""
"19306","","survey-text","46","266626","0.0-44.0-0.0","AFK9ALQK5GPNG","","","","{""Q0"":""This looks a bit trippy but I don't mind it.""}","","","","","","","","","","","","","","","","","","","","","","",""
"4122.300000011921","","image-slider-response","47","270751","0.0-45.0","AFK9ALQK5GPNG","","","","","20","","","","","","","","","","","","","","","","","","","","","",""
"null","","image-button-response","48","275778","0.0-46.0","AFK9ALQK5GPNG","img_art/8.jpg","null","","","","","","","","","","","","","","","","","","","","","","","","",""
"2295","","image-button-response","49","278079","0.0-47.0","AFK9ALQK5GPNG","img_art/8.jpg","5","","","","","","","","","","","","","","","","","","","","","","","","",""
"6386","","image-button-response","50","284468","0.0-48.0-0.0","AFK9ALQK5GPNG","img_art/8.jpg","1","","","","","","","","","","","","","","","","","","","","","","","","",""
"1119","","image-button-response","51","285590","0.0-49.0-0.0","AFK9ALQK5GPNG","img_art/8.jpg","0","","","","","","","","","","","","","","","","","","","","","","","","",""
"null","","html-keyboard-response","52","286092","0.0-50.0","AFK9ALQK5GPNG","<p style=""font-size: 48px;"">+</p>","","","","","null","allTrialResponses","500","1","1","img_art/8.jpg","20","This looks a bit trippy but I don't mind it.","Jacob,Ian,Matthew,Gabriel,Jose,Travis","Very cool! I like this piece,9,340,20","I like this, the longer I look at in the more details I see.,41,260,20","Escher? Dali? Could be their lovechild?,50,120,20","i like all the different faces,19,160,20","This is really cool, I love the fragments of faces,38,200,20","I like the colors and the scene.,24,260,20","Travis","I like the colors and the scene.,24,260,20","Ian","I like this, the longer I look at in the more details I see.,41,260,20","Jacob","Very cool! I like this piece,9,340,20","2"
"18627","","survey-text","53","304731","0.0-51.0-0.0","AFK9ALQK5GPNG","","","","{""Q0"":""This looks very well done.""}","","","","","","","","","","","","","","","","","","","","","","",""
"3366.199999988079","","image-slider-response","54","308099","0.0-52.0","AFK9ALQK5GPNG","","","","","24","","","","","","","","","","","","","","","","","","","","","",""
"2189","","image-button-response","55","313105","0.0-53.0","AFK9ALQK5GPNG","img_art/24.jpg","0","","","","","","","","","","","","","","","","","","","","","","","","",""
"829","","image-button-response","56","313939","0.0-54.0","AFK9ALQK5GPNG","img_art/24.jpg","1","","","","","","","","","","","","","","","","","","","","","","","","",""
"836","","image-button-response","57","314778","0.0-55.0-0.0","AFK9ALQK5GPNG","img_art/24.jpg","0","","","","","","","","","","","","","","","","","","","","","","","","",""
"2825","","image-button-response","58","317607","0.0-56.0-0.0","AFK9ALQK5GPNG","img_art/24.jpg","5","","","","","","","","","","","","","","","","","","","","","","","","",""
"null","","html-keyboard-response","59","318111","0.0-57.0","AFK9ALQK5GPNG","<p style=""font-size: 48px;"">+</p>","","","","","null","allTrialResponses","500","1","2","img_art/24.jpg","24","This looks very well done.","Jacob,Ian,Stephen,Juan,William,Travis","Vibrant, beautiful depiction.,50,340,20","I find the colors work really well. It's very pretty but I have no idea as what it is.,34,260,20","I like how the colors mix in this one.,20,140,20","I love the colors, but I wish the water was less abstract.,17,260,20","very peaceful and serene,47,380,20","I like it...looks like a waterfall.,11,260,20","Ian","I find the colors work really well. It's very pretty but I have no idea as what it is.,34,260,20","Jacob","Vibrant, beautiful depiction.,50,340,20","Travis","I like it...looks like a waterfall.,11,260,20","2"
"24260","","survey-text","60","342384","0.0-58.0-0.0","AFK9ALQK5GPNG","","","","{""Q0"":""This makes me think of peacocks, but it's a tad bland.""}","","","","","","","","","","","","","","","","","","","","","","",""
"2766.100000023842","","image-slider-response","61","345153","0.0-59.0","AFK9ALQK5GPNG","","","","","-9","","","","","","","","","","","","","","","","","","","","","",""
"4934","","image-button-response","62","350160","0.0-60.0","AFK9ALQK5GPNG","img_art/15.jpg","5","","","","","","","","","","","","","","","","","","","","","","","","",""
"1419","","image-button-response","63","351586","0.0-61.0","AFK9ALQK5GPNG","img_art/15.jpg","5","","","","","","","","","","","","","","","","","","","","","","","","",""
"1672","","image-button-response","64","353265","0.0-62.0-0.0","AFK9ALQK5GPNG","img_art/15.jpg","3","","","","","","","","","","","","","","","","","","","","","","","","",""
"4232","","image-button-response","65","357504","0.0-63.0-0.0","AFK9ALQK5GPNG","img_art/15.jpg","2","","","","","","","","","","","","","","","","","","","","","","","","",""
"null","","html-keyboard-response","66","359006","0.0-64.0","AFK9ALQK5GPNG","<p style=""font-size: 48px;"">+</p>","","","","","null","allTrialResponses","1500","1","3","img_art/15.jpg","-9","This makes me think of peacocks, but it's a tad bland.","Jacob,Ian,Miguel,Luis,Malik,Travis","I think it's trying to execute a cool idea, but unfortunately it doesn't appeal,5,340,20","This gives a skin crawling feeling. Like something that you could see under a mircoscope,10,260,20","Simple but not good,-34,160,20","Extreme darkness and sadness,-30,400,20","I like the dense patterns and the splashes  of blue,38,40,20","Hate it...black dots.,-47,260,20","Travis","Hate it...black dots.,-47,260,20","Luis","Extreme darkness and sadness,-30,400,20","Miguel","Simple but not good,-34,160,20","2"
"21477","","survey-text","67","380495","0.0-65.0-0.0","AFK9ALQK5GPNG","","","","{""Q0"":""Too blurry and obscure for me to like this.""}","","","","","","","","","","","","","","","","","","","","","","",""
"3045.599999964237","","image-slider-response","68","383543","0.0-66.0","AFK9ALQK5GPNG","","","","","-34","","","","","","","","","","","","","","","","","","","","","",""
"null","","image-button-response","69","388548","0.0-67.0","AFK9ALQK5GPNG","img_art/1.jpg","null","","","","","","","","","","","","","","","","","","","","","","","","",""
"726","","image-button-response","70","389280","0.0-68.0","AFK9ALQK5GPNG","img_art/1.jpg","5","","","","","","","","","","","","","","","","","","","","","","","","",""
"1166","","image-button-response","71","390448","0.0-69.0-0.0","AFK9ALQK5GPNG","img_art/1.jpg","4","","","","","","","","","","","","","","","","","","","","","","","","",""
"1233","","image-button-response","72","391684","0.0-70.0-0.0","AFK9ALQK5GPNG","img_art/1.jpg","2","","","","","","","","","","","","","","","","","","","","","","","","",""
"null","","html-keyboard-response","73","392687","0.0-71.0","AFK9ALQK5GPNG","<p style=""font-size: 48px;"">+</p>","","","","","null","allTrialResponses","1000","1","4","img_art/1.jpg","-34","Too blurry and obscure for me to like this.","Brendan,Jordan,Miguel,Luis,Joshua,Travis","a colorful piece of art,25,340,20","I like the warmth of the picture,21,160,20","Doesn't represent anything in particular.,-47,160,20","I love the calming comfort and safe feeling of this,50,400,20","Reminds me of fall.,7,240,20","I didn't like this too much...I didn't like the red and the jaggedness to it.,-29,260,20","Travis","I didn't like this too much...I didn't like the red and the jaggedness to it.,-29,260,20","Joshua","Reminds me of fall.,7,240,20","Miguel","Doesn't represent anything in particular.,-47,160,20","2"
"20504","","survey-text","74","413202","0.0-72.0-0.0","AFK9ALQK5GPNG","","","","{""Q0"":""A cool pattern that seems to have a lot of depth.""}","","","","","","","","","","","","","","","","","","","","","","",""
"2688.7999999523163","","image-slider-response","75","415893","0.0-73.0","AFK9ALQK5GPNG","","","","","17","","","","","","","","","","","","","","","","","","","","","",""
"null","","image-button-response","76","420898","0.0-74.0","AFK9ALQK5GPNG","img_art/12.jpg","null","","","","","","","","","","","","","","","","","","","","","","","","",""
"803","","image-button-response","77","421707","0.0-75.0","AFK9ALQK5GPNG","img_art/12.jpg","3","","","","","","","","","","","","","","","","","","","","","","","","",""
"1750","","image-button-response","78","423460","0.0-76.0-0.0","AFK9ALQK5GPNG","img_art/12.jpg","5","","","","","","","","","","","","","","","","","","","","","","","","",""
"3028","","image-button-response","79","426489","0.0-77.0-0.0","AFK9ALQK5GPNG","img_art/12.jpg","2","","","","","","","","","","","","","","","","","","","","","","","","",""
"null","","html-keyboard-response","80","427992","0.0-78.0","AFK9ALQK5GPNG","<p style=""font-size: 48px;"">+</p>","","","","","null","allTrialResponses","1500","1","5","img_art/12.jpg","17","A cool pattern that seems to have a lot of depth.","Shawn,Adrian,Miguel,Alexis,Joshua,Travis","Nice hallway art for a hotel.,21,100,20","Ugly colors and I'm just not too much a fan of cubist abstract art.,-50,60,20","Good too basic.,18,160,20","In my opinion, this photo has an old school vibe,22,140,20","I don't get this one. Doesn't evoke an emotional response.,-10,240,20","Neutral...just blocks.,3,260,20","Alexis","In my opinion, this photo has an old school vibe,22,140,20","Travis","Neutral...just blocks.,3,260,20","Miguel","Good too basic.,18,160,20","2"
"2986","","survey-text","81","431001","0.0-79.0-0.0","AFK9ALQK5GPNG","","","","{""Q0"":""sky""}","","","","","","","","","","","","","","","","","","","","","","",""
"28507","","survey-text","82","459509","0.0-80.0-0.0","AFK9ALQK5GPNG","","","","{""Q0"":""A bit overwhelming, but nicely made.""}","","","","","","","","","","","","","","","","","","","","","","",""
"2383.399999976158","","image-slider-response","83","461895","0.0-81.0","AFK9ALQK5GPNG","","","","","-7","","","","","","","","","","","","","","","","","","","","","",""
"null","","image-button-response","84","466904","0.0-82.0","AFK9ALQK5GPNG","img_art/18.jpg","null","","","","","","","","","","","","","","","","","","","","","","","","",""
"1924","","image-button-response","85","468834","0.0-83.0","AFK9ALQK5GPNG","img_art/18.jpg","5","","","","","","","","","","","","","","","","","","","","","","","","",""
"3612","","image-button-response","86","472449","0.0-84.0-0.0","AFK9ALQK5GPNG","img_art/18.jpg","2","","","","","","","","","","","","","","","","","","","","","","","","",""
"2188","","image-button-response","87","474640","0.0-85.0-0.0","AFK9ALQK5GPNG","img_art/18.jpg","3","","","","","","","","","","","","","","","","","","","","","","","","",""
"null","","html-keyboard-response","88","475644","0.0-86.0","AFK9ALQK5GPNG","<p style=""font-size: 48px;"">+</p>","","","","","null","allTrialResponses","1000","1","6","img_art/18.jpg","-7","A bit overwhelming, but nicely made.","Jesus,Dalton,Miguel,Alexis,Thomas,Travis","The shapes are very fun to interpret,30,100,20","i like the colors in the picture and can make out my own images,42,300,20","This looks amazing.,40,160,20","It's possibly of a mermaid luring in a ship,15,140,20","I could stare at this for long stretches of time and still find new details. I love it.,40,220,20","I don't know...kind of a dissatified feeling inside.,-6,260,20","Travis","I don't know...kind of a dissatified feeling inside.,-6,260,20","Miguel","This looks amazing.,40,160,20","Alexis","It's possibly of a mermaid luring in a ship,15,140,20","2"
"24504","","survey-text","89","500161","0.0-87.0-0.0","AFK9ALQK5GPNG","","","","{""Q0"":""Very amateur looking.""}","","","","","","","","","","","","","","","","","","","","","","",""
"2656.099999964237","","image-slider-response","90","502819","0.0-88.0","AFK9ALQK5GPNG","","","","","-36","","","","","","","","","","","","","","","","","","","","","",""
"4962","","image-button-response","91","507822","0.0-89.0","AFK9ALQK5GPNG","img_art/9.jpg","5","","","","","","","","","","","","","","","","","","","","","","","","",""
"1646","","image-button-response","92","509471","0.0-90.0","AFK9ALQK5GPNG","img_art/9.jpg","2","","","","","","","","","","","","","","","","","","","","","","","","",""
"975","","image-button-response","93","510448","0.0-91.0-0.0","AFK9ALQK5GPNG","img_art/9.jpg","5","","","","","","","","","","","","","","","","","","","","","","","","",""
"807","","image-button-response","94","511258","0.0-92.0-0.0","AFK9ALQK5GPNG","img_art/9.jpg","4","","","","","","","","","","","","","","","","","","","","","","","","",""
"null","","html-keyboard-response","95","512759","0.0-93.0","AFK9ALQK5GPNG","<p style=""font-size: 48px;"">+</p>","","","","","null","allTrialResponses","1500","1","7","img_art/9.jpg","-36","Very amateur looking.","Luke,Hunter,Miguel,Alexis,Nicholas,Travis","it makes me feel excited and draws my eye around,24,20,20","strong focal point, appealing use of selective line,11,240,20","Abstract but not well made,-26,160,20","This photo make me feel peaceful. It looks like a woman sleeping in a garden,42,140,20","Some nice colors but i do not like it,-18,240,20","Stuipid looking...dumb,-48,260,20","Miguel","Abstract but not well made,-26,160,20","Travis","Stuipid looking...dumb,-48,260,20","Nicholas","Some nice colors but i do not like it,-18,240,20","2"
"37826","","survey-text","96","550590","0.0-94.0-0.0","AFK9ALQK5GPNG","","","","{""Q0"":""Pretty simple bird picture that I am neutral to.""}","","","","","","","","","","","","","","","","","","","","","","",""
"4149.899999976158","","image-slider-response","97","554744","0.0-95.0","AFK9ALQK5GPNG","","","","","5","","","","","","","","","","","","","","","","","","","","","",""
"3126","","image-button-response","98","559753","0.0-96.0","AFK9ALQK5GPNG","img_art/6.jpg","0","","","","","","","","","","","","","","","","","","","","","","","","",""
"1269","","image-button-response","99","561028","0.0-97.0","AFK9ALQK5GPNG","img_art/6.jpg","2","","","","","","","","","","","","","","","","","","","","","","","","",""
"754","","image-button-response","100","561784","0.0-98.0-0.0","AFK9ALQK5GPNG","img_art/6.jpg","0","","","","","","","","","","","","","","","","","","","","","","","","",""
"5216","","image-button-response","101","567003","0.0-99.0-0.0","AFK9ALQK5GPNG","img_art/6.jpg","5","","","","","","","","","","","","","","","","","","","","","","","","",""
"null","","html-keyboard-response","102","567505","0.0-100.0","AFK9ALQK5GPNG","<p style=""font-size: 48px;"">+</p>","","","","","null","allTrialResponses","500","1","8","img_art/6.jpg","5","Pretty simple bird picture that I am neutral to.","Jake,Chase,Miguel,Brandon,Nicholas,Travis","It feels sad but it's nice to look at.,4,360,20","It's a bit bland, but looks like a bird standing.,11,120,20","Bird? It's a bird.,23,160,20","The feeling of isolation with so little objects. Great,20,320,20","It isnt bad but sort of too bland,0,240,20","No feeling...just left me feeling kind of blah,1,260,20","Miguel","Bird? It's a bird.,23,160,20","Jake","It feels sad but it's nice to look at.,4,360,20","Travis","No feeling...just left me feeling kind of blah,1,260,20","2"
"26690","","survey-text","103","594201","0.0-101.0-0.0","AFK9ALQK5GPNG","","","","{""Q0"":""Looks like a t-shirt at Hot Topic""}","","","","","","","","","","","","","","","","","","","","","","",""
"3390.800000011921","","image-slider-response","104","597595","0.0-102.0","AFK9ALQK5GPNG","","","","","-20","","","","","","","","","","","","","","","","","","","","","",""
"null","","image-button-response","105","602599","0.0-103.0","AFK9ALQK5GPNG","img_art/13.jpg","null","","","","","","","","","","","","","","","","","","","","","","","","",""
"1399","","image-button-response","106","604006","0.0-104.0","AFK9ALQK5GPNG","img_art/13.jpg","4","","","","","","","","","","","","","","","","","","","","","","","","",""
"1857","","image-button-response","107","605865","0.0-105.0-0.0","AFK9ALQK5GPNG","img_art/13.jpg","0","","","","","","","","","","","","","","","","","","","","","","","","",""
"1120","","image-button-response","108","606987","0.0-106.0-0.0","AFK9ALQK5GPNG","img_art/13.jpg","0","","","","","","","","","","","","","","","","","","","","","","","","",""
"715","","image-button-response","109","609514","0.0-106.1-0.1","AFK9ALQK5GPNG","img_art/13.jpg","1","","","","","","","","","","","","","","","","","","","","","","","","",""
"null","","html-keyboard-response","110","610017","0.0-107.0","AFK9ALQK5GPNG","<p style=""font-size: 48px;"">+</p>","","","","","null","allTrialResponses","500","1","9","img_art/13.jpg","-20","Looks like a t-shirt at Hot Topic","Jake,Jason,Miguel,Andrew,Garrett,Travis","It's too violent looking and there's too much contrast between the white/black.,-21,360,20","Like the color choices,7,20,20","Nice color abstractions.,21,160,20","It makes me think of sitting inside on a rainy day while drinking a warm coffee,32,160,20","It looks like someone splattered a bunch of different colors to make a picture; I think its ugly.,-40,180,20","I love the colors and the texture,37,260,20","Garrett","It looks like someone splattered a bunch of different colors to make a picture; I think its ugly.,-40,180,20","Jake","It's too violent looking and there's too much contrast between the white/black.,-21,360,20","Jason","Like the color choices,7,20,20","4"
"24888","","survey-text","111","634916","0.0-108.0-0.0","AFK9ALQK5GPNG","","","","{""Q0"":""""}","","","","","","","","","","","","","","","","","","","","","","",""
"13261","","survey-text","112","649204","0.0-108.1-0.1","AFK9ALQK5GPNG","","","","{""Q0"":""Very vibrant and the white looks nice.""}","","","","","","","","","","","","","","","","","","","","","","",""
"2745.900000035763","","image-slider-response","113","651953","0.0-109.0","AFK9ALQK5GPNG","","","","","21","","","","","","","","","","","","","","","","","","","","","",""
"3807","","image-button-response","114","656956","0.0-110.0","AFK9ALQK5GPNG","img_art/23.jpg","2","","","","","","","","","","","","","","","","","","","","","","","","",""
"480","","image-button-response","115","657442","0.0-111.0","AFK9ALQK5GPNG","img_art/23.jpg","2","","","","","","","","","","","","","","","","","","","","","","","","",""
"2860","","image-button-response","116","660305","0.0-112.0-0.0","AFK9ALQK5GPNG","img_art/23.jpg","5","","","","","","","","","","","","","","","","","","","","","","","","",""
"2175","","image-button-response","117","662484","0.0-113.0-0.0","AFK9ALQK5GPNG","img_art/23.jpg","4","","","","","","","","","","","","","","","","","","","","","","","","",""
"null","","html-keyboard-response","118","663988","0.0-114.0","AFK9ALQK5GPNG","<p style=""font-size: 48px;"">+</p>","","","","","null","allTrialResponses","1500","1","10","img_art/23.jpg","21","Very vibrant and the white looks nice.","Jake,Jason,Jesse,Sean,Garrett,Angel","This looks like hotel room art, it's ugly and odd.,-2,360,20","Interesting contrast,9,20,20","Makes me want to stare at it for hours. Like there is something deeper to find.,37,80,20","so much detail .,31,40,20","I really like the way all the colors look, I think this is a pretty picture.,40,180,20","I feel positive community and comfort. Singing along at a concert, united with a bunch of strangers through shared joy.,20,180,20","Jesse","Makes me want to stare at it for hours. Like there is something deeper to find.,37,80,20","Angel","I feel positive community and comfort. Singing along at a concert, united with a bunch of strangers through shared joy.,20,180,20","Garrett","I really like the way all the colors look, I think this is a pretty picture.,40,180,20","4"
"3671","","survey-text","119","667683","0.0-115.0-0.0","AFK9ALQK5GPNG","","","","{""Q0"":""our""}","","","","","","","","","","","","","","","","","","","","","","",""
"29475","","survey-text","120","697159","0.0-116.0-0.0","AFK9ALQK5GPNG","","","","{""Q0"":""I'm not sure this went to plan.""}","","","","","","","","","","","","","","","","","","","","","","",""
"3614.199999988079","","image-slider-response","121","700776","0.0-117.0","AFK9ALQK5GPNG","","","","","-43","","","","","","","","","","","","","","","","","","","","","",""
"4600","","image-button-response","122","705779","0.0-118.0","AFK9ALQK5GPNG","img_art/29.jpg","5","","","","","","","","","","","","","","","","","","","","","","","","",""
"379","","image-button-response","123","706163","0.0-119.0","AFK9ALQK5GPNG","img_art/29.jpg","5","","","","","","","","","","","","","","","","","","","","","","","","",""
"1462","","image-button-response","124","707628","0.0-120.0-0.0","AFK9ALQK5GPNG","img_art/29.jpg","4","","","","","","","","","","","","","","","","","","","","","","","","",""
"776","","image-button-response","125","708407","0.0-121.0-0.0","AFK9ALQK5GPNG","img_art/29.jpg","0","","","","","","","","","","","","","","","","","","","","","","","","",""
"null","","html-keyboard-response","126","709409","0.0-122.0","AFK9ALQK5GPNG","<p style=""font-size: 48px;"">+</p>","","","","","null","allTrialResponses","1000","1","11","img_art/29.jpg","-43","I'm not sure this went to plan.","Michael,Spencer,Jesse,Shane,Garrett,Angel","Looks literally like garbage.,-45,140,20","Scrawled graffiti, with a red x as saying it was a mistake,-40,120,20","Grabs interest but then confuses me,6,80,20","Darkness and torment,-50,80,20","I think this image looks ugly and needs more colors so it looks nicer.,-30,180,20","This piece feels gross. Makes me think of pollution/litter strewn across a dirty street.,-20,180,20","Angel","This piece feels gross. Makes me think of pollution/litter strewn across a dirty street.,-20,180,20","Garrett","I think this image looks ugly and needs more colors so it looks nicer.,-30,180,20","Michael","Looks literally like garbage.,-45,140,20","4"
"23021","","survey-text","127","732442","0.0-123.0-0.0","AFK9ALQK5GPNG","","","","{""Q0"":""Looks like 70's album cover art. Or a roller coaster.""}","","","","","","","","","","","","","","","","","","","","","","",""
"2803.099999964237","","image-slider-response","128","735247","0.0-124.0","AFK9ALQK5GPNG","","","","","13","","","","","","","","","","","","","","","","","","","","","",""
"4571","","image-button-response","129","740251","0.0-125.0","AFK9ALQK5GPNG","img_art/10.jpg","5","","","","","","","","","","","","","","","","","","","","","","","","",""
"814","","image-button-response","130","741070","0.0-126.0","AFK9ALQK5GPNG","img_art/10.jpg","5","","","","","","","","","","","","","","","","","","","","","","","","",""
"6646","","image-button-response","131","747719","0.0-127.0-0.0","AFK9ALQK5GPNG","img_art/10.jpg","3","","","","","","","","","","","","","","","","","","","","","","","","",""
"1321","","image-button-response","132","749043","0.0-128.0-0.0","AFK9ALQK5GPNG","img_art/10.jpg","1","","","","","","","","","","","","","","","","","","","","","","","","",""
"null","","html-keyboard-response","133","750046","0.0-129.0","AFK9ALQK5GPNG","<p style=""font-size: 48px;"">+</p>","","","","","null","allTrialResponses","1000","1","12","img_art/10.jpg","13","Looks like 70's album cover art. Or a roller coaster.","Michael,Bradley,Cole,Daniel,Garrett,Angel","Ugly and low skill. I wouldn't want it.,-50,140,20","This piece is very intriguing to me.,3,300,20","It confuses me. I dont know whats going on,14,200,20","Music visualized with subtle color,17,320,20","I can't tell what this picture is supposed to mean and I think the colors are lacking variety.,-42,180,20","This piece makes me think of music. The music is dark; I like dark music so it edges toward good.,10,180,20","Angel","This piece makes me think of music. The music is dark; I like dark music so it edges toward good.,10,180,20","Daniel","Music visualized with subtle color,17,320,20","Bradley","This piece is very intriguing to me.,3,300,20","4"
"21058","","survey-text","134","771118","0.0-130.0-0.0","AFK9ALQK5GPNG","","","","{""Q0"":""Exploding box of McDonalds fries.""}","","","","","","","","","","","","","","","","","","","","","","",""
"2628.300000011921","","image-slider-response","135","773749","0.0-131.0","AFK9ALQK5GPNG","","","","","33","","","","","","","","","","","","","","","","","","","","","",""
"4175","","image-button-response","136","778753","0.0-132.0","AFK9ALQK5GPNG","img_art/4.jpg","1","","","","","","","","","","","","","","","","","","","","","","","","",""
"146","","image-button-response","137","778905","0.0-133.0","AFK9ALQK5GPNG","img_art/4.jpg","1","","","","","","","","","","","","","","","","","","","","","","","","",""
"5733","","image-button-response","138","784640","0.0-134.0-0.0","AFK9ALQK5GPNG","img_art/4.jpg","5","","","","","","","","","","","","","","","","","","","","","","","","",""
"3367","","image-button-response","139","788010","0.0-135.0-0.0","AFK9ALQK5GPNG","img_art/4.jpg","0","","","","","","","","","","","","","","","","","","","","","","","","",""
"null","","html-keyboard-response","140","789012","0.0-136.0","AFK9ALQK5GPNG","<p style=""font-size: 48px;"">+</p>","","","","","null","allTrialResponses","1000","1","13","img_art/4.jpg","33","Exploding box of McDonalds fries.","Zachary,Bradley,Evan,Daniel,Christian,Angel","Not a huge fan of the color story, but it reminds me of a child finger-painting.,12,400,20","This looks like what happens when someone steps on a mustard packet.,-7,300,20","I'm disappointed that such a simple piece, with very little effort spent, could be grouped with other detailed pieces,-31,140,20","Better version of a 7 year old who got lucky,-23,320,20","no sorry i can't really understand,-18,140,20","I feel kind of guilty looking at this, like I'm receiving a reward I don't I deserve.,-10,180,20","Bradley","This looks like what happens when someone steps on a mustard packet.,-7,300,20","Angel","I feel kind of guilty looking at this, like I'm receiving a reward I don't I deserve.,-10,180,20","Zachary","Not a huge fan of the color story, but it reminds me of a child finger-painting.,12,400,20","4"
"14765","","survey-text","141","803788","0.0-137.0-0.0","AFK9ALQK5GPNG","","","","{""Q0"":""This seems very basic and boring to me.""}","","","","","","","","","","","","","","","","","","","","","","",""
"9481.600000023842","","image-slider-response","142","813272","0.0-138.0","AFK9ALQK5GPNG","","","","","-39","","","","","","","","","","","","","","","","","","","","","",""
"4012","","image-button-response","143","818277","0.0-139.0","AFK9ALQK5GPNG","img_art/5.jpg","0","","","","","","","","","","","","","","","","","","","","","","","","",""
"1113","","image-button-response","144","819395","0.0-140.0","AFK9ALQK5GPNG","img_art/5.jpg","0","","","","","","","","","","","","","","","","","","","","","","","","",""
"551","","image-button-response","145","819949","0.0-141.0-0.0","AFK9ALQK5GPNG","img_art/5.jpg","1","","","","","","","","","","","","","","","","","","","","","","","","",""
"606","","image-button-response","146","820563","0.0-142.0-0.0","AFK9ALQK5GPNG","img_art/5.jpg","0","","","","","","","","","","","","","","","","","","","","","","","","",""
"486","","image-button-response","147","823333","0.0-142.1-0.1","AFK9ALQK5GPNG","img_art/5.jpg","4","","","","","","","","","","","","","","","","","","","","","","","","",""
"null","","html-keyboard-response","148","824336","0.0-143.0","AFK9ALQK5GPNG","<p style=""font-size: 48px;"">+</p>","","","","","null","allTrialResponses","1000","1","14","img_art/5.jpg","-39","This seems very basic and boring to me.","Zachary,Bradley,Tanner,Peter,Isaac,Angel","Not sure what to make of this one.,-1,400,20","Looks like a tied up trash bag.,-10,300,20","sharp, painful yet playful,-5,180,20","Bright and sunny,19,320,20","I'm not sure what is going on here.,-46,280,20","I see a sign advising me to be cautious.,-20,180,20","Zachary","Not sure what to make of this one.,-1,400,20","Bradley","Looks like a tied up trash bag.,-10,300,20","Isaac","I'm not sure what is going on here.,-46,280,20","6"
"10734","","survey-text","149","835090","0.0-144.0-0.0","AFK9ALQK5GPNG","","","","{""Q0"":""""}","","","","","","","","","","","","","","","","","","","","","","",""
"11595","","survey-text","150","847822","0.0-144.1-0.1","AFK9ALQK5GPNG","","","","{""Q0"":""A cool scene and use of colors and blending.""}","","","","","","","","","","","","","","","","","","","","","","",""
"3349.199999988079","","image-slider-response","151","851173","0.0-145.0","AFK9ALQK5GPNG","","","","","23","","","","","","","","","","","","","","","","","","","","","",""
"null","","image-button-response","152","856177","0.0-146.0","AFK9ALQK5GPNG","img_art/20.jpg","null","","","","","","","","","","","","","","","","","","","","","","","","",""
"788","","image-button-response","153","856970","0.0-147.0","AFK9ALQK5GPNG","img_art/20.jpg","4","","","","","","","","","","","","","","","","","","","","","","","","",""
"2832","","image-button-response","154","859805","0.0-148.0-0.0","AFK9ALQK5GPNG","img_art/20.jpg","1","","","","","","","","","","","","","","","","","","","","","","","","",""
"555","","image-button-response","155","860367","0.0-149.0-0.0","AFK9ALQK5GPNG","img_art/20.jpg","2","","","","","","","","","","","","","","","","","","","","","","","","",""
"null","","html-keyboard-response","156","861869","0.0-150.0","AFK9ALQK5GPNG","<p style=""font-size: 48px;"">+</p>","","","","","null","allTrialResponses","1500","1","15","img_art/20.jpg","23","A cool scene and use of colors and blending.","Zachary,Bradley,Christopher,Grant,Isaac,Robert","While interesting in technique.. It looks like a blurry car wreck. Does not evoke great emotions.,-20,400,20","A truck rolled over?  I do like the pictures and the technique though.,25,300,20","i ind of like this, it's saying something but not my style,6,160,20","This elicits no reaction in me.,0,200,20","It is abstract but it looks neat.,15,280,20","Looks like an old gold mining down now deserted.,11,360,20","Isaac","It is abstract but it looks neat.,15,280,20","Bradley","A truck rolled over?  I do like the pictures and the technique though.,25,300,20","Christopher","i ind of like this, it's saying something but not my style,6,160,20","6"
"2823","","survey-text","157","864717","0.0-151.0-0.0","AFK9ALQK5GPNG","","","","{""Q0"":""course""}","","","","","","","","","","","","","","","","","","","","","","",""
"15126","","survey-text","158","879844","0.0-152.0-0.0","AFK9ALQK5GPNG","","","","{""Q0"":""This makes me think of a child's classroom.""}","","","","","","","","","","","","","","","","","","","","","","",""
"2863.100000023842","","image-slider-response","159","882710","0.0-153.0","AFK9ALQK5GPNG","","","","","-4","","","","","","","","","","","","","","","","","","","","","",""
"null","","image-button-response","160","887718","0.0-154.0","AFK9ALQK5GPNG","img_art/2.jpg","null","","","","","","","","","","","","","","","","","","","","","","","","",""
"740","","image-button-response","161","888465","0.0-155.0","AFK9ALQK5GPNG","img_art/2.jpg","2","","","","","","","","","","","","","","","","","","","","","","","","",""
"1485","","image-button-response","162","889953","0.0-156.0-0.0","AFK9ALQK5GPNG","img_art/2.jpg","4","","","","","","","","","","","","","","","","","","","","","","","","",""
"408","","image-button-response","163","890365","0.0-157.0-0.0","AFK9ALQK5GPNG","img_art/2.jpg","3","","","","","","","","","","","","","","","","","","","","","","","","",""
"null","","html-keyboard-response","164","890868","0.0-158.0","AFK9ALQK5GPNG","<p style=""font-size: 48px;"">+</p>","","","","","null","allTrialResponses","500","1","16","img_art/2.jpg","-4","This makes me think of a child's classroom.","Brett,Bradley,Christopher,Isaiah,Isaac,Brian","Not very appealing,-5,360,20","I'm not fond of the colors in this one.,-33,300,20","nope. just looks like a mess,-28,160,20","I feel claustrophobic. I'm looking at a busy shop, but the simple shapes and continuous colors make it hectic.,-8,300,20","Not sure what is happening. I'm not a big fan of the colors but they don't bother me either.,1,280,20","I like how it looks like a cute smiling face,43,380,20","Christopher","nope. just looks like a mess,-28,160,20","Isaac","Not sure what is happening. I'm not a big fan of the colors but they don't bother me either.,1,280,20","Isaiah","I feel claustrophobic. I'm looking at a busy shop, but the simple shapes and continuous colors make it hectic.,-8,300,20","6"
"20921","","survey-text","165","911808","0.0-159.0-0.0","AFK9ALQK5GPNG","","","","{""Q0"":""Scribble that got out of hand and you sign your name to it.""}","","","","","","","","","","","","","","","","","","","","","","",""
"3472.400000035763","","image-slider-response","166","915283","0.0-160.0","AFK9ALQK5GPNG","","","","","-37","","","","","","","","","","","","","","","","","","","","","",""
"4745","","image-button-response","167","920290","0.0-161.0","AFK9ALQK5GPNG","img_art/3.jpg","1","","","","","","","","","","","","","","","","","","","","","","","","",""
"831","","image-button-response","168","921127","0.0-162.0","AFK9ALQK5GPNG","img_art/3.jpg","1","","","","","","","","","","","","","","","","","","","","","","","","",""
"578","","image-button-response","169","921708","0.0-163.0-0.0","AFK9ALQK5GPNG","img_art/3.jpg","0","","","","","","","","","","","","","","","","","","","","","","","","",""
"2507","","image-button-response","170","924218","0.0-164.0-0.0","AFK9ALQK5GPNG","img_art/3.jpg","4","","","","","","","","","","","","","","","","","","","","","","","","",""
"null","","html-keyboard-response","171","925720","0.0-165.0","AFK9ALQK5GPNG","<p style=""font-size: 48px;"">+</p>","","","","","null","allTrialResponses","1500","1","17","img_art/3.jpg","-37","Scribble that got out of hand and you sign your name to it.","Ethan,Taylor,Christopher,Isaiah,Isaac,Jonathan","I usually don't like red. Red in this angry piece is very fitting.,19,120,20","Why kids with color crayons is called art is beyond me. People pay for this???,-40,200,20","the red is impactful but the work overall doesn't say anything to me,-8,160,20","I feel uncomfortable, like I am looking at a crime scene.,-17,300,20","It looks like scribbles.,-40,280,20","Something I'd paint when I'm mad. I feel that,20,140,20","Taylor","Why kids with color crayons is called art is beyond me. People pay for this???,-40,200,20","Ethan","I usually don't like red. Red in this angry piece is very fitting.,19,120,20","Isaac","It looks like scribbles.,-40,280,20","6"
"23389","","survey-text","172","949116","0.0-166.0-0.0","AFK9ALQK5GPNG","","","","{""Q0"":""This is very interesting and reminds me of ceiling murals.""}","","","","","","","","","","","","","","","","","","","","","","",""
"2086.5","","image-slider-response","173","951204","0.0-167.0","AFK9ALQK5GPNG","","","","","11","","","","","","","","","","","","","","","","","","","","","",""
"null","","image-button-response","174","956210","0.0-168.0","AFK9ALQK5GPNG","img_art/21.jpg","null","","","","","","","","","","","","","","","","","","","","","","","","",""
"3844","","image-button-response","175","960060","0.0-169.0","AFK9ALQK5GPNG","img_art/21.jpg","4","","","","","","","","","","","","","","","","","","","","","","","","",""
"700","","image-button-response","176","960762","0.0-170.0-0.0","AFK9ALQK5GPNG","img_art/21.jpg","3","","","","","","","","","","","","","","","","","","","","","","","","",""
"1501","","image-button-response","177","962266","0.0-171.0-0.0","AFK9ALQK5GPNG","img_art/21.jpg","2","","","","","","","","","","","","","","","","","","","","","","","","",""
"null","","html-keyboard-response","178","963269","0.0-172.0","AFK9ALQK5GPNG","<p style=""font-size: 48px;"">+</p>","","","","","null","allTrialResponses","1000","1","18","img_art/21.jpg","11","This is very interesting and reminds me of ceiling murals.","Ethan,Taylor,Richard,Charles,Isaac,Scott","This is lovely. I like the mix of colors, the warn and cool slowly combining.,39,120,20","Remove the rocks(?) on the lower right.,5,200,20","setting sun sky? nice colors and blending,14,340,20","Another swathe of ocean,31,100,20","I like the colors. It looks dramatic.,5,280,20","looks like a sunrise, great colors,40,20,20","Isaac","I like the colors. It looks dramatic.,5,280,20","Charles","Another swathe of ocean,31,100,20","Richard","setting sun sky? nice colors and blending,14,340,20","6"
"17081","","survey-text","179","980364","0.0-173.0-0.0","AFK9ALQK5GPNG","","","","{""Q0"":""This gives a musical and relaxing vibe.""}","","","","","","","","","","","","","","","","","","","","","","",""
"2587.099999964237","","image-slider-response","180","982953","0.0-174.0","AFK9ALQK5GPNG","","","","","41","","","","","","","","","","","","","","","","","","","","","",""
"4332","","image-button-response","181","987958","0.0-175.0","AFK9ALQK5GPNG","img_art/22.jpg","1","","","","","","","","","","","","","","","","","","","","","","","","",""
"310","","image-button-response","182","988273","0.0-176.0","AFK9ALQK5GPNG","img_art/22.jpg","1","","","","","","","","","","","","","","","","","","","","","","","","",""
"3334","","image-button-response","183","991609","0.0-177.0-0.0","AFK9ALQK5GPNG","img_art/22.jpg","3","","","","","","","","","","","","","","","","","","","","","","","","",""
"783","","image-button-response","184","992395","0.0-178.0-0.0","AFK9ALQK5GPNG","img_art/22.jpg","0","","","","","","","","","","","","","","","","","","","","","","","","",""
"null","","html-keyboard-response","185","993398","0.0-179.0","AFK9ALQK5GPNG","<p style=""font-size: 48px;"">+</p>","","","","","null","allTrialResponses","1000","1","19","img_art/22.jpg","41","This gives a musical and relaxing vibe.","Jack,Seth,Richard,Charles,Isaac,Antonio","beautiful. love the bright colors & soft brush strokes, and the imprint of the key is genius.,50,320,20","I think the colors are beautiful they remind me of a sunset.,13,60,20","another OK work, mostly because of the blend of colors,12,340,20","I like the key near the sphere in the center,19,100,20","The colors clash, and I don't know what is happening.,-23,280,20","Felt blah. Bunch of nothingness,-42,220,20","Seth","I think the colors are beautiful they remind me of a sunset.,13,60,20","Charles","I like the key near the sphere in the center,19,100,20","Jack","beautiful. love the bright colors & soft brush strokes, and the imprint of the key is genius.,50,320,20","6"
"21710","","survey-text","186","1015123","0.0-180.0-0.0","AFK9ALQK5GPNG","","","","{""Q0"":""Very simple yet details. I like this piece.""}","","","","","","","","","","","","","","","","","","","","","","",""
"2591.199999988079","","image-slider-response","187","1017716","0.0-181.0","AFK9ALQK5GPNG","","","","","30","","","","","","","","","","","","","","","","","","","","","",""
"null","","image-button-response","188","1022720","0.0-182.0","AFK9ALQK5GPNG","img_art/19.jpg","null","","","","","","","","","","","","","","","","","","","","","","","","",""
"20614","","image-button-response","189","1043339","0.0-183.0","AFK9ALQK5GPNG","img_art/19.jpg","1","","","","","","","","","","","","","","","","","","","","","","","","",""
"1432","","image-button-response","190","1044775","0.0-184.0-0.0","AFK9ALQK5GPNG","img_art/19.jpg","3","","","","","","","","","","","","","","","","","","","","","","","","",""
"944","","image-button-response","191","1045725","0.0-185.0-0.0","AFK9ALQK5GPNG","img_art/19.jpg","4","","","","","","","","","","","","","","","","","","","","","","","","",""
"null","","html-keyboard-response","192","1046728","0.0-186.0","AFK9ALQK5GPNG","<p style=""font-size: 48px;"">+</p>","","","","","null","allTrialResponses","1000","1","20","img_art/19.jpg","30","Very simple yet details. I like this piece.","Jack,Seth,Joseph,Charles,Noah,Trevor","love the muted colors and added sketchy lines. calming without being boring.,50,320,20","I wasn't sure if I liked it or hated it. It oddly reminds me of a clothing store.,11,60,20","Too messy and busy. Too much going on there for me.,-12,220,20","The blue makes it look like it has depth,11,100,20","the way the landscape is portrayed captivates me - I enjoy studying the structure,32,260,20","i like the colors and the way it looks like an actual scene,18,280,20","Seth","I wasn't sure if I liked it or hated it. It oddly reminds me of a clothing store.,11,60,20","Charles","The blue makes it look like it has depth,11,100,20","Noah","the way the landscape is portrayed captivates me - I enjoy studying the structure,32,260,20","6"
"2439","","survey-text","193","1049175","0.0-187.0-0.0","AFK9ALQK5GPNG","","","","{""Q0"":""we""}","","","","","","","","","","","","","","","","","","","","","","",""
"12092","","survey-text","194","1061268","0.0-188.0-0.0","AFK9ALQK5GPNG","","","","{""Q0"":""This like a blend of fall and spring time.""}","","","","","","","","","","","","","","","","","","","","","","",""
"3718","","image-slider-response","195","1064988","0.0-189.0","AFK9ALQK5GPNG","","","","","-4","","","","","","","","","","","","","","","","","","","","","",""
"4685","","image-button-response","196","1069994","0.0-190.0","AFK9ALQK5GPNG","img_art/27.jpg","0","","","","","","","","","","","","","","","","","","","","","","","","",""
"624","","image-button-response","197","1070622","0.0-191.0","AFK9ALQK5GPNG","img_art/27.jpg","0","","","","","","","","","","","","","","","","","","","","","","","","",""
"670","","image-button-response","198","1071294","0.0-192.0-0.0","AFK9ALQK5GPNG","img_art/27.jpg","1","","","","","","","","","","","","","","","","","","","","","","","","",""
"418","","image-button-response","199","1071715","0.0-193.0-0.0","AFK9ALQK5GPNG","img_art/27.jpg","2","","","","","","","","","","","","","","","","","","","","","","","","",""
"null","","html-keyboard-response","200","1073217","0.0-194.0","AFK9ALQK5GPNG","<p style=""font-size: 48px;"">+</p>","","","","","null","allTrialResponses","1500","1","21","img_art/27.jpg","-4","This like a blend of fall and spring time.","Eric,Seth,John,Charles,Noah,Samuel","This piece reminds me of a summer day.,30,100,20","I don't care for the green scribbles; not sure what they are. But I adore the colors in the background.,24,60,20","Looks as if a toddler painted it,-20,120,20","Nothing stands out,-23,100,20","I generally enjoy the style, but I'm finding the green lines grating,-9,260,20","city at sunset brings happyness,10,400,20","Eric","This piece reminds me of a summer day.,30,100,20","Seth","I don't care for the green scribbles; not sure what they are. But I adore the colors in the background.,24,60,20","John","Looks as if a toddler painted it,-20,120,20","6"
"42369","","survey-text","201","1115600","0.0-195.0-0.0","AFK9ALQK5GPNG","","","","{""Q0"":""This is a colorful tree of some sort.""}","","","","","","","","","","","","","","","","","","","","","","",""
"2078.100000023842","","image-slider-response","202","1117681","0.0-196.0","AFK9ALQK5GPNG","","","","","9","","","","","","","","","","","","","","","","","","","","","",""
"3828","","image-button-response","203","1122685","0.0-197.0","AFK9ALQK5GPNG","img_art/14.jpg","4","","","","","","","","","","","","","","","","","","","","","","","","",""
"305","","image-button-response","204","1122993","0.0-198.0","AFK9ALQK5GPNG","img_art/14.jpg","4","","","","","","","","","","","","","","","","","","","","","","","","",""
"777","","image-button-response","205","1123772","0.0-199.0-0.0","AFK9ALQK5GPNG","img_art/14.jpg","2","","","","","","","","","","","","","","","","","","","","","","","","",""
"371","","image-button-response","206","1124146","0.0-200.0-0.0","AFK9ALQK5GPNG","img_art/14.jpg","0","","","","","","","","","","","","","","","","","","","","","","","","",""
"null","","html-keyboard-response","207","1125149","0.0-201.0","AFK9ALQK5GPNG","<p style=""font-size: 48px;"">+</p>","","","","","null","allTrialResponses","1000","1","22","img_art/14.jpg","9","This is a colorful tree of some sort.","Eric,Seth,John,Nathaniel,Mitchell,Dylan","I'm imagining a flower bouquet with pretty colors which I like.,35,100,20","This piece feels inviting. It's like opening up the pages of your favorite book for the first time.,26,60,20","Beautiful tree,the use of water colors makes it soothing to look at,37,120,20","Not quite the style I'd like, but it does have a certain air of emptiness.,12,220,20","Tornado, nature. trees falling and displaced creatures. Love the colors though.,1,180,20","Pretty, dainty, unique,22,40,20","Mitchell","Tornado, nature. trees falling and displaced creatures. Love the colors though.,1,180,20","John","Beautiful tree,the use of water colors makes it soothing to look at,37,120,20","Eric","I'm imagining a flower bouquet with pretty colors which I like.,35,100,20","6"
"19914","","survey-text","208","1145079","0.0-202.0-0.0","AFK9ALQK5GPNG","","","","{""Q0"":""I don't know if this is brilliant or boring.""}","","","","","","","","","","","","","","","","","","","","","","",""
"2831.699999988079","","image-slider-response","209","1147913","0.0-203.0","AFK9ALQK5GPNG","","","","","-2","","","","","","","","","","","","","","","","","","","","","",""
"4172","","image-button-response","210","1152918","0.0-204.0","AFK9ALQK5GPNG","img_art/30.jpg","1","","","","","","","","","","","","","","","","","","","","","","","","",""
"319","","image-button-response","211","1153241","0.0-205.0","AFK9ALQK5GPNG","img_art/30.jpg","1","","","","","","","","","","","","","","","","","","","","","","","","",""
"1426","","image-button-response","212","1154670","0.0-206.0-0.0","AFK9ALQK5GPNG","img_art/30.jpg","3","","","","","","","","","","","","","","","","","","","","","","","","",""
"1554","","image-button-response","213","1156227","0.0-207.0-0.0","AFK9ALQK5GPNG","img_art/30.jpg","2","","","","","","","","","","","","","","","","","","","","","","","","",""
"null","","html-keyboard-response","214","1157729","0.0-208.0","AFK9ALQK5GPNG","<p style=""font-size: 48px;"">+</p>","","","","","null","allTrialResponses","1500","1","23","img_art/30.jpg","-2","I don't know if this is brilliant or boring.","Eric,Bryan,John,Vincent,Mitchell,Jeremy","I love the colors, the style, and the uniqueness in this piece. I love everything.,50,100,20","A little too dull. Would've liked brighter colors. Also looks washed out.,1,400,20","ugly nasty colors,-10,120,20","Personal , calming conservative signature business ideal.,32,360,20","connection, Everything is connected even in contrast.,42,180,20","Happy. Makes me think of childhood finger painting,49,60,20","Bryan","A little too dull. Would've liked brighter colors. Also looks washed out.,1,400,20","Vincent","Personal , calming conservative signature business ideal.,32,360,20","John","ugly nasty colors,-10,120,20","6"
"25341","","survey-text","215","1183076","0.0-209.0-0.0","AFK9ALQK5GPNG","","","","{""Q0"":""The colors and shading are done well but this feels cold.""}","","","","","","","","","","","","","","","","","","","","","","",""
"2664.399999976158","","image-slider-response","216","1185743","0.0-210.0","AFK9ALQK5GPNG","","","","","-3","","","","","","","","","","","","","","","","","","","","","",""
"4340","","image-button-response","217","1190747","0.0-211.0","AFK9ALQK5GPNG","img_art/17.jpg","2","","","","","","","","","","","","","","","","","","","","","","","","",""
"39","","image-button-response","218","1190789","0.0-212.0","AFK9ALQK5GPNG","img_art/17.jpg","2","","","","","","","","","","","","","","","","","","","","","","","","",""
"1791","","image-button-response","219","1192583","0.0-213.0-0.0","AFK9ALQK5GPNG","img_art/17.jpg","4","","","","","","","","","","","","","","","","","","","","","","","","",""
"424","","image-button-response","220","1193010","0.0-214.0-0.0","AFK9ALQK5GPNG","img_art/17.jpg","5","","","","","","","","","","","","","","","","","","","","","","","","",""
"null","","html-keyboard-response","221","1194512","0.0-215.0","AFK9ALQK5GPNG","<p style=""font-size: 48px;"">+</p>","","","","","null","allTrialResponses","1500","1","24","img_art/17.jpg","-3","The colors and shading are done well but this feels cold.","Kenneth,Bryan,John,Vincent,Kevin,Lucas","I really like this, especially the tree.,23,300,20","Reminds me of winters in Minnesota.,48,400,20","It gorgeous and i love how the tree is almost 3 dimensional.So many elements to it.,50,120,20","Another favorite a relaxing day with nature a day to take it all In,34,360,20","Some new perm we got there.,12,320,20","Wow, I haven't seen anything better than this.,40,380,20","John","It gorgeous and i love how the tree is almost 3 dimensional.So many elements to it.,50,120,20","Kevin","Some new perm we got there.,12,320,20","Lucas","Wow, I haven't seen anything better than this.,40,380,20","6"
"63973","","survey-text","222","1258503","0.0-216.0-0.0","AFK9ALQK5GPNG","","","","{""Q0"":""This is very odd and childish.""}","","","","","","","","","","","","","","","","","","","","","","",""
"2341.400000035763","","image-slider-response","223","1260846","0.0-217.0","AFK9ALQK5GPNG","","","","","-30","","","","","","","","","","","","","","","","","","","","","",""
"null","","image-button-response","224","1265852","0.0-218.0","AFK9ALQK5GPNG","img_art/16.jpg","null","","","","","","","","","","","","","","","","","","","","","","","","",""
"668","","image-button-response","225","1266527","0.0-219.0","AFK9ALQK5GPNG","img_art/16.jpg","2","","","","","","","","","","","","","","","","","","","","","","","","",""
"2594","","image-button-response","226","1269123","0.0-220.0-0.0","AFK9ALQK5GPNG","img_art/16.jpg","4","","","","","","","","","","","","","","","","","","","","","","","","",""
"714","","image-button-response","227","1269840","0.0-221.0-0.0","AFK9ALQK5GPNG","img_art/16.jpg","3","","","","","","","","","","","","","","","","","","","","","","","","",""
"null","","html-keyboard-response","228","1271344","0.0-222.0","AFK9ALQK5GPNG","<p style=""font-size: 48px;"">+</p>","","","","","null","allTrialResponses","1500","1","25","img_art/16.jpg","-30","This is very odd and childish.","Bryce,Ryan,John,Devin,Kevin,Lucas","The teddy bear is scary as hell.,-44,20,20","Very modern, reminds me of bansky,43,380,20","It creeps me out.,-50,120,20","That bear looks unfitting!,-8,380,20","Hmm i don't know what going on here.,1,320,20","It's frightening.,30,380,20","John","It creeps me out.,-50,120,20","Kevin","Hmm i don't know what going on here.,1,320,20","Devin","That bear looks unfitting!,-8,380,20","6"
"4202","","survey-text","229","1275580","0.0-223.0-0.0","AFK9ALQK5GPNG","","","","{""Q0"":""table""}","","","","","","","","","","","","","","","","","","","","","","",""
"15912","","survey-text","230","1291496","0.0-224.0-0.0","AFK9ALQK5GPNG","","","","{""Q0"":""Looks like it would be scrawled on the walls of a cave.""}","","","","","","","","","","","","","","","","","","","","","","",""
"2269.900000035763","","image-slider-response","231","1293769","0.0-225.0","AFK9ALQK5GPNG","","","","","-7","","","","","","","","","","","","","","","","","","","","","",""
"4661","","image-button-response","232","1298774","0.0-226.0","AFK9ALQK5GPNG","img_art/25.jpg","3","","","","","","","","","","","","","","","","","","","","","","","","",""
"1234","","image-button-response","233","1300014","0.0-227.0","AFK9ALQK5GPNG","img_art/25.jpg","4","","","","","","","","","","","","","","","","","","","","","","","","",""
"387","","image-button-response","234","1300403","0.0-228.0-0.0","AFK9ALQK5GPNG","img_art/25.jpg","3","","","","","","","","","","","","","","","","","","","","","","","","",""
"1143","","image-button-response","235","1301549","0.0-229.0-0.0","AFK9ALQK5GPNG","img_art/25.jpg","5","","","","","","","","","","","","","","","","","","","","","","","","",""
"null","","html-keyboard-response","236","1302552","0.0-230.0","AFK9ALQK5GPNG","<p style=""font-size: 48px;"">+</p>","","","","","null","allTrialResponses","1000","1","26","img_art/25.jpg","-7","Looks like it would be scrawled on the walls of a cave.","Anthony,Alex,John,Devin,Kevin,Mark","Spooky, but in a good way. I like the green and black color palette.,42,200,20","I can get behind this but only because I like the green. it reminds me of a graveyard,11,100,20","Dark silhouette against the murky background Illicites an ominous feeling. Don't really like it.,-20,120,20","It looks a bit strange to me, neck too long,-19,380,20","That on i find a bit creapy.,-19,320,20","Looks like Burning Man, dont care for the colors.,-5,80,20","Kevin","That on i find a bit creapy.,-19,320,20","Devin","It looks a bit strange to me, neck too long,-19,380,20","Mark","Looks like Burning Man, dont care for the colors.,-5,80,20","6"
"19577","","survey-text","237","1322147","0.0-231.0-0.0","AFK9ALQK5GPNG","","","","{""Q0"":""Colors look nice and play off each other well, but it's a tad boring.""}","","","","","","","","","","","","","","","","","","","","","","",""
"2480.2999999523163","","image-slider-response","238","1324633","0.0-232.0","AFK9ALQK5GPNG","","","","","4","","","","","","","","","","","","","","","","","","","","","",""
"4409","","image-button-response","239","1329638","0.0-233.0","AFK9ALQK5GPNG","img_art/26.jpg","1","","","","","","","","","","","","","","","","","","","","","","","","",""
"104","","image-button-response","240","1329749","0.0-234.0","AFK9ALQK5GPNG","img_art/26.jpg","1","","","","","","","","","","","","","","","","","","","","","","","","",""
"1478","","image-button-response","241","1331230","0.0-235.0-0.0","AFK9ALQK5GPNG","img_art/26.jpg","4","","","","","","","","","","","","","","","","","","","","","","","","",""
"936","","image-button-response","242","1332169","0.0-236.0-0.0","AFK9ALQK5GPNG","img_art/26.jpg","3","","","","","","","","","","","","","","","","","","","","","","","","",""
"null","","html-keyboard-response","243","1333672","0.0-237.0","AFK9ALQK5GPNG","<p style=""font-size: 48px;"">+</p>","","","","","null","allTrialResponses","1500","1","27","img_art/26.jpg","4","Colors look nice and play off each other well, but it's a tad boring.","Cody,Justin,Derek,Devin,Kevin,Mark","Looks unfinished,-31,180,20","It looks boring and too rough.,-9,280,20","Looks messy and like it was painted by a small child,-48,360,20","I like the shapes but needs more detail i think,3,380,20","Some trees in front of a house.,2,320,20","I get the feeling of a small old world street.,24,80,20","Justin","It looks boring and too rough.,-9,280,20","Kevin","Some trees in front of a house.,2,320,20","Devin","I like the shapes but needs more detail i think,3,380,20","6"
"15074","","survey-text","244","1348769","0.0-238.0-0.0","AFK9ALQK5GPNG","","","","{""Q0"":""This looks like a doodle that got filled in.""}","","","","","","","","","","","","","","","","","","","","","","",""
"4079.300000011921","","image-slider-response","245","1352850","0.0-239.0","AFK9ALQK5GPNG","","","","","-26","","","","","","","","","","","","","","","","","","","","","",""
"4799","","image-button-response","246","1357853","0.0-240.0","AFK9ALQK5GPNG","img_art/28.jpg","1","","","","","","","","","","","","","","","","","","","","","","","","",""
"606","","image-button-response","247","1358461","0.0-241.0","AFK9ALQK5GPNG","img_art/28.jpg","1","","","","","","","","","","","","","","","","","","","","","","","","",""
"479","","image-button-response","248","1358943","0.0-242.0-0.0","AFK9ALQK5GPNG","img_art/28.jpg","2","","","","","","","","","","","","","","","","","","","","","","","","",""
"998","","image-button-response","249","1359943","0.0-243.0-0.0","AFK9ALQK5GPNG","img_art/28.jpg","5","","","","","","","","","","","","","","","","","","","","","","","","",""
"null","","html-keyboard-response","250","1361445","0.0-244.0","AFK9ALQK5GPNG","<p style=""font-size: 48px;"">+</p>","","","","","null","allTrialResponses","1500","1","28","img_art/28.jpg","-26","This looks like a doodle that got filled in.","Timothy,Justin,Devon,Devin,Kevin,Colton","This one gives me an uneasy feeling,-10,240,20","I don't like the colors or the design.,-20,280,20","i'm not too impressed with this one.,-10,400,20","It is a bit drab,-10,380,20","Looks like some guys in s band playing at a busy park.,18,320,20","not a fan of the colors or strokes used,-27,220,20","Justin","I don't like the colors or the design.,-20,280,20","Devon","i'm not too impressed with this one.,-10,400,20","Colton","not a fan of the colors or strokes used,-27,220,20","6"
"11986","","survey-text","251","1373450","0.0-245.0-0.0","AFK9ALQK5GPNG","","","","{""Q0"":""I like this image and how strange it is.""}","","","","","","","","","","","","","","","","","","","","","","",""
"3533","","image-slider-response","252","1376985","0.0-246.0","AFK9ALQK5GPNG","","","","","25","","","","","","","","","","","","","","","","","","","","","",""
"4240","","image-button-response","253","1381989","0.0-247.0","AFK9ALQK5GPNG","img_art/11.jpg","1","","","","","","","","","","","","","","","","","","","","","","","","",""
"32","","image-button-response","254","1382023","0.0-248.0","AFK9ALQK5GPNG","img_art/11.jpg","1","","","","","","","","","","","","","","","","","","","","","","","","",""
"1066","","image-button-response","255","1383092","0.0-249.0-0.0","AFK9ALQK5GPNG","img_art/11.jpg","5","","","","","","","","","","","","","","","","","","","","","","","","",""
"433","","image-button-response","256","1383528","0.0-250.0-0.0","AFK9ALQK5GPNG","img_art/11.jpg","4","","","","","","","","","","","","","","","","","","","","","","","","",""
"null","","html-keyboard-response","257","1384530","0.0-251.0","AFK9ALQK5GPNG","<p style=""font-size: 48px;"">+</p>","","","","","null","allTrialResponses","1000","1","29","img_art/11.jpg","25","I like this image and how strange it is.","Dakota,Justin,Devon,Caleb,Adam,Colton","i think of beatnik music and dark piano lounges,25,280,20","It reminds me of telephone wires.,1,280,20","a beautiful piece of art,33,400,20","Not quite as abstract as I'd like- It's clearly a dingy city.,-18,40,20","Kind of reminds me of DNA.,9,40,20","the wavy lines are nice and pleasing,13,220,20","Justin","It reminds me of telephone wires.,1,280,20","Colton","the wavy lines are nice and pleasing,13,220,20","Adam","Kind of reminds me of DNA.,9,40,20","6"
"18040","","survey-text","258","1402587","0.0-252.0-0.0","AFK9ALQK5GPNG","","","","{""Q0"":""Looks like the ground in the desert.""}","","","","","","","","","","","","","","","","","","","","","","",""
"2322","","image-slider-response","259","1404911","0.0-253.0","AFK9ALQK5GPNG","","","","","-22","","","","","","","","","","","","","","","","","","","","","",""
"null","","image-button-response","260","1409920","0.0-254.0","AFK9ALQK5GPNG","img_art/7.jpg","null","","","","","","","","","","","","","","","","","","","","","","","","",""
"780","","image-button-response","261","1410708","0.0-255.0","AFK9ALQK5GPNG","img_art/7.jpg","1","","","","","","","","","","","","","","","","","","","","","","","","",""
"1112","","image-button-response","262","1411821","0.0-256.0-0.0","AFK9ALQK5GPNG","img_art/7.jpg","2","","","","","","","","","","","","","","","","","","","","","","","","",""
"922","","image-button-response","263","1412746","0.0-257.0-0.0","AFK9ALQK5GPNG","img_art/7.jpg","5","","","","","","","","","","","","","","","","","","","","","","","","",""
"null","","html-keyboard-response","264","1413748","0.0-258.0","AFK9ALQK5GPNG","<p style=""font-size: 48px;"">+</p>","","","","","null","allTrialResponses","1000","1","30","img_art/7.jpg","-22","Looks like the ground in the desert.","Paul,Justin,Kyle,James,Adam,Colton","It looks like bloody scabs on skin, I don't like it,-42,300,20","It looks like a wall, not really something I'd enjoy looking at.,-12,280,20","It just reminds me of dirt,-10,340,20","Looks plain and dull, sorry.,-31,380,20","I like the earth tones here,5,40,20","reminds me of a cave wall,-21,220,20","Justin","It looks like a wall, not really something I'd enjoy looking at.,-12,280,20","Kyle","It just reminds me of dirt,-10,340,20","Colton","reminds me of a cave wall,-21,220,20","6"
"5111","","image-button-response_instructions","265","1418864","0.0-259.0","AFK9ALQK5GPNG","","0","instructions","","","","","","","","","","","","","","","","","","","","","","","",""
"1243","","image-button-response","266","1420114","0.0-260.0","AFK9ALQK5GPNG","","0","","","","","","","","","","","","","","","","","","","","","","","","",""
