"rt","url","trial_type","trial_index","time_elapsed","internal_node_id","participant_id","stimulus","button_pressed","Name","responses","response","key_press","variableName","fixationTime","condition","trial","photo","subjectRating","subjectResponse","agentsNames","agent_1_Response","agent_2_Response","agent_3_Response","agent_4_Response","agent_5_Response","agent_6_Response","kept_1_name","kept_1_response","kept_2_name","kept_2_response","kept_3_name","kept_3_response","errorCounter"
"26928","external_page_harvard.html","external-html","0","27067","0.0-0.0","AFWJ8KSPU1T3K","","","","","","","","","","","","","","","","","","","","","","","","","","",""
"2152","","image-button-response","1","29229","0.0-1.0","AFWJ8KSPU1T3K","","0","","","","","","","","","","","","","","","","","","","","","","","","",""
"5525","","image-button-response","2","34779","0.0-2.0-0.0","AFWJ8KSPU1T3K","","1","phone","","","","","","","","","","","","","","","","","","","","","","","",""
"16090","","survey-text","3","50874","0.0-3.0-0.0","AFWJ8KSPU1T3K","","","","{""Q0"":""AFWJ8KSPU1T3K""}","","","","","","","","","","","","","","","","","","","","","","",""
"9342","","image-button-response_instructions","4","60230","0.0-4.0","AFWJ8KSPU1T3K","","0","instructions","","","","","","","","","","","","","","","","","","","","","","","",""
"34697","","image-button-response_instructions","5","94934","0.0-5.0","AFWJ8KSPU1T3K","img_art/ins/popularity/ins1.png","0","instructions","","","","","","","","","","","","","","","","","","","","","","","",""
"16657","","image-button-response_instructions","6","111597","0.0-6.0","AFWJ8KSPU1T3K","img_art/ins/popularity/ins2.png","0","instructions","","","","","","","","","","","","","","","","","","","","","","","",""
"17183","","image-button-response_instructions","7","128789","0.0-7.0","AFWJ8KSPU1T3K","img_art/ins/popularity/ins2Extreme.png","0","instructions","","","","","","","","","","","","","","","","","","","","","","","",""
"30806","","image-button-response_instructions","8","159602","0.0-8.0","AFWJ8KSPU1T3K","img_art/ins/popularity/ins3KEEPpop.PNG","0","instructions","","","","","","","","","","","","","","","","","","","","","","","",""
"5286","","image-button-response_instructions","9","164894","0.0-9.0","AFWJ8KSPU1T3K","img_art/ins/popularity/ins3ANamepop.PNG","0","instructions","","","","","","","","","","","","","","","","","","","","","","","",""
"5684","","image-button-response_instructions","10","170582","0.0-10.0","AFWJ8KSPU1T3K","img_art/ins/popularity/ins3ARatingpop.png","0","instructions","","","","","","","","","","","","","","","","","","","","","","","",""
"6644","","image-button-response_instructions","11","177229","0.0-11.0","AFWJ8KSPU1T3K","img_art/ins/popularity/ins3ATextpop.png","0","instructions","","","","","","","","","","","","","","","","","","","","","","","",""
"8196","","image-button-response_instructions","12","185430","0.0-12.0","AFWJ8KSPU1T3K","img_art/ins/popularity/ins3ALikespop.png","0","instructions","","","","","","","","","","","","","","","","","","","","","","","",""
"15508","","image-button-response_instructions","13","200943","0.0-13.0","AFWJ8KSPU1T3K","img_art/ins/popularity/ins3KEEPpop.PNG","0","instructions","","","","","","","","","","","","","","","","","","","","","","","",""
"13284","","image-button-response_instructions","14","214231","0.0-14.0","AFWJ8KSPU1T3K","img_art/ins/popularity/ins3_5RED.png","0","instructions","","","","","","","","","","","","","","","","","","","","","","","",""
"6291","","image-button-response_instructions","15","220528","0.0-15.0","AFWJ8KSPU1T3K","img_art/ins/popularity/ins3KEEPpop.PNG","0","instructions","","","","","","","","","","","","","","","","","","","","","","","",""
"11020","","image-button-response_instructions","16","231551","0.0-16.0","AFWJ8KSPU1T3K","img_art/ins/popularity/ins4KEEPpop.PNG","0","instructions","","","","","","","","","","","","","","","","","","","","","","","",""
"6924","","image-button-response_instructions","17","238480","0.0-17.0","AFWJ8KSPU1T3K","img_art/ins/popularity/ins5KEEPpop.PNG","0","instructions","","","","","","","","","","","","","","","","","","","","","","","",""
"2292","","image-button-response_instructions","18","240778","0.0-18.0","AFWJ8KSPU1T3K","","0","instructions","","","","","","","","","","","","","","","","","","","","","","","",""
"12887","","survey-text","19","253784","0.0-19.0-0.0","AFWJ8KSPU1T3K","","","","{""Q0"":""but""}","","","","","","","","","","","","","","","","","","","","","","",""
"18108","","survey-text","20","271899","0.0-20.0-0.0","AFWJ8KSPU1T3K","","","","{""Q0"":""A windy field.""}","","","","","","","","","","","","","","","","","","","","","","",""
"7300.300000011921","","image-slider-response","21","279210","0.0-21.0","AFWJ8KSPU1T3K","","","","","40","","","","","","","","","","","","","","","","","","","","","",""
"null","","image-button-response","22","284237","0.0-22.0","AFWJ8KSPU1T3K","img_art/ins/1.jpg","null","","","","","","","","","","","","","","","","","","","","","","","","",""
"2878","","image-button-response","23","287122","0.0-23.0","AFWJ8KSPU1T3K","img_art/ins/1.jpg","1","","","","","","","","","","","","","","","","","","","","","","","","",""
"6159","","image-button-response","24","293290","0.0-24.0-0.0","AFWJ8KSPU1T3K","img_art/ins/1.jpg","3","","","","","","","","","","","","","","","","","","","","","","","","",""
"969","","image-button-response","25","294270","0.0-25.0-0.0","AFWJ8KSPU1T3K","img_art/ins/1.jpg","5","","","","","","","","","","","","","","","","","","","","","","","","",""
"null","","html-keyboard-response","26","295789","0.0-26.0","AFWJ8KSPU1T3K","<p style=""font-size: 48px;"">+</p>","","","","","null","allTrialResponses","1500","1","-2","img_art/ins/1.jpg","40","A windy field.","Adam,Alex,Ben,Carl,Daniel,Jack","Seems like doodles,-20,20,20","very creative work.,36,40,20","This color reminds me of poo,-46,60,20","very calming artwork,42,80,20","It looks like a murder scene.,-48,100,20","I like the sophisticated brushwork,40,120,20","Alex","very creative work.,36,40,20","Carl","very calming artwork,42,80,20","Jack","I like the sophisticated brushwork,40,120,20","0"
"19395","","survey-text","27","315202","0.0-27.0-0.0","AFWJ8KSPU1T3K","","","","{""Q0"":""Deep fresco.""}","","","","","","","","","","","","","","","","","","","","","","",""
"5041","","image-slider-response","28","320251","0.0-28.0","AFWJ8KSPU1T3K","","","","","32","","","","","","","","","","","","","","","","","","","","","",""
"null","","image-button-response","29","325262","0.0-29.0","AFWJ8KSPU1T3K","img_art/ins/2.jpg","null","","","","","","","","","","","","","","","","","","","","","","","","",""
"1826","","image-button-response","30","327093","0.0-30.0","AFWJ8KSPU1T3K","img_art/ins/2.jpg","1","","","","","","","","","","","","","","","","","","","","","","","","",""
"3648","","image-button-response","31","330749","0.0-31.0-0.0","AFWJ8KSPU1T3K","img_art/ins/2.jpg","4","","","","","","","","","","","","","","","","","","","","","","","","",""
"2017","","image-button-response","32","332780","0.0-32.0-0.0","AFWJ8KSPU1T3K","img_art/ins/2.jpg","3","","","","","","","","","","","","","","","","","","","","","","","","",""
"null","","html-keyboard-response","33","333792","0.0-33.0","AFWJ8KSPU1T3K","<p style=""font-size: 48px;"">+</p>","","","","","null","allTrialResponses","1000","1","-1","img_art/ins/2.jpg","32","Deep fresco.","James,Alex,Kyle,Carl,John,Jack","looks too angry,-50,140,20","I like the blocks of color arrangements,30,40,20","Idk, it is just annoying,-32,180,20","I can feel the artist's passion in it,45,80,20","love the texture of paint,48,160,20","I would never be able to compose a sophisticated pallete like this,48,120,20","Alex","I like the blocks of color arrangements,30,40,20","John","love the texture of paint,48,160,20","Carl","I can feel the artist's passion in it,45,80,20","0"
"11708","","survey-text","34","345522","0.0-34.0-0.0","AFWJ8KSPU1T3K","","","","{""Q0"":""A blue day.""}","","","","","","","","","","","","","","","","","","","","","","",""
"8612","","image-slider-response","35","354140","0.0-35.0","AFWJ8KSPU1T3K","","","","","26","","","","","","","","","","","","","","","","","","","","","",""
"null","","image-button-response","36","359156","0.0-36.0","AFWJ8KSPU1T3K","img_art/ins/3.jpg","null","","","","","","","","","","","","","","","","","","","","","","","","",""
"7109","","image-button-response","37","366274","0.0-37.0","AFWJ8KSPU1T3K","img_art/ins/3.jpg","4","","","","","","","","","","","","","","","","","","","","","","","","",""
"2585","","image-button-response","38","368868","0.0-38.0-0.0","AFWJ8KSPU1T3K","img_art/ins/3.jpg","0","","","","","","","","","","","","","","","","","","","","","","","","",""
"770","","image-button-response","39","369648","0.0-39.0-0.0","AFWJ8KSPU1T3K","img_art/ins/3.jpg","1","","","","","","","","","","","","","","","","","","","","","","","","",""
"null","","html-keyboard-response","40","370155","0.0-40.0","AFWJ8KSPU1T3K","<p style=""font-size: 48px;"">+</p>","","","","","null","allTrialResponses","500","1","0","img_art/ins/3.jpg","26","A blue day.","Mike,Alex,Ron,Carl,John,Sam","enjoy the different shades of blue,22,200,20","calming blue is very nice,36,40,20","It looks depressing,-26,220,20","It's an alright work,15,80,20","I like the overlapping of brushes,41,160,20","I can feel a rainy day from this painting,18,240,20","John","I like the overlapping of brushes,41,160,20","Mike","enjoy the different shades of blue,22,200,20","Alex","calming blue is very nice,36,40,20","0"
"8022","","image-button-response_instructions","41","378196","0.0-41.0","AFWJ8KSPU1T3K","","0","instructions","","","","","","","","","","","","","","","","","","","","","","","",""
"16613","","survey-likert","42","394817","0.0-42.0-0.0","AFWJ8KSPU1T3K","","","","{""Q0"":"""",""Q1"":0,""Q2"":1}","","","","","","","","","","","","","","","","","","","","","","",""
"8037","","survey-text","43","402877","0.0-43.0-0.0","AFWJ8KSPU1T3K","","","","{""Q0"":""rock""}","","","","","","","","","","","","","","","","","","","","","","",""
"19099","","survey-text","44","421982","0.0-44.0-0.0","AFWJ8KSPU1T3K","","","","{""Q0"":""Drone city.""}","","","","","","","","","","","","","","","","","","","","","","",""
"5259","","image-slider-response","45","427247","0.0-45.0","AFWJ8KSPU1T3K","","","","","35","","","","","","","","","","","","","","","","","","","","","",""
"4523","","image-button-response","46","432353","0.0-46.0","AFWJ8KSPU1T3K","img_art/8.jpg","0","","","","","","","","","","","","","","","","","","","","","","","","",""
"1006","","image-button-response","47","433365","0.0-47.0","AFWJ8KSPU1T3K","img_art/8.jpg","0","","","","","","","","","","","","","","","","","","","","","","","","",""
"14639","","image-button-response","48","448014","0.0-48.0-0.0","AFWJ8KSPU1T3K","img_art/8.jpg","2","","","","","","","","","","","","","","","","","","","","","","","","",""
"1383","","image-button-response","49","449406","0.0-49.0-0.0","AFWJ8KSPU1T3K","img_art/8.jpg","4","","","","","","","","","","","","","","","","","","","","","","","","",""
"null","","html-keyboard-response","50","449929","0.0-50.0","AFWJ8KSPU1T3K","<p style=""font-size: 48px;"">+</p>","","","","","null","allTrialResponses","500","1","1","img_art/8.jpg","35","Drone city.","Shane,Devin,Kevin,Charles,Hunter,Dylan","Ancient city looked after by diety,38,80,20","Very nice detail and colors!,10,380,20","Now that one is wild. Looks like maybe mother nature isnt happy.,28,320,20","Feels very 90's but I like the doorway,15,100,20","crisp shapes, find more things the longer you look,17,240,20","The colors are nice but the big face in the sky is creepy,-11,40,20","Shane","Ancient city looked after by diety,38,80,20","Kevin","Now that one is wild. Looks like maybe mother nature isnt happy.,28,320,20","Hunter","crisp shapes, find more things the longer you look,17,240,20","0"
"15014","","survey-text","51","464964","0.0-51.0-0.0","AFWJ8KSPU1T3K","","","","{""Q0"":""Headless bird. ""}","","","","","","","","","","","","","","","","","","","","","","",""
"6976.5","","image-slider-response","52","471948","0.0-52.0","AFWJ8KSPU1T3K","","","","","29","","","","","","","","","","","","","","","","","","","","","",""
"2215","","image-button-response","53","476961","0.0-53.0","AFWJ8KSPU1T3K","img_art/6.jpg","0","","","","","","","","","","","","","","","","","","","","","","","","",""
"1181","","image-button-response","54","478148","0.0-54.0","AFWJ8KSPU1T3K","img_art/6.jpg","0","","","","","","","","","","","","","","","","","","","","","","","","",""
"11354","","image-button-response","55","489508","0.0-55.0-0.0","AFWJ8KSPU1T3K","img_art/6.jpg","5","","","","","","","","","","","","","","","","","","","","","","","","",""
"6968","","image-button-response","56","496487","0.0-56.0-0.0","AFWJ8KSPU1T3K","img_art/6.jpg","1","","","","","","","","","","","","","","","","","","","","","","","","",""
"null","","html-keyboard-response","57","497502","0.0-57.0","AFWJ8KSPU1T3K","<p style=""font-size: 48px;"">+</p>","","","","","null","allTrialResponses","1000","1","2","img_art/6.jpg","29","Headless bird. ","Shane,Ethan,Kevin,Jared,Hunter,Aaron","A bird standing in the sun,37,80,20","This piece has some emotion of isolation. I like it.,6,120,20","Its the headless bird. But why?,21,320,20","simplistic. i love orange and green and i love the subject,50,400,20","composition is engaging,28,240,20","It reminds me of a simplistic bird. I like the colors used.,40,20,20","Shane","A bird standing in the sun,37,80,20","Aaron","It reminds me of a simplistic bird. I like the colors used.,40,20,20","Ethan","This piece has some emotion of isolation. I like it.,6,120,20","0"
"18711","","survey-text","58","516236","0.0-58.0-0.0","AFWJ8KSPU1T3K","","","","{""Q0"":""Waterfall in the woods. ""}","","","","","","","","","","","","","","","","","","","","","","",""
"15224.800000011921","","image-slider-response","59","531466","0.0-59.0","AFWJ8KSPU1T3K","","","","","28","","","","","","","","","","","","","","","","","","","","","",""
"null","","image-button-response","60","536489","0.0-60.0","AFWJ8KSPU1T3K","img_art/24.jpg","null","","","","","","","","","","","","","","","","","","","","","","","","",""
"10680","","image-button-response","61","547174","0.0-61.0","AFWJ8KSPU1T3K","img_art/24.jpg","0","","","","","","","","","","","","","","","","","","","","","","","","",""
"1243","","image-button-response","62","548423","0.0-62.0-0.0","AFWJ8KSPU1T3K","img_art/24.jpg","4","","","","","","","","","","","","","","","","","","","","","","","","",""
"4297","","image-button-response","63","552727","0.0-63.0-0.0","AFWJ8KSPU1T3K","img_art/24.jpg","5","","","","","","","","","","","","","","","","","","","","","","","","",""
"null","","html-keyboard-response","64","553732","0.0-64.0","AFWJ8KSPU1T3K","<p style=""font-size: 48px;"">+</p>","","","","","null","allTrialResponses","1000","1","3","img_art/24.jpg","28","Waterfall in the woods. ","Shane,Ethan,Grant,Noah,Jose,Aaron","A peaceful day by the river,42,80,20","This is sort of interesting. I think it's a bit busy. Less is more.,3,120,20","The colors look nice, but the painting bores me.,-20,200,20","this evokes a gutural reaction - it displeases me how similar it is to art I saw growing up,-30,260,20","The combination of nature / realism with abstract colors is unique.,39,200,20","I like how it evokes the feeling of being in a forest. The colors are pretty,31,20,20","Shane","A peaceful day by the river,42,80,20","Jose","The combination of nature / realism with abstract colors is unique.,39,200,20","Aaron","I like how it evokes the feeling of being in a forest. The colors are pretty,31,20,20","0"
"18353","","survey-text","65","572102","0.0-65.0-0.0","AFWJ8KSPU1T3K","","","","{""Q0"":""Faded abstract.""}","","","","","","","","","","","","","","","","","","","","","","",""
"5057.5","","image-slider-response","66","577167","0.0-66.0","AFWJ8KSPU1T3K","","","","","20","","","","","","","","","","","","","","","","","","","","","",""
"null","","image-button-response","67","582178","0.0-67.0","AFWJ8KSPU1T3K","img_art/22.jpg","null","","","","","","","","","","","","","","","","","","","","","","","","",""
"7360","","image-button-response","68","589545","0.0-68.0","AFWJ8KSPU1T3K","img_art/22.jpg","5","","","","","","","","","","","","","","","","","","","","","","","","",""
"9359","","image-button-response","69","598913","0.0-69.0-0.0","AFWJ8KSPU1T3K","img_art/22.jpg","1","","","","","","","","","","","","","","","","","","","","","","","","",""
"1429","","image-button-response","70","600352","0.0-70.0-0.0","AFWJ8KSPU1T3K","img_art/22.jpg","2","","","","","","","","","","","","","","","","","","","","","","","","",""
"null","","html-keyboard-response","71","601861","0.0-71.0","AFWJ8KSPU1T3K","<p style=""font-size: 48px;"">+</p>","","","","","null","allTrialResponses","1500","1","4","img_art/22.jpg","20","Faded abstract.","Shane,Carlos,Adrian,Brendan,Jose,Aaron","Sunsets at the beach,42,80,20","The colors are pleasant, the shapes are inviting.,21,80,20","Too much contrasting colors makes me feel anxious. I don't like it.,-20,60,20","its just ugly for me,-50,340,20","Cool squares but what's the circle?,38,200,20","Boring, typical abstract art,-30,20,20","Aaron","Boring, typical abstract art,-30,20,20","Carlos","The colors are pleasant, the shapes are inviting.,21,80,20","Adrian","Too much contrasting colors makes me feel anxious. I don't like it.,-20,60,20","0"
"13030","","survey-text","72","614911","0.0-72.0-0.0","AFWJ8KSPU1T3K","","","","{""Q0"":""Sculpture. ""}","","","","","","","","","","","","","","","","","","","","","","",""
"7825.5999999940395","","image-slider-response","73","622745","0.0-73.0","AFWJ8KSPU1T3K","","","","","20","","","","","","","","","","","","","","","","","","","","","",""
"null","","image-button-response","74","627755","0.0-74.0","AFWJ8KSPU1T3K","img_art/4.jpg","null","","","","","","","","","","","","","","","","","","","","","","","","",""
"8128","","image-button-response","75","635889","0.0-75.0","AFWJ8KSPU1T3K","img_art/4.jpg","2","","","","","","","","","","","","","","","","","","","","","","","","",""
"2551","","image-button-response","76","638450","0.0-76.0-0.0","AFWJ8KSPU1T3K","img_art/4.jpg","3","","","","","","","","","","","","","","","","","","","","","","","","",""
"4376","","image-button-response","77","642833","0.0-77.0-0.0","AFWJ8KSPU1T3K","img_art/4.jpg","4","","","","","","","","","","","","","","","","","","","","","","","","",""
"null","","html-keyboard-response","78","643839","0.0-78.0","AFWJ8KSPU1T3K","<p style=""font-size: 48px;"">+</p>","","","","","null","allTrialResponses","1000","1","5","img_art/4.jpg","20","Sculpture. ","Christopher,Carlos,Adrian,Logan,Seth,Aaron","too many red/yellow shades, its impact without a reason,-27,160,20","Movement. Snakes. Hair. The uncertainty makes my eye return.,21,80,20","Looks like feces smeared on the canvas. I hate it.,-50,60,20","it looks like a preschooler just dragged his fingers around,-36,360,20","Odd but intriguing. I feel emotion from this. Like a woman bent over carrying these emotions on her back.,33,60,20","It doesn't make me feel anything it just looks like a kid did it.,-30,20,20","Adrian","Looks like feces smeared on the canvas. I hate it.,-50,60,20","Logan","it looks like a preschooler just dragged his fingers around,-36,360,20","Seth","Odd but intriguing. I feel emotion from this. Like a woman bent over carrying these emotions on her back.,33,60,20","0"
"6576","","survey-text","79","650449","0.0-79.0-0.0","AFWJ8KSPU1T3K","","","","{""Q0"":""sky""}","","","","","","","","","","","","","","","","","","","","","","",""
"13898","","survey-text","80","664353","0.0-80.0-0.0","AFWJ8KSPU1T3K","","","","{""Q0"":""Bluebirds in a tree. ""}","","","","","","","","","","","","","","","","","","","","","","",""
"3634","","image-slider-response","81","667993","0.0-81.0","AFWJ8KSPU1T3K","","","","","20","","","","","","","","","","","","","","","","","","","","","",""
"null","","image-button-response","82","673003","0.0-82.0","AFWJ8KSPU1T3K","img_art/15.jpg","null","","","","","","","","","","","","","","","","","","","","","","","","",""
"16115","","image-button-response","83","689124","0.0-83.0","AFWJ8KSPU1T3K","img_art/15.jpg","3","","","","","","","","","","","","","","","","","","","","","","","","",""
"7295","","image-button-response","84","696426","0.0-84.0-0.0","AFWJ8KSPU1T3K","img_art/15.jpg","0","","","","","","","","","","","","","","","","","","","","","","","","",""
"782","","image-button-response","85","697220","0.0-85.0-0.0","AFWJ8KSPU1T3K","img_art/15.jpg","1","","","","","","","","","","","","","","","","","","","","","","","","",""
"null","","html-keyboard-response","86","697725","0.0-86.0","AFWJ8KSPU1T3K","<p style=""font-size: 48px;"">+</p>","","","","","null","allTrialResponses","500","1","6","img_art/15.jpg","20","Bluebirds in a tree. ","Alejandro,Isaiah,Adrian,Logan,Seth,Lucas","The blotted black spots create a nice contrast between the brush strokes within the center and sides. I like it.,41,80,20","The painting is very relaxing, I'm reminded of sitting in a garden in the evening.,8,300,20","Not a fan. This piece would only go with very specific decor in a modern home.,-35,60,20","I couldn't tell you why but I'm really into this,39,360,20","There should be more space between the black marks. The black comes off harsh and the blue between the trees can barely be seen.,-21,60,20","I can't see the meaning of the painting.,-30,380,20","Logan","I couldn't tell you why but I'm really into this,39,360,20","Alejandro","The blotted black spots create a nice contrast between the brush strokes within the center and sides. I like it.,41,80,20","Isaiah","The painting is very relaxing, I'm reminded of sitting in a garden in the evening.,8,300,20","0"
"15608","","survey-text","87","713354","0.0-87.0-0.0","AFWJ8KSPU1T3K","","","","{""Q0"":""Desert from above.""}","","","","","","","","","","","","","","","","","","","","","","",""
"5497.5","","image-slider-response","88","718858","0.0-88.0","AFWJ8KSPU1T3K","","","","","27","","","","","","","","","","","","","","","","","","","","","",""
"null","","image-button-response","89","723865","0.0-89.0","AFWJ8KSPU1T3K","img_art/7.jpg","null","","","","","","","","","","","","","","","","","","","","","","","","",""
"3335","","image-button-response","90","727205","0.0-90.0","AFWJ8KSPU1T3K","img_art/7.jpg","0","","","","","","","","","","","","","","","","","","","","","","","","",""
"2648","","image-button-response","91","729859","0.0-91.0-0.0","AFWJ8KSPU1T3K","img_art/7.jpg","2","","","","","","","","","","","","","","","","","","","","","","","","",""
"10763","","image-button-response","92","740629","0.0-92.0-0.0","AFWJ8KSPU1T3K","img_art/7.jpg","5","","","","","","","","","","","","","","","","","","","","","","","","",""
"null","","html-keyboard-response","93","742148","0.0-93.0","AFWJ8KSPU1T3K","<p style=""font-size: 48px;"">+</p>","","","","","null","allTrialResponses","1500","1","7","img_art/7.jpg","27","Desert from above.","Alejandro,Isaiah,Timothy,Logan,Ian,Spencer","I thought I was looking at a satellite image of mars.,21,80,20","I feel relaxed and a little nostalgic, like I'm exploring the wall of a very old building.,18,300,20","This feels very earthy and grounded,20,240,20","mars also crunchy leaves maybe a beehive,32,360,20","This looks like a literal picture of the ground so I'm really not too sure about this one.,-42,260,20","I love it, it looks like a landscape photograph in desert or rocky mountain,50,120,20","Alejandro","I thought I was looking at a satellite image of mars.,21,80,20","Timothy","This feels very earthy and grounded,20,240,20","Spencer","I love it, it looks like a landscape photograph in desert or rocky mountain,50,120,20","0"
"19389","","survey-text","94","761558","0.0-94.0-0.0","AFWJ8KSPU1T3K","","","","{""Q0"":""Dancing on stage. ""}","","","","","","","","","","","","","","","","","","","","","","",""
"3272","","image-slider-response","95","764835","0.0-95.0","AFWJ8KSPU1T3K","","","","","25","","","","","","","","","","","","","","","","","","","","","",""
"3633","","image-button-response","96","769844","0.0-96.0","AFWJ8KSPU1T3K","img_art/23.jpg","0","","","","","","","","","","","","","","","","","","","","","","","","",""
"1244","","image-button-response","97","771094","0.0-97.0","AFWJ8KSPU1T3K","img_art/23.jpg","0","","","","","","","","","","","","","","","","","","","","","","","","",""
"5081","","image-button-response","98","776181","0.0-98.0-0.0","AFWJ8KSPU1T3K","img_art/23.jpg","1","","","","","","","","","","","","","","","","","","","","","","","","",""
"8191","","image-button-response","99","784383","0.0-99.0-0.0","AFWJ8KSPU1T3K","img_art/23.jpg","3","","","","","","","","","","","","","","","","","","","","","","","","",""
"null","","html-keyboard-response","100","785391","0.0-100.0","AFWJ8KSPU1T3K","<p style=""font-size: 48px;"">+</p>","","","","","null","allTrialResponses","1000","1","8","img_art/23.jpg","25","Dancing on stage. ","Alejandro,Zachary,Timothy,Jeffrey,Michael,Spencer","I love the funky colors accompanied by perhaps dancing silhouettes. I love the white against the chaotic surroundings.,50,80,20","Vivid colors and the white in the middle looks like people dancing.,31,400,20","This feels so energized, i love it,50,240,20","Very energetic, seems like it is pulling me in,24,40,20","I don't get it.,-40,140,20","Interesting, want to look at it more to identify,25,120,20","Alejandro","I love the funky colors accompanied by perhaps dancing silhouettes. I love the white against the chaotic surroundings.,50,80,20","Zachary","Vivid colors and the white in the middle looks like people dancing.,31,400,20","Jeffrey","Very energetic, seems like it is pulling me in,24,40,20","0"
"19252","","survey-text","101","804662","0.0-101.0-0.0","AFWJ8KSPU1T3K","","","","{""Q0"":""Fish out of water. ""}","","","","","","","","","","","","","","","","","","","","","","",""
"2560.699999988079","","image-slider-response","102","807229","0.0-102.0","AFWJ8KSPU1T3K","","","","","16","","","","","","","","","","","","","","","","","","","","","",""
"2650","","image-button-response","103","812245","0.0-103.0","AFWJ8KSPU1T3K","img_art/20.jpg","0","","","","","","","","","","","","","","","","","","","","","","","","",""
"2155","","image-button-response","104","814405","0.0-104.0","AFWJ8KSPU1T3K","img_art/20.jpg","0","","","","","","","","","","","","","","","","","","","","","","","","",""
"10500","","image-button-response","105","824913","0.0-105.0-0.0","AFWJ8KSPU1T3K","img_art/20.jpg","5","","","","","","","","","","","","","","","","","","","","","","","","",""
"5088","","image-button-response","106","830012","0.0-106.0-0.0","AFWJ8KSPU1T3K","img_art/20.jpg","1","","","","","","","","","","","","","","","","","","","","","","","","",""
"null","","html-keyboard-response","107","831020","0.0-107.0","AFWJ8KSPU1T3K","<p style=""font-size: 48px;"">+</p>","","","","","null","allTrialResponses","1000","1","9","img_art/20.jpg","16","Fish out of water. ","Alejandro,Zachary,Derek,Jeffrey,Mark,John","The pulling and sagging nature is very beautiful.,30,80,20","While interesting in technique.. It looks like a blurry car wreck. Does not evoke great emotions.,-20,400,20","I like the calming mood of this painting,35,360,20","looks like an auto accident,-30,40,20","Reminds me of persistance of time (a favorite of mine).,30,80,20","Its interesting.It almost seems like a painting of a landscape,14,120,20","Alejandro","The pulling and sagging nature is very beautiful.,30,80,20","John","Its interesting.It almost seems like a painting of a landscape,14,120,20","Zachary","While interesting in technique.. It looks like a blurry car wreck. Does not evoke great emotions.,-20,400,20","0"
"15514","","survey-text","108","846550","0.0-108.0-0.0","AFWJ8KSPU1T3K","","","","{""Q0"":""Flower arrangement.""}","","","","","","","","","","","","","","","","","","","","","","",""
"2842.0999999940395","","image-slider-response","109","849399","0.0-109.0","AFWJ8KSPU1T3K","","","","","16","","","","","","","","","","","","","","","","","","","","","",""
"null","","image-button-response","110","854420","0.0-110.0","AFWJ8KSPU1T3K","img_art/14.jpg","null","","","","","","","","","","","","","","","","","","","","","","","","",""
"9278","","image-button-response","111","863706","0.0-111.0","AFWJ8KSPU1T3K","img_art/14.jpg","4","","","","","","","","","","","","","","","","","","","","","","","","",""
"1398","","image-button-response","112","865112","0.0-112.0-0.0","AFWJ8KSPU1T3K","img_art/14.jpg","5","","","","","","","","","","","","","","","","","","","","","","","","",""
"7108","","image-button-response","113","872228","0.0-113.0-0.0","AFWJ8KSPU1T3K","img_art/14.jpg","3","","","","","","","","","","","","","","","","","","","","","","","","",""
"null","","html-keyboard-response","114","873745","0.0-114.0","AFWJ8KSPU1T3K","<p style=""font-size: 48px;"">+</p>","","","","","null","allTrialResponses","1500","1","10","img_art/14.jpg","16","Flower arrangement.","Alejandro,Zachary,Tanner,Joseph,Patrick,John","It looks like a tree but the bleeding water colors lack borders and makes it hard to appreciate the message.,-41,80,20","Did not evoke much feeling except confusion. I am not sure what to make of this one.,-20,400,20","somewhat stressful, crazy,-3,180,20","I like that it looks like plants on a table, which reminds me of life.,4,220,20","It uplifts my mood due to the color scheme,32,280,20","Beautiful tree,the use of water colors makes it soothing to look at,37,120,20","Patrick","It uplifts my mood due to the color scheme,32,280,20","John","Beautiful tree,the use of water colors makes it soothing to look at,37,120,20","Joseph","I like that it looks like plants on a table, which reminds me of life.,4,220,20","0"
"5632","","survey-text","115","879419","0.0-115.0-0.0","AFWJ8KSPU1T3K","","","","{""Q0"":""our""}","","","","","","","","","","","","","","","","","","","","","","",""
"14036","","survey-text","116","893460","0.0-116.0-0.0","AFWJ8KSPU1T3K","","","","{""Q0"":""Mad artist.""}","","","","","","","","","","","","","","","","","","","","","","",""
"4942.300000011921","","image-slider-response","117","898408","0.0-117.0","AFWJ8KSPU1T3K","","","","","30","","","","","","","","","","","","","","","","","","","","","",""
"null","","image-button-response","118","903415","0.0-118.0","AFWJ8KSPU1T3K","img_art/29.jpg","null","","","","","","","","","","","","","","","","","","","","","","","","",""
"1383","","image-button-response","119","904805","0.0-119.0","AFWJ8KSPU1T3K","img_art/29.jpg","0","","","","","","","","","","","","","","","","","","","","","","","","",""
"5375","","image-button-response","120","910189","0.0-120.0-0.0","AFWJ8KSPU1T3K","img_art/29.jpg","3","","","","","","","","","","","","","","","","","","","","","","","","",""
"3286","","image-button-response","121","913482","0.0-121.0-0.0","AFWJ8KSPU1T3K","img_art/29.jpg","5","","","","","","","","","","","","","","","","","","","","","","","","",""
"null","","html-keyboard-response","122","914011","0.0-122.0","AFWJ8KSPU1T3K","<p style=""font-size: 48px;"">+</p>","","","","","null","allTrialResponses","500","1","11","img_art/29.jpg","30","Mad artist.","Antonio,Luis,Jesus,Joseph,Patrick,John","Depressing and with that big red x on it just makes me not like it.,-33,220,20","I love the representation of a mess,50,400,20","The light source is confusing, but still interesting to look at,11,100,20","It looks like graffiti in a subway tunnel- destruction.,-20,220,20","I don't like the black,-50,280,20","Its interesting although doesnt illicit any strong emotions from me,10,120,20","Antonio","Depressing and with that big red x on it just makes me not like it.,-33,220,20","Joseph","It looks like graffiti in a subway tunnel- destruction.,-20,220,20","John","Its interesting although doesnt illicit any strong emotions from me,10,120,20","0"
"7968","","survey-text","123","922029","0.0-123.0-0.0","AFWJ8KSPU1T3K","","","","{""Q0"":""Scribble.""}","","","","","","","","","","","","","","","","","","","","","","",""
"7657.5999999940395","","image-slider-response","124","929692","0.0-124.0","AFWJ8KSPU1T3K","","","","","-9","","","","","","","","","","","","","","","","","","","","","",""
"null","","image-button-response","125","934700","0.0-125.0","AFWJ8KSPU1T3K","img_art/3.jpg","null","","","","","","","","","","","","","","","","","","","","","","","","",""
"3398","","image-button-response","126","938105","0.0-126.0","AFWJ8KSPU1T3K","img_art/3.jpg","3","","","","","","","","","","","","","","","","","","","","","","","","",""
"2424","","image-button-response","127","940535","0.0-127.0-0.0","AFWJ8KSPU1T3K","img_art/3.jpg","4","","","","","","","","","","","","","","","","","","","","","","","","",""
"2029","","image-button-response","128","942575","0.0-128.0-0.0","AFWJ8KSPU1T3K","img_art/3.jpg","5","","","","","","","","","","","","","","","","","","","","","","","","",""
"null","","html-keyboard-response","129","943585","0.0-129.0","AFWJ8KSPU1T3K","<p style=""font-size: 48px;"">+</p>","","","","","null","allTrialResponses","1000","1","12","img_art/3.jpg","-9","Scribble.","Antonio,Miguel,Jordan,Joseph,Sean,John","The red makes me think of blood which makes me think of pain,-50,220,20","Unfocused and rushed.,-28,160,20","Reminded me of blood or something bad,-21,160,20","Really have no idea what I'm looking at.,1,220,20","my response to the picture is a lot of red, danger,,-21,40,20","Looks like someone spilled ketchup and forgot to clean it up,-30,120,20","Joseph","Really have no idea what I'm looking at.,1,220,20","Sean","my response to the picture is a lot of red, danger,,-21,40,20","John","Looks like someone spilled ketchup and forgot to clean it up,-30,120,20","0"
"13714","","survey-text","130","957314","0.0-130.0-0.0","AFWJ8KSPU1T3K","","","","{""Q0"":""Zoo.""}","","","","","","","","","","","","","","","","","","","","","","",""
"11018","","survey-text","131","975254","0.0-130.1-0.1","AFWJ8KSPU1T3K","","","","{""Q0"":""Bicycle for two.""}","","","","","","","","","","","","","","","","","","","","","","",""
"4239.5","","image-slider-response","132","979502","0.0-131.0","AFWJ8KSPU1T3K","","","","","6","","","","","","","","","","","","","","","","","","","","","",""
"null","","image-button-response","133","984518","0.0-132.0","AFWJ8KSPU1T3K","img_art/28.jpg","null","","","","","","","","","","","","","","","","","","","","","","","","",""
"3500","","image-button-response","134","988025","0.0-133.0","AFWJ8KSPU1T3K","img_art/28.jpg","3","","","","","","","","","","","","","","","","","","","","","","","","",""
"1400","","image-button-response","135","989433","0.0-134.0-0.0","AFWJ8KSPU1T3K","img_art/28.jpg","4","","","","","","","","","","","","","","","","","","","","","","","","",""
"1994","","image-button-response","136","991436","0.0-135.0-0.0","AFWJ8KSPU1T3K","img_art/28.jpg","5","","","","","","","","","","","","","","","","","","","","","","","","",""
"null","","html-keyboard-response","137","991946","0.0-136.0","AFWJ8KSPU1T3K","<p style=""font-size: 48px;"">+</p>","","","","","null","allTrialResponses","500","1","13","img_art/28.jpg","6","Bicycle for two.","Brett,Daniel,Tyler,Joseph,Sean,John","Overpopulated city,35,360,20","Compact grey mess lack negative space,-10,320,20","It's okay. There is harmony and balance.,11,320,20","Don't love it, don't hate it. It's just there.,1,220,20","it looks alright,-1,40,20","Not a fan of the bleak and dreary colors,-10,120,20","Joseph","Don't love it, don't hate it. It's just there.,1,220,20","Sean","it looks alright,-1,40,20","John","Not a fan of the bleak and dreary colors,-10,120,20","0"
"12670","","survey-text","138","1004640","0.0-137.0-0.0","AFWJ8KSPU1T3K","","","","{""Q0"":""Man in India. ""}","","","","","","","","","","","","","","","","","","","","","","",""
"4992.5","","image-slider-response","139","1009639","0.0-138.0","AFWJ8KSPU1T3K","","","","","38","","","","","","","","","","","","","","","","","","","","","",""
"3201","","image-button-response","140","1014649","0.0-139.0","AFWJ8KSPU1T3K","img_art/25.jpg","0","","","","","","","","","","","","","","","","","","","","","","","","",""
"2267","","image-button-response","141","1016921","0.0-140.0","AFWJ8KSPU1T3K","img_art/25.jpg","0","","","","","","","","","","","","","","","","","","","","","","","","",""
"4066","","image-button-response","142","1020995","0.0-141.0-0.0","AFWJ8KSPU1T3K","img_art/25.jpg","3","","","","","","","","","","","","","","","","","","","","","","","","",""
"3128","","image-button-response","143","1024132","0.0-142.0-0.0","AFWJ8KSPU1T3K","img_art/25.jpg","5","","","","","","","","","","","","","","","","","","","","","","","","",""
"null","","html-keyboard-response","144","1025146","0.0-143.0","AFWJ8KSPU1T3K","<p style=""font-size: 48px;"">+</p>","","","","","null","allTrialResponses","1000","1","14","img_art/25.jpg","38","Man in India. ","Edward,Dakota,Tristan,Joseph,Sean,John","It looks like people worshipping a statue,33,60,20","I think of death,-28,280,20","The limited palette make this figure mysterious and interpret-able.,20,300,20","Ghosts are NOT my thing.,-13,220,20","my response to the picture its weird,-9,40,20","Dark silhouette against the murky background Illicites an ominous feeling. Don't really like it.,-20,120,20","Edward","It looks like people worshipping a statue,33,60,20","Joseph","Ghosts are NOT my thing.,-13,220,20","John","Dark silhouette against the murky background Illicites an ominous feeling. Don't really like it.,-20,120,20","0"
"15688","","survey-text","145","1040856","0.0-144.0-0.0","AFWJ8KSPU1T3K","","","","{""Q0"":""City of festivities.""}","","","","","","","","","","","","","","","","","","","","","","",""
"2896.4000000059605","","image-slider-response","146","1043761","0.0-145.0","AFWJ8KSPU1T3K","","","","","33","","","","","","","","","","","","","","","","","","","","","",""
"null","","image-button-response","147","1048777","0.0-146.0","AFWJ8KSPU1T3K","img_art/19.jpg","null","","","","","","","","","","","","","","","","","","","","","","","","",""
"4241","","image-button-response","148","1053027","0.0-147.0","AFWJ8KSPU1T3K","img_art/19.jpg","4","","","","","","","","","","","","","","","","","","","","","","","","",""
"1942","","image-button-response","149","1054987","0.0-148.0-0.0","AFWJ8KSPU1T3K","img_art/19.jpg","5","","","","","","","","","","","","","","","","","","","","","","","","",""
"6472","","image-button-response","150","1061468","0.0-149.0-0.0","AFWJ8KSPU1T3K","img_art/19.jpg","1","","","","","","","","","","","","","","","","","","","","","","","","",""
"null","","html-keyboard-response","151","1061988","0.0-150.0","AFWJ8KSPU1T3K","<p style=""font-size: 48px;"">+</p>","","","","","null","allTrialResponses","500","1","15","img_art/19.jpg","33","City of festivities.","Edward,Brian,Alexis,Joseph,Bryce,John","It's ok but it's nothing I would hang on my wall,11,60,20","I like this style but don't really like the specific setting of the landscape,-7,380,20","it looks messy and non-unique.,-9,140,20","Too messy and busy. Too much going on there for me.,-12,220,20","Very pretty and colorful.,23,20,20","There's alot of elements to it bordering on clutter and chaotic,-20,120,20","Bryce","Very pretty and colorful.,23,20,20","John","There's alot of elements to it bordering on clutter and chaotic,-20,120,20","Brian","I like this style but don't really like the specific setting of the landscape,-7,380,20","0"
"5168","","survey-text","152","1067193","0.0-151.0-0.0","AFWJ8KSPU1T3K","","","","{""Q0"":""course""}","","","","","","","","","","","","","","","","","","","","","","",""
"15209","","survey-text","153","1082409","0.0-152.0-0.0","AFWJ8KSPU1T3K","","","","{""Q0"":""Fish in clouds.""}","","","","","","","","","","","","","","","","","","","","","","",""
"2531.699999988079","","image-slider-response","154","1084946","0.0-153.0","AFWJ8KSPU1T3K","","","","","21","","","","","","","","","","","","","","","","","","","","","",""
"null","","image-button-response","155","1089962","0.0-154.0","AFWJ8KSPU1T3K","img_art/27.jpg","null","","","","","","","","","","","","","","","","","","","","","","","","",""
"7077","","image-button-response","156","1097045","0.0-155.0","AFWJ8KSPU1T3K","img_art/27.jpg","4","","","","","","","","","","","","","","","","","","","","","","","","",""
"3864","","image-button-response","157","1100917","0.0-156.0-0.0","AFWJ8KSPU1T3K","img_art/27.jpg","3","","","","","","","","","","","","","","","","","","","","","","","","",""
"1501","","image-button-response","158","1102428","0.0-157.0-0.0","AFWJ8KSPU1T3K","img_art/27.jpg","1","","","","","","","","","","","","","","","","","","","","","","","","",""
"null","","html-keyboard-response","159","1102938","0.0-158.0","AFWJ8KSPU1T3K","<p style=""font-size: 48px;"">+</p>","","","","","null","allTrialResponses","500","1","16","img_art/27.jpg","21","Fish in clouds.","Mason,Brian,Richard,Eric,Bryce,John","dont like it, don't hate it, meh.,2,100,20","Colors could be more pleasing, but I really like the thinner lines superimposed over the background,25,380,20","like the patterns and colors all but the orange blob on the right,32,340,20","This piece reminds me of a summer day.,30,100,20","It kinda reminds me of sushi.,16,20,20","Looks as if a toddler painted it,-20,120,20","Bryce","It kinda reminds me of sushi.,16,20,20","Eric","This piece reminds me of a summer day.,30,100,20","Brian","Colors could be more pleasing, but I really like the thinner lines superimposed over the background,25,380,20","0"
"13173","","survey-text","160","1116134","0.0-159.0-0.0","AFWJ8KSPU1T3K","","","","{""Q0"":""Blocks of life.""}","","","","","","","","","","","","","","","","","","","","","","",""
"4365.700000017881","","image-slider-response","161","1120507","0.0-160.0","AFWJ8KSPU1T3K","","","","","10","","","","","","","","","","","","","","","","","","","","","",""
"null","","image-button-response","162","1125515","0.0-161.0","AFWJ8KSPU1T3K","img_art/12.jpg","null","","","","","","","","","","","","","","","","","","","","","","","","",""
"421","","image-button-response","163","1125941","0.0-162.0","AFWJ8KSPU1T3K","img_art/12.jpg","0","","","","","","","","","","","","","","","","","","","","","","","","",""
"2386","","image-button-response","164","1128333","0.0-163.0-0.0","AFWJ8KSPU1T3K","img_art/12.jpg","1","","","","","","","","","","","","","","","","","","","","","","","","",""
"5286","","image-button-response","165","1133630","0.0-164.0-0.0","AFWJ8KSPU1T3K","img_art/12.jpg","3","","","","","","","","","","","","","","","","","","","","","","","","",""
"null","","html-keyboard-response","166","1134137","0.0-165.0","AFWJ8KSPU1T3K","<p style=""font-size: 48px;"">+</p>","","","","","null","allTrialResponses","500","1","17","img_art/12.jpg","10","Blocks of life.","Isaac,Brian,Kyle,Eric,Bryce,Adam","I like the gradient of little color on the top to colorful on the bottom.,24,280,20","this is pretty, but I wouldn't hang it on my wall.,15,380,20","It's just not my style,-18,340,20","I don't like the dark black with the bright colors, but this as a whole is nice.,25,100,20","A little bit boring.,-24,20,20","Minimalist colors and shapes.,-5,40,20","Isaac","I like the gradient of little color on the top to colorful on the bottom.,24,280,20","Brian","this is pretty, but I wouldn't hang it on my wall.,15,380,20","Eric","I don't like the dark black with the bright colors, but this as a whole is nice.,25,100,20","0"
"10280","","survey-text","167","1144436","0.0-166.0-0.0","AFWJ8KSPU1T3K","","","","{""Q0"":""Pirates at sea. ""}","","","","","","","","","","","","","","","","","","","","","","",""
"3344","","image-slider-response","168","1147789","0.0-167.0","AFWJ8KSPU1T3K","","","","","39","","","","","","","","","","","","","","","","","","","","","",""
"null","","image-button-response","169","1152799","0.0-168.0","AFWJ8KSPU1T3K","img_art/10.jpg","null","","","","","","","","","","","","","","","","","","","","","","","","",""
"8236","","image-button-response","170","1161047","0.0-169.0","AFWJ8KSPU1T3K","img_art/10.jpg","4","","","","","","","","","","","","","","","","","","","","","","","","",""
"4369","","image-button-response","171","1165421","0.0-170.0-0.0","AFWJ8KSPU1T3K","img_art/10.jpg","0","","","","","","","","","","","","","","","","","","","","","","","","",""
"2222","","image-button-response","172","1167654","0.0-171.0-0.0","AFWJ8KSPU1T3K","img_art/10.jpg","1","","","","","","","","","","","","","","","","","","","","","","","","",""
"null","","html-keyboard-response","173","1168165","0.0-172.0","AFWJ8KSPU1T3K","<p style=""font-size: 48px;"">+</p>","","","","","null","allTrialResponses","500","1","18","img_art/10.jpg","39","Pirates at sea. ","Isaac,Brian,Jeremy,Eric,Christian,Caleb","It looks intricate.,15,280,20","this is a good painting, but feels musical in a way that I don't connect with.,-14,380,20","kind of happy. it is intriguing,23,60,20","This piece is unusual in a way that makes me uncomfortable.,-5,100,20","gives a sense of a roller coaster unit splashed in water. it's not but i love it nevertheless,44,140,20","This is a scribble of a mad man. Appears low effort.,-33,40,20","Christian","gives a sense of a roller coaster unit splashed in water. it's not but i love it nevertheless,44,140,20","Isaac","It looks intricate.,15,280,20","Brian","this is a good painting, but feels musical in a way that I don't connect with.,-14,380,20","0"
"10793","","survey-text","174","1178981","0.0-173.0-0.0","AFWJ8KSPU1T3K","","","","{""Q0"":""Blah. ""}","","","","","","","","","","","","","","","","","","","","","","",""
"2865.4000000059605","","image-slider-response","175","1181852","0.0-174.0","AFWJ8KSPU1T3K","","","","","-10","","","","","","","","","","","","","","","","","","","","","",""
"null","","image-button-response","176","1186867","0.0-175.0","AFWJ8KSPU1T3K","img_art/1.jpg","null","","","","","","","","","","","","","","","","","","","","","","","","",""
"678","","image-button-response","177","1187551","0.0-176.0","AFWJ8KSPU1T3K","img_art/1.jpg","1","","","","","","","","","","","","","","","","","","","","","","","","",""
"5425","","image-button-response","178","1192983","0.0-177.0-0.0","AFWJ8KSPU1T3K","img_art/1.jpg","5","","","","","","","","","","","","","","","","","","","","","","","","",""
"2224","","image-button-response","179","1195217","0.0-178.0-0.0","AFWJ8KSPU1T3K","img_art/1.jpg","2","","","","","","","","","","","","","","","","","","","","","","","","",""
"null","","html-keyboard-response","180","1196224","0.0-179.0","AFWJ8KSPU1T3K","<p style=""font-size: 48px;"">+</p>","","","","","null","allTrialResponses","1000","1","19","img_art/1.jpg","-10","Blah. ","Isaac,Brian,Stephen,Jake,Christian,David","The colors are a little too intense.,1,280,20","I don't feel like much is happening in this painting,-25,380,20","Nothing really going on but good color choices.,-3,140,20","This is ugly with bad colors.,-6,360,20","bamboo boat in sunset,12,140,20","This image doesn't invoke much in me.,0,340,20","Brian","I don't feel like much is happening in this painting,-25,380,20","David","This image doesn't invoke much in me.,0,340,20","Stephen","Nothing really going on but good color choices.,-3,140,20","0"
"16724","","survey-text","181","1212967","0.0-180.0-0.0","AFWJ8KSPU1T3K","","","","{""Q0"":""Birds and crabs.""}","","","","","","","","","","","","","","","","","","","","","","",""
"2577.5999999940395","","image-slider-response","182","1215550","0.0-181.0","AFWJ8KSPU1T3K","","","","","12","","","","","","","","","","","","","","","","","","","","","",""
"null","","image-button-response","183","1220559","0.0-182.0","AFWJ8KSPU1T3K","img_art/9.jpg","null","","","","","","","","","","","","","","","","","","","","","","","","",""
"1496","","image-button-response","184","1222065","0.0-183.0","AFWJ8KSPU1T3K","img_art/9.jpg","0","","","","","","","","","","","","","","","","","","","","","","","","",""
"2969","","image-button-response","185","1225040","0.0-184.0-0.0","AFWJ8KSPU1T3K","img_art/9.jpg","2","","","","","","","","","","","","","","","","","","","","","","","","",""
"3917","","image-button-response","186","1228969","0.0-185.0-0.0","AFWJ8KSPU1T3K","img_art/9.jpg","3","","","","","","","","","","","","","","","","","","","","","","","","",""
"null","","html-keyboard-response","187","1229477","0.0-186.0","AFWJ8KSPU1T3K","<p style=""font-size: 48px;"">+</p>","","","","","null","allTrialResponses","500","1","20","img_art/9.jpg","12","Birds and crabs.","Dustin,Brian,Stephen,Peter,Gregory,David","I like the blues and pinks. The woman lying down communicates relaxation. It is a serene, calming scene,30,20,20","I don't like the framing of this one,-25,380,20","Too much going on, don't know what the focus is,-11,140,20","Looks like a monster's teeth , unsettling,-18,320,20","Mash up of colors and designs don't really go together,-5,220,20","I like how design can be interpreted differently, I see a person sleeping or a mountainous region.,10,340,20","Dustin","I like the blues and pinks. The woman lying down communicates relaxation. It is a serene, calming scene,30,20,20","Stephen","Too much going on, don't know what the focus is,-11,140,20","Peter","Looks like a monster's teeth , unsettling,-18,320,20","0"
"3858","","survey-text","188","1233390","0.0-187.0-0.0","AFWJ8KSPU1T3K","","","","{""Q0"":""we""}","","","","","","","","","","","","","","","","","","","","","","",""
"13948","","survey-text","189","1247343","0.0-188.0-0.0","AFWJ8KSPU1T3K","","","","{""Q0"":""Bright Miro.""}","","","","","","","","","","","","","","","","","","","","","","",""
"5727.5","","image-slider-response","190","1253079","0.0-189.0","AFWJ8KSPU1T3K","","","","","50","","","","","","","","","","","","","","","","","","","","","",""
"null","","image-button-response","191","1258099","0.0-190.0","AFWJ8KSPU1T3K","img_art/5.jpg","null","","","","","","","","","","","","","","","","","","","","","","","","",""
"2288","","image-button-response","192","1260393","0.0-191.0","AFWJ8KSPU1T3K","img_art/5.jpg","3","","","","","","","","","","","","","","","","","","","","","","","","",""
"6774","","image-button-response","193","1267177","0.0-192.0-0.0","AFWJ8KSPU1T3K","img_art/5.jpg","1","","","","","","","","","","","","","","","","","","","","","","","","",""
"1661","","image-button-response","194","1268851","0.0-193.0-0.0","AFWJ8KSPU1T3K","img_art/5.jpg","0","","","","","","","","","","","","","","","","","","","","","","","","",""
"null","","html-keyboard-response","195","1269860","0.0-194.0","AFWJ8KSPU1T3K","<p style=""font-size: 48px;"">+</p>","","","","","null","allTrialResponses","1000","1","21","img_art/5.jpg","50","Bright Miro.","Dustin,Devon,Stephen,Peter,Andrew,Jason","I don't get it at all. But, maybe it is the top portion of a piece of fruit.,-50,20,20","a bit confused about this picture,-9,400,20","Very little going on.,-4,140,20","Bright and sunny,19,320,20","Doesn't make me think anything,-1,160,20","Wish the background had been kept clean; distracts from main object,11,20,20","Peter","Bright and sunny,19,320,20","Devon","a bit confused about this picture,-9,400,20","Dustin","I don't get it at all. But, maybe it is the top portion of a piece of fruit.,-50,20,20","0"
"10826","","survey-text","196","1280704","0.0-195.0-0.0","AFWJ8KSPU1T3K","","","","{""Q0"":""Abstract sea.""}","","","","","","","","","","","","","","","","","","","","","","",""
"2370.4000000059605","","image-slider-response","197","1283081","0.0-196.0","AFWJ8KSPU1T3K","","","","","18","","","","","","","","","","","","","","","","","","","","","",""
"null","","image-button-response","198","1288102","0.0-197.0","AFWJ8KSPU1T3K","img_art/21.jpg","null","","","","","","","","","","","","","","","","","","","","","","","","",""
"838","","image-button-response","199","1288945","0.0-198.0","AFWJ8KSPU1T3K","img_art/21.jpg","0","","","","","","","","","","","","","","","","","","","","","","","","",""
"5208","","image-button-response","200","1294162","0.0-199.0-0.0","AFWJ8KSPU1T3K","img_art/21.jpg","4","","","","","","","","","","","","","","","","","","","","","","","","",""
"4243","","image-button-response","201","1298420","0.0-200.0-0.0","AFWJ8KSPU1T3K","img_art/21.jpg","5","","","","","","","","","","","","","","","","","","","","","","","","",""
"null","","html-keyboard-response","202","1299440","0.0-201.0","AFWJ8KSPU1T3K","<p style=""font-size: 48px;"">+</p>","","","","","null","allTrialResponses","1000","1","22","img_art/21.jpg","18","Abstract sea.","Dustin,Devon,Anthony,Peter,Chase,Cameron","Immediately a positive response! I like the muted colors. the blurriness calms me. It's serene,40,20,20","waterpaint is attractive,13,400,20","Bland, this painting is my least favorite,-20,200,20","I like the two sides meeting, like a movie scene,15,320,20","Kind of looks like a sky with a storm or tornado.,10,120,20","Like the colors. Don't like the white dots on the right side of the painting though.,15,60,20","Dustin","Immediately a positive response! I like the muted colors. the blurriness calms me. It's serene,40,20,20","Chase","Kind of looks like a sky with a storm or tornado.,10,120,20","Cameron","Like the colors. Don't like the white dots on the right side of the painting though.,15,60,20","0"
"11180","","survey-text","203","1310657","0.0-202.0-0.0","AFWJ8KSPU1T3K","","","","{""Q0"":""City night. ""}","","","","","","","","","","","","","","","","","","","","","","",""
"3081.0999999940395","","image-slider-response","204","1313744","0.0-203.0","AFWJ8KSPU1T3K","","","","","33","","","","","","","","","","","","","","","","","","","","","",""
"null","","image-button-response","205","1318762","0.0-204.0","AFWJ8KSPU1T3K","img_art/11.jpg","null","","","","","","","","","","","","","","","","","","","","","","","","",""
"605","","image-button-response","206","1319372","0.0-205.0","AFWJ8KSPU1T3K","img_art/11.jpg","1","","","","","","","","","","","","","","","","","","","","","","","","",""
"2568","","image-button-response","207","1321946","0.0-206.0-0.0","AFWJ8KSPU1T3K","img_art/11.jpg","2","","","","","","","","","","","","","","","","","","","","","","","","",""
"4173","","image-button-response","208","1326131","0.0-207.0-0.0","AFWJ8KSPU1T3K","img_art/11.jpg","5","","","","","","","","","","","","","","","","","","","","","","","","",""
"null","","html-keyboard-response","209","1326640","0.0-208.0","AFWJ8KSPU1T3K","<p style=""font-size: 48px;"">+</p>","","","","","null","allTrialResponses","500","1","23","img_art/11.jpg","33","City night. ","Dustin,Jack,Marcus,Scott,Chase,Cameron","Dark and dreary. Makes me think of rain/water. I see grey clouds and high waves. Looks unsettling.,-20,20,20","makes me think of city highways & bridges on a rainy, foggy day. I like the melancholy it evokes.,43,320,20","I like this one very much, especially the shades of gray.,30,60,20","makes me feel dizzy,-37,20,20","It's too dark and dingy.,-30,120,20","futuristic arching railways,25,60,20","Jack","makes me think of city highways & bridges on a rainy, foggy day. I like the melancholy it evokes.,43,320,20","Marcus","I like this one very much, especially the shades of gray.,30,60,20","Cameron","futuristic arching railways,25,60,20","0"
"14033","","survey-text","210","1340714","0.0-209.0-0.0","AFWJ8KSPU1T3K","","","","{""Q0"":""Music band.""}","","","","","","","","","","","","","","","","","","","","","","",""
"2505","","image-slider-response","211","1343226","0.0-210.0","AFWJ8KSPU1T3K","","","","","19","","","","","","","","","","","","","","","","","","","","","",""
"null","","image-button-response","212","1348231","0.0-211.0","AFWJ8KSPU1T3K","img_art/18.jpg","null","","","","","","","","","","","","","","","","","","","","","","","","",""
"377","","image-button-response","213","1348612","0.0-212.0","AFWJ8KSPU1T3K","img_art/18.jpg","1","","","","","","","","","","","","","","","","","","","","","","","","",""
"4938","","image-button-response","214","1353558","0.0-213.0-0.0","AFWJ8KSPU1T3K","img_art/18.jpg","4","","","","","","","","","","","","","","","","","","","","","","","","",""
"2109","","image-button-response","215","1355676","0.0-214.0-0.0","AFWJ8KSPU1T3K","img_art/18.jpg","2","","","","","","","","","","","","","","","","","","","","","","","","",""
"null","","html-keyboard-response","216","1356192","0.0-215.0","AFWJ8KSPU1T3K","<p style=""font-size: 48px;"">+</p>","","","","","null","allTrialResponses","500","1","24","img_art/18.jpg","19","Music band.","Ryan,Jack,Marcus,Juan,Matthew,Cameron","Too political, not my cup of tea,-50,380,20","hauntingly beautiful. more things revealed the longer you look. love the spirit-like figure in the top left.,47,320,20","like the grays and contrast of the yellow. This piece feels a bit angry,10,60,20","Again, this is too abtract.,-25,260,20","Resembles a ship at sea, storm of activity.,28,120,20","Don't like the color scheme. Or the theme.,-5,60,20","Jack","hauntingly beautiful. more things revealed the longer you look. love the spirit-like figure in the top left.,47,320,20","Matthew","Resembles a ship at sea, storm of activity.,28,120,20","Marcus","like the grays and contrast of the yellow. This piece feels a bit angry,10,60,20","0"
"14299","","survey-text","217","1370515","0.0-216.0-0.0","AFWJ8KSPU1T3K","","","","{""Q0"":""Cool colors.""}","","","","","","","","","","","","","","","","","","","","","","",""
"4914.699999988079","","image-slider-response","218","1375435","0.0-217.0","AFWJ8KSPU1T3K","","","","","50","","","","","","","","","","","","","","","","","","","","","",""
"null","","image-button-response","219","1380460","0.0-218.0","AFWJ8KSPU1T3K","img_art/2.jpg","null","","","","","","","","","","","","","","","","","","","","","","","","",""
"5188","","image-button-response","220","1385654","0.0-219.0","AFWJ8KSPU1T3K","img_art/2.jpg","4","","","","","","","","","","","","","","","","","","","","","","","","",""
"7677","","image-button-response","221","1393341","0.0-220.0-0.0","AFWJ8KSPU1T3K","img_art/2.jpg","2","","","","","","","","","","","","","","","","","","","","","","","","",""
"2253","","image-button-response","222","1395605","0.0-221.0-0.0","AFWJ8KSPU1T3K","img_art/2.jpg","3","","","","","","","","","","","","","","","","","","","","","","","","",""
"null","","html-keyboard-response","223","1396614","0.0-222.0","AFWJ8KSPU1T3K","<p style=""font-size: 48px;"">+</p>","","","","","null","allTrialResponses","1000","1","25","img_art/2.jpg","50","Cool colors.","Cody,Jack,Marcus,Jonathan,Matthew,Trevor","Don't love the colors,-30,180,20","the colors are a bit odd, and the squiggly line at the top is distracting,0,320,20","Only like the blues and teals in this. The rest is unappealing.,-15,60,20","It's a cool piece but honestly these color choices are the worst thing in the world,-31,140,20","I think I can make out a face in there.,25,120,20","It looks like a little kids primary color picture,3,280,20","Matthew","I think I can make out a face in there.,25,120,20","Marcus","Only like the blues and teals in this. The rest is unappealing.,-15,60,20","Jonathan","It's a cool piece but honestly these color choices are the worst thing in the world,-31,140,20","0"
"9642","","survey-text","224","1406293","0.0-223.0-0.0","AFWJ8KSPU1T3K","","","","{""Q0"":""table""}","","","","","","","","","","","","","","","","","","","","","","",""
"18538","","survey-text","225","1424837","0.0-224.0-0.0","AFWJ8KSPU1T3K","","","","{""Q0"":""Trees on balcony.""}","","","","","","","","","","","","","","","","","","","","","","",""
"3821.9000000059605","","image-slider-response","226","1428665","0.0-225.0","AFWJ8KSPU1T3K","","","","","14","","","","","","","","","","","","","","","","","","","","","",""
"3706","","image-button-response","227","1433670","0.0-226.0","AFWJ8KSPU1T3K","img_art/17.jpg","1","","","","","","","","","","","","","","","","","","","","","","","","",""
"1949","","image-button-response","228","1435626","0.0-227.0","AFWJ8KSPU1T3K","img_art/17.jpg","1","","","","","","","","","","","","","","","","","","","","","","","","",""
"5913","","image-button-response","229","1441549","0.0-228.0-0.0","AFWJ8KSPU1T3K","img_art/17.jpg","4","","","","","","","","","","","","","","","","","","","","","","","","",""
"1370","","image-button-response","230","1442927","0.0-229.0-0.0","AFWJ8KSPU1T3K","img_art/17.jpg","5","","","","","","","","","","","","","","","","","","","","","","","","",""
"null","","html-keyboard-response","231","1443988","0.0-230.0","AFWJ8KSPU1T3K","<p style=""font-size: 48px;"">+</p>","","","","","null","allTrialResponses","1000","1","26","img_art/17.jpg","14","Trees on balcony.","Vincent,Connor,Marcus,Jonathan,Matthew,Thomas","Another favorite a relaxing day with nature a day to take it all In,34,360,20","Windows indoor tree, weird palette,-11,240,20","I like this, but it's a bit bland.,10,60,20","Feels nostalgic somehow,31,140,20","taste the rainbow, feel the flavor.,23,120,20","Colors and composition are beautiful. I would hang this in my home.,50,220,20","Connor","Windows indoor tree, weird palette,-11,240,20","Matthew","taste the rainbow, feel the flavor.,23,120,20","Thomas","Colors and composition are beautiful. I would hang this in my home.,50,220,20","0"
"16046","","survey-text","232","1460084","0.0-231.0-0.0","AFWJ8KSPU1T3K","","","","{""Q0"":""Open the door. ""}","","","","","","","","","","","","","","","","","","","","","","",""
"2709","","image-slider-response","233","1462799","0.0-232.0","AFWJ8KSPU1T3K","","","","","11","","","","","","","","","","","","","","","","","","","","","",""
"5012","","image-button-response","234","1467819","0.0-233.0","AFWJ8KSPU1T3K","img_art/26.jpg","0","","","","","","","","","","","","","","","","","","","","","","","","",""
"634","","image-button-response","235","1468459","0.0-234.0","AFWJ8KSPU1T3K","img_art/26.jpg","0","","","","","","","","","","","","","","","","","","","","","","","","",""
"994","","image-button-response","236","1469459","0.0-235.0-0.0","AFWJ8KSPU1T3K","img_art/26.jpg","1","","","","","","","","","","","","","","","","","","","","","","","","",""
"5806","","image-button-response","237","1475276","0.0-236.0-0.0","AFWJ8KSPU1T3K","img_art/26.jpg","2","","","","","","","","","","","","","","","","","","","","","","","","",""
"null","","html-keyboard-response","238","1476786","0.0-237.0","AFWJ8KSPU1T3K","<p style=""font-size: 48px;"">+</p>","","","","","null","allTrialResponses","1500","1","27","img_art/26.jpg","11","Open the door. ","Alexander,Connor,Colton,Samuel,Matthew,Thomas","Confusing park picture.,8,120,20","City scene in a park,23,240,20","very impressionistic,11,220,20","reminds me of a hometown,7,400,20","Telented watercolor artist or second grader.,18,120,20","It feels almost unfinished, but I like the color palette,9,220,20","Alexander","Confusing park picture.,8,120,20","Connor","City scene in a park,23,240,20","Colton","very impressionistic,11,220,20","0"
"11032","","survey-text","239","1487836","0.0-238.0-0.0","AFWJ8KSPU1T3K","","","","{""Q0"":""Teddy bear. ""}","","","","","","","","","","","","","","","","","","","","","","",""
"4280.4000000059605","","image-slider-response","240","1492124","0.0-239.0","AFWJ8KSPU1T3K","","","","","-18","","","","","","","","","","","","","","","","","","","","","",""
"4001","","image-button-response","241","1497143","0.0-240.0","AFWJ8KSPU1T3K","img_art/16.jpg","1","","","","","","","","","","","","","","","","","","","","","","","","",""
"884","","image-button-response","242","1498038","0.0-241.0","AFWJ8KSPU1T3K","img_art/16.jpg","1","","","","","","","","","","","","","","","","","","","","","","","","",""
"4000","","image-button-response","243","1502045","0.0-242.0-0.0","AFWJ8KSPU1T3K","img_art/16.jpg","4","","","","","","","","","","","","","","","","","","","","","","","","",""
"3622","","image-button-response","244","1505676","0.0-243.0-0.0","AFWJ8KSPU1T3K","img_art/16.jpg","0","","","","","","","","","","","","","","","","","","","","","","","","",""
"null","","html-keyboard-response","245","1506695","0.0-244.0","AFWJ8KSPU1T3K","<p style=""font-size: 48px;"">+</p>","","","","","null","allTrialResponses","1000","1","28","img_art/16.jpg","-18","Teddy bear. ","Alexander,Connor,Colton,Travis,Evan,Corey","Strange and bleak.,-20,120,20","Not original. Bear is odd,-50,240,20","the materials used are interesting,30,220,20","I like the teddy bear,but a neutral feeling,5,260,20","I do not like this dark and twisted portrayal of childhood,-42,140,20","i like how it incorporates mixed visual art with the photo of the bear and the drawings,30,260,20","Connor","Not original. Bear is odd,-50,240,20","Evan","I do not like this dark and twisted portrayal of childhood,-42,140,20","Alexander","Strange and bleak.,-20,120,20","0"
"14090","","survey-text","246","1520819","0.0-245.0-0.0","AFWJ8KSPU1T3K","","","","{""Q0"":""Grass growing. ""}","","","","","","","","","","","","","","","","","","","","","","",""
"4784.200000017881","","image-slider-response","247","1525611","0.0-246.0","AFWJ8KSPU1T3K","","","","","-31","","","","","","","","","","","","","","","","","","","","","",""
"3940","","image-button-response","248","1530635","0.0-247.0","AFWJ8KSPU1T3K","img_art/30.jpg","0","","","","","","","","","","","","","","","","","","","","","","","","",""
"689","","image-button-response","249","1531333","0.0-248.0","AFWJ8KSPU1T3K","img_art/30.jpg","0","","","","","","","","","","","","","","","","","","","","","","","","",""
"8684","","image-button-response","250","1540027","0.0-249.0-0.0","AFWJ8KSPU1T3K","img_art/30.jpg","5","","","","","","","","","","","","","","","","","","","","","","","","",""
"946","","image-button-response","251","1540982","0.0-250.0-0.0","AFWJ8KSPU1T3K","img_art/30.jpg","4","","","","","","","","","","","","","","","","","","","","","","","","",""
"null","","html-keyboard-response","252","1541988","0.0-251.0","AFWJ8KSPU1T3K","<p style=""font-size: 48px;"">+</p>","","","","","null","allTrialResponses","1000","1","29","img_art/30.jpg","-31","Grass growing. ","Alexander,Connor,William,Paul,Evan,Gabriel","Sleek eel in the abstract ocean.,30,120,20","Layers are interesting,22,240,20","to dark and dreary,-28,380,20","It looked like a random scribble but I can see a person's face in it now and I think it's clever,13,300,20","I really like the broad and colorful strokes,21,140,20","dont like this much at all,-30,160,20","Alexander","Sleek eel in the abstract ocean.,30,120,20","Gabriel","dont like this much at all,-30,160,20","Evan","I really like the broad and colorful strokes,21,140,20","0"
"11465","","survey-text","253","1553480","0.0-252.0-0.0","AFWJ8KSPU1T3K","","","","{""Q0"":""Pollock like. ""}","","","","","","","","","","","","","","","","","","","","","","",""
"4872.200000017881","","image-slider-response","254","1558359","0.0-253.0","AFWJ8KSPU1T3K","","","","","9","","","","","","","","","","","","","","","","","","","","","",""
"null","","image-button-response","255","1563389","0.0-254.0","AFWJ8KSPU1T3K","img_art/13.jpg","null","","","","","","","","","","","","","","","","","","","","","","","","",""
"692","","image-button-response","256","1564086","0.0-255.0","AFWJ8KSPU1T3K","img_art/13.jpg","1","","","","","","","","","","","","","","","","","","","","","","","","",""
"3128","","image-button-response","257","1567223","0.0-256.0-0.0","AFWJ8KSPU1T3K","img_art/13.jpg","3","","","","","","","","","","","","","","","","","","","","","","","","",""
"2205","","image-button-response","258","1569439","0.0-257.0-0.0","AFWJ8KSPU1T3K","img_art/13.jpg","4","","","","","","","","","","","","","","","","","","","","","","","","",""
"null","","html-keyboard-response","259","1570458","0.0-258.0","AFWJ8KSPU1T3K","<p style=""font-size: 48px;"">+</p>","","","","","null","allTrialResponses","1000","1","30","img_art/13.jpg","9","Pollock like. ","Alexander,Bryan,Brandon,Robert,Evan,Gabriel","Seeing the world through different lenses.,15,120,20","Love the colors, love the abstractness, love this Jackson Pollock type painting.,48,400,20","Simple, but pleasing. The blue gradient is a favorite of mine,32,320,20","Raindrops splashing on the window.,50,360,20","It reminds me of looking out the window on a stormy night at cars drive by,21,140,20","its like the ocean,24,160,20","Bryan","Love the colors, love the abstractness, love this Jackson Pollock type painting.,48,400,20","Robert","Raindrops splashing on the window.,50,360,20","Evan","It reminds me of looking out the window on a stormy night at cars drive by,21,140,20","0"
"5502","","image-button-response_instructions","260","1575989","0.0-259.0","AFWJ8KSPU1T3K","","0","instructions","","","","","","","","","","","","","","","","","","","","","","","",""
"1512","","image-button-response","261","1577528","0.0-260.0","AFWJ8KSPU1T3K","","0","","","","","","","","","","","","","","","","","","","","","","","","",""
