"rt","url","trial_type","trial_index","time_elapsed","internal_node_id","participant_id","stimulus","button_pressed","Name","responses","response","key_press","variableName","fixationTime","condition","trial","photo","subjectRating","subjectResponse","agentsNames","agent_1_Response","agent_2_Response","agent_3_Response","agent_4_Response","agent_5_Response","agent_6_Response","kept_1_name","kept_1_response","kept_2_name","kept_2_response","kept_3_name","kept_3_response","errorCounter"
"45365","external_page_harvard.html","external-html","0","45435","0.0-0.0","AFWSBV2NPWTCG","","","","","","","","","","","","","","","","","","","","","","","","","","",""
"2003","","image-button-response","1","47441","0.0-1.0","AFWSBV2NPWTCG","","0","","","","","","","","","","","","","","","","","","","","","","","","",""
"2127","","image-button-response","2","49577","0.0-2.0-0.0","AFWSBV2NPWTCG","","1","phone","","","","","","","","","","","","","","","","","","","","","","","",""
"9160","","survey-text","3","58739","0.0-3.0-0.0","AFWSBV2NPWTCG","","","","{""Q0"":""AFWSBV2NPWTCG""}","","","","","","","","","","","","","","","","","","","","","","",""
"7534","","image-button-response_instructions","4","66277","0.0-4.0","AFWSBV2NPWTCG","","0","instructions","","","","","","","","","","","","","","","","","","","","","","","",""
"11245","","image-button-response_instructions","5","77525","0.0-5.0","AFWSBV2NPWTCG","img_art/ins/popularity/ins1.png","0","instructions","","","","","","","","","","","","","","","","","","","","","","","",""
"4989","","image-button-response_instructions","6","82515","0.0-6.0","AFWSBV2NPWTCG","img_art/ins/popularity/ins2.png","0","instructions","","","","","","","","","","","","","","","","","","","","","","","",""
"11162","","image-button-response_instructions","7","93679","0.0-7.0","AFWSBV2NPWTCG","img_art/ins/popularity/ins2Extreme.png","0","instructions","","","","","","","","","","","","","","","","","","","","","","","",""
"13789","","image-button-response_instructions","8","107470","0.0-8.0","AFWSBV2NPWTCG","img_art/ins/popularity/ins3KEEPpop.PNG","0","instructions","","","","","","","","","","","","","","","","","","","","","","","",""
"20542","","image-button-response_instructions","9","128013","0.0-9.0","AFWSBV2NPWTCG","img_art/ins/popularity/ins3ANamepop.PNG","0","instructions","","","","","","","","","","","","","","","","","","","","","","","",""
"11880","","image-button-response_instructions","10","139895","0.0-10.0","AFWSBV2NPWTCG","img_art/ins/popularity/ins3ARatingpop.png","0","instructions","","","","","","","","","","","","","","","","","","","","","","","",""
"8944","","image-button-response_instructions","11","148841","0.0-11.0","AFWSBV2NPWTCG","img_art/ins/popularity/ins3ATextpop.png","0","instructions","","","","","","","","","","","","","","","","","","","","","","","",""
"13685","","image-button-response_instructions","12","162528","0.0-12.0","AFWSBV2NPWTCG","img_art/ins/popularity/ins3ALikespop.png","0","instructions","","","","","","","","","","","","","","","","","","","","","","","",""
"18750","","image-button-response_instructions","13","181280","0.0-13.0","AFWSBV2NPWTCG","img_art/ins/popularity/ins3KEEPpop.PNG","0","instructions","","","","","","","","","","","","","","","","","","","","","","","",""
"16309","","image-button-response_instructions","14","197591","0.0-14.0","AFWSBV2NPWTCG","img_art/ins/popularity/ins3_5RED.png","0","instructions","","","","","","","","","","","","","","","","","","","","","","","",""
"11019","","image-button-response_instructions","15","208612","0.0-15.0","AFWSBV2NPWTCG","img_art/ins/popularity/ins3KEEPpop.PNG","0","instructions","","","","","","","","","","","","","","","","","","","","","","","",""
"25911","","image-button-response_instructions","16","234524","0.0-16.0","AFWSBV2NPWTCG","img_art/ins/popularity/ins4KEEPpop.PNG","0","instructions","","","","","","","","","","","","","","","","","","","","","","","",""
"5940","","image-button-response_instructions","17","240466","0.0-17.0","AFWSBV2NPWTCG","img_art/ins/popularity/ins5KEEPpop.PNG","0","instructions","","","","","","","","","","","","","","","","","","","","","","","",""
"3062","","image-button-response_instructions","18","243530","0.0-18.0","AFWSBV2NPWTCG","","0","instructions","","","","","","","","","","","","","","","","","","","","","","","",""
"10849","","survey-text","19","254418","0.0-19.0-0.0","AFWSBV2NPWTCG","","","","{""Q0"":""but""}","","","","","","","","","","","","","","","","","","","","","","",""
"19168","","survey-text","20","273589","0.0-20.0-0.0","AFWSBV2NPWTCG","","","","{""Q0"":""It makes me sad""}","","","","","","","","","","","","","","","","","","","","","","",""
"12207.399999856949","","image-slider-response","21","285800","0.0-21.0","AFWSBV2NPWTCG","","","","","-50","","","","","","","","","","","","","","","","","","","","","",""
"null","","image-button-response","22","290805","0.0-22.0","AFWSBV2NPWTCG","img_art/ins/1.jpg","null","","","","","","","","","","","","","","","","","","","","","","","","",""
"8654","","image-button-response","23","299462","0.0-23.0","AFWSBV2NPWTCG","img_art/ins/1.jpg","2","","","","","","","","","","","","","","","","","","","","","","","","",""
"5850","","image-button-response","24","305317","0.0-24.0-0.0","AFWSBV2NPWTCG","img_art/ins/1.jpg","0","","","","","","","","","","","","","","","","","","","","","","","","",""
"7534","","image-button-response","25","312855","0.0-25.0-0.0","AFWSBV2NPWTCG","img_art/ins/1.jpg","0","","","","","","","","","","","","","","","","","","","","","","","","",""
"2444","","image-button-response","26","319794","0.0-25.1-0.1","AFWSBV2NPWTCG","img_art/ins/1.jpg","4","","","","","","","","","","","","","","","","","","","","","","","","",""
"null","","html-keyboard-response","27","320798","0.0-26.0","AFWSBV2NPWTCG","<p style=""font-size: 48px;"">+</p>","","","","","null","allTrialResponses","1000","1","-2","img_art/ins/1.jpg","-50","It makes me sad","Adam,Alex,Ben,Carl,Daniel,Jack","Seems like doodles,-20,20,20","very creative work.,36,40,20","This color reminds me of poo,-46,60,20","very calming artwork,42,80,20","It looks like a murder scene.,-48,100,20","I like the sophisticated brushwork,40,120,20","Ben","This color reminds me of poo,-46,60,20","Adam","Seems like doodles,-20,20,20","Daniel","It looks like a murder scene.,-48,100,20","2"
"29975","","survey-text","28","350780","0.0-27.0-0.0","AFWSBV2NPWTCG","","","","{""Q0"":""it reminds me of mountain's""}","","","","","","","","","","","","","","","","","","","","","","",""
"8121.5","","image-slider-response","29","358904","0.0-28.0","AFWSBV2NPWTCG","","","","","24","","","","","","","","","","","","","","","","","","","","","",""
"null","","image-button-response","30","363909","0.0-29.0","AFWSBV2NPWTCG","img_art/ins/2.jpg","null","","","","","","","","","","","","","","","","","","","","","","","","",""
"20020","","image-button-response","31","383933","0.0-30.0","AFWSBV2NPWTCG","img_art/ins/2.jpg","2","","","","","","","","","","","","","","","","","","","","","","","","",""
"1490","","image-button-response","32","385425","0.0-31.0-0.0","AFWSBV2NPWTCG","img_art/ins/2.jpg","0","","","","","","","","","","","","","","","","","","","","","","","","",""
"1224","","image-button-response","33","386652","0.0-32.0-0.0","AFWSBV2NPWTCG","img_art/ins/2.jpg","1","","","","","","","","","","","","","","","","","","","","","","","","",""
"null","","html-keyboard-response","34","387669","0.0-33.0","AFWSBV2NPWTCG","<p style=""font-size: 48px;"">+</p>","","","","","null","allTrialResponses","1000","1","-1","img_art/ins/2.jpg","24","it reminds me of mountain's","Adam,John,Ben,James,Daniel,Kyle","too much color,-18,20,20","love the texture of paint,48,160,20","meaningless painting,-45,60,20","looks too angry,-50,140,20","One of my pet peevs,-48,100,20","Idk, it is just annoying,-32,180,20","Ben","meaningless painting,-45,60,20","Adam","too much color,-18,20,20","John","love the texture of paint,48,160,20","2"
"20609","","survey-text","35","408287","0.0-34.0-0.0","AFWSBV2NPWTCG","","","","{""Q0"":""love those color together""}","","","","","","","","","","","","","","","","","","","","","","",""
"6020","","image-slider-response","36","414309","0.0-35.0","AFWSBV2NPWTCG","","","","","50","","","","","","","","","","","","","","","","","","","","","",""
"3545","","image-button-response","37","419313","0.0-36.0","AFWSBV2NPWTCG","img_art/ins/3.jpg","1","","","","","","","","","","","","","","","","","","","","","","","","",""
"7243","","image-button-response","38","426560","0.0-37.0","AFWSBV2NPWTCG","img_art/ins/3.jpg","5","","","","","","","","","","","","","","","","","","","","","","","","",""
"4389","","image-button-response","39","430953","0.0-38.0-0.0","AFWSBV2NPWTCG","img_art/ins/3.jpg","3","","","","","","","","","","","","","","","","","","","","","","","","",""
"4661","","image-button-response","40","435617","0.0-39.0-0.0","AFWSBV2NPWTCG","img_art/ins/3.jpg","1","","","","","","","","","","","","","","","","","","","","","","","","",""
"null","","html-keyboard-response","41","436124","0.0-40.0","AFWSBV2NPWTCG","<p style=""font-size: 48px;"">+</p>","","","","","null","allTrialResponses","500","1","0","img_art/ins/3.jpg","50","love those color together","Adam,John,Ben,Mike,Ron,Sam","My daily routine, it's depressing,-20,20,20","I like the overlapping of brushes,41,160,20","This thing gives me anxiety,-41,60,20","enjoy the different shades of blue,22,200,20","It looks depressing,-26,220,20","I can feel a rainy day from this painting,18,240,20","Sam","I can feel a rainy day from this painting,18,240,20","Mike","enjoy the different shades of blue,22,200,20","John","I like the overlapping of brushes,41,160,20","2"
"13946","","image-button-response_instructions","42","450077","0.0-41.0","AFWSBV2NPWTCG","","0","instructions","","","","","","","","","","","","","","","","","","","","","","","",""
"15550","","survey-likert","43","465630","0.0-42.0-0.0","AFWSBV2NPWTCG","","","","{""Q0"":"""",""Q1"":0,""Q2"":0}","","","","","","","","","","","","","","","","","","","","","","",""
"5431","","survey-likert","44","478084","0.0-42.1-0.1","AFWSBV2NPWTCG","","","","{""Q0"":"""",""Q1"":"""",""Q2"":1}","","","","","","","","","","","","","","","","","","","","","","",""
"5235","","survey-text","45","483333","0.0-43.0-0.0","AFWSBV2NPWTCG","","","","{""Q0"":""rock""}","","","","","","","","","","","","","","","","","","","","","","",""
"13279","","survey-text","46","496613","0.0-44.0-0.0","AFWSBV2NPWTCG","","","","{""Q0"":""it looks bleak""}","","","","","","","","","","","","","","","","","","","","","","",""
"8863.099999904633","","image-slider-response","47","505480","0.0-45.0","AFWSBV2NPWTCG","","","","","-28","","","","","","","","","","","","","","","","","","","","","",""
"null","","image-button-response","48","510517","0.0-46.0","AFWSBV2NPWTCG","img_art/15.jpg","null","","","","","","","","","","","","","","","","","","","","","","","","",""
"280","","image-button-response","49","510801","0.0-47.0","AFWSBV2NPWTCG","img_art/15.jpg","4","","","","","","","","","","","","","","","","","","","","","","","","",""
"2068","","image-button-response","50","512873","0.0-48.0-0.0","AFWSBV2NPWTCG","img_art/15.jpg","5","","","","","","","","","","","","","","","","","","","","","","","","",""
"1421","","image-button-response","51","514297","0.0-49.0-0.0","AFWSBV2NPWTCG","img_art/15.jpg","0","","","","","","","","","","","","","","","","","","","","","","","","",""
"null","","html-keyboard-response","52","514814","0.0-50.0","AFWSBV2NPWTCG","<p style=""font-size: 48px;"">+</p>","","","","","null","allTrialResponses","500","1","1","img_art/15.jpg","-28","it looks bleak","Eric,Alejandro,Matthew,Stephen,David,Peter","This picture is too confusing for me. I wouldn't want to stare at it to figure it out.,-10,100,20","The blotted black spots create a nice contrast between the brush strokes within the center and sides. I like it.,41,80,20","I think of birds, nature, levels of space.,18,120,20","I like how the black and blue clash.,14,140,20","Hard to tell what I'm looking at, but it does a gives a slight impression of a of garden.,5,340,20","It's just dots. Doesn't bring any positive or negative feelings,2,320,20","David","Hard to tell what I'm looking at, but it does a gives a slight impression of a of garden.,5,340,20","Peter","It's just dots. Doesn't bring any positive or negative feelings,2,320,20","Eric","This picture is too confusing for me. I wouldn't want to stare at it to figure it out.,-10,100,20","3"
"15805","","survey-text","53","530624","0.0-51.0-0.0","AFWSBV2NPWTCG","","","","{""Q0"":""this reminds me of the different color of the sky""}","","","","","","","","","","","","","","","","","","","","","","",""
"4389.800000190735","","image-slider-response","54","535017","0.0-52.0","AFWSBV2NPWTCG","","","","","50","","","","","","","","","","","","","","","","","","","","","",""
"null","","image-button-response","55","540020","0.0-53.0","AFWSBV2NPWTCG","img_art/21.jpg","null","","","","","","","","","","","","","","","","","","","","","","","","",""
"905","","image-button-response","56","540929","0.0-54.0","AFWSBV2NPWTCG","img_art/21.jpg","4","","","","","","","","","","","","","","","","","","","","","","","","",""
"2149","","image-button-response","57","543080","0.0-55.0-0.0","AFWSBV2NPWTCG","img_art/21.jpg","1","","","","","","","","","","","","","","","","","","","","","","","","",""
"2646","","image-button-response","58","545730","0.0-56.0-0.0","AFWSBV2NPWTCG","img_art/21.jpg","0","","","","","","","","","","","","","","","","","","","","","","","","",""
"null","","html-keyboard-response","59","547234","0.0-57.0","AFWSBV2NPWTCG","<p style=""font-size: 48px;"">+</p>","","","","","null","allTrialResponses","1500","1","2","img_art/21.jpg","50","this reminds me of the different color of the sky","Eric,Jake,Blake,Gregory,David,Peter","I love everything about this piece.,50,100,20","It looks epic and is nice to look at in terms of colors/style.,23,360,20","ocean and rocks at the beach,11,280,20","Contrast of fire and water looks cool,20,220,20","I like how the piece has the possibility of depicting some type of story.,30,340,20","I like the two sides meeting, like a movie scene,15,320,20","David","I like how the piece has the possibility of depicting some type of story.,30,340,20","Jake","It looks epic and is nice to look at in terms of colors/style.,23,360,20","Eric","I love everything about this piece.,50,100,20","3"
"23980","","survey-text","60","571219","0.0-58.0-0.0","AFWSBV2NPWTCG","","","","{""Q0"":""looks like a tree blowing in the wind""}","","","","","","","","","","","","","","","","","","","","","","",""
"6498.299999952316","","image-slider-response","61","577720","0.0-59.0","AFWSBV2NPWTCG","","","","","31","","","","","","","","","","","","","","","","","","","","","",""
"4045","","image-button-response","62","582725","0.0-60.0","AFWSBV2NPWTCG","img_art/17.jpg","0","","","","","","","","","","","","","","","","","","","","","","","","",""
"4755","","image-button-response","63","587484","0.0-61.0","AFWSBV2NPWTCG","img_art/17.jpg","5","","","","","","","","","","","","","","","","","","","","","","","","",""
"2241","","image-button-response","64","589728","0.0-62.0-0.0","AFWSBV2NPWTCG","img_art/17.jpg","3","","","","","","","","","","","","","","","","","","","","","","","","",""
"1736","","image-button-response","65","591467","0.0-63.0-0.0","AFWSBV2NPWTCG","img_art/17.jpg","0","","","","","","","","","","","","","","","","","","","","","","","","",""
"null","","html-keyboard-response","66","592469","0.0-64.0","AFWSBV2NPWTCG","<p style=""font-size: 48px;"">+</p>","","","","","null","allTrialResponses","1000","1","3","img_art/17.jpg","31","looks like a tree blowing in the wind","Eric,Jake,Isaiah,Tanner,David,Mason","This picture is calming to me, and I love the colors.,45,100,20","This could have been good but was poorly done.,-5,360,20","The painting makes me feel relaxed, and a bit lonely, like I'm sitting at a park waiting for someone.,30,300,20","calm, tranquil, happy,50,180,20","I like how the image gives an impression of gaseous tree.,15,340,20","Like this one, super creative, calming.,43,100,20","Mason","Like this one, super creative, calming.,43,100,20","Tanner","calm, tranquil, happy,50,180,20","Eric","This picture is calming to me, and I love the colors.,45,100,20","3"
"15388","","survey-text","67","607864","0.0-65.0-0.0","AFWSBV2NPWTCG","","","","{""Q0"":""love it very interesting""}","","","","","","","","","","","","","","","","","","","","","","",""
"4595.100000143051","","image-slider-response","68","612461","0.0-66.0","AFWSBV2NPWTCG","","","","","50","","","","","","","","","","","","","","","","","","","","","",""
"null","","image-button-response","69","617465","0.0-67.0","AFWSBV2NPWTCG","img_art/14.jpg","null","","","","","","","","","","","","","","","","","","","","","","","","",""
"7237","","image-button-response","70","624704","0.0-68.0","AFWSBV2NPWTCG","img_art/14.jpg","0","","","","","","","","","","","","","","","","","","","","","","","","",""
"5465","","image-button-response","71","630172","0.0-69.0-0.0","AFWSBV2NPWTCG","img_art/14.jpg","1","","","","","","","","","","","","","","","","","","","","","","","","",""
"2143","","image-button-response","72","632318","0.0-70.0-0.0","AFWSBV2NPWTCG","img_art/14.jpg","4","","","","","","","","","","","","","","","","","","","","","","","","",""
"null","","html-keyboard-response","73","633321","0.0-71.0","AFWSBV2NPWTCG","<p style=""font-size: 48px;"">+</p>","","","","","null","allTrialResponses","1000","1","4","img_art/14.jpg","50","love it very interesting","Eric,Jonathan,Brian,Tanner,Bryan,Mason","I'm imagining a flower bouquet with pretty colors which I like.,35,100,20","This reminds me of the Lion King somehow! Feels inspiring,30,140,20","I don't care for the style,-38,380,20","somewhat stressful, crazy,-3,180,20","Like some of the colors but not much else.,1,400,20","ok, gloomy though.,12,100,20","Eric","I'm imagining a flower bouquet with pretty colors which I like.,35,100,20","Jonathan","This reminds me of the Lion King somehow! Feels inspiring,30,140,20","Bryan","Like some of the colors but not much else.,1,400,20","3"
"22941","","survey-text","74","656268","0.0-72.0-0.0","AFWSBV2NPWTCG","","","","{""Q0"":""reminds me of kids drawing""}","","","","","","","","","","","","","","","","","","","","","","",""
"6161.699999809265","","image-slider-response","75","662432","0.0-73.0","AFWSBV2NPWTCG","","","","","-27","","","","","","","","","","","","","","","","","","","","","",""
"2683","","image-button-response","76","667436","0.0-74.0","AFWSBV2NPWTCG","img_art/16.jpg","4","","","","","","","","","","","","","","","","","","","","","","","","",""
"462","","image-button-response","77","667902","0.0-75.0","AFWSBV2NPWTCG","img_art/16.jpg","3","","","","","","","","","","","","","","","","","","","","","","","","",""
"3148","","image-button-response","78","671052","0.0-76.0-0.0","AFWSBV2NPWTCG","img_art/16.jpg","2","","","","","","","","","","","","","","","","","","","","","","","","",""
"2268","","image-button-response","79","673323","0.0-77.0-0.0","AFWSBV2NPWTCG","img_art/16.jpg","4","","","","","","","","","","","","","","","","","","","","","","","","",""
"null","","html-keyboard-response","80","674330","0.0-78.0","AFWSBV2NPWTCG","<p style=""font-size: 48px;"">+</p>","","","","","null","allTrialResponses","1000","1","5","img_art/16.jpg","-27","reminds me of kids drawing","Eric,Jonathan,Cameron,Benjamin,Bryan,Dalton","This piece is unusual but unique.,5,100,20","It's a little anxiety inducing in a good way,16,140,20","Don't like teddy bears in art. I could draw that house.,-20,60,20","Don't like the teddy bear. It takes away from the painting.,-39,260,20","Something terrible happened. Either the figure on the right is the victim or another shredded toy.,-49,400,20","lol i dont know how i feel about this.,1,300,20","Benjamin","Don't like the teddy bear. It takes away from the painting.,-39,260,20","Cameron","Don't like teddy bears in art. I could draw that house.,-20,60,20","Bryan","Something terrible happened. Either the figure on the right is the victim or another shredded toy.,-49,400,20","3"
"4592","","survey-text","81","678933","0.0-79.0-0.0","AFWSBV2NPWTCG","","","","{""Q0"":""sky""}","","","","","","","","","","","","","","","","","","","","","","",""
"17606","","survey-text","82","696542","0.0-80.0-0.0","AFWSBV2NPWTCG","","","","{""Q0"":""this reminds me of roads""}","","","","","","","","","","","","","","","","","","","","","","",""
"4112.700000047684","","image-slider-response","83","700659","0.0-81.0","AFWSBV2NPWTCG","","","","","16","","","","","","","","","","","","","","","","","","","","","",""
"null","","image-button-response","84","705663","0.0-82.0","AFWSBV2NPWTCG","img_art/11.jpg","null","","","","","","","","","","","","","","","","","","","","","","","","",""
"8835","","image-button-response","85","714501","0.0-83.0","AFWSBV2NPWTCG","img_art/11.jpg","2","","","","","","","","","","","","","","","","","","","","","","","","",""
"2077","","image-button-response","86","716581","0.0-84.0-0.0","AFWSBV2NPWTCG","img_art/11.jpg","0","","","","","","","","","","","","","","","","","","","","","","","","",""
"1327","","image-button-response","87","717911","0.0-85.0-0.0","AFWSBV2NPWTCG","img_art/11.jpg","1","","","","","","","","","","","","","","","","","","","","","","","","",""
"null","","html-keyboard-response","88","718416","0.0-86.0","AFWSBV2NPWTCG","<p style=""font-size: 48px;"">+</p>","","","","","null","allTrialResponses","500","1","6","img_art/11.jpg","16","this reminds me of roads","Steven,Timothy,Cameron,Benjamin,Bryan,Alexander","Oh, I love this one, it says to me that life is very busy,50,160,20","The movement in this one is extremely pleasent,40,240,20","futuristic arching railways,25,60,20","Look like it's in constant movement.,10,260,20","Rainy asian city scape.,31,400,20","Waves of signs.,15,120,20","Cameron","futuristic arching railways,25,60,20","Steven","Oh, I love this one, it says to me that life is very busy,50,160,20","Timothy","The movement in this one is extremely pleasent,40,240,20","3"
"48368","","survey-text","89","766790","0.0-87.0-0.0","AFWSBV2NPWTCG","","","","{""Q0"":""I don't like it""}","","","","","","","","","","","","","","","","","","","","","","",""
"5544.599999904633","","image-slider-response","90","772338","0.0-88.0","AFWSBV2NPWTCG","","","","","-50","","","","","","","","","","","","","","","","","","","","","",""
"null","","image-button-response","91","777354","0.0-89.0","AFWSBV2NPWTCG","img_art/20.jpg","null","","","","","","","","","","","","","","","","","","","","","","","","",""
"292","","image-button-response","92","777648","0.0-90.0","AFWSBV2NPWTCG","img_art/20.jpg","4","","","","","","","","","","","","","","","","","","","","","","","","",""
"4959","","image-button-response","93","782611","0.0-91.0-0.0","AFWSBV2NPWTCG","img_art/20.jpg","1","","","","","","","","","","","","","","","","","","","","","","","","",""
"3763","","image-button-response","94","786377","0.0-92.0-0.0","AFWSBV2NPWTCG","img_art/20.jpg","2","","","","","","","","","","","","","","","","","","","","","","","","",""
"null","","html-keyboard-response","95","787884","0.0-93.0","AFWSBV2NPWTCG","<p style=""font-size: 48px;"">+</p>","","","","","null","allTrialResponses","1500","1","7","img_art/20.jpg","-50","I don't like it","Steven,Timothy,Cameron,Malik,Dustin,Joshua","It's okay, I see what looks like a truck laying on it's side. Meh,10,160,20","Makes me think if a car crash or some sort of disaster,-20,240,20","Dinosaur skill and some dark shadow above,-30,60,20","The artist had very strong feelings, bold colors,28,40,20","I don't like it. Dark sky and black figures. White objects remind me of bones.,-30,20,20","Reminds me of the Southwest; i.e. New Mexico or Arizona. It's interesting.,12,240,20","Dustin","I don't like it. Dark sky and black figures. White objects remind me of bones.,-30,20,20","Timothy","Makes me think if a car crash or some sort of disaster,-20,240,20","Cameron","Dinosaur skill and some dark shadow above,-30,60,20","3"
"29284","","survey-text","96","817175","0.0-94.0-0.0","AFWSBV2NPWTCG","","","","{""Q0"":""it looks like a river flowing down with mountains on the sides""}","","","","","","","","","","","","","","","","","","","","","","",""
"10585.399999856949","","image-slider-response","97","827763","0.0-95.0","AFWSBV2NPWTCG","","","","","32","","","","","","","","","","","","","","","","","","","","","",""
"3349","","image-button-response","98","832766","0.0-96.0","AFWSBV2NPWTCG","img_art/24.jpg","1","","","","","","","","","","","","","","","","","","","","","","","","",""
"804","","image-button-response","99","833573","0.0-97.0","AFWSBV2NPWTCG","img_art/24.jpg","4","","","","","","","","","","","","","","","","","","","","","","","","",""
"6676","","image-button-response","100","840251","0.0-98.0-0.0","AFWSBV2NPWTCG","img_art/24.jpg","2","","","","","","","","","","","","","","","","","","","","","","","","",""
"1161","","image-button-response","101","841416","0.0-99.0-0.0","AFWSBV2NPWTCG","img_art/24.jpg","0","","","","","","","","","","","","","","","","","","","","","","","","",""
"null","","html-keyboard-response","102","842920","0.0-100.0","AFWSBV2NPWTCG","<p style=""font-size: 48px;"">+</p>","","","","","null","allTrialResponses","1500","1","8","img_art/24.jpg","32","it looks like a river flowing down with mountains on the sides","Adrian,Timothy,Cameron,Ethan,Dustin,Dakota","I like the colors and see a stream in a wooded setting. Makes me feel calm and cheerful.,27,60,20","Earthy wonderful, love everything about it,50,240,20","Mountain stream pineapple texture?,30,60,20","This is sort of interesting. I think it's a bit busy. Less is more.,3,120,20","I see a waterfall, which is relaxing and peaceful!  I like the blue coloring,30,20,20","chunky fresh color,27,280,20","Dustin","I see a waterfall, which is relaxing and peaceful!  I like the blue coloring,30,20,20","Cameron","Mountain stream pineapple texture?,30,60,20","Adrian","I like the colors and see a stream in a wooded setting. Makes me feel calm and cheerful.,27,60,20","3"
"48530","","survey-text","103","891457","0.0-101.0-0.0","AFWSBV2NPWTCG","","","","{""Q0"":""I don't like it""}","","","","","","","","","","","","","","","","","","","","","","",""
"6291.400000095367","","image-slider-response","104","897751","0.0-102.0","AFWSBV2NPWTCG","","","","","-30","","","","","","","","","","","","","","","","","","","","","",""
"null","","image-button-response","105","902756","0.0-103.0","AFWSBV2NPWTCG","img_art/19.jpg","null","","","","","","","","","","","","","","","","","","","","","","","","",""
"2915","","image-button-response","106","905674","0.0-104.0","AFWSBV2NPWTCG","img_art/19.jpg","1","","","","","","","","","","","","","","","","","","","","","","","","",""
"4599","","image-button-response","107","910276","0.0-105.0-0.0","AFWSBV2NPWTCG","img_art/19.jpg","5","","","","","","","","","","","","","","","","","","","","","","","","",""
"1068","","image-button-response","108","911348","0.0-106.0-0.0","AFWSBV2NPWTCG","img_art/19.jpg","4","","","","","","","","","","","","","","","","","","","","","","","","",""
"null","","html-keyboard-response","109","911851","0.0-107.0","AFWSBV2NPWTCG","<p style=""font-size: 48px;"">+</p>","","","","","null","allTrialResponses","500","1","9","img_art/19.jpg","-30","I don't like it","Adrian,Thomas,Cameron,Gabriel,Dustin,John","Pleasant colors with just enough detail to be recognizable. I can see a scene in it that tells a story.,7,60,20","I like this as a whole, but the longer I look at it, the less it pleases me,-10,220,20","Snowy winter scene,25,60,20","not sure if i like it or not,1,160,20","Too busy, makes me anxious and frustrated. Lots of movement in the brush strokes.,-9,20,20","There's alot of elements to it bordering on clutter and chaotic,-20,120,20","Thomas","I like this as a whole, but the longer I look at it, the less it pleases me,-10,220,20","John","There's alot of elements to it bordering on clutter and chaotic,-20,120,20","Dustin","Too busy, makes me anxious and frustrated. Lots of movement in the brush strokes.,-9,20,20","3"
"18487","","survey-text","110","930345","0.0-108.0-0.0","AFWSBV2NPWTCG","","","","{""Q0"":""This looks like a bird in a dessert ""}","","","","","","","","","","","","","","","","","","","","","","",""
"5058.600000143051","","image-slider-response","111","935406","0.0-109.0","AFWSBV2NPWTCG","","","","","31","","","","","","","","","","","","","","","","","","","","","",""
"null","","image-button-response","112","940410","0.0-110.0","AFWSBV2NPWTCG","img_art/6.jpg","null","","","","","","","","","","","","","","","","","","","","","","","","",""
"725","","image-button-response","113","941138","0.0-111.0","AFWSBV2NPWTCG","img_art/6.jpg","3","","","","","","","","","","","","","","","","","","","","","","","","",""
"7024","","image-button-response","114","948165","0.0-112.0-0.0","AFWSBV2NPWTCG","img_art/6.jpg","5","","","","","","","","","","","","","","","","","","","","","","","","",""
"4018","","image-button-response","115","952187","0.0-113.0-0.0","AFWSBV2NPWTCG","img_art/6.jpg","2","","","","","","","","","","","","","","","","","","","","","","","","",""
"null","","html-keyboard-response","116","952701","0.0-114.0","AFWSBV2NPWTCG","<p style=""font-size: 48px;"">+</p>","","","","","null","allTrialResponses","500","1","10","img_art/6.jpg","31","This looks like a bird in a dessert ","Charles,Thomas,Scott,Andrew,Dustin,John","It's pretty dour,-10,100,20","I like the color and the gradient,10,220,20","reminds me of a bird,31,20,20","Reminds me of my friend's bird,21,160,20","I like the warmth of the orange. But, I feel like it's a partial view. I'm frustrated I can't see the entirety.,-20,20,20","It makes me stop and think about what the artist is trying to say.It creates a feeling of solitude and tranqulity,30,120,20","Andrew","Reminds me of my friend's bird,21,160,20","John","It makes me stop and think about what the artist is trying to say.It creates a feeling of solitude and tranqulity,30,120,20","Scott","reminds me of a bird,31,20,20","3"
"11520","","survey-text","117","964232","0.0-115.0-0.0","AFWSBV2NPWTCG","","","","{""Q0"":""our""}","","","","","","","","","","","","","","","","","","","","","","",""
"27769","","survey-text","118","992004","0.0-116.0-0.0","AFWSBV2NPWTCG","","","","{""Q0"":""It makes me think of a house with a tree""}","","","","","","","","","","","","","","","","","","","","","","",""
"4333.200000047684","","image-slider-response","119","996340","0.0-117.0","AFWSBV2NPWTCG","","","","","25","","","","","","","","","","","","","","","","","","","","","",""
"4020","","image-button-response","120","1001344","0.0-118.0","AFWSBV2NPWTCG","img_art/26.jpg","3","","","","","","","","","","","","","","","","","","","","","","","","",""
"2809","","image-button-response","121","1004157","0.0-119.0","AFWSBV2NPWTCG","img_art/26.jpg","5","","","","","","","","","","","","","","","","","","","","","","","","",""
"3315","","image-button-response","122","1007475","0.0-120.0-0.0","AFWSBV2NPWTCG","img_art/26.jpg","2","","","","","","","","","","","","","","","","","","","","","","","","",""
"1834","","image-button-response","123","1009312","0.0-121.0-0.0","AFWSBV2NPWTCG","img_art/26.jpg","3","","","","","","","","","","","","","","","","","","","","","","","","",""
"null","","html-keyboard-response","124","1010314","0.0-122.0","AFWSBV2NPWTCG","<p style=""font-size: 48px;"">+</p>","","","","","null","allTrialResponses","1000","1","11","img_art/26.jpg","25","It makes me think of a house with a tree","Travis,Seth,Scott,Andrew,Nathaniel,John","Neutral...nothing to say.,3,260,20","I'm not sure if this is the image of a furniture store or not.,-20,60,20","nothing really special, quite bland,1,20,20","Makes me want to walk down a cool street,20,160,20","Too blocky and unfocused. It's like the inside of a house, and the outside.,-24,220,20","Its pretty.And a nice use of water colors.,25,120,20","John","Its pretty.And a nice use of water colors.,25,120,20","Scott","nothing really special, quite bland,1,20,20","Andrew","Makes me want to walk down a cool street,20,160,20","3"
"24850","","survey-text","125","1035171","0.0-123.0-0.0","AFWSBV2NPWTCG","","","","{""Q0"":""All I see is dirt""}","","","","","","","","","","","","","","","","","","","","","","",""
"4334.699999809265","","image-slider-response","126","1039509","0.0-124.0","AFWSBV2NPWTCG","","","","","-34","","","","","","","","","","","","","","","","","","","","","",""
"null","","image-button-response","127","1044512","0.0-125.0","AFWSBV2NPWTCG","img_art/7.jpg","null","","","","","","","","","","","","","","","","","","","","","","","","",""
"4198","","image-button-response","128","1048714","0.0-126.0","AFWSBV2NPWTCG","img_art/7.jpg","5","","","","","","","","","","","","","","","","","","","","","","","","",""
"3671","","image-button-response","129","1052388","0.0-127.0-0.0","AFWSBV2NPWTCG","img_art/7.jpg","2","","","","","","","","","","","","","","","","","","","","","","","","",""
"9772","","image-button-response","130","1062163","0.0-128.0-0.0","AFWSBV2NPWTCG","img_art/7.jpg","1","","","","","","","","","","","","","","","","","","","","","","","","",""
"null","","html-keyboard-response","131","1062678","0.0-129.0","AFWSBV2NPWTCG","<p style=""font-size: 48px;"">+</p>","","","","","null","allTrialResponses","500","1","12","img_art/7.jpg","-34","All I see is dirt","Alex,Taylor,Scott,Andrew,Carlos,John","Hmm interesting, looks like mars or something terrestrial. Too abstract for me and too much brown,4,100,20","Looks like a photo taken from the moon.,-6,200,20","I don't like the texture,-49,20,20","It makes me think of new archaeology discoveries,15,160,20","The dried bottom of a puddle in July.,-41,80,20","It looks like someone took a picture of a muddy ground and called it art.,-41,120,20","John","It looks like someone took a picture of a muddy ground and called it art.,-41,120,20","Scott","I don't like the texture,-49,20,20","Taylor","Looks like a photo taken from the moon.,-6,200,20","3"
"18872","","survey-text","132","1081557","0.0-130.0-0.0","AFWSBV2NPWTCG","","","","{""Q0"":""It makes me think of a dark place""}","","","","","","","","","","","","","","","","","","","","","","",""
"4676.200000047684","","image-slider-response","133","1086236","0.0-131.0","AFWSBV2NPWTCG","","","","","-37","","","","","","","","","","","","","","","","","","","","","",""
"null","","image-button-response","134","1091240","0.0-132.0","AFWSBV2NPWTCG","img_art/28.jpg","null","","","","","","","","","","","","","","","","","","","","","","","","",""
"5926","","image-button-response","135","1097168","0.0-133.0","AFWSBV2NPWTCG","img_art/28.jpg","2","","","","","","","","","","","","","","","","","","","","","","","","",""
"3171","","image-button-response","136","1100343","0.0-134.0-0.0","AFWSBV2NPWTCG","img_art/28.jpg","1","","","","","","","","","","","","","","","","","","","","","","","","",""
"1890","","image-button-response","137","1102237","0.0-135.0-0.0","AFWSBV2NPWTCG","img_art/28.jpg","5","","","","","","","","","","","","","","","","","","","","","","","","",""
"null","","html-keyboard-response","138","1102740","0.0-136.0","AFWSBV2NPWTCG","<p style=""font-size: 48px;"">+</p>","","","","","null","allTrialResponses","500","1","13","img_art/28.jpg","-37","It makes me think of a dark place","Bryce,Taylor,Scott,Jack,Brett,John","It gives me weird vibes.,-25,20,20","Bug meets bug in a dark alley.,-20,200,20","I don't like the color choice,-30,20,20","looks like humanoid figures in distress. I like it, but makes me slightly uncomfortable,35,320,20","Overpopulated city,35,360,20","Not a fan of the bleak and dreary colors,-10,120,20","Scott","I don't like the color choice,-30,20,20","Taylor","Bug meets bug in a dark alley.,-20,200,20","John","Not a fan of the bleak and dreary colors,-10,120,20","3"
"14266","","survey-text","139","1117014","0.0-137.0-0.0","AFWSBV2NPWTCG","","","","{""Q0"":""don't like the colors""}","","","","","","","","","","","","","","","","","","","","","","",""
"4570.599999904633","","image-slider-response","140","1121587","0.0-138.0","AFWSBV2NPWTCG","","","","","-41","","","","","","","","","","","","","","","","","","","","","",""
"4739","","image-button-response","141","1126591","0.0-139.0","AFWSBV2NPWTCG","img_art/2.jpg","2","","","","","","","","","","","","","","","","","","","","","","","","",""
"1962","","image-button-response","142","1128556","0.0-140.0","AFWSBV2NPWTCG","img_art/2.jpg","4","","","","","","","","","","","","","","","","","","","","","","","","",""
"3620","","image-button-response","143","1132179","0.0-141.0-0.0","AFWSBV2NPWTCG","img_art/2.jpg","1","","","","","","","","","","","","","","","","","","","","","","","","",""
"2810","","image-button-response","144","1134993","0.0-142.0-0.0","AFWSBV2NPWTCG","img_art/2.jpg","2","","","","","","","","","","","","","","","","","","","","","","","","",""
"null","","html-keyboard-response","145","1136502","0.0-143.0","AFWSBV2NPWTCG","<p style=""font-size: 48px;"">+</p>","","","","","null","allTrialResponses","1500","1","14","img_art/2.jpg","-41","don't like the colors","Kevin,Taylor,Scott,Lucas,Elijah,John","That looks look a cartoon character of some kind.,11,320,20","Have now advanced from kindergarten to the first grade.,-5,200,20","looks like a child's artwork,-40,20,20","Colorful, curious.,20,380,20","It's just a splash of paint on a canvas,-31,80,20","Its meh. Doesnt illicit any strong feelings in me,1,120,20","Elijah","It's just a splash of paint on a canvas,-31,80,20","Taylor","Have now advanced from kindergarten to the first grade.,-5,200,20","Scott","looks like a child's artwork,-40,20,20","3"
"14579","","survey-text","146","1151089","0.0-144.0-0.0","AFWSBV2NPWTCG","","","","{""Q0"":""looks spokey""}","","","","","","","","","","","","","","","","","","","","","","",""
"8020.299999952316","","image-slider-response","147","1159112","0.0-145.0","AFWSBV2NPWTCG","","","","","17","","","","","","","","","","","","","","","","","","","","","",""
"null","","image-button-response","148","1164117","0.0-146.0","AFWSBV2NPWTCG","img_art/25.jpg","null","","","","","","","","","","","","","","","","","","","","","","","","",""
"2419","","image-button-response","149","1166538","0.0-147.0","AFWSBV2NPWTCG","img_art/25.jpg","4","","","","","","","","","","","","","","","","","","","","","","","","",""
"4909","","image-button-response","150","1171449","0.0-148.0-0.0","AFWSBV2NPWTCG","img_art/25.jpg","2","","","","","","","","","","","","","","","","","","","","","","","","",""
"3121","","image-button-response","151","1174573","0.0-149.0-0.0","AFWSBV2NPWTCG","img_art/25.jpg","0","","","","","","","","","","","","","","","","","","","","","","","","",""
"null","","html-keyboard-response","152","1175575","0.0-150.0","AFWSBV2NPWTCG","<p style=""font-size: 48px;"">+</p>","","","","","null","allTrialResponses","1000","1","15","img_art/25.jpg","17","looks spokey","Cole,Taylor,Scott,Caleb,Elijah,Mark","Its scary. It looks like someone overlooking hell,-34,200,20","Wish I was that thin.,-5,200,20","reminds me of a zombie,-36,20,20","Very cool color, very clear message!,50,40,20","Makes me feel intrigued,13,80,20","Looks like Burning Man, dont care for the colors.,-5,80,20","Elijah","Makes me feel intrigued,13,80,20","Scott","reminds me of a zombie,-36,20,20","Cole","Its scary. It looks like someone overlooking hell,-34,200,20","3"
"6104","","survey-text","153","1181693","0.0-151.0-0.0","AFWSBV2NPWTCG","","","","{""Q0"":""course""}","","","","","","","","","","","","","","","","","","","","","","",""
"9972","","survey-text","154","1191667","0.0-152.0-0.0","AFWSBV2NPWTCG","","","","{""Q0"":""Make me think of blood""}","","","","","","","","","","","","","","","","","","","","","","",""
"4496.399999856949","","image-slider-response","155","1196166","0.0-153.0","AFWSBV2NPWTCG","","","","","-50","","","","","","","","","","","","","","","","","","","","","",""
"4875","","image-button-response","156","1201186","0.0-154.0","AFWSBV2NPWTCG","img_art/3.jpg","3","","","","","","","","","","","","","","","","","","","","","","","","",""
"10839","","image-button-response","157","1212028","0.0-155.0","AFWSBV2NPWTCG","img_art/3.jpg","1","","","","","","","","","","","","","","","","","","","","","","","","",""
"5456","","image-button-response","158","1217489","0.0-156.0-0.0","AFWSBV2NPWTCG","img_art/3.jpg","5","","","","","","","","","","","","","","","","","","","","","","","","",""
"3128","","image-button-response","159","1220621","0.0-157.0-0.0","AFWSBV2NPWTCG","img_art/3.jpg","4","","","","","","","","","","","","","","","","","","","","","","","","",""
"null","","html-keyboard-response","160","1221126","0.0-158.0","AFWSBV2NPWTCG","<p style=""font-size: 48px;"">+</p>","","","","","null","allTrialResponses","500","1","16","img_art/3.jpg","-50","Make me think of blood","Cole,Jeremy,Scott,Jose,Elijah,Justin","Sharp peaks look like sharp teeth,-37,200,20","seems too angry,-50,60,20","I like that it's messy,14,20,20","Too much red! Reminds me of blood. I hate blood.,-34,200,20","Somebody scribbled on a piece of paper,-35,80,20","I don't care for art that looks like it was just scribbled.,-19,280,20","Jeremy","seems too angry,-50,60,20","Justin","I don't care for art that looks like it was just scribbled.,-19,280,20","Elijah","Somebody scribbled on a piece of paper,-35,80,20","3"
"30517","","survey-text","161","1251649","0.0-159.0-0.0","AFWSBV2NPWTCG","","","","{""Q0"":""I think of a busy apartment complex""}","","","","","","","","","","","","","","","","","","","","","","",""
"5335.799999952316","","image-slider-response","162","1256988","0.0-160.0","AFWSBV2NPWTCG","","","","","10","","","","","","","","","","","","","","","","","","","","","",""
"null","","image-button-response","163","1261991","0.0-161.0","AFWSBV2NPWTCG","img_art/12.jpg","null","","","","","","","","","","","","","","","","","","","","","","","","",""
"7109","","image-button-response","164","1269103","0.0-162.0","AFWSBV2NPWTCG","img_art/12.jpg","1","","","","","","","","","","","","","","","","","","","","","","","","",""
"2536","","image-button-response","165","1271642","0.0-163.0-0.0","AFWSBV2NPWTCG","img_art/12.jpg","2","","","","","","","","","","","","","","","","","","","","","","","","",""
"1456","","image-button-response","166","1273101","0.0-164.0-0.0","AFWSBV2NPWTCG","img_art/12.jpg","4","","","","","","","","","","","","","","","","","","","","","","","","",""
"null","","html-keyboard-response","167","1274103","0.0-165.0","AFWSBV2NPWTCG","<p style=""font-size: 48px;"">+</p>","","","","","null","allTrialResponses","1000","1","17","img_art/12.jpg","10","I think of a busy apartment complex","Adam,Jeremy,Corey,James,Elijah,Justin","Minimalist colors and shapes.,-5,40,20","do not like it. Seems too busy,-10,60,20","I like the bottom half and hate the top half,7,260,20","Don't like it or despise it,1,380,20","It makes me feel confused,-15,80,20","Too blocky and not interesting enough.,-15,280,20","Jeremy","do not like it. Seems too busy,-10,60,20","Corey","I like the bottom half and hate the top half,7,260,20","Elijah","It makes me feel confused,-15,80,20","3"
"25388","","survey-text","168","1299499","0.0-166.0-0.0","AFWSBV2NPWTCG","","","","{""Q0"":""black pool""}","","","","","","","","","","","","","","","","","","","","","","",""
"4453.299999952316","","image-slider-response","169","1303954","0.0-167.0","AFWSBV2NPWTCG","","","","","-26","","","","","","","","","","","","","","","","","","","","","",""
"null","","image-button-response","170","1308963","0.0-168.0","AFWSBV2NPWTCG","img_art/29.jpg","null","","","","","","","","","","","","","","","","","","","","","","","","",""
"3417","","image-button-response","171","1312383","0.0-169.0","AFWSBV2NPWTCG","img_art/29.jpg","3","","","","","","","","","","","","","","","","","","","","","","","","",""
"4630","","image-button-response","172","1317016","0.0-170.0-0.0","AFWSBV2NPWTCG","img_art/29.jpg","2","","","","","","","","","","","","","","","","","","","","","","","","",""
"5043","","image-button-response","173","1322063","0.0-171.0-0.0","AFWSBV2NPWTCG","img_art/29.jpg","1","","","","","","","","","","","","","","","","","","","","","","","","",""
"null","","html-keyboard-response","174","1323576","0.0-172.0","AFWSBV2NPWTCG","<p style=""font-size: 48px;"">+</p>","","","","","null","allTrialResponses","1500","1","18","img_art/29.jpg","-26","black pool","Connor,Jeremy,Corey,Paul,Elijah,Nicholas","Red X is scary, like the bricks,7,240,20","unhappy. Looking at this all the time would depress me.,-11,60,20","this does nothing for me. hate the colors. hate the design,-50,260,20","There's too much black and it looks sloppy,-35,300,20","Makes me feel untidy,-9,80,20","I love this things almost hidden in it like paint brush and other details,50,240,20","Paul","There's too much black and it looks sloppy,-35,300,20","Corey","this does nothing for me. hate the colors. hate the design,-50,260,20","Jeremy","unhappy. Looking at this all the time would depress me.,-11,60,20","3"
"25972","","survey-text","175","1349556","0.0-173.0-0.0","AFWSBV2NPWTCG","","","","{""Q0"":""looks like kids painting""}","","","","","","","","","","","","","","","","","","","","","","",""
"8589","","image-slider-response","176","1358147","0.0-174.0","AFWSBV2NPWTCG","","","","","-41","","","","","","","","","","","","","","","","","","","","","",""
"4755","","image-button-response","177","1363160","0.0-175.0","AFWSBV2NPWTCG","img_art/4.jpg","3","","","","","","","","","","","","","","","","","","","","","","","","",""
"1744","","image-button-response","178","1364907","0.0-176.0","AFWSBV2NPWTCG","img_art/4.jpg","3","","","","","","","","","","","","","","","","","","","","","","","","",""
"2679","","image-button-response","179","1367590","0.0-177.0-0.0","AFWSBV2NPWTCG","img_art/4.jpg","4","","","","","","","","","","","","","","","","","","","","","","","","",""
"6800","","image-button-response","180","1374394","0.0-178.0-0.0","AFWSBV2NPWTCG","img_art/4.jpg","5","","","","","","","","","","","","","","","","","","","","","","","","",""
"null","","html-keyboard-response","181","1374910","0.0-179.0","AFWSBV2NPWTCG","<p style=""font-size: 48px;"">+</p>","","","","","null","allTrialResponses","500","1","19","img_art/4.jpg","-41","looks like kids painting","Derek,Jeremy,Corey,Paul,Miguel,Christopher","A bit too plain for my tastes,-10,360,20","the colors are calming,31,60,20","doesn't do anything for me,-4,260,20","The dark yellow color makes me think of mustard, which I dislike,-27,300,20","I don't like murky colors.,-40,160,20","too many red/yellow shades, its impact without a reason,-27,160,20","Paul","The dark yellow color makes me think of mustard, which I dislike,-27,300,20","Miguel","I don't like murky colors.,-40,160,20","Christopher","too many red/yellow shades, its impact without a reason,-27,160,20","3"
"12303","","survey-text","182","1387220","0.0-180.0-0.0","AFWSBV2NPWTCG","","","","{""Q0"":""makes me think of rain""}","","","","","","","","","","","","","","","","","","","","","","",""
"6335","","image-slider-response","183","1393558","0.0-181.0","AFWSBV2NPWTCG","","","","","-50","","","","","","","","","","","","","","","","","","","","","",""
"2752","","image-button-response","184","1398561","0.0-182.0","AFWSBV2NPWTCG","img_art/13.jpg","4","","","","","","","","","","","","","","","","","","","","","","","","",""
"1414","","image-button-response","185","1399979","0.0-183.0","AFWSBV2NPWTCG","img_art/13.jpg","4","","","","","","","","","","","","","","","","","","","","","","","","",""
"3301","","image-button-response","186","1403282","0.0-184.0-0.0","AFWSBV2NPWTCG","img_art/13.jpg","5","","","","","","","","","","","","","","","","","","","","","","","","",""
"4443","","image-button-response","187","1407728","0.0-185.0-0.0","AFWSBV2NPWTCG","img_art/13.jpg","2","","","","","","","","","","","","","","","","","","","","","","","","",""
"null","","html-keyboard-response","188","1408736","0.0-186.0","AFWSBV2NPWTCG","<p style=""font-size: 48px;"">+</p>","","","","","null","allTrialResponses","1000","1","20","img_art/13.jpg","-50","makes me think of rain","Shawn,Brendan,Jared,Paul,Miguel,Christopher","Industrial Jackson Pollock knock-off,-20,100,20","its crazy to the point that i cant get it,-28,340,20","the blues are soothing but the splatters are too much,-3,400,20","It's like any other splatter paint art piece, nothing special,1,300,20","Nice color abstractions.,21,160,20","this is an appealing mix of textures to me and the color scheme is harmonious,36,160,20","Miguel","Nice color abstractions.,21,160,20","Christopher","this is an appealing mix of textures to me and the color scheme is harmonious,36,160,20","Jared","the blues are soothing but the splatters are too much,-3,400,20","3"
"7270","","survey-text","189","1416021","0.0-187.0-0.0","AFWSBV2NPWTCG","","","","{""Q0"":""We""}","","","","","","","","","","","","","","","","","","","","","","",""
"3713","","survey-text","190","1424813","0.0-187.1-0.1","AFWSBV2NPWTCG","","","","{""Q0"":""we""}","","","","","","","","","","","","","","","","","","","","","","",""
"16238","","survey-text","191","1441054","0.0-188.0-0.0","AFWSBV2NPWTCG","","","","{""Q0"":""love the colors""}","","","","","","","","","","","","","","","","","","","","","","",""
"4959.799999952316","","image-slider-response","192","1446016","0.0-189.0","AFWSBV2NPWTCG","","","","","-27","","","","","","","","","","","","","","","","","","","","","",""
"null","","image-button-response","193","1451025","0.0-190.0","AFWSBV2NPWTCG","img_art/30.jpg","null","","","","","","","","","","","","","","","","","","","","","","","","",""
"2113","","image-button-response","194","1453141","0.0-191.0","AFWSBV2NPWTCG","img_art/30.jpg","0","","","","","","","","","","","","","","","","","","","","","","","","",""
"4265","","image-button-response","195","1457409","0.0-192.0-0.0","AFWSBV2NPWTCG","img_art/30.jpg","0","","","","","","","","","","","","","","","","","","","","","","","","",""
"982","","image-button-response","196","1463967","0.0-192.1-0.1","AFWSBV2NPWTCG","img_art/30.jpg","1","","","","","","","","","","","","","","","","","","","","","","","","",""
"1384","","image-button-response","197","1465354","0.0-193.0-0.0","AFWSBV2NPWTCG","img_art/30.jpg","2","","","","","","","","","","","","","","","","","","","","","","","","",""
"null","","html-keyboard-response","198","1466356","0.0-194.0","AFWSBV2NPWTCG","<p style=""font-size: 48px;"">+</p>","","","","","null","allTrialResponses","1000","1","21","img_art/30.jpg","-27","love the colors","Ryan,Jesus,Jared,Colton,Miguel,Christopher","Love how the red stands out,20,380,20","I like the forefront design.,10,100,20","i dont like how the colors are mixed,-6,400,20","too segmented, looks sloppy,-37,220,20","Absolutely messy,-31,160,20","looks simple, I can't see a lot of care going into this,-33,160,20","Ryan","Love how the red stands out,20,380,20","Jesus","I like the forefront design.,10,100,20","Jared","i dont like how the colors are mixed,-6,400,20","6"
"27502","","survey-text","199","1493867","0.0-195.0-0.0","AFWSBV2NPWTCG","","","","{""Q0"":""reminds me of space and earth is in the center""}","","","","","","","","","","","","","","","","","","","","","","",""
"5801.599999904633","","image-slider-response","200","1499672","0.0-196.0","AFWSBV2NPWTCG","","","","","-18","","","","","","","","","","","","","","","","","","","","","",""
"null","","image-button-response","201","1504675","0.0-197.0","AFWSBV2NPWTCG","img_art/22.jpg","null","","","","","","","","","","","","","","","","","","","","","","","","",""
"3280","","image-button-response","202","1507959","0.0-198.0","AFWSBV2NPWTCG","img_art/22.jpg","5","","","","","","","","","","","","","","","","","","","","","","","","",""
"3242","","image-button-response","203","1511205","0.0-199.0-0.0","AFWSBV2NPWTCG","img_art/22.jpg","3","","","","","","","","","","","","","","","","","","","","","","","","",""
"1571","","image-button-response","204","1512780","0.0-200.0-0.0","AFWSBV2NPWTCG","img_art/22.jpg","0","","","","","","","","","","","","","","","","","","","","","","","","",""
"null","","html-keyboard-response","205","1513782","0.0-201.0","AFWSBV2NPWTCG","<p style=""font-size: 48px;"">+</p>","","","","","null","allTrialResponses","1000","1","22","img_art/22.jpg","-18","reminds me of space and earth is in the center","Ryan,Jesus,Jared,Luis,Michael,Noah","Very generic, seen many times before,-43,380,20","Different shapes within the image make it interesting to look at,20,100,20","colorful. but not much happening,1,400,20","Just not feeling it,-19,400,20","There is some flow and organization.,10,140,20","displeasure - not a fan of the colour or the shapes,-18,260,20","Noah","displeasure - not a fan of the colour or the shapes,-18,260,20","Luis","Just not feeling it,-19,400,20","Ryan","Very generic, seen many times before,-43,380,20","6"
"12243","","survey-text","206","1526034","0.0-202.0-0.0","AFWSBV2NPWTCG","","","","{""Q0"":""kids drawing""}","","","","","","","","","","","","","","","","","","","","","","",""
"4359.799999952316","","image-slider-response","207","1530397","0.0-203.0","AFWSBV2NPWTCG","","","","","-28","","","","","","","","","","","","","","","","","","","","","",""
"null","","image-button-response","208","1535400","0.0-204.0","AFWSBV2NPWTCG","img_art/27.jpg","null","","","","","","","","","","","","","","","","","","","","","","","","",""
"2289","","image-button-response","209","1537692","0.0-205.0","AFWSBV2NPWTCG","img_art/27.jpg","1","","","","","","","","","","","","","","","","","","","","","","","","",""
"4577","","image-button-response","210","1542272","0.0-206.0-0.0","AFWSBV2NPWTCG","img_art/27.jpg","5","","","","","","","","","","","","","","","","","","","","","","","","",""
"3086","","image-button-response","211","1545361","0.0-207.0-0.0","AFWSBV2NPWTCG","img_art/27.jpg","2","","","","","","","","","","","","","","","","","","","","","","","","",""
"null","","html-keyboard-response","212","1545868","0.0-208.0","AFWSBV2NPWTCG","<p style=""font-size: 48px;"">+</p>","","","","","null","allTrialResponses","500","1","23","img_art/27.jpg","-28","kids drawing","Ryan,Grant,Chase,Luis,Vincent,Noah","I love the childish aspect to it,37,380,20","This feels like I'm looking at a child's scribbles.,-27,200,20","I don't really see anything to this art.,-5,120,20","Love the representation of home,22,400,20","A beautiful day full of Hope and Inspiritation. The warmth of hot cocoa with the family gathering around,33,360,20","I generally enjoy the style, but I'm finding the green lines grating,-9,260,20","Grant","This feels like I'm looking at a child's scribbles.,-27,200,20","Noah","I generally enjoy the style, but I'm finding the green lines grating,-9,260,20","Chase","I don't really see anything to this art.,-5,120,20","6"
"20489","","survey-text","213","1566365","0.0-209.0-0.0","AFWSBV2NPWTCG","","","","{""Q0"":""makes me think of being in fire""}","","","","","","","","","","","","","","","","","","","","","","",""
"5603.700000047684","","image-slider-response","214","1571972","0.0-210.0","AFWSBV2NPWTCG","","","","","-38","","","","","","","","","","","","","","","","","","","","","",""
"null","","image-button-response","215","1576976","0.0-211.0","AFWSBV2NPWTCG","img_art/1.jpg","null","","","","","","","","","","","","","","","","","","","","","","","","",""
"3477","","image-button-response","216","1580457","0.0-212.0","AFWSBV2NPWTCG","img_art/1.jpg","5","","","","","","","","","","","","","","","","","","","","","","","","",""
"5427","","image-button-response","217","1585887","0.0-213.0-0.0","AFWSBV2NPWTCG","img_art/1.jpg","2","","","","","","","","","","","","","","","","","","","","","","","","",""
"4225","","image-button-response","218","1590116","0.0-214.0-0.0","AFWSBV2NPWTCG","img_art/1.jpg","3","","","","","","","","","","","","","","","","","","","","","","","","",""
"null","","html-keyboard-response","219","1591629","0.0-215.0","AFWSBV2NPWTCG","<p style=""font-size: 48px;"">+</p>","","","","","null","allTrialResponses","1500","1","24","img_art/1.jpg","-38","makes me think of being in fire","Anthony,Grant,Chase,Kenneth,Richard,Noah","Bright and colorful without being overpowering,32,200,20","The use of reds, blues, and yellows together reminds me of fire. Very interesting to look at.,40,200,20","It's alright but lacks any depth.,-5,120,20","I love colorful photos and I like this one a lot.,25,300,20","nice piece, fall like,31,340,20","the bright colours evoke the 90s, and not their best part,-10,260,20","Noah","the bright colours evoke the 90s, and not their best part,-10,260,20","Chase","It's alright but lacks any depth.,-5,120,20","Kenneth","I love colorful photos and I like this one a lot.,25,300,20","6"
"20408","","survey-text","220","1612044","0.0-216.0-0.0","AFWSBV2NPWTCG","","","","{""Q0"":""world is falling apart""}","","","","","","","","","","","","","","","","","","","","","","",""
"4640.099999904633","","image-slider-response","221","1616687","0.0-217.0","AFWSBV2NPWTCG","","","","","-26","","","","","","","","","","","","","","","","","","","","","",""
"null","","image-button-response","222","1621691","0.0-218.0","AFWSBV2NPWTCG","img_art/23.jpg","null","","","","","","","","","","","","","","","","","","","","","","","","",""
"4247","","image-button-response","223","1625941","0.0-219.0","AFWSBV2NPWTCG","img_art/23.jpg","2","","","","","","","","","","","","","","","","","","","","","","","","",""
"3676","","image-button-response","224","1629622","0.0-220.0-0.0","AFWSBV2NPWTCG","img_art/23.jpg","4","","","","","","","","","","","","","","","","","","","","","","","","",""
"2211","","image-button-response","225","1631836","0.0-221.0-0.0","AFWSBV2NPWTCG","img_art/23.jpg","5","","","","","","","","","","","","","","","","","","","","","","","","",""
"null","","html-keyboard-response","226","1632839","0.0-222.0","AFWSBV2NPWTCG","<p style=""font-size: 48px;"">+</p>","","","","","null","allTrialResponses","1000","1","25","img_art/23.jpg","-26","world is falling apart","Cody,Angel,Chase,Kenneth,Nathan,Noah","Love the use of colors and light,50,180,20","I feel positive community and comfort. Singing along at a concert, united with a bunch of strangers through shared joy.,20,180,20","It's kind of neat with the white slash marks.,13,120,20","Love this. I love the white, really pops with the colors surrounding it.,44,300,20","While I don't normally enjoy these color schemes all together, I kind of like this one,10,200,20","the pattern of colours imbues in me a sense of infinity, which I find soothing,10,260,20","Chase","It's kind of neat with the white slash marks.,13,120,20","Nathan","While I don't normally enjoy these color schemes all together, I kind of like this one,10,200,20","Noah","the pattern of colours imbues in me a sense of infinity, which I find soothing,10,260,20","6"
"4780","","survey-text","227","1637634","0.0-223.0-0.0","AFWSBV2NPWTCG","","","","{""Q0"":""table""}","","","","","","","","","","","","","","","","","","","","","","",""
"20976","","survey-text","228","1658614","0.0-224.0-0.0","AFWSBV2NPWTCG","","","","{""Q0"":""reminds me of a lemon""}","","","","","","","","","","","","","","","","","","","","","","",""
"4326.099999904633","","image-slider-response","229","1662942","0.0-225.0","AFWSBV2NPWTCG","","","","","29","","","","","","","","","","","","","","","","","","","","","",""
"null","","image-button-response","230","1667959","0.0-226.0","AFWSBV2NPWTCG","img_art/5.jpg","null","","","","","","","","","","","","","","","","","","","","","","","","",""
"4599","","image-button-response","231","1672561","0.0-227.0","AFWSBV2NPWTCG","img_art/5.jpg","1","","","","","","","","","","","","","","","","","","","","","","","","",""
"2596","","image-button-response","232","1675161","0.0-228.0-0.0","AFWSBV2NPWTCG","img_art/5.jpg","4","","","","","","","","","","","","","","","","","","","","","","","","",""
"1490","","image-button-response","233","1676654","0.0-229.0-0.0","AFWSBV2NPWTCG","img_art/5.jpg","0","","","","","","","","","","","","","","","","","","","","","","","","",""
"null","","html-keyboard-response","234","1677160","0.0-230.0","AFWSBV2NPWTCG","<p style=""font-size: 48px;"">+</p>","","","","","null","allTrialResponses","500","1","26","img_art/5.jpg","29","reminds me of a lemon","Jacob,Patrick,Chase,Alexis,Nathan,Noah","Don't really know the point of this one.,-11,340,20","It looks random,-10,280,20","Seems very basic and uninteresting.,-15,120,20","I am confused as to what this is supposed to be,6,140,20","Not a fan of the themes,-30,200,20","this feels like something I should like, but I'm not feeling the execution,-10,260,20","Patrick","It looks random,-10,280,20","Nathan","Not a fan of the themes,-30,200,20","Jacob","Don't really know the point of this one.,-11,340,20","6"
"27575","","survey-text","235","1704745","0.0-231.0-0.0","AFWSBV2NPWTCG","","","","{""Q0"":""reminds me of war""}","","","","","","","","","","","","","","","","","","","","","","",""
"5262.700000047684","","image-slider-response","236","1710010","0.0-232.0","AFWSBV2NPWTCG","","","","","-24","","","","","","","","","","","","","","","","","","","","","",""
"null","","image-button-response","237","1715014","0.0-233.0","AFWSBV2NPWTCG","img_art/18.jpg","null","","","","","","","","","","","","","","","","","","","","","","","","",""
"4607","","image-button-response","238","1719624","0.0-234.0","AFWSBV2NPWTCG","img_art/18.jpg","5","","","","","","","","","","","","","","","","","","","","","","","","",""
"4808","","image-button-response","239","1724435","0.0-235.0-0.0","AFWSBV2NPWTCG","img_art/18.jpg","2","","","","","","","","","","","","","","","","","","","","","","","","",""
"4411","","image-button-response","240","1728849","0.0-236.0-0.0","AFWSBV2NPWTCG","img_art/18.jpg","4","","","","","","","","","","","","","","","","","","","","","","","","",""
"null","","html-keyboard-response","241","1729851","0.0-237.0","AFWSBV2NPWTCG","<p style=""font-size: 48px;"">+</p>","","","","","null","allTrialResponses","1000","1","27","img_art/18.jpg","-24","reminds me of war","Jacob,Patrick,Devin,Austin,Nathan,Evan","I think this looks pretty cool, I can see what's kind of going on here.,22,340,20","Too abstract and swirly,-21,280,20","Good concept but then scribbled on a bit?,15,380,20","Nice abstract art,50,240,20","Doesn't really speak to me well but I can appreciate it,10,200,20","This brings to mind the four horsemen of the apocalypse,8,140,20","Evan","This brings to mind the four horsemen of the apocalypse,8,140,20","Devin","Good concept but then scribbled on a bit?,15,380,20","Nathan","Doesn't really speak to me well but I can appreciate it,10,200,20","6"
"21871","","survey-text","242","1751732","0.0-238.0-0.0","AFWSBV2NPWTCG","","","","{""Q0"":""reminds me of tent and being in the forest""}","","","","","","","","","","","","","","","","","","","","","","",""
"4803.700000047684","","image-slider-response","243","1756539","0.0-239.0","AFWSBV2NPWTCG","","","","","19","","","","","","","","","","","","","","","","","","","","","",""
"null","","image-button-response","244","1761542","0.0-240.0","AFWSBV2NPWTCG","img_art/9.jpg","null","","","","","","","","","","","","","","","","","","","","","","","","",""
"10887","","image-button-response","245","1772432","0.0-241.0","AFWSBV2NPWTCG","img_art/9.jpg","2","","","","","","","","","","","","","","","","","","","","","","","","",""
"2978","","image-button-response","246","1775413","0.0-242.0-0.0","AFWSBV2NPWTCG","img_art/9.jpg","1","","","","","","","","","","","","","","","","","","","","","","","","",""
"2644","","image-button-response","247","1778062","0.0-243.0-0.0","AFWSBV2NPWTCG","img_art/9.jpg","5","","","","","","","","","","","","","","","","","","","","","","","","",""
"null","","html-keyboard-response","248","1778564","0.0-244.0","AFWSBV2NPWTCG","<p style=""font-size: 48px;"">+</p>","","","","","null","allTrialResponses","500","1","28","img_art/9.jpg","19","reminds me of tent and being in the forest","Ian,William,Devin,Trevor,Nathan,Evan","It looks like someone gave a kid a coloring book page but the colors are soothing and look put together and elegant,27,260,20","reminds me of a story book,18,380,20","I really like the colors and details.,8,380,20","nice colors but it looks like it's from the 80s,10,280,20","Looks like a child's drawing,-40,200,20","It makes me think of Snow White sleeping,11,140,20","Devin","I really like the colors and details.,8,380,20","William","reminds me of a story book,18,380,20","Evan","It makes me think of Snow White sleeping,11,140,20","6"
"20451","","survey-text","249","1799025","0.0-245.0-0.0","AFWSBV2NPWTCG","","","","{""Q0"":""reminds me of Egypt ""}","","","","","","","","","","","","","","","","","","","","","","",""
"5938","","image-slider-response","250","1804966","0.0-246.0","AFWSBV2NPWTCG","","","","","48","","","","","","","","","","","","","","","","","","","","","",""
"null","","image-button-response","251","1809979","0.0-247.0","AFWSBV2NPWTCG","img_art/8.jpg","null","","","","","","","","","","","","","","","","","","","","","","","","",""
"9520","","image-button-response","252","1819502","0.0-248.0","AFWSBV2NPWTCG","img_art/8.jpg","3","","","","","","","","","","","","","","","","","","","","","","","","",""
"4311","","image-button-response","253","1823816","0.0-249.0-0.0","AFWSBV2NPWTCG","img_art/8.jpg","0","","","","","","","","","","","","","","","","","","","","","","","","",""
"5092","","image-button-response","254","1828911","0.0-250.0-0.0","AFWSBV2NPWTCG","img_art/8.jpg","2","","","","","","","","","","","","","","","","","","","","","","","","",""
"null","","html-keyboard-response","255","1830416","0.0-251.0","AFWSBV2NPWTCG","<p style=""font-size: 48px;"">+</p>","","","","","null","allTrialResponses","1500","1","29","img_art/8.jpg","48","reminds me of Egypt ","Garrett,William,Devin,Isaac,Victor,Evan","I like that it looks like a city and the way the shapes and colors are put together,40,180,20","makes me think of a busy city,-18,380,20","Very nice detail and colors!,10,380,20","It looks like it took a lot of time to complete.,34,280,20","I like the colors,10,340,20","I can't tell if this is supposed to portray just city life or a town crumbling,-5,140,20","Isaac","It looks like it took a lot of time to complete.,34,280,20","Garrett","I like that it looks like a city and the way the shapes and colors are put together,40,180,20","Devin","Very nice detail and colors!,10,380,20","6"
"19815","","survey-text","256","1850239","0.0-252.0-0.0","AFWSBV2NPWTCG","","","","{""Q0"":""this reminds me of music""}","","","","","","","","","","","","","","","","","","","","","","",""
"4095.899999856949","","image-slider-response","257","1854337","0.0-253.0","AFWSBV2NPWTCG","","","","","50","","","","","","","","","","","","","","","","","","","","","",""
"null","","image-button-response","258","1859341","0.0-254.0","AFWSBV2NPWTCG","img_art/10.jpg","null","","","","","","","","","","","","","","","","","","","","","","","","",""
"8044","","image-button-response","259","1867387","0.0-255.0","AFWSBV2NPWTCG","img_art/10.jpg","1","","","","","","","","","","","","","","","","","","","","","","","","",""
"6127","","image-button-response","260","1873518","0.0-256.0-0.0","AFWSBV2NPWTCG","img_art/10.jpg","5","","","","","","","","","","","","","","","","","","","","","","","","",""
"1245","","image-button-response","261","1874768","0.0-257.0-0.0","AFWSBV2NPWTCG","img_art/10.jpg","4","","","","","","","","","","","","","","","","","","","","","","","","",""
"null","","html-keyboard-response","262","1875281","0.0-258.0","AFWSBV2NPWTCG","<p style=""font-size: 48px;"">+</p>","","","","","null","allTrialResponses","500","1","30","img_art/10.jpg","50","this reminds me of music","Garrett,Jorge,Devin,Isaac,Shane,Jeffrey","I can't tell what this picture is supposed to mean and I think the colors are lacking variety.,-42,180,20","cultural with a symphony,40,180,20","Looks a bit as though someone ran over it?,-13,380,20","It looks intricate.,15,280,20","Like a decision making process,46,80,20","Relaxing; a lot of going on but colours make it easy to look at,20,40,20","Jorge","cultural with a symphony,40,180,20","Jeffrey","Relaxing; a lot of going on but colours make it easy to look at,20,40,20","Shane","Like a decision making process,46,80,20","6"
"7493","","image-button-response_instructions","263","1882784","0.0-259.0","AFWSBV2NPWTCG","","0","instructions","","","","","","","","","","","","","","","","","","","","","","","",""
"1536","","image-button-response","264","1884329","0.0-260.0","AFWSBV2NPWTCG","","0","","","","","","","","","","","","","","","","","","","","","","","","",""
