"rt","url","trial_type","trial_index","time_elapsed","internal_node_id","participant_id","stimulus","button_pressed","Name","responses","response","key_press","variableName","fixationTime","condition","trial","photo","subjectRating","subjectResponse","agentsNames","agent_1_Response","agent_2_Response","agent_3_Response","agent_4_Response","agent_5_Response","agent_6_Response","kept_1_name","kept_1_response","kept_2_name","kept_2_response","kept_3_name","kept_3_response","errorCounter"
"26161","external_page_harvard.html","external-html","0","26339","0.0-0.0","AG707KZT39EZU","","","","","","","","","","","","","","","","","","","","","","","","","","",""
"1980","","image-button-response","1","28321","0.0-1.0","AG707KZT39EZU","","1","","","","","","","","","","","","","","","","","","","","","","","","",""
"1781","","image-button-response","2","30110","0.0-2.0-0.0","AG707KZT39EZU","","1","phone","","","","","","","","","","","","","","","","","","","","","","","",""
"4820","","survey-text","3","34932","0.0-3.0-0.0","AG707KZT39EZU","","","","{""Q0"":""AG707KZT39EZU""}","","","","","","","","","","","","","","","","","","","","","","",""
"7746","","image-button-response_instructions","4","42680","0.0-4.0","AG707KZT39EZU","","0","instructions","","","","","","","","","","","","","","","","","","","","","","","",""
"25156","","image-button-response_instructions","5","67838","0.0-5.0","AG707KZT39EZU","img_art/ins/popularity/ins1.png","0","instructions","","","","","","","","","","","","","","","","","","","","","","","",""
"8312","","image-button-response_instructions","6","76152","0.0-6.0","AG707KZT39EZU","img_art/ins/popularity/ins2.png","0","instructions","","","","","","","","","","","","","","","","","","","","","","","",""
"5170","","image-button-response_instructions","7","81324","0.0-7.0","AG707KZT39EZU","img_art/ins/popularity/ins2Extreme.png","0","instructions","","","","","","","","","","","","","","","","","","","","","","","",""
"9418","","image-button-response_instructions","8","90744","0.0-8.0","AG707KZT39EZU","img_art/ins/popularity/ins3KEEPpop.PNG","0","instructions","","","","","","","","","","","","","","","","","","","","","","","",""
"6206","","image-button-response_instructions","9","96952","0.0-9.0","AG707KZT39EZU","img_art/ins/popularity/ins3ANamepop.PNG","0","instructions","","","","","","","","","","","","","","","","","","","","","","","",""
"4369","","image-button-response_instructions","10","101322","0.0-10.0","AG707KZT39EZU","img_art/ins/popularity/ins3ARatingpop.png","0","instructions","","","","","","","","","","","","","","","","","","","","","","","",""
"5910","","image-button-response_instructions","11","107234","0.0-11.0","AG707KZT39EZU","img_art/ins/popularity/ins3ATextpop.png","0","instructions","","","","","","","","","","","","","","","","","","","","","","","",""
"10266","","image-button-response_instructions","12","117502","0.0-12.0","AG707KZT39EZU","img_art/ins/popularity/ins3ALikespop.png","0","instructions","","","","","","","","","","","","","","","","","","","","","","","",""
"25536","","image-button-response_instructions","13","143039","0.0-13.0","AG707KZT39EZU","img_art/ins/popularity/ins3KEEPpop.PNG","0","instructions","","","","","","","","","","","","","","","","","","","","","","","",""
"13564","","image-button-response_instructions","14","156605","0.0-14.0","AG707KZT39EZU","img_art/ins/popularity/ins3_5RED.png","0","instructions","","","","","","","","","","","","","","","","","","","","","","","",""
"6556","","image-button-response_instructions","15","163163","0.0-15.0","AG707KZT39EZU","img_art/ins/popularity/ins3KEEPpop.PNG","0","instructions","","","","","","","","","","","","","","","","","","","","","","","",""
"13694","","image-button-response_instructions","16","176859","0.0-16.0","AG707KZT39EZU","img_art/ins/popularity/ins4KEEPpop.PNG","0","instructions","","","","","","","","","","","","","","","","","","","","","","","",""
"7039","","image-button-response_instructions","17","183899","0.0-17.0","AG707KZT39EZU","img_art/ins/popularity/ins5KEEPpop.PNG","0","instructions","","","","","","","","","","","","","","","","","","","","","","","",""
"4231","","image-button-response_instructions","18","188131","0.0-18.0","AG707KZT39EZU","","0","instructions","","","","","","","","","","","","","","","","","","","","","","","",""
"6631","","survey-text","19","194797","0.0-19.0-0.0","AG707KZT39EZU","","","","{""Q0"":""but""}","","","","","","","","","","","","","","","","","","","","","","",""
"34063","","survey-text","20","228861","0.0-20.0-0.0","AG707KZT39EZU","","","","{""Q0"":""The strokes make me feel like I could float away. ""}","","","","","","","","","","","","","","","","","","","","","","",""
"4967.699999928474","","image-slider-response","21","233831","0.0-21.0","AG707KZT39EZU","","","","","28","","","","","","","","","","","","","","","","","","","","","",""
"null","","image-button-response","22","238836","0.0-22.0","AG707KZT39EZU","img_art/ins/1.jpg","null","","","","","","","","","","","","","","","","","","","","","","","","",""
"6088","","image-button-response","23","244926","0.0-23.0","AG707KZT39EZU","img_art/ins/1.jpg","0","","","","","","","","","","","","","","","","","","","","","","","","",""
"2205","","image-button-response","24","247134","0.0-24.0-0.0","AG707KZT39EZU","img_art/ins/1.jpg","5","","","","","","","","","","","","","","","","","","","","","","","","",""
"3738","","image-button-response","25","250875","0.0-25.0-0.0","AG707KZT39EZU","img_art/ins/1.jpg","4","","","","","","","","","","","","","","","","","","","","","","","","",""
"null","","html-keyboard-response","26","251878","0.0-26.0","AG707KZT39EZU","<p style=""font-size: 48px;"">+</p>","","","","","null","allTrialResponses","1000","1","-2","img_art/ins/1.jpg","28","The strokes make me feel like I could float away. ","Allison,Ashley,Beth,Dora,Erika,Jen","looks like a lot of things going on in the mist,20,20,20","I just don't get why these type of art would be popular,-32,40,20","This color reminds me of poo,-46,60,20","looks like what my niece in 3rd grade did this afternoon,-50,80,20","I like the sophisticated brushwork,40,100,20","It reminds me of a candy land dream I had,36,120,20","Allison","looks like a lot of things going on in the mist,20,20,20","Jen","It reminds me of a candy land dream I had,36,120,20","Erika","I like the sophisticated brushwork,40,100,20","0"
"38047","","survey-text","27","289929","0.0-27.0-0.0","AG707KZT39EZU","","","","{""Q0"":""The strong red makes me feel annoyed and angry. ""}","","","","","","","","","","","","","","","","","","","","","","",""
"4680.199999928474","","image-slider-response","28","294611","0.0-28.0","AG707KZT39EZU","","","","","-23","","","","","","","","","","","","","","","","","","","","","",""
"null","","image-button-response","29","299614","0.0-29.0","AG707KZT39EZU","img_art/ins/2.jpg","null","","","","","","","","","","","","","","","","","","","","","","","","",""
"6727","","image-button-response","30","306342","0.0-30.0","AG707KZT39EZU","img_art/ins/2.jpg","2","","","","","","","","","","","","","","","","","","","","","","","","",""
"1117","","image-button-response","31","307462","0.0-31.0-0.0","AG707KZT39EZU","img_art/ins/2.jpg","5","","","","","","","","","","","","","","","","","","","","","","","","",""
"1663","","image-button-response","32","309129","0.0-32.0-0.0","AG707KZT39EZU","img_art/ins/2.jpg","1","","","","","","","","","","","","","","","","","","","","","","","","",""
"null","","html-keyboard-response","33","309630","0.0-33.0","AG707KZT39EZU","<p style=""font-size: 48px;"">+</p>","","","","","null","allTrialResponses","500","1","-1","img_art/ins/2.jpg","-23","The strong red makes me feel annoyed and angry. ","Allison,Kara,Katie,Jenna,Erika,Jen","I don't have strong feelings about this,10,20,20","I like the blocks of color arrangements,30,160,20","too much color!,-28,180,20","One of my pet peevs,-48,140,20","I would never be able to compose a sophisticated pallete like this,48,100,20","It reminds me of a fireplace,36,120,20","Katie","too much color!,-28,180,20","Jen","It reminds me of a fireplace,36,120,20","Kara","I like the blocks of color arrangements,30,160,20","0"
"32691","","survey-text","34","342325","0.0-34.0-0.0","AG707KZT39EZU","","","","{""Q0"":""Reminds me of looking down at a frozen lake""}","","","","","","","","","","","","","","","","","","","","","","",""
"2844.600000023842","","image-slider-response","35","345172","0.0-35.0","AG707KZT39EZU","","","","","26","","","","","","","","","","","","","","","","","","","","","",""
"null","","image-button-response","36","350174","0.0-36.0","AG707KZT39EZU","img_art/ins/3.jpg","null","","","","","","","","","","","","","","","","","","","","","","","","",""
"627","","image-button-response","37","350804","0.0-37.0","AG707KZT39EZU","img_art/ins/3.jpg","5","","","","","","","","","","","","","","","","","","","","","","","","",""
"1514","","image-button-response","38","352320","0.0-38.0-0.0","AG707KZT39EZU","img_art/ins/3.jpg","1","","","","","","","","","","","","","","","","","","","","","","","","",""
"8766","","image-button-response","39","361088","0.0-39.0-0.0","AG707KZT39EZU","img_art/ins/3.jpg","4","","","","","","","","","","","","","","","","","","","","","","","","",""
"null","","html-keyboard-response","40","362592","0.0-40.0","AG707KZT39EZU","<p style=""font-size: 48px;"">+</p>","","","","","null","allTrialResponses","1500","1","0","img_art/ins/3.jpg","26","Reminds me of looking down at a frozen lake","Rose,Kara,Katie,Leslie,Mary,Jen","My daily routine, it's depressing,-20,240,20","calming blue is very nice,36,160,20","It looks depressing,-26,180,20","It's an alright work,15,200,20","I like the overlapping of brushes,41,220,20","I can feel a rainy day from this painting,18,120,20","Jen","I can feel a rainy day from this painting,18,120,20","Kara","calming blue is very nice,36,160,20","Mary","I like the overlapping of brushes,41,220,20","0"
"68765","","image-button-response_instructions","41","431362","0.0-41.0","AG707KZT39EZU","","0","instructions","","","","","","","","","","","","","","","","","","","","","","","",""
"11905","","survey-likert","42","443270","0.0-42.0-0.0","AG707KZT39EZU","","","","{""Q0"":"""",""Q1"":0,""Q2"":1}","","","","","","","","","","","","","","","","","","","","","","",""
"4815","","survey-text","43","448091","0.0-43.0-0.0","AG707KZT39EZU","","","","{""Q0"":""rock""}","","","","","","","","","","","","","","","","","","","","","","",""
"21685","","survey-text","44","469777","0.0-44.0-0.0","AG707KZT39EZU","","","","{""Q0"":""Spooky. Looks like a Halloween decoration. ""}","","","","","","","","","","","","","","","","","","","","","","",""
"3164.399999976158","","image-slider-response","45","472944","0.0-45.0","AG707KZT39EZU","","","","","21","","","","","","","","","","","","","","","","","","","","","",""
"null","","image-button-response","46","477985","0.0-46.0","AG707KZT39EZU","img_art/25.jpg","null","","","","","","","","","","","","","","","","","","","","","","","","",""
"11547","","image-button-response","47","489534","0.0-47.0","AG707KZT39EZU","img_art/25.jpg","4","","","","","","","","","","","","","","","","","","","","","","","","",""
"1984","","image-button-response","48","491520","0.0-48.0-0.0","AG707KZT39EZU","img_art/25.jpg","3","","","","","","","","","","","","","","","","","","","","","","","","",""
"976","","image-button-response","49","492498","0.0-49.0-0.0","AG707KZT39EZU","img_art/25.jpg","0","","","","","","","","","","","","","","","","","","","","","","","","",""
"null","","html-keyboard-response","50","494007","0.0-50.0","AG707KZT39EZU","<p style=""font-size: 48px;"">+</p>","","","","","null","allTrialResponses","1500","1","1","img_art/25.jpg","21","Spooky. Looks like a Halloween decoration. ","Brianna,Autumn,Kimberly,Meghan,Kylie,Sophia","This would definitely be hanging in my bedroom in my house,50,20,20","This is too simple,-22,340,20","Cult-like, which to me makes it kind of creepy,-21,260,20","reminds me of a zombie,-36,220,20","Egyptian heiroglyphics and painting,15,300,20","This one just has a dark feeling to me.,-50,280,20","Kylie","Egyptian heiroglyphics and painting,15,300,20","Meghan","reminds me of a zombie,-36,220,20","Brianna","This would definitely be hanging in my bedroom in my house,50,20,20","0"
"16530","","survey-text","51","510542","0.0-51.0-0.0","AG707KZT39EZU","","","","{""Q0"":""Looks like a melted video game console. ""}","","","","","","","","","","","","","","","","","","","","","","",""
"3358.1999999284744","","image-slider-response","52","513902","0.0-52.0","AG707KZT39EZU","","","","","15","","","","","","","","","","","","","","","","","","","","","",""
"null","","image-button-response","53","518919","0.0-53.0","AG707KZT39EZU","img_art/29.jpg","null","","","","","","","","","","","","","","","","","","","","","","","","",""
"10943","","image-button-response","54","529864","0.0-54.0","AG707KZT39EZU","img_art/29.jpg","4","","","","","","","","","","","","","","","","","","","","","","","","",""
"3164","","image-button-response","55","533030","0.0-55.0-0.0","AG707KZT39EZU","img_art/29.jpg","2","","","","","","","","","","","","","","","","","","","","","","","","",""
"3754","","image-button-response","56","536786","0.0-56.0-0.0","AG707KZT39EZU","img_art/29.jpg","1","","","","","","","","","","","","","","","","","","","","","","","","",""
"null","","html-keyboard-response","57","537789","0.0-57.0","AG707KZT39EZU","<p style=""font-size: 48px;"">+</p>","","","","","null","allTrialResponses","1000","1","2","img_art/29.jpg","15","Looks like a melted video game console. ","Brianna,Amanda,Victoria,Meghan,Kylie,Leah","It has a red X on there, and x's mean bad in my perspective,-29,20,20","Once again, very modern, activists will love,27,180,20","makes me think of destruction,-20,400,20","feels random and not thoughtout,-37,220,20","Reminds me of graffitti gone wrong,15,300,20","Scrawled graffiti, with a red x as saying it was a mistake,-40,360,20","Kylie","Reminds me of graffitti gone wrong,15,300,20","Victoria","makes me think of destruction,-20,400,20","Amanda","Once again, very modern, activists will love,27,180,20","0"
"31223","","survey-text","58","569015","0.0-58.0-0.0","AG707KZT39EZU","","","","{""Q0"":""Looks like someone was very angry about their first drawing. Overwhelming. ""}","","","","","","","","","","","","","","","","","","","","","","",""
"9962.300000071526","","image-slider-response","59","578979","0.0-59.0","AG707KZT39EZU","","","","","-26","","","","","","","","","","","","","","","","","","","","","",""
"null","","image-button-response","60","583982","0.0-60.0","AG707KZT39EZU","img_art/3.jpg","null","","","","","","","","","","","","","","","","","","","","","","","","",""
"684","","image-button-response","61","584668","0.0-61.0","AG707KZT39EZU","img_art/3.jpg","2","","","","","","","","","","","","","","","","","","","","","","","","",""
"10934","","image-button-response","62","595604","0.0-62.0-0.0","AG707KZT39EZU","img_art/3.jpg","5","","","","","","","","","","","","","","","","","","","","","","","","",""
"7612","","image-button-response","63","603218","0.0-63.0-0.0","AG707KZT39EZU","img_art/3.jpg","0","","","","","","","","","","","","","","","","","","","","","","","","",""
"null","","html-keyboard-response","64","604726","0.0-64.0","AG707KZT39EZU","<p style=""font-size: 48px;"">+</p>","","","","","null","allTrialResponses","1500","1","3","img_art/3.jpg","-26","Looks like someone was very angry about their first drawing. Overwhelming. ","Olivia,Amanda,Victoria,Dominique,Kylie,Michelle","confusing taking over,-15,40,20","Looks like someone threw blood at a wall,-50,180,20","makes me think of anger,-33,400,20","Iike this one it's a piece that I need to spend more time with to understand how i feel about it,20,400,20","Confusion and mayhem,-10,300,20","Ok, just a bunch of red lines and a grey smudge. Would pass this right by in a gallery,-12,280,20","Victoria","makes me think of anger,-33,400,20","Michelle","Ok, just a bunch of red lines and a grey smudge. Would pass this right by in a gallery,-12,280,20","Olivia","confusing taking over,-15,40,20","0"
"38087","","survey-text","65","642819","0.0-65.0-0.0","AG707KZT39EZU","","","","{""Q0"":""Makes me think of a fetus picture from someone that's never seen one.""}","","","","","","","","","","","","","","","","","","","","","","",""
"6540","","image-slider-response","66","649361","0.0-66.0","AG707KZT39EZU","","","","","-43","","","","","","","","","","","","","","","","","","","","","",""
"null","","image-button-response","67","654363","0.0-67.0","AG707KZT39EZU","img_art/28.jpg","null","","","","","","","","","","","","","","","","","","","","","","","","",""
"3724","","image-button-response","68","658089","0.0-68.0","AG707KZT39EZU","img_art/28.jpg","5","","","","","","","","","","","","","","","","","","","","","","","","",""
"2192","","image-button-response","69","660283","0.0-69.0-0.0","AG707KZT39EZU","img_art/28.jpg","2","","","","","","","","","","","","","","","","","","","","","","","","",""
"3061","","image-button-response","70","663347","0.0-70.0-0.0","AG707KZT39EZU","img_art/28.jpg","3","","","","","","","","","","","","","","","","","","","","","","","","",""
"null","","html-keyboard-response","71","664349","0.0-71.0","AG707KZT39EZU","<p style=""font-size: 48px;"">+</p>","","","","","null","allTrialResponses","1000","1","4","img_art/28.jpg","-43","Makes me think of a fetus picture from someone that's never seen one.","Olivia,Melissa,Victoria,Marissa,Briana,Michelle","conversating means hope,15,40,20","reminds me of kandinsky,14,240,20","drab and dreary,-21,400,20","It feels very blah,-10,160,20","Is this anything?,-20,400,20","This piece is depressing to me, reminds me of German paintings,-6,280,20","Michelle","This piece is depressing to me, reminds me of German paintings,-6,280,20","Victoria","drab and dreary,-21,400,20","Marissa","It feels very blah,-10,160,20","0"
"16882","","survey-text","72","681237","0.0-72.0-0.0","AG707KZT39EZU","","","","{""Q0"":""Looks like a quilt that got dirty. ""}","","","","","","","","","","","","","","","","","","","","","","",""
"2928.2000000476837","","image-slider-response","73","684167","0.0-73.0","AG707KZT39EZU","","","","","-35","","","","","","","","","","","","","","","","","","","","","",""
"null","","image-button-response","74","689169","0.0-74.0","AG707KZT39EZU","img_art/12.jpg","null","","","","","","","","","","","","","","","","","","","","","","","","",""
"3864","","image-button-response","75","693035","0.0-75.0","AG707KZT39EZU","img_art/12.jpg","5","","","","","","","","","","","","","","","","","","","","","","","","",""
"4346","","image-button-response","76","697383","0.0-76.0-0.0","AG707KZT39EZU","img_art/12.jpg","4","","","","","","","","","","","","","","","","","","","","","","","","",""
"3855","","image-button-response","77","701241","0.0-77.0-0.0","AG707KZT39EZU","img_art/12.jpg","1","","","","","","","","","","","","","","","","","","","","","","","","",""
"null","","html-keyboard-response","78","702751","0.0-78.0","AG707KZT39EZU","<p style=""font-size: 48px;"">+</p>","","","","","null","allTrialResponses","1500","1","5","img_art/12.jpg","-35","Looks like a quilt that got dirty. ","Allison,Jenna,Victoria,Marissa,Brooke,Michelle","Minimalist colors and shapes.,-5,140,20","interesting, but feels like someone cut up a picture and pasted it together wrong. want to see the original,15,360,20","to contemporary for me,3,400,20","It reminds me of the documentary Paris is Burning, though I'm not sure why,11,160,20","Dislike the style, the sharp rectangular pattern very jarring.,-20,60,20","eww hate everything about this, looks like it belongs in a dentist's office,-14,280,20","Michelle","eww hate everything about this, looks like it belongs in a dentist's office,-14,280,20","Brooke","Dislike the style, the sharp rectangular pattern very jarring.,-20,60,20","Jenna","interesting, but feels like someone cut up a picture and pasted it together wrong. want to see the original,15,360,20","0"
"4945","","survey-text","79","707705","0.0-79.0-0.0","AG707KZT39EZU","","","","{""Q0"":""sky""}","","","","","","","","","","","","","","","","","","","","","","",""
"22811","","survey-text","80","730517","0.0-80.0-0.0","AG707KZT39EZU","","","","{""Q0"":""Makes me think of the view from jumping out of an airplane. ""}","","","","","","","","","","","","","","","","","","","","","","",""
"2884.100000023842","","image-slider-response","81","733403","0.0-81.0","AG707KZT39EZU","","","","","18","","","","","","","","","","","","","","","","","","","","","",""
"null","","image-button-response","82","738413","0.0-82.0","AG707KZT39EZU","img_art/1.jpg","null","","","","","","","","","","","","","","","","","","","","","","","","",""
"3479","","image-button-response","83","741894","0.0-83.0","AG707KZT39EZU","img_art/1.jpg","1","","","","","","","","","","","","","","","","","","","","","","","","",""
"1994","","image-button-response","84","743889","0.0-84.0-0.0","AG707KZT39EZU","img_art/1.jpg","3","","","","","","","","","","","","","","","","","","","","","","","","",""
"720","","image-button-response","85","744612","0.0-85.0-0.0","AG707KZT39EZU","img_art/1.jpg","4","","","","","","","","","","","","","","","","","","","","","","","","",""
"null","","html-keyboard-response","86","745627","0.0-86.0","AG707KZT39EZU","<p style=""font-size: 48px;"">+</p>","","","","","null","allTrialResponses","1000","1","6","img_art/1.jpg","18","Makes me think of the view from jumping out of an airplane. ","Elizabeth,Jenna,Breanna,Gabriela,Brooke,Michelle","Absolutely love this painting,50,20,20","beautiful colors and brush strokes,47,360,20","Makes me feel confused,-6,380,20","This photo reminds me of a fall afternoon, serene,11,140,20","It's okay, colors remind me of autumn.,10,60,20","Random paint does not make art,-5,280,20","Jenna","beautiful colors and brush strokes,47,360,20","Gabriela","This photo reminds me of a fall afternoon, serene,11,140,20","Brooke","It's okay, colors remind me of autumn.,10,60,20","0"
"31169","","survey-text","87","776799","0.0-87.0-0.0","AG707KZT39EZU","","","","{""Q0"":""Makes me think of someone sleeping outside in a garden. ""}","","","","","","","","","","","","","","","","","","","","","","",""
"3406","","image-slider-response","88","780207","0.0-88.0","AG707KZT39EZU","","","","","36","","","","","","","","","","","","","","","","","","","","","",""
"4461","","image-button-response","89","785210","0.0-89.0","AG707KZT39EZU","img_art/9.jpg","3","","","","","","","","","","","","","","","","","","","","","","","","",""
"1158","","image-button-response","90","786369","0.0-90.0","AG707KZT39EZU","img_art/9.jpg","3","","","","","","","","","","","","","","","","","","","","","","","","",""
"8880","","image-button-response","91","795252","0.0-91.0-0.0","AG707KZT39EZU","img_art/9.jpg","0","","","","","","","","","","","","","","","","","","","","","","","","",""
"822","","image-button-response","92","796076","0.0-92.0-0.0","AG707KZT39EZU","img_art/9.jpg","1","","","","","","","","","","","","","","","","","","","","","","","","",""
"null","","html-keyboard-response","93","797088","0.0-93.0","AG707KZT39EZU","<p style=""font-size: 48px;"">+</p>","","","","","null","allTrialResponses","1000","1","7","img_art/9.jpg","36","Makes me think of someone sleeping outside in a garden. ","Caroline,Jenna,Stephanie,Gabriela,Brooke,Julia","Stirs up emotions of watching someone sleep which is relaxing,11,100,20","gorgeous colors, love the little details,42,360,20","Someone sleeping in a cave. Dont like the scribble look.,-30,300,20","This photo make me feel peaceful. It looks like a woman sleeping in a garden,42,140,20","Dark fantasy seaside cave carnival? Fun.,15,60,20","I don't like the framing of this one,-25,40,20","Gabriela","This photo make me feel peaceful. It looks like a woman sleeping in a garden,42,140,20","Caroline","Stirs up emotions of watching someone sleep which is relaxing,11,100,20","Jenna","gorgeous colors, love the little details,42,360,20","0"
"23393","","survey-text","94","820488","0.0-94.0-0.0","AG707KZT39EZU","","","","{""Q0"":""Abstract look of kids playing in a classroom. ""}","","","","","","","","","","","","","","","","","","","","","","",""
"3115.5","","image-slider-response","95","823605","0.0-95.0","AG707KZT39EZU","","","","","10","","","","","","","","","","","","","","","","","","","","","",""
"null","","image-button-response","96","828619","0.0-96.0","AG707KZT39EZU","img_art/2.jpg","null","","","","","","","","","","","","","","","","","","","","","","","","",""
"9967","","image-button-response","97","838588","0.0-97.0","AG707KZT39EZU","img_art/2.jpg","2","","","","","","","","","","","","","","","","","","","","","","","","",""
"1094","","image-button-response","98","839684","0.0-98.0-0.0","AG707KZT39EZU","img_art/2.jpg","4","","","","","","","","","","","","","","","","","","","","","","","","",""
"6004","","image-button-response","99","845690","0.0-99.0-0.0","AG707KZT39EZU","img_art/2.jpg","3","","","","","","","","","","","","","","","","","","","","","","","","",""
"null","","html-keyboard-response","100","847193","0.0-100.0","AG707KZT39EZU","<p style=""font-size: 48px;"">+</p>","","","","","null","allTrialResponses","1500","1","8","img_art/2.jpg","10","Abstract look of kids playing in a classroom. ","Caroline,Jenna,Emily,Gabriela,Ashley,Savannah","Colors are drab and cause a sense of blandness,-28,100,20","the colors are a bit odd, and the squiggly line at the top is distracting,0,360,20","Random colors and shapes mashed together. Nothing artistic, but better than some of the other ones.,-37,40,20","The people look blurred together,-21,140,20","I think I can make out a face in there.,25,320,20","Very gross colors. What were they thinking?,-47,200,20","Emily","Random colors and shapes mashed together. Nothing artistic, but better than some of the other ones.,-37,40,20","Ashley","I think I can make out a face in there.,25,320,20","Gabriela","The people look blurred together,-21,140,20","0"
"113192","","survey-text","101","960389","0.0-101.0-0.0","AG707KZT39EZU","","","","{""Q0"":""Makes me think of an outside landscape coming indoors. ""}","","","","","","","","","","","","","","","","","","","","","","",""
"4104.300000071526","","image-slider-response","102","964495","0.0-102.0","AG707KZT39EZU","","","","","27","","","","","","","","","","","","","","","","","","","","","",""
"null","","image-button-response","103","969502","0.0-103.0","AG707KZT39EZU","img_art/17.jpg","null","","","","","","","","","","","","","","","","","","","","","","","","",""
"8209","","image-button-response","104","977713","0.0-104.0","AG707KZT39EZU","img_art/17.jpg","3","","","","","","","","","","","","","","","","","","","","","","","","",""
"1080","","image-button-response","105","978795","0.0-105.0-0.0","AG707KZT39EZU","img_art/17.jpg","1","","","","","","","","","","","","","","","","","","","","","","","","",""
"975","","image-button-response","106","979773","0.0-106.0-0.0","AG707KZT39EZU","img_art/17.jpg","5","","","","","","","","","","","","","","","","","","","","","","","","",""
"null","","html-keyboard-response","107","980282","0.0-107.0","AG707KZT39EZU","<p style=""font-size: 48px;"">+</p>","","","","","null","allTrialResponses","500","1","9","img_art/17.jpg","27","Makes me think of an outside landscape coming indoors. ","Abigail,Jessica,Emily,Gabriela,Ashley,Sydney","Really love the branches. The bottom made it not perfect,42,20,20","The way they painted the trees is so cool.,27,400,20","There is better structure and direction in this one.,19,40,20","This makes me feel inspired and happy. I love everything about this portrait,45,140,20","taste the rainbow, feel the flavor.,23,320,20","This picture is calming to me, and I love the colors.,45,320,20","Gabriela","This makes me feel inspired and happy. I love everything about this portrait,45,140,20","Jessica","The way they painted the trees is so cool.,27,400,20","Sydney","This picture is calming to me, and I love the colors.,45,320,20","0"
"29506","","survey-text","108","1009793","0.0-108.0-0.0","AG707KZT39EZU","","","","{""Q0"":""Looks like a kid colored over another painting in pen. ""}","","","","","","","","","","","","","","","","","","","","","","",""
"4845.899999976158","","image-slider-response","109","1014641","0.0-109.0","AG707KZT39EZU","","","","","-34","","","","","","","","","","","","","","","","","","","","","",""
"null","","image-button-response","110","1019643","0.0-110.0","AG707KZT39EZU","img_art/27.jpg","null","","","","","","","","","","","","","","","","","","","","","","","","",""
"9938","","image-button-response","111","1029583","0.0-111.0","AG707KZT39EZU","img_art/27.jpg","1","","","","","","","","","","","","","","","","","","","","","","","","",""
"4930","","image-button-response","112","1034515","0.0-112.0-0.0","AG707KZT39EZU","img_art/27.jpg","3","","","","","","","","","","","","","","","","","","","","","","","","",""
"1181","","image-button-response","113","1035699","0.0-113.0-0.0","AG707KZT39EZU","img_art/27.jpg","4","","","","","","","","","","","","","","","","","","","","","","","","",""
"null","","html-keyboard-response","114","1037209","0.0-114.0","AG707KZT39EZU","<p style=""font-size: 48px;"">+</p>","","","","","null","allTrialResponses","1500","1","10","img_art/27.jpg","-34","Looks like a kid colored over another painting in pen. ","Andrea,Jessica,Kaylee,Gabriela,Catherine,Sydney","I see a cathedral through the woods.,12,240,20","Don't get the point of this piece that much, but it doesn't bug me,1,400,20","nice firestorm on desert,23,200,20","I like hoe it looks like a fall day in a city,45,140,20","Angelic, childlike. happiness but also with sadness.,40,160,20","This piece reminds me of a summer day.,30,320,20","Jessica","Don't get the point of this piece that much, but it doesn't bug me,1,400,20","Gabriela","I like hoe it looks like a fall day in a city,45,140,20","Catherine","Angelic, childlike. happiness but also with sadness.,40,160,20","0"
"5721","","survey-text","115","1042940","0.0-115.0-0.0","AG707KZT39EZU","","","","{""Q0"":""our""}","","","","","","","","","","","","","","","","","","","","","","",""
"28846","","survey-text","116","1071787","0.0-116.0-0.0","AG707KZT39EZU","","","","{""Q0"":""Nice and calming. Looks like a city street corner. ""}","","","","","","","","","","","","","","","","","","","","","","",""
"2992.600000023842","","image-slider-response","117","1074782","0.0-117.0","AG707KZT39EZU","","","","","30","","","","","","","","","","","","","","","","","","","","","",""
"null","","image-button-response","118","1079792","0.0-118.0","AG707KZT39EZU","img_art/26.jpg","null","","","","","","","","","","","","","","","","","","","","","","","","",""
"2728","","image-button-response","119","1082522","0.0-119.0","AG707KZT39EZU","img_art/26.jpg","3","","","","","","","","","","","","","","","","","","","","","","","","",""
"2122","","image-button-response","120","1084646","0.0-120.0-0.0","AG707KZT39EZU","img_art/26.jpg","0","","","","","","","","","","","","","","","","","","","","","","","","",""
"1266","","image-button-response","121","1085914","0.0-121.0-0.0","AG707KZT39EZU","img_art/26.jpg","2","","","","","","","","","","","","","","","","","","","","","","","","",""
"null","","html-keyboard-response","122","1086917","0.0-122.0","AG707KZT39EZU","<p style=""font-size: 48px;"">+</p>","","","","","null","allTrialResponses","1000","1","11","img_art/26.jpg","30","Nice and calming. Looks like a city street corner. ","Leslie,Jessica,Angela,Gabriela,Catherine,Sarah","It's a cute city scene. I like the trees.,10,380,20","It doesn't look so vibrant, I'm not sure what feelings they were trying to capture,-41,400,20","Nice, but not very interesting. I do like the blue tree though.,6,260,20","it makes me feel normal and calm, I like the busy city street,10,140,20","Incomplete, The artist painted his impression of somthing he was thinking of,0,160,20","too hard to figure out if it's meant to be actual objects or impressions,-36,180,20","Gabriela","it makes me feel normal and calm, I like the busy city street,10,140,20","Leslie","It's a cute city scene. I like the trees.,10,380,20","Angela","Nice, but not very interesting. I do like the blue tree though.,6,260,20","0"
"35989","","survey-text","123","1122913","0.0-123.0-0.0","AG707KZT39EZU","","","","{""Q0"":""Looks like a girl with long hair walking in the desert. ""}","","","","","","","","","","","","","","","","","","","","","","",""
"3700.3000000715256","","image-slider-response","124","1126615","0.0-124.0","AG707KZT39EZU","","","","","29","","","","","","","","","","","","","","","","","","","","","",""
"null","","image-button-response","125","1131629","0.0-125.0","AG707KZT39EZU","img_art/6.jpg","null","","","","","","","","","","","","","","","","","","","","","","","","",""
"5230","","image-button-response","126","1136861","0.0-126.0","AG707KZT39EZU","img_art/6.jpg","2","","","","","","","","","","","","","","","","","","","","","","","","",""
"1538","","image-button-response","127","1138401","0.0-127.0-0.0","AG707KZT39EZU","img_art/6.jpg","4","","","","","","","","","","","","","","","","","","","","","","","","",""
"3008","","image-button-response","128","1141411","0.0-128.0-0.0","AG707KZT39EZU","img_art/6.jpg","0","","","","","","","","","","","","","","","","","","","","","","","","",""
"null","","html-keyboard-response","129","1142922","0.0-129.0","AG707KZT39EZU","<p style=""font-size: 48px;"">+</p>","","","","","null","allTrialResponses","1500","1","12","img_art/6.jpg","29","Looks like a girl with long hair walking in the desert. ","Leslie,Claire,Angela,Gabriela,Sierra,Grace","The limited colors make me feel lonely.,36,380,20","very minimalistic,22,260,20","I like the orange color, and I don't know why but I like this piece.,22,260,20","This looks like a crow, sort of bleak,-26,140,20","simplistic. i love orange and green and i love the subject,50,260,20","Growth in the desert?  Don't care for it very much.,-26,180,20","Angela","I like the orange color, and I don't know why but I like this piece.,22,260,20","Sierra","simplistic. i love orange and green and i love the subject,50,260,20","Leslie","The limited colors make me feel lonely.,36,380,20","0"
"27706","","survey-text","130","1170633","0.0-130.0-0.0","AG707KZT39EZU","","","","{""Q0"":""Looks like someone threw a bunch of toys down the drain. ""}","","","","","","","","","","","","","","","","","","","","","","",""
"2720","","image-slider-response","131","1173355","0.0-131.0","AG707KZT39EZU","","","","","-34","","","","","","","","","","","","","","","","","","","","","",""
"null","","image-button-response","132","1178358","0.0-132.0","AG707KZT39EZU","img_art/18.jpg","null","","","","","","","","","","","","","","","","","","","","","","","","",""
"6330","","image-button-response","133","1184690","0.0-133.0","AG707KZT39EZU","img_art/18.jpg","3","","","","","","","","","","","","","","","","","","","","","","","","",""
"1142","","image-button-response","134","1185833","0.0-134.0-0.0","AG707KZT39EZU","img_art/18.jpg","0","","","","","","","","","","","","","","","","","","","","","","","","",""
"9504","","image-button-response","135","1195339","0.0-135.0-0.0","AG707KZT39EZU","img_art/18.jpg","1","","","","","","","","","","","","","","","","","","","","","","","","",""
"null","","html-keyboard-response","136","1196841","0.0-136.0","AG707KZT39EZU","<p style=""font-size: 48px;"">+</p>","","","","","null","allTrialResponses","1500","1","13","img_art/18.jpg","-34","Looks like someone threw a bunch of toys down the drain. ","Leslie,Christina,Angela,Amy,Sierra,Madeline","This is a very energetic painting, and brings to mind scenes of battle.,50,380,20","it looks dreary and not uplifting,-10,240,20","like the grays and contrast of the yellow. This piece feels a bit angry,10,260,20","So much going on. Frightening and tumultous, brave and inspiring. I'd like to spend the rest of my life interpreting it.,30,220,20","it looks like people,9,260,20","Good concept but then scribbled on a bit?,15,40,20","Amy","So much going on. Frightening and tumultous, brave and inspiring. I'd like to spend the rest of my life interpreting it.,30,220,20","Leslie","This is a very energetic painting, and brings to mind scenes of battle.,50,380,20","Christina","it looks dreary and not uplifting,-10,240,20","0"
"36188","","survey-text","137","1233033","0.0-137.0-0.0","AG707KZT39EZU","","","","{""Q0"":""Looks like an exclamation point melted and smeared. ""}","","","","","","","","","","","","","","","","","","","","","","",""
"2574","","image-slider-response","138","1235609","0.0-138.0","AG707KZT39EZU","","","","","-40","","","","","","","","","","","","","","","","","","","","","",""
"null","","image-button-response","139","1240613","0.0-139.0","AG707KZT39EZU","img_art/5.jpg","null","","","","","","","","","","","","","","","","","","","","","","","","",""
"8655","","image-button-response","140","1249270","0.0-140.0","AG707KZT39EZU","img_art/5.jpg","1","","","","","","","","","","","","","","","","","","","","","","","","",""
"3328","","image-button-response","141","1252600","0.0-141.0-0.0","AG707KZT39EZU","img_art/5.jpg","3","","","","","","","","","","","","","","","","","","","","","","","","",""
"3000","","image-button-response","142","1255602","0.0-142.0-0.0","AG707KZT39EZU","img_art/5.jpg","5","","","","","","","","","","","","","","","","","","","","","","","","",""
"null","","html-keyboard-response","143","1256619","0.0-143.0","AG707KZT39EZU","<p style=""font-size: 48px;"">+</p>","","","","","null","allTrialResponses","1000","1","14","img_art/5.jpg","-40","Looks like an exclamation point melted and smeared. ","Leslie,Christina,Katelyn,Amy,Jennifer,Tiffany","This elicits no reaction in me.,0,380,20","looks like a little kids painting,-50,240,20","I just dont get it. Means very little to me,-22,100,20","Nearly white background gives a lack of context. Questionable skills,-45,220,20","This piece doesn't really stand out.,0,380,20","I feel nothing looking at this.,-5,360,20","Christina","looks like a little kids painting,-50,240,20","Amy","Nearly white background gives a lack of context. Questionable skills,-45,220,20","Tiffany","I feel nothing looking at this.,-5,360,20","0"
"40456","","survey-text","144","1297083","0.0-144.0-0.0","AG707KZT39EZU","","","","{""Q0"":""Like looking at a highway through a very dirty lens. ""}","","","","","","","","","","","","","","","","","","","","","","",""
"5248","","image-slider-response","145","1302333","0.0-145.0","AG707KZT39EZU","","","","","-29","","","","","","","","","","","","","","","","","","","","","",""
"null","","image-button-response","146","1307335","0.0-146.0","AG707KZT39EZU","img_art/11.jpg","null","","","","","","","","","","","","","","","","","","","","","","","","",""
"4100","","image-button-response","147","1311437","0.0-147.0","AG707KZT39EZU","img_art/11.jpg","2","","","","","","","","","","","","","","","","","","","","","","","","",""
"2766","","image-button-response","148","1314205","0.0-148.0-0.0","AG707KZT39EZU","img_art/11.jpg","4","","","","","","","","","","","","","","","","","","","","","","","","",""
"7244","","image-button-response","149","1321451","0.0-149.0-0.0","AG707KZT39EZU","img_art/11.jpg","5","","","","","","","","","","","","","","","","","","","","","","","","",""
"null","","html-keyboard-response","150","1321954","0.0-150.0","AG707KZT39EZU","<p style=""font-size: 48px;"">+</p>","","","","","null","allTrialResponses","500","1","15","img_art/11.jpg","-29","Like looking at a highway through a very dirty lens. ","Monica,Christina,Margaret,Amy,Erica,Tiffany","I like how it reminds me of music and at the same time it looks like colorful train tracks.,10,360,20","I like how it looks like buildings but i'm not a fan of colors,20,240,20","dont like the colors. Its a gloomy day in london and this is the transit system,-26,100,20","Simple and complex. Hopeful yet dark. I love this,35,220,20","a lot of dark colours,-8,80,20","I feel excited, like I'm in the middle of a bustling city.,26,360,20","Margaret","dont like the colors. Its a gloomy day in london and this is the transit system,-26,100,20","Erica","a lot of dark colours,-8,80,20","Tiffany","I feel excited, like I'm in the middle of a bustling city.,26,360,20","0"
"5422","","survey-text","151","1327385","0.0-151.0-0.0","AG707KZT39EZU","","","","{""Q0"":""course""}","","","","","","","","","","","","","","","","","","","","","","",""
"21663","","survey-text","152","1349050","0.0-152.0-0.0","AG707KZT39EZU","","","","{""Q0"":""Lots of colors and a little too much going on here. ""}","","","","","","","","","","","","","","","","","","","","","","",""
"3559.5","","image-slider-response","153","1352611","0.0-153.0","AG707KZT39EZU","","","","","-16","","","","","","","","","","","","","","","","","","","","","",""
"null","","image-button-response","154","1357615","0.0-154.0","AG707KZT39EZU","img_art/22.jpg","null","","","","","","","","","","","","","","","","","","","","","","","","",""
"729","","image-button-response","155","1358346","0.0-155.0","AG707KZT39EZU","img_art/22.jpg","1","","","","","","","","","","","","","","","","","","","","","","","","",""
"6618","","image-button-response","156","1364966","0.0-156.0-0.0","AG707KZT39EZU","img_art/22.jpg","2","","","","","","","","","","","","","","","","","","","","","","","","",""
"1009","","image-button-response","157","1365978","0.0-157.0-0.0","AG707KZT39EZU","img_art/22.jpg","5","","","","","","","","","","","","","","","","","","","","","","","","",""
"null","","html-keyboard-response","158","1366480","0.0-158.0","AG707KZT39EZU","<p style=""font-size: 48px;"">+</p>","","","","","null","allTrialResponses","500","1","16","img_art/22.jpg","-16","Lots of colors and a little too much going on here. ","Sara,Vanessa,Margaret,Erika,Erica,Tiffany","Looks like a warm sunset to me i like it,42,160,20","I don't like the colors or the way they've been arranged.,-20,380,20","i feel like this is a a basic art piece that a school would have on the wall,-24,100,20","Beautiful forms, using color to define shape,14,100,20","Picture is very relaxing,32,80,20","The painting makes me feel a little sad.,12,360,20","Vanessa","I don't like the colors or the way they've been arranged.,-20,380,20","Margaret","i feel like this is a a basic art piece that a school would have on the wall,-24,100,20","Tiffany","The painting makes me feel a little sad.,12,360,20","0"
"24858","","survey-text","159","1391343","0.0-159.0-0.0","AG707KZT39EZU","","","","{""Q0"":""Reminds me of a waterfall on a spring day. Love it. ""}","","","","","","","","","","","","","","","","","","","","","","",""
"3438.2999999523163","","image-slider-response","160","1394784","0.0-160.0","AG707KZT39EZU","","","","","42","","","","","","","","","","","","","","","","","","","","","",""
"null","","image-button-response","161","1399786","0.0-161.0","AG707KZT39EZU","img_art/24.jpg","null","","","","","","","","","","","","","","","","","","","","","","","","",""
"18650","","image-button-response","162","1418438","0.0-162.0","AG707KZT39EZU","img_art/24.jpg","4","","","","","","","","","","","","","","","","","","","","","","","","",""
"1866","","image-button-response","163","1420306","0.0-163.0-0.0","AG707KZT39EZU","img_art/24.jpg","0","","","","","","","","","","","","","","","","","","","","","","","","",""
"6618","","image-button-response","164","1426926","0.0-164.0-0.0","AG707KZT39EZU","img_art/24.jpg","1","","","","","","","","","","","","","","","","","","","","","","","","",""
"null","","html-keyboard-response","165","1427927","0.0-165.0","AG707KZT39EZU","<p style=""font-size: 48px;"">+</p>","","","","","null","allTrialResponses","1000","1","17","img_art/24.jpg","42","Reminds me of a waterfall on a spring day. Love it. ","Alexa,Vanessa,Margaret,Alexandria,Chelsea,Tiffany","I absolutely adore this painting. The colors, designs, everything. It's phenomenal,50,40,20","I love the colors, but I wish the water was less abstract.,17,380,20","peaceful and serene but Im not the biggest landscape fan,4,100,20","very colorful and intricate and makes me feel at peace,50,80,20","The colors are relaxing and cheerful.,32,180,20","I feel relaxed and happy, looking at the stream, but it feels hollow, like something is fake.,5,360,20","Chelsea","The colors are relaxing and cheerful.,32,180,20","Alexa","I absolutely adore this painting. The colors, designs, everything. It's phenomenal,50,40,20","Vanessa","I love the colors, but I wish the water was less abstract.,17,380,20","0"
"48096","","survey-text","166","1476029","0.0-166.0-0.0","AG707KZT39EZU","","","","{""Q0"":""Makes me think of a band in a line in front of an LCD screen. ""}","","","","","","","","","","","","","","","","","","","","","","",""
"3366.1999999284744","","image-slider-response","167","1479397","0.0-167.0","AG707KZT39EZU","","","","","28","","","","","","","","","","","","","","","","","","","","","",""
"null","","image-button-response","168","1484400","0.0-168.0","AG707KZT39EZU","img_art/23.jpg","null","","","","","","","","","","","","","","","","","","","","","","","","",""
"3198","","image-button-response","169","1487600","0.0-169.0","AG707KZT39EZU","img_art/23.jpg","3","","","","","","","","","","","","","","","","","","","","","","","","",""
"6688","","image-button-response","170","1494290","0.0-170.0-0.0","AG707KZT39EZU","img_art/23.jpg","0","","","","","","","","","","","","","","","","","","","","","","","","",""
"1818","","image-button-response","171","1496110","0.0-171.0-0.0","AG707KZT39EZU","img_art/23.jpg","4","","","","","","","","","","","","","","","","","","","","","","","","",""
"null","","html-keyboard-response","172","1497619","0.0-172.0","AG707KZT39EZU","<p style=""font-size: 48px;"">+</p>","","","","","null","allTrialResponses","1500","1","18","img_art/23.jpg","28","Makes me think of a band in a line in front of an LCD screen. ","Alexa,Vanessa,Kaitlin,Crystal,Chelsea,Erin","Very colorful and wild. It's cool and I like it,32,40,20","This is ugly and weird.,-50,380,20","i cannot breath in this,-10,60,20","I love the funky colors accompanied by perhaps dancing silhouettes. I love the white against the chaotic surroundings.,50,300,20","I like the royal colors.,38,180,20","Confetti dancer,-7,120,20","Crystal","I love the funky colors accompanied by perhaps dancing silhouettes. I love the white against the chaotic surroundings.,50,300,20","Alexa","Very colorful and wild. It's cool and I like it,32,40,20","Chelsea","I like the royal colors.,38,180,20","0"
"62189","","survey-text","173","1559813","0.0-173.0-0.0","AG707KZT39EZU","","","","{""Q0"":""Like the simpleness but its a little boring with random dots. ""}","","","","","","","","","","","","","","","","","","","","","","",""
"9129.799999952316","","image-slider-response","174","1568945","0.0-174.0","AG707KZT39EZU","","","","","2","","","","","","","","","","","","","","","","","","","","","",""
"null","","image-button-response","175","1573954","0.0-175.0","AG707KZT39EZU","img_art/15.jpg","null","","","","","","","","","","","","","","","","","","","","","","","","",""
"19222","","image-button-response","176","1593177","0.0-176.0","AG707KZT39EZU","img_art/15.jpg","1","","","","","","","","","","","","","","","","","","","","","","","","",""
"2503","","image-button-response","177","1595683","0.0-177.0-0.0","AG707KZT39EZU","img_art/15.jpg","4","","","","","","","","","","","","","","","","","","","","","","","","",""
"2938","","image-button-response","178","1598623","0.0-178.0-0.0","AG707KZT39EZU","img_art/15.jpg","0","","","","","","","","","","","","","","","","","","","","","","","","",""
"null","","html-keyboard-response","179","1599630","0.0-179.0","AG707KZT39EZU","<p style=""font-size: 48px;"">+</p>","","","","","null","allTrialResponses","1000","1","19","img_art/15.jpg","2","Like the simpleness but its a little boring with random dots. ","Alexa,Cynthia,Caitlin,Crystal,Chelsea,Kristen","Although it looks a bit bland in terms of color, I really like the print/pattern,25,40,20","interested in this transformation,20,320,20","Getting better.,10,80,20","The blotted black spots create a nice contrast between the brush strokes within the center and sides. I like it.,41,300,20","The colors are too busy.,-39,180,20","darkness, hatred, fear,-29,280,20","Cynthia","interested in this transformation,20,320,20","Chelsea","The colors are too busy.,-39,180,20","Alexa","Although it looks a bit bland in terms of color, I really like the print/pattern,25,40,20","0"
"19661","","survey-text","180","1619297","0.0-180.0-0.0","AG707KZT39EZU","","","","{""Q0"":""Reminds me of scissors in a cup holder. ""}","","","","","","","","","","","","","","","","","","","","","","",""
"3896.1999999284744","","image-slider-response","181","1623195","0.0-181.0","AG707KZT39EZU","","","","","-29","","","","","","","","","","","","","","","","","","","","","",""
"null","","image-button-response","182","1628206","0.0-182.0","AG707KZT39EZU","img_art/4.jpg","null","","","","","","","","","","","","","","","","","","","","","","","","",""
"9961","","image-button-response","183","1638169","0.0-183.0","AG707KZT39EZU","img_art/4.jpg","3","","","","","","","","","","","","","","","","","","","","","","","","",""
"1710","","image-button-response","184","1639881","0.0-184.0-0.0","AG707KZT39EZU","img_art/4.jpg","5","","","","","","","","","","","","","","","","","","","","","","","","",""
"5490","","image-button-response","185","1645373","0.0-185.0-0.0","AG707KZT39EZU","img_art/4.jpg","4","","","","","","","","","","","","","","","","","","","","","","","","",""
"null","","html-keyboard-response","186","1646375","0.0-186.0","AG707KZT39EZU","<p style=""font-size: 48px;"">+</p>","","","","","null","allTrialResponses","1000","1","20","img_art/4.jpg","-29","Reminds me of scissors in a cup holder. ","Alexa,Cynthia,Madison,Kelsey,Chelsea,Shannon","A bit too plain for my tastes,-10,40,20","creepy as it looks like fingernails,-23,320,20","This is what makes suburban dads say, ""my 4-year-old can do that."",-49,60,20","this is terrible,-49,240,20","The colors remind me of McDonalds.,-41,180,20","I think that this picture is too boring in terms of color and it looks ugly.,-41,220,20","Kelsey","this is terrible,-49,240,20","Shannon","I think that this picture is too boring in terms of color and it looks ugly.,-41,220,20","Chelsea","The colors remind me of McDonalds.,-41,180,20","0"
"4494","","survey-text","187","1650879","0.0-187.0-0.0","AG707KZT39EZU","","","","{""Q0"":""we""}","","","","","","","","","","","","","","","","","","","","","","",""
"30248","","survey-text","188","1681129","0.0-188.0-0.0","AG707KZT39EZU","","","","{""Q0"":""Makes me think of the beach after a wave rolls out. ""}","","","","","","","","","","","","","","","","","","","","","","",""
"2924.0999999046326","","image-slider-response","189","1684055","0.0-189.0","AG707KZT39EZU","","","","","29","","","","","","","","","","","","","","","","","","","","","",""
"null","","image-button-response","190","1689057","0.0-190.0","AG707KZT39EZU","img_art/7.jpg","null","","","","","","","","","","","","","","","","","","","","","","","","",""
"2914","","image-button-response","191","1691973","0.0-191.0","AG707KZT39EZU","img_art/7.jpg","2","","","","","","","","","","","","","","","","","","","","","","","","",""
"9293","","image-button-response","192","1701269","0.0-192.0-0.0","AG707KZT39EZU","img_art/7.jpg","0","","","","","","","","","","","","","","","","","","","","","","","","",""
"6004","","image-button-response","193","1707275","0.0-193.0-0.0","AG707KZT39EZU","img_art/7.jpg","1","","","","","","","","","","","","","","","","","","","","","","","","",""
"null","","html-keyboard-response","194","1707777","0.0-194.0","AG707KZT39EZU","<p style=""font-size: 48px;"">+</p>","","","","","null","allTrialResponses","500","1","21","img_art/7.jpg","29","Makes me think of the beach after a wave rolls out. ","Kathryn,Gabrielle,Rebecca,Kelsey,Chelsea,Shannon","It's off-putting because it reminds me of walking over rough sand/rocks or having scabs on my skin.,-10,140,20","looks like wallpaper,-6,160,20","would love to take a closer look at the texture,15,100,20","its like oatmeal with granola,-47,240,20","It looks more like wallpaper rather than a painting.,-27,180,20","I don't like the repetitiveness of the colors, and I think there should be more colors.,-50,220,20","Rebecca","would love to take a closer look at the texture,15,100,20","Kathryn","It's off-putting because it reminds me of walking over rough sand/rocks or having scabs on my skin.,-10,140,20","Gabrielle","looks like wallpaper,-6,160,20","0"
"40809","","survey-text","195","1748591","0.0-195.0-0.0","AG707KZT39EZU","","","","{""Q0"":""Like witnessing a car accident. Depressing. ""}","","","","","","","","","","","","","","","","","","","","","","",""
"4112.100000023842","","image-slider-response","196","1752705","0.0-196.0","AG707KZT39EZU","","","","","-50","","","","","","","","","","","","","","","","","","","","","",""
"null","","image-button-response","197","1757715","0.0-197.0","AG707KZT39EZU","img_art/20.jpg","null","","","","","","","","","","","","","","","","","","","","","","","","",""
"7962","","image-button-response","198","1765679","0.0-198.0","AG707KZT39EZU","img_art/20.jpg","1","","","","","","","","","","","","","","","","","","","","","","","","",""
"2331","","image-button-response","199","1768013","0.0-199.0-0.0","AG707KZT39EZU","img_art/20.jpg","0","","","","","","","","","","","","","","","","","","","","","","","","",""
"8641","","image-button-response","200","1776656","0.0-200.0-0.0","AG707KZT39EZU","img_art/20.jpg","4","","","","","","","","","","","","","","","","","","","","","","","","",""
"null","","html-keyboard-response","201","1777670","0.0-201.0","AG707KZT39EZU","<p style=""font-size: 48px;"">+</p>","","","","","null","allTrialResponses","1000","1","22","img_art/20.jpg","-50","Like witnessing a car accident. Depressing. ","Kathryn,Gabrielle,Rebecca,Megan,Mary,Lindsey","This looks like a ruin of what was once a thriving city.,-9,140,20","The white blob on the left seems out of place,-34,160,20","reminds me of georgia o'keeffe's skull,22,100,20","Fails to capture what similar styles do,-12,200,20","I can tell this artist has experience. I just don't care for the color combo.,7,180,20","Not sure what it is. The colors are pleasant; makes me want to figure it out. An animal skull in the desert?,10,400,20","Gabrielle","The white blob on the left seems out of place,-34,160,20","Kathryn","This looks like a ruin of what was once a thriving city.,-9,140,20","Mary","I can tell this artist has experience. I just don't care for the color combo.,7,180,20","0"
"44250","","survey-text","202","1821929","0.0-202.0-0.0","AG707KZT39EZU","","","","{""Q0"":""The faces in the sky are creepy looking. I wouldn't want to see it on my wall. ""}","","","","","","","","","","","","","","","","","","","","","","",""
"4828.200000047684","","image-slider-response","203","1826759","0.0-203.0","AG707KZT39EZU","","","","","-27","","","","","","","","","","","","","","","","","","","","","",""
"4504","","image-button-response","204","1831775","0.0-204.0","AG707KZT39EZU","img_art/8.jpg","3","","","","","","","","","","","","","","","","","","","","","","","","",""
"15707","","image-button-response","205","1847485","0.0-205.0","AG707KZT39EZU","img_art/8.jpg","3","","","","","","","","","","","","","","","","","","","","","","","","",""
"1492","","image-button-response","206","1848979","0.0-206.0-0.0","AG707KZT39EZU","img_art/8.jpg","0","","","","","","","","","","","","","","","","","","","","","","","","",""
"1015","","image-button-response","207","1849997","0.0-207.0-0.0","AG707KZT39EZU","img_art/8.jpg","5","","","","","","","","","","","","","","","","","","","","","","","","",""
"null","","html-keyboard-response","208","1850999","0.0-208.0","AG707KZT39EZU","<p style=""font-size: 48px;"">+</p>","","","","","null","allTrialResponses","1000","1","23","img_art/8.jpg","-27","The faces in the sky are creepy looking. I wouldn't want to see it on my wall. ","Kathryn,Gabrielle,Mackenzie,Alexandra,Mary,Cassidy","The angle makes it kind of disorienting but I enjoy the fantastical colors and imagery. It's like a dream.,10,140,20","lots going on with great use of lots of color and geometry,24,160,20","The different shapes are fun to look for.,30,20,20","The colors are nice but the big face in the sky is creepy,-11,60,20","Very inspiring piece. I love how it's at angle. It gives it character.,23,180,20","I like the colors,10,140,20","Alexandra","The colors are nice but the big face in the sky is creepy,-11,60,20","Kathryn","The angle makes it kind of disorienting but I enjoy the fantastical colors and imagery. It's like a dream.,10,140,20","Cassidy","I like the colors,10,140,20","0"
"78636","","survey-text","209","1929641","0.0-209.0-0.0","AG707KZT39EZU","","","","{""Q0"":""A mashup of various objects. Distracting and very sad. ""}","","","","","","","","","","","","","","","","","","","","","","",""
"3971.5","","image-slider-response","210","1933615","0.0-210.0","AG707KZT39EZU","","","","","-50","","","","","","","","","","","","","","","","","","","","","",""
"3617","","image-button-response","211","1938628","0.0-211.0","AG707KZT39EZU","img_art/16.jpg","3","","","","","","","","","","","","","","","","","","","","","","","","",""
"1304","","image-button-response","212","1939933","0.0-212.0","AG707KZT39EZU","img_art/16.jpg","3","","","","","","","","","","","","","","","","","","","","","","","","",""
"799","","image-button-response","213","1940734","0.0-213.0-0.0","AG707KZT39EZU","img_art/16.jpg","5","","","","","","","","","","","","","","","","","","","","","","","","",""
"760","","image-button-response","214","1941495","0.0-214.0-0.0","AG707KZT39EZU","img_art/16.jpg","2","","","","","","","","","","","","","","","","","","","","","","","","",""
"null","","html-keyboard-response","215","1942498","0.0-215.0","AG707KZT39EZU","<p style=""font-size: 48px;"">+</p>","","","","","null","allTrialResponses","1000","1","24","img_art/16.jpg","-50","A mashup of various objects. Distracting and very sad. ","Kathryn,Hailey,Taylor,Alexandra,Jordan,Cassidy","I see something that is supposed to be comforting but it's been discarded and lost.,-20,140,20","cute and warm. i like the bear,15,200,20","It just makes me feel uncomfortable,-25,340,20","This is weird and creepy.,-40,60,20","Not interested at all,-15,20,20","I don't know why, I just don't like it,-28,140,20","Alexandra","This is weird and creepy.,-40,60,20","Cassidy","I don't know why, I just don't like it,-28,140,20","Taylor","It just makes me feel uncomfortable,-25,340,20","0"
"32489","","survey-text","216","1974993","0.0-216.0-0.0","AG707KZT39EZU","","","","{""Q0"":""Nice color combination. Feels like a happy day going a little wrong. ""}","","","","","","","","","","","","","","","","","","","","","","",""
"2674","","image-slider-response","217","1977668","0.0-217.0","AG707KZT39EZU","","","","","21","","","","","","","","","","","","","","","","","","","","","",""
"null","","image-button-response","218","1982684","0.0-218.0","AG707KZT39EZU","img_art/30.jpg","null","","","","","","","","","","","","","","","","","","","","","","","","",""
"1884","","image-button-response","219","1984569","0.0-219.0","AG707KZT39EZU","img_art/30.jpg","2","","","","","","","","","","","","","","","","","","","","","","","","",""
"1624","","image-button-response","220","1986195","0.0-220.0-0.0","AG707KZT39EZU","img_art/30.jpg","3","","","","","","","","","","","","","","","","","","","","","","","","",""
"972","","image-button-response","221","1987169","0.0-221.0-0.0","AG707KZT39EZU","img_art/30.jpg","0","","","","","","","","","","","","","","","","","","","","","","","","",""
"null","","html-keyboard-response","222","1988171","0.0-222.0","AG707KZT39EZU","<p style=""font-size: 48px;"">+</p>","","","","","null","allTrialResponses","1000","1","25","img_art/30.jpg","21","Nice color combination. Feels like a happy day going a little wrong. ","Maria,Alexis,Taylor,Alexandra,Mariah,Cassidy","uplifted and yet calmed,15,120,20","Too abstract, looks like something I could paint,-50,100,20","It's a really interesting piece,20,340,20","I really love the pastel colors and the 3D design in this,43,60,20","It just feels hasty and not well composed. Has an angsty teen feel,-31,140,20","I just don't see the point of this piece,-11,140,20","Taylor","It's a really interesting piece,20,340,20","Alexandra","I really love the pastel colors and the 3D design in this,43,60,20","Maria","uplifted and yet calmed,15,120,20","0"
"6615","","survey-text","223","1994799","0.0-223.0-0.0","AG707KZT39EZU","","","","{""Q0"":""table""}","","","","","","","","","","","","","","","","","","","","","","",""
"43090","","survey-text","224","2037891","0.0-224.0-0.0","AG707KZT39EZU","","","","{""Q0"":""Reminds of a tree at a lake. Very nice and warm. ""}","","","","","","","","","","","","","","","","","","","","","","",""
"5024.200000047684","","image-slider-response","225","2042917","0.0-225.0","AG707KZT39EZU","","","","","33","","","","","","","","","","","","","","","","","","","","","",""
"null","","image-button-response","226","2047928","0.0-226.0","AG707KZT39EZU","img_art/14.jpg","null","","","","","","","","","","","","","","","","","","","","","","","","",""
"4407","","image-button-response","227","2052337","0.0-227.0","AG707KZT39EZU","img_art/14.jpg","4","","","","","","","","","","","","","","","","","","","","","","","","",""
"2091","","image-button-response","228","2054431","0.0-228.0-0.0","AG707KZT39EZU","img_art/14.jpg","1","","","","","","","","","","","","","","","","","","","","","","","","",""
"7317","","image-button-response","229","2061751","0.0-229.0-0.0","AG707KZT39EZU","img_art/14.jpg","0","","","","","","","","","","","","","","","","","","","","","","","","",""
"null","","html-keyboard-response","230","2063253","0.0-230.0","AG707KZT39EZU","<p style=""font-size: 48px;"">+</p>","","","","","null","allTrialResponses","1500","1","26","img_art/14.jpg","33","Reminds of a tree at a lake. Very nice and warm. ","Maria,Lauren,Taylor,Alexandra,Alyssa,Alicia","I enjoy what comes across as a playful take on nature themes,26,120,20","I like how balanced the piece is with its symmetrical design.,20,340,20","Makes me think of my plants growing,11,340,20","Pretty, dainty, unique,22,60,20","Beautiful tree,the use of water colors makes it soothing to look at,37,160,20","ok, gloomy though.,12,120,20","Alyssa","Beautiful tree,the use of water colors makes it soothing to look at,37,160,20","Lauren","I like how balanced the piece is with its symmetrical design.,20,340,20","Maria","I enjoy what comes across as a playful take on nature themes,26,120,20","0"
"51378","","survey-text","231","2114647","0.0-231.0-0.0","AG707KZT39EZU","","","","{""Q0"":""Very interesting. Reminds me of a childs racetrack set. ""}","","","","","","","","","","","","","","","","","","","","","","",""
"2568.3000000715256","","image-slider-response","232","2117217","0.0-232.0","AG707KZT39EZU","","","","","28","","","","","","","","","","","","","","","","","","","","","",""
"null","","image-button-response","233","2122220","0.0-233.0","AG707KZT39EZU","img_art/10.jpg","null","","","","","","","","","","","","","","","","","","","","","","","","",""
"219","","image-button-response","234","2122441","0.0-234.0","AG707KZT39EZU","img_art/10.jpg","5","","","","","","","","","","","","","","","","","","","","","","","","",""
"2426","","image-button-response","235","2124869","0.0-235.0-0.0","AG707KZT39EZU","img_art/10.jpg","3","","","","","","","","","","","","","","","","","","","","","","","","",""
"822","","image-button-response","236","2125709","0.0-236.0-0.0","AG707KZT39EZU","img_art/10.jpg","2","","","","","","","","","","","","","","","","","","","","","","","","",""
"null","","html-keyboard-response","237","2126211","0.0-237.0","AG707KZT39EZU","<p style=""font-size: 48px;"">+</p>","","","","","null","allTrialResponses","500","1","27","img_art/10.jpg","28","Very interesting. Reminds me of a childs racetrack set. ","Maria,Lauren,Morgan,Laura,Alyssa,Emma","not sure what to make of this one,0,120,20","I can't really tell what this is suppose to represent, but overall I don't like the design.,-20,340,20","Roller coaster on an island.,9,380,20","I feel a state of readiness without anxiety.,24,320,20","Bleak and uninteresting,-10,160,20","Feels musical .....,40,60,20","Emma","Feels musical .....,40,60,20","Laura","I feel a state of readiness without anxiety.,24,320,20","Morgan","Roller coaster on an island.,9,380,20","0"
"48449","","survey-text","238","2174671","0.0-238.0-0.0","AG707KZT39EZU","","","","{""Q0"":""Great color and texture changes. A little sad though. ""}","","","","","","","","","","","","","","","","","","","","","","",""
"2590.100000023842","","image-slider-response","239","2177263","0.0-239.0","AG707KZT39EZU","","","","","26","","","","","","","","","","","","","","","","","","","","","",""
"null","","image-button-response","240","2182265","0.0-240.0","AG707KZT39EZU","img_art/21.jpg","null","","","","","","","","","","","","","","","","","","","","","","","","",""
"2564","","image-button-response","241","2184831","0.0-241.0","AG707KZT39EZU","img_art/21.jpg","2","","","","","","","","","","","","","","","","","","","","","","","","",""
"5879","","image-button-response","242","2190713","0.0-242.0-0.0","AG707KZT39EZU","img_art/21.jpg","4","","","","","","","","","","","","","","","","","","","","","","","","",""
"1919","","image-button-response","243","2192635","0.0-243.0-0.0","AG707KZT39EZU","img_art/21.jpg","3","","","","","","","","","","","","","","","","","","","","","","","","",""
"null","","html-keyboard-response","244","2193643","0.0-244.0","AG707KZT39EZU","<p style=""font-size: 48px;"">+</p>","","","","","null","allTrialResponses","1000","1","28","img_art/21.jpg","26","Great color and texture changes. A little sad though. ","Jasmine,Makayla,Morgan,Laura,Katherine,Emma","The blues make me feel sadder as my mood is already not the best right now,-10,340,20","I like the two sides meeting, like a movie scene,15,80,20","Survivable storm on the open sea.,27,380,20","a serene, calm and eloquent storm,9,320,20","I can't explain why this struck me as absolutely gorgeous. Like the clashing between 2 different worlds,43,120,20","Pretty, good colors,30,60,20","Morgan","Survivable storm on the open sea.,27,380,20","Katherine","I can't explain why this struck me as absolutely gorgeous. Like the clashing between 2 different worlds,43,120,20","Laura","a serene, calm and eloquent storm,9,320,20","0"
"46748","","survey-text","245","2240399","0.0-245.0-0.0","AG707KZT39EZU","","","","{""Q0"":""A walk along the seashore. Not enough color to be uplifting though. ""}","","","","","","","","","","","","","","","","","","","","","","",""
"2822.5","","image-slider-response","246","2243223","0.0-246.0","AG707KZT39EZU","","","","","15","","","","","","","","","","","","","","","","","","","","","",""
"null","","image-button-response","247","2248225","0.0-247.0","AG707KZT39EZU","img_art/19.jpg","null","","","","","","","","","","","","","","","","","","","","","","","","",""
"5942","","image-button-response","248","2254169","0.0-248.0","AG707KZT39EZU","img_art/19.jpg","1","","","","","","","","","","","","","","","","","","","","","","","","",""
"2409","","image-button-response","249","2256581","0.0-249.0-0.0","AG707KZT39EZU","img_art/19.jpg","3","","","","","","","","","","","","","","","","","","","","","","","","",""
"2751","","image-button-response","250","2259335","0.0-250.0-0.0","AG707KZT39EZU","img_art/19.jpg","0","","","","","","","","","","","","","","","","","","","","","","","","",""
"null","","html-keyboard-response","251","2260843","0.0-251.0","AG707KZT39EZU","<p style=""font-size: 48px;"">+</p>","","","","","null","allTrialResponses","1500","1","29","img_art/19.jpg","15","A walk along the seashore. Not enough color to be uplifting though. ","Anna,Haley,Morgan,Laura,Katherine,Kaitlyn","I like the shapes.,22,300,20","I like this as a whole, but the longer I look at it, the less it pleases me,-10,220,20","Messy pantry full of food.,5,380,20","confusion, scattered and diffuse,-4,320,20","I dig the not being able to tell what anything is but knowing everything is supposed to be something,46,120,20","The picture contains a lot of brown and weird drips,-4,80,20","Haley","I like this as a whole, but the longer I look at it, the less it pleases me,-10,220,20","Laura","confusion, scattered and diffuse,-4,320,20","Anna","I like the shapes.,22,300,20","0"
"35091","","survey-text","252","2295943","0.0-252.0-0.0","AG707KZT39EZU","","","","{""Q0"":""The paint splatter seems rather boring and predictable. ""}","","","","","","","","","","","","","","","","","","","","","","",""
"3350.100000023842","","image-slider-response","253","2299295","0.0-253.0","AG707KZT39EZU","","","","","-37","","","","","","","","","","","","","","","","","","","","","",""
"null","","image-button-response","254","2304313","0.0-254.0","AG707KZT39EZU","img_art/13.jpg","null","","","","","","","","","","","","","","","","","","","","","","","","",""
"1522","","image-button-response","255","2305837","0.0-255.0","AG707KZT39EZU","img_art/13.jpg","5","","","","","","","","","","","","","","","","","","","","","","","","",""
"4658","","image-button-response","256","2310497","0.0-256.0-0.0","AG707KZT39EZU","img_art/13.jpg","3","","","","","","","","","","","","","","","","","","","","","","","","",""
"2558","","image-button-response","257","2313057","0.0-257.0-0.0","AG707KZT39EZU","img_art/13.jpg","1","","","","","","","","","","","","","","","","","","","","","","","","",""
"null","","html-keyboard-response","258","2313559","0.0-258.0","AG707KZT39EZU","<p style=""font-size: 48px;"">+</p>","","","","","null","allTrialResponses","500","1","30","img_art/13.jpg","-37","The paint splatter seems rather boring and predictable. ","Anna,Haley,Diana,Laura,Danielle,Brittany","It reminds me of a window on a rainy day.,40,300,20","Nothing about this stands out to me,-10,220,20","I really loved the color contrast. Having the white stripe in the center makes the it appear 3D.,11,380,20","water on my shower curtain - I feel refreshed, renewed,9,320,20","While it is a bit basic and doesn't speak to me much, I like the feeling it gives,40,340,20","Not really a fan of ""splash"" art.,-20,40,20","Brittany","Not really a fan of ""splash"" art.,-20,40,20","Laura","water on my shower curtain - I feel refreshed, renewed,9,320,20","Haley","Nothing about this stands out to me,-10,220,20","0"
"11245","","image-button-response_instructions","259","2324811","0.0-259.0","AG707KZT39EZU","","0","instructions","","","","","","","","","","","","","","","","","","","","","","","",""
"1464","","image-button-response","260","2326280","0.0-260.0","AG707KZT39EZU","","0","","","","","","","","","","","","","","","","","","","","","","","","",""
