"rt","url","trial_type","trial_index","time_elapsed","internal_node_id","participant_id","stimulus","button_pressed","Name","responses","response","key_press","variableName","fixationTime","condition","trial","photo","subjectRating","subjectResponse","agentsNames","agent_1_Response","agent_2_Response","agent_3_Response","agent_4_Response","agent_5_Response","agent_6_Response","kept_1_name","kept_1_response","kept_2_name","kept_2_response","kept_3_name","kept_3_response","errorCounter"
"9160","external_page_harvard.html","external-html","0","9224","0.0-0.0","AGG6I61OP7MXT","","","","","","","","","","","","","","","","","","","","","","","","","","",""
"1415","","image-button-response","1","10640","0.0-1.0","AGG6I61OP7MXT","","1","","","","","","","","","","","","","","","","","","","","","","","","",""
"1002","","image-button-response","2","11644","0.0-2.0-0.0","AGG6I61OP7MXT","","1","phone","","","","","","","","","","","","","","","","","","","","","","","",""
"6161","","survey-text","3","17806","0.0-3.0-0.0","AGG6I61OP7MXT","","","","{""Q0"":""AGG6I61OP7MXT""}","","","","","","","","","","","","","","","","","","","","","","",""
"5603","","image-button-response_instructions","4","23410","0.0-4.0","AGG6I61OP7MXT","","0","instructions","","","","","","","","","","","","","","","","","","","","","","","",""
"11377","","image-button-response_instructions","5","34788","0.0-5.0","AGG6I61OP7MXT","img_art/ins/popularity/ins1.png","0","instructions","","","","","","","","","","","","","","","","","","","","","","","",""
"5942","","image-button-response_instructions","6","40730","0.0-6.0","AGG6I61OP7MXT","img_art/ins/popularity/ins2.png","0","instructions","","","","","","","","","","","","","","","","","","","","","","","",""
"4185","","image-button-response_instructions","7","44916","0.0-7.0","AGG6I61OP7MXT","img_art/ins/popularity/ins2Extreme.png","0","instructions","","","","","","","","","","","","","","","","","","","","","","","",""
"5387","","image-button-response_instructions","8","50305","0.0-8.0","AGG6I61OP7MXT","img_art/ins/popularity/ins3KEEPpop.PNG","0","instructions","","","","","","","","","","","","","","","","","","","","","","","",""
"3639","","image-button-response_instructions","9","53945","0.0-9.0","AGG6I61OP7MXT","img_art/ins/popularity/ins3ANamepop.PNG","0","instructions","","","","","","","","","","","","","","","","","","","","","","","",""
"2713","","image-button-response_instructions","10","56658","0.0-10.0","AGG6I61OP7MXT","img_art/ins/popularity/ins3ARatingpop.png","0","instructions","","","","","","","","","","","","","","","","","","","","","","","",""
"1902","","image-button-response_instructions","11","58560","0.0-11.0","AGG6I61OP7MXT","img_art/ins/popularity/ins3ATextpop.png","0","instructions","","","","","","","","","","","","","","","","","","","","","","","",""
"6487","","image-button-response_instructions","12","65047","0.0-12.0","AGG6I61OP7MXT","img_art/ins/popularity/ins3ALikespop.png","0","instructions","","","","","","","","","","","","","","","","","","","","","","","",""
"7897","","image-button-response_instructions","13","72944","0.0-13.0","AGG6I61OP7MXT","img_art/ins/popularity/ins3KEEPpop.PNG","0","instructions","","","","","","","","","","","","","","","","","","","","","","","",""
"6956","","image-button-response_instructions","14","79900","0.0-14.0","AGG6I61OP7MXT","img_art/ins/popularity/ins3_5RED.png","0","instructions","","","","","","","","","","","","","","","","","","","","","","","",""
"3667","","image-button-response_instructions","15","83568","0.0-15.0","AGG6I61OP7MXT","img_art/ins/popularity/ins3KEEPpop.PNG","0","instructions","","","","","","","","","","","","","","","","","","","","","","","",""
"7881","","image-button-response_instructions","16","91450","0.0-16.0","AGG6I61OP7MXT","img_art/ins/popularity/ins4KEEPpop.PNG","0","instructions","","","","","","","","","","","","","","","","","","","","","","","",""
"3304","","image-button-response_instructions","17","94754","0.0-17.0","AGG6I61OP7MXT","img_art/ins/popularity/ins5KEEPpop.PNG","0","instructions","","","","","","","","","","","","","","","","","","","","","","","",""
"1093","","image-button-response_instructions","18","95848","0.0-18.0","AGG6I61OP7MXT","","0","instructions","","","","","","","","","","","","","","","","","","","","","","","",""
"4496","","survey-text","19","100358","0.0-19.0-0.0","AGG6I61OP7MXT","","","","{""Q0"":""but""}","","","","","","","","","","","","","","","","","","","","","","",""
"7220","","survey-text","20","107580","0.0-20.0-0.0","AGG6I61OP7MXT","","","","{""Q0"":""it's calming but boring""}","","","","","","","","","","","","","","","","","","","","","","",""
"2530.3000000715256","","image-slider-response","21","110112","0.0-21.0","AGG6I61OP7MXT","","","","","-10","","","","","","","","","","","","","","","","","","","","","",""
"null","","image-button-response","22","115120","0.0-22.0","AGG6I61OP7MXT","img_art/ins/1.jpg","null","","","","","","","","","","","","","","","","","","","","","","","","",""
"633","","image-button-response","23","115756","0.0-23.0","AGG6I61OP7MXT","img_art/ins/1.jpg","2","","","","","","","","","","","","","","","","","","","","","","","","",""
"1433","","image-button-response","24","117191","0.0-24.0-0.0","AGG6I61OP7MXT","img_art/ins/1.jpg","3","","","","","","","","","","","","","","","","","","","","","","","","",""
"1561","","image-button-response","25","118754","0.0-25.0-0.0","AGG6I61OP7MXT","img_art/ins/1.jpg","5","","","","","","","","","","","","","","","","","","","","","","","","",""
"null","","html-keyboard-response","26","120265","0.0-26.0","AGG6I61OP7MXT","<p style=""font-size: 48px;"">+</p>","","","","","null","allTrialResponses","1500","1","-2","img_art/ins/1.jpg","-10","it's calming but boring","Allison,Ashley,Beth,Dora,Erika,Jen","looks like a lot of things going on in the mist,20,20,20","I just don't get why these type of art would be popular,-32,40,20","This color reminds me of poo,-46,60,20","looks like what my niece in 3rd grade did this afternoon,-50,80,20","I like the sophisticated brushwork,40,100,20","It reminds me of a candy land dream I had,36,120,20","Beth","This color reminds me of poo,-46,60,20","Dora","looks like what my niece in 3rd grade did this afternoon,-50,80,20","Jen","It reminds me of a candy land dream I had,36,120,20","0"
"18301","","survey-text","27","138569","0.0-27.0-0.0","AGG6I61OP7MXT","","","","{""Q0"":""i like the textures, but abstract is boring""}","","","","","","","","","","","","","","","","","","","","","","",""
"3327.7999999523163","","image-slider-response","28","141897","0.0-28.0","AGG6I61OP7MXT","","","","","6","","","","","","","","","","","","","","","","","","","","","",""
"3624","","image-button-response","29","146905","0.0-29.0","AGG6I61OP7MXT","img_art/ins/2.jpg","0","","","","","","","","","","","","","","","","","","","","","","","","",""
"2683","","image-button-response","30","149589","0.0-30.0","AGG6I61OP7MXT","img_art/ins/2.jpg","0","","","","","","","","","","","","","","","","","","","","","","","","",""
"1599","","image-button-response","31","151190","0.0-31.0-0.0","AGG6I61OP7MXT","img_art/ins/2.jpg","3","","","","","","","","","","","","","","","","","","","","","","","","",""
"2044","","image-button-response","32","153236","0.0-32.0-0.0","AGG6I61OP7MXT","img_art/ins/2.jpg","1","","","","","","","","","","","","","","","","","","","","","","","","",""
"null","","html-keyboard-response","33","153744","0.0-33.0","AGG6I61OP7MXT","<p style=""font-size: 48px;"">+</p>","","","","","null","allTrialResponses","500","1","-1","img_art/ins/2.jpg","6","i like the textures, but abstract is boring","Katie,Jenna,Beth,Dora,Kara,Jen","too much color!,-28,180,20","One of my pet peevs,-48,140,20","meaningless painting,-45,60,20","looks too angry,-50,80,20","I like the blocks of color arrangements,30,160,20","It reminds me of a fireplace,36,120,20","Katie","too much color!,-28,180,20","Dora","looks too angry,-50,80,20","Jenna","One of my pet peevs,-48,140,20","0"
"10041","","survey-text","34","163788","0.0-34.0-0.0","AGG6I61OP7MXT","","","","{""Q0"":""i like the vibrance of this one""}","","","","","","","","","","","","","","","","","","","","","","",""
"2630.6999999284744","","image-slider-response","35","166420","0.0-35.0","AGG6I61OP7MXT","","","","","26","","","","","","","","","","","","","","","","","","","","","",""
"null","","image-button-response","36","171428","0.0-36.0","AGG6I61OP7MXT","img_art/ins/3.jpg","null","","","","","","","","","","","","","","","","","","","","","","","","",""
"574","","image-button-response","37","172004","0.0-37.0","AGG6I61OP7MXT","img_art/ins/3.jpg","4","","","","","","","","","","","","","","","","","","","","","","","","",""
"2591","","image-button-response","38","174596","0.0-38.0-0.0","AGG6I61OP7MXT","img_art/ins/3.jpg","2","","","","","","","","","","","","","","","","","","","","","","","","",""
"1986","","image-button-response","39","176584","0.0-39.0-0.0","AGG6I61OP7MXT","img_art/ins/3.jpg","5","","","","","","","","","","","","","","","","","","","","","","","","",""
"null","","html-keyboard-response","40","177085","0.0-40.0","AGG6I61OP7MXT","<p style=""font-size: 48px;"">+</p>","","","","","null","allTrialResponses","500","1","0","img_art/ins/3.jpg","26","i like the vibrance of this one","Katie,Jenna,Leslie,Dora,Mary,Rose","It looks depressing,-26,180,20","looks like a murder room,-35,140,20","It's an alright work,15,200,20","My worst nightmare,-42,80,20","I like the overlapping of brushes,41,220,20","My daily routine, it's depressing,-20,240,20","Mary","I like the overlapping of brushes,41,220,20","Leslie","It's an alright work,15,200,20","Rose","My daily routine, it's depressing,-20,240,20","0"
"5343","","image-button-response_instructions","41","182434","0.0-41.0","AGG6I61OP7MXT","","0","instructions","","","","","","","","","","","","","","","","","","","","","","","",""
"8241","","survey-likert","42","190676","0.0-42.0-0.0","AGG6I61OP7MXT","","","","{""Q0"":"""",""Q1"":0,""Q2"":1}","","","","","","","","","","","","","","","","","","","","","","",""
"3185","","survey-text","43","193864","0.0-43.0-0.0","AGG6I61OP7MXT","","","","{""Q0"":""rock""}","","","","","","","","","","","","","","","","","","","","","","",""
"14294","","survey-text","44","208158","0.0-44.0-0.0","AGG6I61OP7MXT","","","","{""Q0"":""this looks like a child had free access to all the crayons""}","","","","","","","","","","","","","","","","","","","","","","",""
"2430.600000023842","","image-slider-response","45","210589","0.0-45.0","AGG6I61OP7MXT","","","","","-33","","","","","","","","","","","","","","","","","","","","","",""
"null","","image-button-response","46","215603","0.0-46.0","AGG6I61OP7MXT","img_art/9.jpg","null","","","","","","","","","","","","","","","","","","","","","","","","",""
"794","","image-button-response","47","216398","0.0-47.0","AGG6I61OP7MXT","img_art/9.jpg","4","","","","","","","","","","","","","","","","","","","","","","","","",""
"477","","image-button-response","48","216877","0.0-48.0-0.0","AGG6I61OP7MXT","img_art/9.jpg","5","","","","","","","","","","","","","","","","","","","","","","","","",""
"5114","","image-button-response","49","221992","0.0-49.0-0.0","AGG6I61OP7MXT","img_art/9.jpg","1","","","","","","","","","","","","","","","","","","","","","","","","",""
"null","","html-keyboard-response","50","223502","0.0-50.0","AGG6I61OP7MXT","<p style=""font-size: 48px;"">+</p>","","","","","null","allTrialResponses","1500","1","1","img_art/9.jpg","-33","this looks like a child had free access to all the crayons","Margaret,Brittany,Sabrina,Heather,Stephanie,Alyssa","keeps me interested. like the colors,17,100,20","It reminds me of an illustration for a fairy tale.,19,40,20","Calming and relaxing,42,120,20","a mother in bed surrounded by emotions,1,260,20","Someone sleeping in a cave. Dont like the scribble look.,-30,300,20","Unpleasant, alot of dark colors and strange lines,-26,160,20","Stephanie","Someone sleeping in a cave. Dont like the scribble look.,-30,300,20","Alyssa","Unpleasant, alot of dark colors and strange lines,-26,160,20","Brittany","It reminds me of an illustration for a fairy tale.,19,40,20","0"
"10027","","survey-text","51","233531","0.0-51.0-0.0","AGG6I61OP7MXT","","","","{""Q0"":""this is fun.  I like the transition from dark to light""}","","","","","","","","","","","","","","","","","","","","","","",""
"2955.2999999523163","","image-slider-response","52","236488","0.0-52.0","AGG6I61OP7MXT","","","","","27","","","","","","","","","","","","","","","","","","","","","",""
"null","","image-button-response","53","241489","0.0-53.0","AGG6I61OP7MXT","img_art/12.jpg","null","","","","","","","","","","","","","","","","","","","","","","","","",""
"616","","image-button-response","54","242105","0.0-54.0","AGG6I61OP7MXT","img_art/12.jpg","0","","","","","","","","","","","","","","","","","","","","","","","","",""
"737","","image-button-response","55","242844","0.0-55.0-0.0","AGG6I61OP7MXT","img_art/12.jpg","4","","","","","","","","","","","","","","","","","","","","","","","","",""
"306","","image-button-response","56","243150","0.0-56.0-0.0","AGG6I61OP7MXT","img_art/12.jpg","5","","","","","","","","","","","","","","","","","","","","","","","","",""
"null","","html-keyboard-response","57","243651","0.0-57.0","AGG6I61OP7MXT","<p style=""font-size: 48px;"">+</p>","","","","","null","allTrialResponses","500","1","2","img_art/12.jpg","27","this is fun.  I like the transition from dark to light","Amy,Brittany,Mariah,Kristen,Stephanie,Alyssa","Quite lovely with depth and possibility.,21,220,20","Too blocky and not interesting enough.,-15,40,20","It is very bland and the colors are not cohesive.,-20,140,20","stressful, upsetting,-10,280,20","I like the pattern to it.,31,300,20","Its cool,reminiscent of Andy Warhol type of style,10,160,20","Amy","Quite lovely with depth and possibility.,21,220,20","Stephanie","I like the pattern to it.,31,300,20","Alyssa","Its cool,reminiscent of Andy Warhol type of style,10,160,20","0"
"9101","","survey-text","58","252754","0.0-58.0-0.0","AGG6I61OP7MXT","","","","{""Q0"":""this just looks like a zoomed in photo of sand""}","","","","","","","","","","","","","","","","","","","","","","",""
"2550.399999976158","","image-slider-response","59","255306","0.0-59.0","AGG6I61OP7MXT","","","","","-18","","","","","","","","","","","","","","","","","","","","","",""
"null","","image-button-response","60","260307","0.0-60.0","AGG6I61OP7MXT","img_art/7.jpg","null","","","","","","","","","","","","","","","","","","","","","","","","",""
"1576","","image-button-response","61","261884","0.0-61.0","AGG6I61OP7MXT","img_art/7.jpg","0","","","","","","","","","","","","","","","","","","","","","","","","",""
"1089","","image-button-response","62","262975","0.0-62.0-0.0","AGG6I61OP7MXT","img_art/7.jpg","4","","","","","","","","","","","","","","","","","","","","","","","","",""
"711","","image-button-response","63","263686","0.0-63.0-0.0","AGG6I61OP7MXT","img_art/7.jpg","5","","","","","","","","","","","","","","","","","","","","","","","","",""
"null","","html-keyboard-response","64","264688","0.0-64.0","AGG6I61OP7MXT","<p style=""font-size: 48px;"">+</p>","","","","","null","allTrialResponses","1000","1","3","img_art/7.jpg","-18","this just looks like a zoomed in photo of sand","Amy,Dominique,Kaitlin,Angelica,Stephanie,Alyssa","Limited emotional reaction for me. No focus and highly abstract,-20,220,20","One I would love to own . Calm relaxing spiritual and full of love,41,400,20","I'm not too sure about this one,-10,60,20","This is vague and ugly.,-3,280,20","This looks muddy and stomped on. I think of destruction.,-50,300,20","It looks like someone took a picture of a muddy ground and called it art.,-41,160,20","Amy","Limited emotional reaction for me. No focus and highly abstract,-20,220,20","Stephanie","This looks muddy and stomped on. I think of destruction.,-50,300,20","Alyssa","It looks like someone took a picture of a muddy ground and called it art.,-41,160,20","0"
"8993","","survey-text","65","273684","0.0-65.0-0.0","AGG6I61OP7MXT","","","","{""Q0"":""Terrifying.  Would not recommend.""}","","","","","","","","","","","","","","","","","","","","","","",""
"2894","","image-slider-response","66","276580","0.0-66.0","AGG6I61OP7MXT","","","","","-37","","","","","","","","","","","","","","","","","","","","","",""
"null","","image-button-response","67","281766","0.0-67.0","AGG6I61OP7MXT","img_art/16.jpg","null","","","","","","","","","","","","","","","","","","","","","","","","",""
"3578","","image-button-response","68","285347","0.0-68.0","AGG6I61OP7MXT","img_art/16.jpg","0","","","","","","","","","","","","","","","","","","","","","","","","",""
"1845","","image-button-response","69","287192","0.0-69.0-0.0","AGG6I61OP7MXT","img_art/16.jpg","2","","","","","","","","","","","","","","","","","","","","","","","","",""
"1687","","image-button-response","70","288880","0.0-70.0-0.0","AGG6I61OP7MXT","img_art/16.jpg","5","","","","","","","","","","","","","","","","","","","","","","","","",""
"null","","html-keyboard-response","71","289381","0.0-71.0","AGG6I61OP7MXT","<p style=""font-size: 48px;"">+</p>","","","","","null","allTrialResponses","500","1","4","img_art/16.jpg","-37","Terrifying.  Would not recommend.","Amy,Marissa,Isabella,Sophia,Stephanie,Alyssa","visceral and a little disturbing.,10,220,20","I do not like this dark and twisted portrayal of childhood,-42,160,20","This looks chaotic,-25,280,20","This feels like there's some kind of pedofile thing going on here.,-50,280,20","It looks violent.,-30,300,20","It creeps me out.,-50,160,20","Amy","visceral and a little disturbing.,10,220,20","Isabella","This looks chaotic,-25,280,20","Alyssa","It creeps me out.,-50,160,20","0"
"12218","","survey-text","72","301608","0.0-72.0-0.0","AGG6I61OP7MXT","","","","{""Q0"":""This has a very gloomy, scribbled feel.""}","","","","","","","","","","","","","","","","","","","","","","",""
"2142.899999976158","","image-slider-response","73","303752","0.0-73.0","AGG6I61OP7MXT","","","","","-13","","","","","","","","","","","","","","","","","","","","","",""
"null","","image-button-response","74","308753","0.0-74.0","AGG6I61OP7MXT","img_art/28.jpg","null","","","","","","","","","","","","","","","","","","","","","","","","",""
"1732","","image-button-response","75","310486","0.0-75.0","AGG6I61OP7MXT","img_art/28.jpg","4","","","","","","","","","","","","","","","","","","","","","","","","",""
"752","","image-button-response","76","311239","0.0-76.0-0.0","AGG6I61OP7MXT","img_art/28.jpg","5","","","","","","","","","","","","","","","","","","","","","","","","",""
"1605","","image-button-response","77","312846","0.0-77.0-0.0","AGG6I61OP7MXT","img_art/28.jpg","1","","","","","","","","","","","","","","","","","","","","","","","","",""
"null","","html-keyboard-response","78","313348","0.0-78.0","AGG6I61OP7MXT","<p style=""font-size: 48px;"">+</p>","","","","","null","allTrialResponses","500","1","5","img_art/28.jpg","-13","This has a very gloomy, scribbled feel.","Amy,Cynthia,Isabella,Destiny,Meghan,Alyssa","Contemplative and a little dark. The muted colors and subject create a sense of mystery.,15,220,20","nostalgic from a memory,11,320,20","This is also something I would see in a serious but safe environment,14,280,20","I wish I knew why I liked it, maybes its the pinky tones,36,360,20","I don't like the color choice,-30,220,20","Not a fan of the bleak and dreary colors,-10,160,20","Meghan","I don't like the color choice,-30,220,20","Alyssa","Not a fan of the bleak and dreary colors,-10,160,20","Cynthia","nostalgic from a memory,11,320,20","0"
"252898","","survey-text","79","566249","0.0-79.0-0.0","AGG6I61OP7MXT","","","","{""Q0"":""sky""}","","","","","","","","","","","","","","","","","","","","","","",""
"7984","","survey-text","80","574234","0.0-80.0-0.0","AGG6I61OP7MXT","","","","{""Q0"":""This feels whimsical and relaxing.""}","","","","","","","","","","","","","","","","","","","","","","",""
"2321.3000000715256","","image-slider-response","81","576556","0.0-81.0","AGG6I61OP7MXT","","","","","25","","","","","","","","","","","","","","","","","","","","","",""
"null","","image-button-response","82","581559","0.0-82.0","AGG6I61OP7MXT","img_art/27.jpg","null","","","","","","","","","","","","","","","","","","","","","","","","",""
"4683","","image-button-response","83","586245","0.0-83.0","AGG6I61OP7MXT","img_art/27.jpg","3","","","","","","","","","","","","","","","","","","","","","","","","",""
"1091","","image-button-response","84","587337","0.0-84.0-0.0","AGG6I61OP7MXT","img_art/27.jpg","0","","","","","","","","","","","","","","","","","","","","","","","","",""
"1321","","image-button-response","85","588659","0.0-85.0-0.0","AGG6I61OP7MXT","img_art/27.jpg","2","","","","","","","","","","","","","","","","","","","","","","","","",""
"null","","html-keyboard-response","86","589662","0.0-86.0","AGG6I61OP7MXT","<p style=""font-size: 48px;"">+</p>","","","","","null","allTrialResponses","1000","1","6","img_art/27.jpg","25","This feels whimsical and relaxing.","Vanessa,Cynthia,Morgan,Diana,Meghan,Alyssa","Colors make me think of fall, but I don't like how the picture was done or the weird lines across the background,6,380,20","dirty and misunderstood,-47,320,20","Messy field of various plants.,-5,380,20","I don't care for the green scribbles; not sure what they are. But I adore the colors in the background.,24,380,20","again looks like childrens artwork,-40,220,20","Looks as if a toddler painted it,-20,160,20","Diana","I don't care for the green scribbles; not sure what they are. But I adore the colors in the background.,24,380,20","Vanessa","Colors make me think of fall, but I don't like how the picture was done or the weird lines across the background,6,380,20","Morgan","Messy field of various plants.,-5,380,20","0"
"15869","","survey-text","87","605537","0.0-87.0-0.0","AGG6I61OP7MXT","","","","{""Q0"":""I don't understand this one, it's a bit dark and edgy for me.""}","","","","","","","","","","","","","","","","","","","","","","",""
"2105.100000023842","","image-slider-response","88","607643","0.0-88.0","AGG6I61OP7MXT","","","","","-21","","","","","","","","","","","","","","","","","","","","","",""
"null","","image-button-response","89","612649","0.0-89.0","AGG6I61OP7MXT","img_art/15.jpg","null","","","","","","","","","","","","","","","","","","","","","","","","",""
"1194","","image-button-response","90","613845","0.0-90.0","AGG6I61OP7MXT","img_art/15.jpg","3","","","","","","","","","","","","","","","","","","","","","","","","",""
"3193","","image-button-response","91","617040","0.0-91.0-0.0","AGG6I61OP7MXT","img_art/15.jpg","1","","","","","","","","","","","","","","","","","","","","","","","","",""
"1343","","image-button-response","92","618385","0.0-92.0-0.0","AGG6I61OP7MXT","img_art/15.jpg","0","","","","","","","","","","","","","","","","","","","","","","","","",""
"null","","html-keyboard-response","93","618886","0.0-93.0","AGG6I61OP7MXT","<p style=""font-size: 48px;"">+</p>","","","","","null","allTrialResponses","500","1","7","img_art/15.jpg","-21","I don't understand this one, it's a bit dark and edgy for me.","Vanessa,Kelly,Morgan,Diana,Haley,Alicia","I don't even know what's going on here. Again, this is too abstract.,-21,380,20","I can't really make out what this is supposed to be.,-8,220,20","Leafs spread on the ground.,27,380,20","There should be more space between the black marks. The black comes off harsh and the blue between the trees can barely be seen.,-21,380,20","Interesting, and I don't dislike it.,9,220,20","It's ok, it makes me think. That's something I guess.,8,120,20","Diana","There should be more space between the black marks. The black comes off harsh and the blue between the trees can barely be seen.,-21,380,20","Kelly","I can't really make out what this is supposed to be.,-8,220,20","Vanessa","I don't even know what's going on here. Again, this is too abstract.,-21,380,20","0"
"13115","","survey-text","94","632003","0.0-94.0-0.0","AGG6I61OP7MXT","","","","{""Q0"":""This is very vibrant, but looks like a finger painting.""}","","","","","","","","","","","","","","","","","","","","","","",""
"1894.6000000238419","","image-slider-response","95","633898","0.0-95.0","AGG6I61OP7MXT","","","","","3","","","","","","","","","","","","","","","","","","","","","",""
"null","","image-button-response","96","638907","0.0-96.0","AGG6I61OP7MXT","img_art/4.jpg","null","","","","","","","","","","","","","","","","","","","","","","","","",""
"597","","image-button-response","97","639507","0.0-97.0","AGG6I61OP7MXT","img_art/4.jpg","3","","","","","","","","","","","","","","","","","","","","","","","","",""
"1745","","image-button-response","98","641253","0.0-98.0-0.0","AGG6I61OP7MXT","img_art/4.jpg","5","","","","","","","","","","","","","","","","","","","","","","","","",""
"307","","image-button-response","99","641561","0.0-99.0-0.0","AGG6I61OP7MXT","img_art/4.jpg","4","","","","","","","","","","","","","","","","","","","","","","","","",""
"null","","html-keyboard-response","100","643064","0.0-100.0","AGG6I61OP7MXT","<p style=""font-size: 48px;"">+</p>","","","","","null","allTrialResponses","1500","1","8","img_art/4.jpg","3","This is very vibrant, but looks like a finger painting.","Vanessa,Kelly,Sierra,Diana,Nicole,Michelle","Again, this is too abstract and I really don't like the colors.,-21,380,20","The longer I stare at this the less I like it.,-19,220,20","it looks like a deformed hand,-9,260,20","Odd but intriguing. I feel emotion from this. Like a woman bent over carrying these emotions on her back.,33,380,20","Mcdonald's french fries :(,-40,20,20","Looks like more paint smearing but at least there is structure,-5,280,20","Diana","Odd but intriguing. I feel emotion from this. Like a woman bent over carrying these emotions on her back.,33,380,20","Michelle","Looks like more paint smearing but at least there is structure,-5,280,20","Nicole","Mcdonald's french fries :(,-40,20,20","0"
"10110","","survey-text","101","653180","0.0-101.0-0.0","AGG6I61OP7MXT","","","","{""Q0"":""This is very peaceful, reminds me of a landscape.""}","","","","","","","","","","","","","","","","","","","","","","",""
"2195.5999999046326","","image-slider-response","102","655377","0.0-102.0","AGG6I61OP7MXT","","","","","24","","","","","","","","","","","","","","","","","","","","","",""
"null","","image-button-response","103","660383","0.0-103.0","AGG6I61OP7MXT","img_art/24.jpg","null","","","","","","","","","","","","","","","","","","","","","","","","",""
"1000","","image-button-response","104","661385","0.0-104.0","AGG6I61OP7MXT","img_art/24.jpg","0","","","","","","","","","","","","","","","","","","","","","","","","",""
"1355","","image-button-response","105","662742","0.0-105.0-0.0","AGG6I61OP7MXT","img_art/24.jpg","3","","","","","","","","","","","","","","","","","","","","","","","","",""
"1567","","image-button-response","106","664309","0.0-106.0-0.0","AGG6I61OP7MXT","img_art/24.jpg","1","","","","","","","","","","","","","","","","","","","","","","","","",""
"null","","html-keyboard-response","107","664812","0.0-107.0","AGG6I61OP7MXT","<p style=""font-size: 48px;"">+</p>","","","","","null","allTrialResponses","500","1","9","img_art/24.jpg","24","This is very peaceful, reminds me of a landscape.","Monica,Alexandra,Courtney,Diana,Nicole,Michelle","It looks alive, like I can hear the water flowing,41,360,20","This reminds me of a creek or a river. It puts me a peace,42,60,20","What a nice refreshing waterfall.,39,280,20","This is stunning. I love how the brown, red and oranges are blended in together.,40,380,20","The colors and brush strokes make it feel adventurous,20,20,20","Looks like a waterfall or a brook, the colors are very nice,15,280,20","Monica","It looks alive, like I can hear the water flowing,41,360,20","Diana","This is stunning. I love how the brown, red and oranges are blended in together.,40,380,20","Alexandra","This reminds me of a creek or a river. It puts me a peace,42,60,20","0"
"13013","","survey-text","108","677827","0.0-108.0-0.0","AGG6I61OP7MXT","","","","{""Q0"":""All I could imagine when I saw this, was a volcano.""}","","","","","","","","","","","","","","","","","","","","","","",""
"2289.399999976158","","image-slider-response","109","680117","0.0-109.0","AGG6I61OP7MXT","","","","","15","","","","","","","","","","","","","","","","","","","","","",""
"null","","image-button-response","110","685119","0.0-110.0","AGG6I61OP7MXT","img_art/21.jpg","null","","","","","","","","","","","","","","","","","","","","","","","","",""
"476","","image-button-response","111","685595","0.0-111.0","AGG6I61OP7MXT","img_art/21.jpg","0","","","","","","","","","","","","","","","","","","","","","","","","",""
"1254","","image-button-response","112","686850","0.0-112.0-0.0","AGG6I61OP7MXT","img_art/21.jpg","3","","","","","","","","","","","","","","","","","","","","","","","","",""
"1440","","image-button-response","113","688291","0.0-113.0-0.0","AGG6I61OP7MXT","img_art/21.jpg","1","","","","","","","","","","","","","","","","","","","","","","","","",""
"null","","html-keyboard-response","114","689794","0.0-114.0","AGG6I61OP7MXT","<p style=""font-size: 48px;"">+</p>","","","","","null","allTrialResponses","1500","1","10","img_art/21.jpg","15","All I could imagine when I saw this, was a volcano.","Monica,Alexandra,Catherine,Diana,Elizabeth,Grace","I like the dark blue in the lower right which reminds me of a storm but the orange is ugly,12,360,20","This one is nice, it reminds me of the sky,42,60,20","Nature, water, ever changing. Cold then warm. Reaction is mostly positive and some negative,30,160,20","Makes me feel light and airy. Like I've gone back in time to 1700th century France.,43,380,20","Touches the heart,50,20,20","Like the colors, the cloudy, airy effects. Nice.,46,180,20","Monica","I like the dark blue in the lower right which reminds me of a storm but the orange is ugly,12,360,20","Diana","Makes me feel light and airy. Like I've gone back in time to 1700th century France.,43,380,20","Alexandra","This one is nice, it reminds me of the sky,42,60,20","0"
"3214","","survey-text","115","693013","0.0-115.0-0.0","AGG6I61OP7MXT","","","","{""Q0"":""our""}","","","","","","","","","","","","","","","","","","","","","","",""
"10430","","survey-text","116","703443","0.0-116.0-0.0","AGG6I61OP7MXT","","","","{""Q0"":""This is dark, but I really enjoy it for some reason.""}","","","","","","","","","","","","","","","","","","","","","","",""
"2118.7999999523163","","image-slider-response","117","705563","0.0-117.0","AGG6I61OP7MXT","","","","","29","","","","","","","","","","","","","","","","","","","","","",""
"null","","image-button-response","118","710568","0.0-118.0","AGG6I61OP7MXT","img_art/25.jpg","null","","","","","","","","","","","","","","","","","","","","","","","","",""
"391","","image-button-response","119","710961","0.0-119.0","AGG6I61OP7MXT","img_art/25.jpg","2","","","","","","","","","","","","","","","","","","","","","","","","",""
"1190","","image-button-response","120","712151","0.0-120.0-0.0","AGG6I61OP7MXT","img_art/25.jpg","3","","","","","","","","","","","","","","","","","","","","","","","","",""
"1472","","image-button-response","121","713624","0.0-121.0-0.0","AGG6I61OP7MXT","img_art/25.jpg","4","","","","","","","","","","","","","","","","","","","","","","","","",""
"null","","html-keyboard-response","122","714625","0.0-122.0","AGG6I61OP7MXT","<p style=""font-size: 48px;"">+</p>","","","","","null","allTrialResponses","1000","1","11","img_art/25.jpg","29","This is dark, but I really enjoy it for some reason.","Monica,Alexandra,Danielle,Diana,Kaylee,Autumn","The skeletal figure is a bit scary,-12,360,20","This is too dark and creepy. I also hate the color,-30,60,20","I like it, a bit cryptic and obscene, I enjoy that,30,340,20","This piece feels cultural. Like it represents something culturally.,22,380,20","is this an ancient woman?,-16,200,20","This is too simple,-22,340,20","Danielle","I like it, a bit cryptic and obscene, I enjoy that,30,340,20","Diana","This piece feels cultural. Like it represents something culturally.,22,380,20","Kaylee","is this an ancient woman?,-16,200,20","0"
"10501","","survey-text","123","725129","0.0-123.0-0.0","AGG6I61OP7MXT","","","","{""Q0"":""I love this.  Reminds me of rain running down a window.""}","","","","","","","","","","","","","","","","","","","","","","",""
"8072.299999952316","","image-slider-response","124","733202","0.0-124.0","AGG6I61OP7MXT","","","","","40","","","","","","","","","","","","","","","","","","","","","",""
"5001","","image-button-response","125","738205","0.0-125.0","AGG6I61OP7MXT","img_art/13.jpg","1","","","","","","","","","","","","","","","","","","","","","","","","",""
"827","","image-button-response","126","739033","0.0-126.0","AGG6I61OP7MXT","img_art/13.jpg","1","","","","","","","","","","","","","","","","","","","","","","","","",""
"317","","image-button-response","127","739351","0.0-127.0-0.0","AGG6I61OP7MXT","img_art/13.jpg","2","","","","","","","","","","","","","","","","","","","","","","","","",""
"1739","","image-button-response","128","741091","0.0-128.0-0.0","AGG6I61OP7MXT","img_art/13.jpg","5","","","","","","","","","","","","","","","","","","","","","","","","",""
"null","","html-keyboard-response","129","742099","0.0-129.0","AGG6I61OP7MXT","<p style=""font-size: 48px;"">+</p>","","","","","null","allTrialResponses","1000","1","12","img_art/13.jpg","40","I love this.  Reminds me of rain running down a window.","Leslie,Claire,Danielle,Diana,Kaylee,Alexandria","This elicits no reaction in me.,0,380,20","love the colors and splatters,44,260,20","While it is a bit basic and doesn't speak to me much, I like the feeling it gives,40,340,20","I really loved the color contrast. Having the white stripe in the center makes the it appear 3D.,11,380,20","its crazy to the point that i cant get it,-28,200,20","the monochrome of blue with splatters makes me excited and happy,36,80,20","Claire","love the colors and splatters,44,260,20","Danielle","While it is a bit basic and doesn't speak to me much, I like the feeling it gives,40,340,20","Alexandria","the monochrome of blue with splatters makes me excited and happy,36,80,20","0"
"14818","","survey-text","130","756919","0.0-130.0-0.0","AGG6I61OP7MXT","","","","{""Q0"":""Circus.  That's all that comes to mind.  Seems too generic.""}","","","","","","","","","","","","","","","","","","","","","","",""
"2101.3000000715256","","image-slider-response","131","759021","0.0-131.0","AGG6I61OP7MXT","","","","","-11","","","","","","","","","","","","","","","","","","","","","",""
"null","","image-button-response","132","764034","0.0-132.0","AGG6I61OP7MXT","img_art/22.jpg","null","","","","","","","","","","","","","","","","","","","","","","","","",""
"856","","image-button-response","133","764893","0.0-133.0","AGG6I61OP7MXT","img_art/22.jpg","3","","","","","","","","","","","","","","","","","","","","","","","","",""
"1259","","image-button-response","134","766153","0.0-134.0-0.0","AGG6I61OP7MXT","img_art/22.jpg","0","","","","","","","","","","","","","","","","","","","","","","","","",""
"3373","","image-button-response","135","769527","0.0-135.0-0.0","AGG6I61OP7MXT","img_art/22.jpg","4","","","","","","","","","","","","","","","","","","","","","","","","",""
"null","","html-keyboard-response","136","770529","0.0-136.0","AGG6I61OP7MXT","<p style=""font-size: 48px;"">+</p>","","","","","null","allTrialResponses","1000","1","13","img_art/22.jpg","-11","Circus.  That's all that comes to mind.  Seems too generic.","Erin,Claire,Danielle,Jasmine,Kimberly,Alexandria","Seems dated with geometic forms,-20,120,20","I enjoy the colors used,24,260,20","A bit colorful, but slightly enjoyable, almost gives off castle/sunset vibes,10,340,20","I appreciate the artistic effort but it's not for me,0,340,20","I like the key near the sphere in the center,19,260,20","the colors and shapes makes me want to keep looking at it,22,80,20","Jasmine","I appreciate the artistic effort but it's not for me,0,340,20","Erin","Seems dated with geometic forms,-20,120,20","Kimberly","I like the key near the sphere in the center,19,260,20","0"
"59216","","survey-text","137","829755","0.0-137.0-0.0","AGG6I61OP7MXT","","","","{""Q0"":""This is vaguely terrifying.  It looks like smeared bloody finger paint.""}","","","","","","","","","","","","","","","","","","","","","","",""
"2368.5","","image-slider-response","138","832125","0.0-138.0","AGG6I61OP7MXT","","","","","-22","","","","","","","","","","","","","","","","","","","","","",""
"null","","image-button-response","139","837142","0.0-139.0","AGG6I61OP7MXT","img_art/3.jpg","null","","","","","","","","","","","","","","","","","","","","","","","","",""
"571","","image-button-response","140","837716","0.0-140.0","AGG6I61OP7MXT","img_art/3.jpg","1","","","","","","","","","","","","","","","","","","","","","","","","",""
"413","","image-button-response","141","838129","0.0-141.0-0.0","AGG6I61OP7MXT","img_art/3.jpg","2","","","","","","","","","","","","","","","","","","","","","","","","",""
"795","","image-button-response","142","838925","0.0-142.0-0.0","AGG6I61OP7MXT","img_art/3.jpg","5","","","","","","","","","","","","","","","","","","","","","","","","",""
"null","","html-keyboard-response","143","839426","0.0-143.0","AGG6I61OP7MXT","<p style=""font-size: 48px;"">+</p>","","","","","null","allTrialResponses","500","1","14","img_art/3.jpg","-22","This is vaguely terrifying.  It looks like smeared bloody finger paint.","Erin,Lindsey,Andrea,Jasmine,Kimberly,Rachel","Shapes are interesting but color is overwhelming,5,120,20","Angry red crayons, like a child throwing a tantrum. No thanks.,-10,400,20","I don't feel anything, it seems childish.,-25,240,20","I don't really have a strong reaction to this one,0,340,20","I like that it feels kind of simple but still chaotic,6,260,20","Too red and chaotic. Not calming.,-41,80,20","Lindsey","Angry red crayons, like a child throwing a tantrum. No thanks.,-10,400,20","Andrea","I don't feel anything, it seems childish.,-25,240,20","Rachel","Too red and chaotic. Not calming.,-41,80,20","0"
"97027","","survey-text","144","936455","0.0-144.0-0.0","AGG6I61OP7MXT","","","","{""Q0"":""This one is oddly soothing in a nontraditional sense.""}","","","","","","","","","","","","","","","","","","","","","","",""
"2375","","image-slider-response","145","938831","0.0-145.0","AGG6I61OP7MXT","","","","","17","","","","","","","","","","","","","","","","","","","","","",""
"null","","image-button-response","146","943836","0.0-146.0","AGG6I61OP7MXT","img_art/29.jpg","null","","","","","","","","","","","","","","","","","","","","","","","","",""
"441","","image-button-response","147","944279","0.0-147.0","AGG6I61OP7MXT","img_art/29.jpg","0","","","","","","","","","","","","","","","","","","","","","","","","",""
"991","","image-button-response","148","945270","0.0-148.0-0.0","AGG6I61OP7MXT","img_art/29.jpg","3","","","","","","","","","","","","","","","","","","","","","","","","",""
"790","","image-button-response","149","946061","0.0-149.0-0.0","AGG6I61OP7MXT","img_art/29.jpg","2","","","","","","","","","","","","","","","","","","","","","","","","",""
"null","","html-keyboard-response","150","947569","0.0-150.0","AGG6I61OP7MXT","<p style=""font-size: 48px;"">+</p>","","","","","null","allTrialResponses","1500","1","15","img_art/29.jpg","17","This one is oddly soothing in a nontraditional sense.","Megan,Lindsey,Andrea,Anna,Breanna,Rachel","Pinball meets a dark dream meets whale alien, drab,13,200,20","Again, ugly colors and I'm not a fan of abstract. This looks like the view into a garbage dump.,-50,400,20","Bottomless pit and prison. Feels like its saying time is precious.,11,240,20","I like the texture and colors and how it makes me feel. I like how it's different from other abstract art.,45,300,20","Makes me feel untidy,-9,380,20","It looks like someone did not like their art and drew an x over it.,-32,80,20","Megan","Pinball meets a dark dream meets whale alien, drab,13,200,20","Anna","I like the texture and colors and how it makes me feel. I like how it's different from other abstract art.,45,300,20","Andrea","Bottomless pit and prison. Feels like its saying time is precious.,11,240,20","0"
"2970","","survey-text","151","950545","0.0-151.0-0.0","AGG6I61OP7MXT","","","","{""Q0"":""course""}","","","","","","","","","","","","","","","","","","","","","","",""
"8503","","survey-text","152","959049","0.0-152.0-0.0","AGG6I61OP7MXT","","","","{""Q0"":""Child's finger painting.  Chaotic.""}","","","","","","","","","","","","","","","","","","","","","","",""
"1839.1000000238419","","image-slider-response","153","960889","0.0-153.0","AGG6I61OP7MXT","","","","","-28","","","","","","","","","","","","","","","","","","","","","",""
"null","","image-button-response","154","965905","0.0-154.0","AGG6I61OP7MXT","img_art/19.jpg","null","","","","","","","","","","","","","","","","","","","","","","","","",""
"421","","image-button-response","155","966329","0.0-155.0","AGG6I61OP7MXT","img_art/19.jpg","1","","","","","","","","","","","","","","","","","","","","","","","","",""
"1172","","image-button-response","156","967503","0.0-156.0-0.0","AGG6I61OP7MXT","img_art/19.jpg","4","","","","","","","","","","","","","","","","","","","","","","","","",""
"375","","image-button-response","157","967878","0.0-157.0-0.0","AGG6I61OP7MXT","img_art/19.jpg","5","","","","","","","","","","","","","","","","","","","","","","","","",""
"null","","html-keyboard-response","158","968389","0.0-158.0","AGG6I61OP7MXT","<p style=""font-size: 48px;"">+</p>","","","","","null","allTrialResponses","500","1","16","img_art/19.jpg","-28","Child's finger painting.  Chaotic.","Megan,Katie,Andrea,Anna,Sarah,Gabriela","Simple, scratchy lack of negative space.,-10,200,20","Too busy, makes me anxious and frustrated. Lots of movement in the brush strokes.,-9,160,20","Feels like a cafe in Paris.,35,240,20","I like the shapes.,22,300,20","too much of a mix of lines and shading,-22,180,20","it looks messy and non-unique.,-9,140,20","Katie","Too busy, makes me anxious and frustrated. Lots of movement in the brush strokes.,-9,160,20","Sarah","too much of a mix of lines and shading,-22,180,20","Gabriela","it looks messy and non-unique.,-9,140,20","0"
"16788","","survey-text","159","985183","0.0-159.0-0.0","AGG6I61OP7MXT","","","","{""Q0"":""This feels simple, yet complex.  I enjoy the different uses of textures.""}","","","","","","","","","","","","","","","","","","","","","","",""
"2577.7000000476837","","image-slider-response","160","987761","0.0-160.0","AGG6I61OP7MXT","","","","","18","","","","","","","","","","","","","","","","","","","","","",""
"4770","","image-button-response","161","992776","0.0-161.0","AGG6I61OP7MXT","img_art/10.jpg","2","","","","","","","","","","","","","","","","","","","","","","","","",""
"546","","image-button-response","162","993325","0.0-162.0","AGG6I61OP7MXT","img_art/10.jpg","2","","","","","","","","","","","","","","","","","","","","","","","","",""
"736","","image-button-response","163","994063","0.0-163.0-0.0","AGG6I61OP7MXT","img_art/10.jpg","4","","","","","","","","","","","","","","","","","","","","","","","","",""
"366","","image-button-response","164","994430","0.0-164.0-0.0","AGG6I61OP7MXT","img_art/10.jpg","5","","","","","","","","","","","","","","","","","","","","","","","","",""
"null","","html-keyboard-response","165","995955","0.0-165.0","AGG6I61OP7MXT","<p style=""font-size: 48px;"">+</p>","","","","","null","allTrialResponses","1500","1","17","img_art/10.jpg","18","This feels simple, yet complex.  I enjoy the different uses of textures.","Jennifer,Katie,Shelby,Maria,Sarah,Gabriela","I am neutral towards the artwork,1,380,20","Dark and weird. Unidentifiable shape. I can't tell what it is, so I don't like it.,-50,160,20","Love the monotonal texture,20,240,20","not sure what to make of this one,0,120,20","i like this, the mix of brush textures is cool,24,180,20","It looks like a sea monster overtaking a ship,21,140,20","Shelby","Love the monotonal texture,20,240,20","Sarah","i like this, the mix of brush textures is cool,24,180,20","Gabriela","It looks like a sea monster overtaking a ship,21,140,20","0"
"6935","","survey-text","166","1002895","0.0-166.0-0.0","AGG6I61OP7MXT","","","","{""Q0"":""Too blocky for my liking.""}","","","","","","","","","","","","","","","","","","","","","","",""
"2082.2000000476837","","image-slider-response","167","1004979","0.0-167.0","AGG6I61OP7MXT","","","","","-29","","","","","","","","","","","","","","","","","","","","","",""
"null","","image-button-response","168","1009984","0.0-168.0","AGG6I61OP7MXT","img_art/8.jpg","null","","","","","","","","","","","","","","","","","","","","","","","","",""
"2338","","image-button-response","169","1012323","0.0-169.0","AGG6I61OP7MXT","img_art/8.jpg","0","","","","","","","","","","","","","","","","","","","","","","","","",""
"542","","image-button-response","170","1012867","0.0-170.0-0.0","AGG6I61OP7MXT","img_art/8.jpg","1","","","","","","","","","","","","","","","","","","","","","","","","",""
"392","","image-button-response","171","1013260","0.0-171.0-0.0","AGG6I61OP7MXT","img_art/8.jpg","2","","","","","","","","","","","","","","","","","","","","","","","","",""
"null","","html-keyboard-response","172","1013762","0.0-172.0","AGG6I61OP7MXT","<p style=""font-size: 48px;"">+</p>","","","","","null","allTrialResponses","500","1","18","img_art/8.jpg","-29","Too blocky for my liking.","Hailey,Victoria,Shelby,Erica,Sarah,Gabriela","cold city controlled by evil gods,-17,200,20","makes me think of a busy city,-18,400,20","Too much going on, too many colors, makes me feel uneasy,-20,240,20","Very busy, I want to look at it and investigate,23,80,20","it's interesting but i don't enjoy the style,-5,180,20","I like that it sort of looks like a cityscape,9,140,20","Hailey","cold city controlled by evil gods,-17,200,20","Victoria","makes me think of a busy city,-18,400,20","Shelby","Too much going on, too many colors, makes me feel uneasy,-20,240,20","0"
"13434","","survey-text","173","1027203","0.0-173.0-0.0","AGG6I61OP7MXT","","","","{""Q0"":""This one has a very positive energy to it.  Love all the colors.""}","","","","","","","","","","","","","","","","","","","","","","",""
"1914.6000000238419","","image-slider-response","174","1029119","0.0-174.0","AGG6I61OP7MXT","","","","","28","","","","","","","","","","","","","","","","","","","","","",""
"null","","image-button-response","175","1034125","0.0-175.0","AGG6I61OP7MXT","img_art/23.jpg","null","","","","","","","","","","","","","","","","","","","","","","","","",""
"853","","image-button-response","176","1034979","0.0-176.0","AGG6I61OP7MXT","img_art/23.jpg","2","","","","","","","","","","","","","","","","","","","","","","","","",""
"600","","image-button-response","177","1035580","0.0-177.0-0.0","AGG6I61OP7MXT","img_art/23.jpg","5","","","","","","","","","","","","","","","","","","","","","","","","",""
"410","","image-button-response","178","1035991","0.0-178.0-0.0","AGG6I61OP7MXT","img_art/23.jpg","4","","","","","","","","","","","","","","","","","","","","","","","","",""
"null","","html-keyboard-response","179","1036492","0.0-179.0","AGG6I61OP7MXT","<p style=""font-size: 48px;"">+</p>","","","","","null","allTrialResponses","500","1","19","img_art/23.jpg","28","This one has a very positive energy to it.  Love all the colors.","Hailey,Victoria,Shelby,Erika,Sara,Mikayla","cold and dark feeling,-27,200,20","enjoy the colors,23,400,20","This feels so energized, i love it,50,240,20","Very intense and unique,3,100,20","Beautiful color scheme,21,160,20","So beautiful with the white accents.,50,300,20","Shelby","This feels so energized, i love it,50,240,20","Mikayla","So beautiful with the white accents.,50,300,20","Sara","Beautiful color scheme,21,160,20","0"
"9881","","survey-text","180","1046376","0.0-180.0-0.0","AGG6I61OP7MXT","","","","{""Q0"":""This is very dark and drab.  Evokes no emotion.""}","","","","","","","","","","","","","","","","","","","","","","",""
"2245.100000023842","","image-slider-response","181","1048623","0.0-181.0","AGG6I61OP7MXT","","","","","-49","","","","","","","","","","","","","","","","","","","","","",""
"null","","image-button-response","182","1053625","0.0-182.0","AGG6I61OP7MXT","img_art/26.jpg","null","","","","","","","","","","","","","","","","","","","","","","","","",""
"963","","image-button-response","183","1054589","0.0-183.0","AGG6I61OP7MXT","img_art/26.jpg","3","","","","","","","","","","","","","","","","","","","","","","","","",""
"1011","","image-button-response","184","1055601","0.0-184.0-0.0","AGG6I61OP7MXT","img_art/26.jpg","0","","","","","","","","","","","","","","","","","","","","","","","","",""
"994","","image-button-response","185","1056596","0.0-185.0-0.0","AGG6I61OP7MXT","img_art/26.jpg","1","","","","","","","","","","","","","","","","","","","","","","","","",""
"null","","html-keyboard-response","186","1057600","0.0-186.0","AGG6I61OP7MXT","<p style=""font-size: 48px;"">+</p>","","","","","null","allTrialResponses","1000","1","20","img_art/26.jpg","-49","This is very dark and drab.  Evokes no emotion.","Alexa,Angela,Shelby,Katelyn,Sara,Mikayla","Looks messy and like it was painted by a small child,-48,40,20","Nice, but not very interesting. I do like the blue tree though.,6,260,20","Very pleasent little scene,40,240,20","Looks bland and boring,-5,100,20","I can somewhat city a city in this drawing,11,160,20","Love the colors in this one.,22,300,20","Katelyn","Looks bland and boring,-5,100,20","Alexa","Looks messy and like it was painted by a small child,-48,40,20","Angela","Nice, but not very interesting. I do like the blue tree though.,6,260,20","0"
"2060","","survey-text","187","1059665","0.0-187.0-0.0","AGG6I61OP7MXT","","","","{""Q0"":""we""}","","","","","","","","","","","","","","","","","","","","","","",""
"11059","","survey-text","188","1070725","0.0-188.0-0.0","AGG6I61OP7MXT","","","","{""Q0"":""A painting within a painting.  This is very creative.""}","","","","","","","","","","","","","","","","","","","","","","",""
"2112.8000000715256","","image-slider-response","189","1072839","0.0-189.0","AGG6I61OP7MXT","","","","","18","","","","","","","","","","","","","","","","","","","","","",""
"null","","image-button-response","190","1077855","0.0-190.0","AGG6I61OP7MXT","img_art/20.jpg","null","","","","","","","","","","","","","","","","","","","","","","","","",""
"459","","image-button-response","191","1078317","0.0-191.0","AGG6I61OP7MXT","img_art/20.jpg","1","","","","","","","","","","","","","","","","","","","","","","","","",""
"712","","image-button-response","192","1079029","0.0-192.0-0.0","AGG6I61OP7MXT","img_art/20.jpg","2","","","","","","","","","","","","","","","","","","","","","","","","",""
"523","","image-button-response","193","1079554","0.0-193.0-0.0","AGG6I61OP7MXT","img_art/20.jpg","0","","","","","","","","","","","","","","","","","","","","","","","","",""
"null","","html-keyboard-response","194","1080554","0.0-194.0","AGG6I61OP7MXT","<p style=""font-size: 48px;"">+</p>","","","","","null","allTrialResponses","1000","1","21","img_art/20.jpg","18","A painting within a painting.  This is very creative.","Alexa,Angela,Cassidy,Katelyn,Kelsey,Rebecca","I like the calming mood of this painting,35,40,20","I like the blues, and the sense of foreboding it makes me feel.,20,260,20","sort of pleasant to look at, but can't tell if it's supposed to be something,13,140,20","I do at least like the dark colors blending,6,100,20","i almost feel like i can recognize what this is,-6,240,20","reminds me of georgia o'keeffe's skull,22,100,20","Angela","I like the blues, and the sense of foreboding it makes me feel.,20,260,20","Cassidy","sort of pleasant to look at, but can't tell if it's supposed to be something,13,140,20","Alexa","I like the calming mood of this painting,35,40,20","0"
"11265","","survey-text","195","1091823","0.0-195.0-0.0","AGG6I61OP7MXT","","","","{""Q0"":""This feels like it has an ominous presence about it.""}","","","","","","","","","","","","","","","","","","","","","","",""
"1573.6000000238419","","image-slider-response","196","1093397","0.0-196.0","AGG6I61OP7MXT","","","","","-11","","","","","","","","","","","","","","","","","","","","","",""
"null","","image-button-response","197","1098404","0.0-197.0","AGG6I61OP7MXT","img_art/17.jpg","null","","","","","","","","","","","","","","","","","","","","","","","","",""
"1119","","image-button-response","198","1099525","0.0-198.0","AGG6I61OP7MXT","img_art/17.jpg","3","","","","","","","","","","","","","","","","","","","","","","","","",""
"1022","","image-button-response","199","1100549","0.0-199.0-0.0","AGG6I61OP7MXT","img_art/17.jpg","5","","","","","","","","","","","","","","","","","","","","","","","","",""
"1160","","image-button-response","200","1101710","0.0-200.0-0.0","AGG6I61OP7MXT","img_art/17.jpg","1","","","","","","","","","","","","","","","","","","","","","","","","",""
"null","","html-keyboard-response","201","1102226","0.0-201.0","AGG6I61OP7MXT","<p style=""font-size: 48px;"">+</p>","","","","","null","allTrialResponses","500","1","22","img_art/17.jpg","-11","This feels like it has an ominous presence about it.","Alexa,Angela,Cassidy,Madison,Cheyenne,Jacqueline","The colors are beautiful and the painting itself is magnificent,50,40,20","I like this, but it's a bit bland.,10,260,20","cool. Sharp and blocky below, light and flowing on top. Overall pleasing to look at,32,140,20","No strong reaction. Beautiful design, but hue appears taciturn. Bad photograph?,1,60,20","I like the colorfulness.,17,200,20","It's okay, I just don't see much too it.,7,300,20","Madison","No strong reaction. Beautiful design, but hue appears taciturn. Bad photograph?,1,60,20","Jacqueline","It's okay, I just don't see much too it.,7,300,20","Angela","I like this, but it's a bit bland.,10,260,20","0"
"13225","","survey-text","202","1115453","0.0-202.0-0.0","AGG6I61OP7MXT","","","","{""Q0"":""Another child's finger painting.  Not really a fan.""}","","","","","","","","","","","","","","","","","","","","","","",""
"2564.5","","image-slider-response","203","1118019","0.0-203.0","AGG6I61OP7MXT","","","","","-34","","","","","","","","","","","","","","","","","","","","","",""
"null","","image-button-response","204","1123778","0.0-204.0","AGG6I61OP7MXT","img_art/2.jpg","null","","","","","","","","","","","","","","","","","","","","","","","","",""
"8959","","image-button-response","205","1132739","0.0-205.0","AGG6I61OP7MXT","img_art/2.jpg","5","","","","","","","","","","","","","","","","","","","","","","","","",""
"2348","","image-button-response","206","1135089","0.0-206.0-0.0","AGG6I61OP7MXT","img_art/2.jpg","1","","","","","","","","","","","","","","","","","","","","","","","","",""
"741","","image-button-response","207","1135831","0.0-207.0-0.0","AGG6I61OP7MXT","img_art/2.jpg","2","","","","","","","","","","","","","","","","","","","","","","","","",""
"null","","html-keyboard-response","208","1136832","0.0-208.0","AGG6I61OP7MXT","<p style=""font-size: 48px;"">+</p>","","","","","null","allTrialResponses","1000","1","23","img_art/2.jpg","-34","Another child's finger painting.  Not really a fan.","Mary,Angela,Kylie,Madison,Makayla,Jacqueline","This looks like a professional abstract drawing. I like the shapes.,7,180,20","Only like the blues and teals in this. The rest is unappealing.,-15,260,20","Not very appealing,-5,300,20","Grim and overwhelming,-6,60,20","I don't feel indifferent,4,80,20","A bit ugly with the greens.,-20,300,20","Jacqueline","A bit ugly with the greens.,-20,300,20","Angela","Only like the blues and teals in this. The rest is unappealing.,-15,260,20","Kylie","Not very appealing,-5,300,20","0"
"14573","","survey-text","209","1151407","0.0-209.0-0.0","AGG6I61OP7MXT","","","","{""Q0"":""I like that there are no rigid lines in this one, everything just blends together.""}","","","","","","","","","","","","","","","","","","","","","","",""
"1742.2999999523163","","image-slider-response","210","1153151","0.0-210.0","AGG6I61OP7MXT","","","","","22","","","","","","","","","","","","","","","","","","","","","",""
"null","","image-button-response","211","1158159","0.0-211.0","AGG6I61OP7MXT","img_art/1.jpg","null","","","","","","","","","","","","","","","","","","","","","","","","",""
"802","","image-button-response","212","1158961","0.0-212.0","AGG6I61OP7MXT","img_art/1.jpg","1","","","","","","","","","","","","","","","","","","","","","","","","",""
"917","","image-button-response","213","1159879","0.0-213.0-0.0","AGG6I61OP7MXT","img_art/1.jpg","4","","","","","","","","","","","","","","","","","","","","","","","","",""
"2178","","image-button-response","214","1162059","0.0-214.0-0.0","AGG6I61OP7MXT","img_art/1.jpg","0","","","","","","","","","","","","","","","","","","","","","","","","",""
"null","","html-keyboard-response","215","1163563","0.0-215.0","AGG6I61OP7MXT","<p style=""font-size: 48px;"">+</p>","","","","","null","allTrialResponses","1500","1","24","img_art/1.jpg","22","I like that there are no rigid lines in this one, everything just blends together.","Chelsea,Angela,Kylie,Alexis,Bailey,Jacqueline","The colors are a little too intense.,1,180,20","Like the colors very much, and this piece makes me feel peaceful.,29,260,20","I don't know how I feel about this,1,300,20","Taco Bell wallpaper. Doesn't really make me feel anything,3,100,20","A bit of a smokey mess, but it does have an air of mystery I like,7,360,20","It's alright but lacks any depth.,-5,300,20","Angela","Like the colors very much, and this piece makes me feel peaceful.,29,260,20","Bailey","A bit of a smokey mess, but it does have an air of mystery I like,7,360,20","Chelsea","The colors are a little too intense.,1,180,20","0"
"12802","","survey-text","216","1176367","0.0-216.0-0.0","AGG6I61OP7MXT","","","","{""Q0"":""I enjoy the contrasting brightness along the blackened lines.""}","","","","","","","","","","","","","","","","","","","","","","",""
"2026.1999999284744","","image-slider-response","217","1178395","0.0-217.0","AGG6I61OP7MXT","","","","","22","","","","","","","","","","","","","","","","","","","","","",""
"null","","image-button-response","218","1183409","0.0-218.0","AGG6I61OP7MXT","img_art/11.jpg","null","","","","","","","","","","","","","","","","","","","","","","","","",""
"598","","image-button-response","219","1184010","0.0-219.0","AGG6I61OP7MXT","img_art/11.jpg","0","","","","","","","","","","","","","","","","","","","","","","","","",""
"960","","image-button-response","220","1184970","0.0-220.0-0.0","AGG6I61OP7MXT","img_art/11.jpg","5","","","","","","","","","","","","","","","","","","","","","","","","",""
"767","","image-button-response","221","1185739","0.0-221.0-0.0","AGG6I61OP7MXT","img_art/11.jpg","1","","","","","","","","","","","","","","","","","","","","","","","","",""
"null","","html-keyboard-response","222","1186240","0.0-222.0","AGG6I61OP7MXT","<p style=""font-size: 48px;"">+</p>","","","","","null","allTrialResponses","500","1","25","img_art/11.jpg","22","I enjoy the contrasting brightness along the blackened lines.","Chelsea,Angela,Emily,Christina,Bailey,Emma","I like the harsh black lines against a soft background.,27,180,20","I like this one very much, especially the shades of gray.,30,260,20","It's kind of cool and I see it looks clean.,22,40,20","I like how it looks like buildings but i'm not a fan of colors,20,240,20","Kind of bizzare in that I can imagine ships or something from it.,11,360,20","Pretty, interesting, feels like a city, feels like home,50,60,20","Chelsea","I like the harsh black lines against a soft background.,27,180,20","Emma","Pretty, interesting, feels like a city, feels like home,50,60,20","Angela","I like this one very much, especially the shades of gray.,30,260,20","0"
"2667","","survey-text","223","1188911","0.0-223.0-0.0","AGG6I61OP7MXT","","","","{""Q0"":""table""}","","","","","","","","","","","","","","","","","","","","","","",""
"9879","","survey-text","224","1198791","0.0-224.0-0.0","AGG6I61OP7MXT","","","","{""Q0"":""This feels a bit bland and does not do much for me.""}","","","","","","","","","","","","","","","","","","","","","","",""
"2348.9000000953674","","image-slider-response","225","1201141","0.0-225.0","AGG6I61OP7MXT","","","","","-38","","","","","","","","","","","","","","","","","","","","","",""
"null","","image-button-response","226","1206148","0.0-226.0","AGG6I61OP7MXT","img_art/14.jpg","null","","","","","","","","","","","","","","","","","","","","","","","","",""
"509","","image-button-response","227","1206659","0.0-227.0","AGG6I61OP7MXT","img_art/14.jpg","2","","","","","","","","","","","","","","","","","","","","","","","","",""
"741","","image-button-response","228","1207401","0.0-228.0-0.0","AGG6I61OP7MXT","img_art/14.jpg","5","","","","","","","","","","","","","","","","","","","","","","","","",""
"493","","image-button-response","229","1207895","0.0-229.0-0.0","AGG6I61OP7MXT","img_art/14.jpg","4","","","","","","","","","","","","","","","","","","","","","","","","",""
"null","","html-keyboard-response","230","1209396","0.0-230.0","AGG6I61OP7MXT","<p style=""font-size: 48px;"">+</p>","","","","","null","allTrialResponses","1500","1","26","img_art/14.jpg","-38","This feels a bit bland and does not do much for me.","Chelsea,Angela,Laura,Madeline,Jamie,Emma","The colors are pleasing.,29,180,20","I like the colors and the shapes are interesting,11,260,20","feels incomplete, poorly planned/executed,-34,320,20","It looks nice colorwise but detail is lacking,18,40,20","Not as cool as other tree looking paintings,-5,320,20","Don't love it.,-10,60,20","Laura","feels incomplete, poorly planned/executed,-34,320,20","Emma","Don't love it.,-10,60,20","Jamie","Not as cool as other tree looking paintings,-5,320,20","0"
"13127","","survey-text","231","1222527","0.0-231.0-0.0","AGG6I61OP7MXT","","","","{""Q0"":""This looks like a lonely tree.  It's kind of boring, but not bad.""}","","","","","","","","","","","","","","","","","","","","","","",""
"2360.7000000476837","","image-slider-response","232","1224888","0.0-232.0","AGG6I61OP7MXT","","","","","11","","","","","","","","","","","","","","","","","","","","","",""
"null","","image-button-response","233","1229891","0.0-233.0","AGG6I61OP7MXT","img_art/6.jpg","null","","","","","","","","","","","","","","","","","","","","","","","","",""
"557","","image-button-response","234","1230451","0.0-234.0","AGG6I61OP7MXT","img_art/6.jpg","0","","","","","","","","","","","","","","","","","","","","","","","","",""
"1155","","image-button-response","235","1231607","0.0-235.0-0.0","AGG6I61OP7MXT","img_art/6.jpg","4","","","","","","","","","","","","","","","","","","","","","","","","",""
"538","","image-button-response","236","1232146","0.0-236.0-0.0","AGG6I61OP7MXT","img_art/6.jpg","5","","","","","","","","","","","","","","","","","","","","","","","","",""
"null","","html-keyboard-response","237","1233158","0.0-237.0","AGG6I61OP7MXT","<p style=""font-size: 48px;"">+</p>","","","","","null","allTrialResponses","1000","1","27","img_art/6.jpg","11","This looks like a lonely tree.  It's kind of boring, but not bad.","Jordan,Amanda,Laura,Caitlin,Jamie,Emma","This is interesting, I feel solitude, and loneliness from this.,13,20,20","Makes me feel lonely,-22,180,20","graceful and light,35,320,20","A crow on one leg?,-10,80,20","Tree growing in a desert. Gives me feelings of hope,5,320,20","Birds are cool but I don't love it,10,60,20","Jordan","This is interesting, I feel solitude, and loneliness from this.,13,20,20","Jamie","Tree growing in a desert. Gives me feelings of hope,5,320,20","Emma","Birds are cool but I don't love it,10,60,20","0"
"9682","","survey-text","238","1242844","0.0-238.0-0.0","AGG6I61OP7MXT","","","","{""Q0"":""I don't even understand the point of this one.""}","","","","","","","","","","","","","","","","","","","","","","",""
"1741.6000000238419","","image-slider-response","239","1244587","0.0-239.0","AGG6I61OP7MXT","","","","","-50","","","","","","","","","","","","","","","","","","","","","",""
"null","","image-button-response","240","1249603","0.0-240.0","AGG6I61OP7MXT","img_art/5.jpg","null","","","","","","","","","","","","","","","","","","","","","","","","",""
"503","","image-button-response","241","1250109","0.0-241.0","AGG6I61OP7MXT","img_art/5.jpg","2","","","","","","","","","","","","","","","","","","","","","","","","",""
"1034","","image-button-response","242","1251144","0.0-242.0-0.0","AGG6I61OP7MXT","img_art/5.jpg","3","","","","","","","","","","","","","","","","","","","","","","","","",""
"628","","image-button-response","243","1251773","0.0-243.0-0.0","AGG6I61OP7MXT","img_art/5.jpg","4","","","","","","","","","","","","","","","","","","","","","","","","",""
"null","","html-keyboard-response","244","1253274","0.0-244.0","AGG6I61OP7MXT","<p style=""font-size: 48px;"">+</p>","","","","","null","allTrialResponses","1500","1","28","img_art/5.jpg","-50","I don't even understand the point of this one.","Jordan,Sydney,Cassandra,Caroline,Jamie,Emma","I dont really get anything from this,-25,20,20","I'm reminded of a volcano with weird colors.,-5,320,20","This was awful and it looked like someone took minimul effort with it... no time at all.,-49,120,20","Too much angular things happening, makes me think of stabbing something which makes me uncomfortable,-50,100,20","Don't really see it and yellow/pink don't go well together,-35,320,20","Kind of ugly ....,-21,60,20","Cassandra","This was awful and it looked like someone took minimul effort with it... no time at all.,-49,120,20","Caroline","Too much angular things happening, makes me think of stabbing something which makes me uncomfortable,-50,100,20","Jamie","Don't really see it and yellow/pink don't go well together,-35,320,20","0"
"10971","","survey-text","245","1264253","0.0-245.0-0.0","AGG6I61OP7MXT","","","","{""Q0"":""This has a lot going on and is very pleasing to look at.""}","","","","","","","","","","","","","","","","","","","","","","",""
"1814.7999999523163","","image-slider-response","246","1266069","0.0-246.0","AGG6I61OP7MXT","","","","","30","","","","","","","","","","","","","","","","","","","","","",""
"null","","image-button-response","247","1271079","0.0-247.0","AGG6I61OP7MXT","img_art/18.jpg","null","","","","","","","","","","","","","","","","","","","","","","","","",""
"525","","image-button-response","248","1271607","0.0-248.0","AGG6I61OP7MXT","img_art/18.jpg","0","","","","","","","","","","","","","","","","","","","","","","","","",""
"449","","image-button-response","249","1272056","0.0-249.0-0.0","AGG6I61OP7MXT","img_art/18.jpg","1","","","","","","","","","","","","","","","","","","","","","","","","",""
"624","","image-button-response","250","1272681","0.0-250.0-0.0","AGG6I61OP7MXT","img_art/18.jpg","3","","","","","","","","","","","","","","","","","","","","","","","","",""
"null","","html-keyboard-response","251","1273183","0.0-251.0","AGG6I61OP7MXT","<p style=""font-size: 48px;"">+</p>","","","","","null","allTrialResponses","500","1","29","img_art/18.jpg","30","This has a lot going on and is very pleasing to look at.","Julia,Savannah,Cassandra,Caroline,Jamie,Brooke","Very classy, I feel like it's the apocalypse.,25,40,20","Accents make this piece.,21,200,20","I don't know...kind of a dissatified feeling inside.,-6,120,20","I think of the ocean and a boat tossed about on the waves. In the upper left is a figure. It is pleasant,30,100,20","Mash up of colors and don't see a grander picture,-10,320,20","Don't like the color scheme. Or the theme.,-5,60,20","Julia","Very classy, I feel like it's the apocalypse.,25,40,20","Savannah","Accents make this piece.,21,200,20","Caroline","I think of the ocean and a boat tossed about on the waves. In the upper left is a figure. It is pleasant,30,100,20","0"
"11366","","survey-text","252","1284555","0.0-252.0-0.0","AGG6I61OP7MXT","","","","{""Q0"":""This does not appear to have had very much effort put in.""}","","","","","","","","","","","","","","","","","","","","","","",""
"1894.5","","image-slider-response","253","1286450","0.0-253.0","AGG6I61OP7MXT","","","","","-35","","","","","","","","","","","","","","","","","","","","","",""
"null","","image-button-response","254","1291451","0.0-254.0","AGG6I61OP7MXT","img_art/30.jpg","null","","","","","","","","","","","","","","","","","","","","","","","","",""
"1046","","image-button-response","255","1292499","0.0-255.0","AGG6I61OP7MXT","img_art/30.jpg","0","","","","","","","","","","","","","","","","","","","","","","","","",""
"403","","image-button-response","256","1292903","0.0-256.0-0.0","AGG6I61OP7MXT","img_art/30.jpg","1","","","","","","","","","","","","","","","","","","","","","","","","",""
"450","","image-button-response","257","1293353","0.0-257.0-0.0","AGG6I61OP7MXT","img_art/30.jpg","2","","","","","","","","","","","","","","","","","","","","","","","","",""
"null","","html-keyboard-response","258","1293855","0.0-258.0","AGG6I61OP7MXT","<p style=""font-size: 48px;"">+</p>","","","","","null","allTrialResponses","500","1","30","img_art/30.jpg","-35","This does not appear to have had very much effort put in.","Julia,Savannah,Kaitlyn,Caroline,Jenna,Kayla","this is probably part of a neat series, but the abstraction doesn't speak to me,-17,40,20","Colors are nice but it just seems too simple.,-26,200,20","Do not like the streaks,-14,80,20","Fear. It looks like snakes in the picture,13,100,20","love the movement of the brush strokes. very interesting piece.,38,360,20","It's soothing- the page is full, but there aren't too many things happening.,23,180,20","Julia","this is probably part of a neat series, but the abstraction doesn't speak to me,-17,40,20","Savannah","Colors are nice but it just seems too simple.,-26,200,20","Kaitlyn","Do not like the streaks,-14,80,20","0"
"4617","","image-button-response_instructions","259","1298476","0.0-259.0","AGG6I61OP7MXT","","0","instructions","","","","","","","","","","","","","","","","","","","","","","","",""
"981","","image-button-response","260","1299460","0.0-260.0","AGG6I61OP7MXT","","0","","","","","","","","","","","","","","","","","","","","","","","","",""
