"rt","url","trial_type","trial_index","time_elapsed","internal_node_id","participant_id","stimulus","button_pressed","Name","responses","response","key_press","variableName","fixationTime","condition","trial","photo","subjectRating","subjectResponse","agentsNames","agent_1_Response","agent_2_Response","agent_3_Response","agent_4_Response","agent_5_Response","agent_6_Response","kept_1_name","kept_1_response","kept_2_name","kept_2_response","kept_3_name","kept_3_response","errorCounter"
"10809","external_page_harvard.html","external-html","0","10856","0.0-0.0","AGWSOBI4I4T9Z","","","","","","","","","","","","","","","","","","","","","","","","","","",""
"1916","","image-button-response","1","12774","0.0-1.0","AGWSOBI4I4T9Z","","1","","","","","","","","","","","","","","","","","","","","","","","","",""
"2748","","image-button-response","2","15526","0.0-2.0-0.0","AGWSOBI4I4T9Z","","1","phone","","","","","","","","","","","","","","","","","","","","","","","",""
"7823","","survey-text","3","23350","0.0-3.0-0.0","AGWSOBI4I4T9Z","","","","{""Q0"":""AGWSOBI4I4T9Z""}","","","","","","","","","","","","","","","","","","","","","","",""
"8927","","image-button-response_instructions","4","32278","0.0-4.0","AGWSOBI4I4T9Z","","0","instructions","","","","","","","","","","","","","","","","","","","","","","","",""
"23687","","image-button-response_instructions","5","55966","0.0-5.0","AGWSOBI4I4T9Z","img_art/ins/popularity/ins1.png","0","instructions","","","","","","","","","","","","","","","","","","","","","","","",""
"5607","","image-button-response_instructions","6","61574","0.0-6.0","AGWSOBI4I4T9Z","img_art/ins/popularity/ins2.png","0","instructions","","","","","","","","","","","","","","","","","","","","","","","",""
"8303","","image-button-response_instructions","7","69878","0.0-7.0","AGWSOBI4I4T9Z","img_art/ins/popularity/ins2Extreme.png","0","instructions","","","","","","","","","","","","","","","","","","","","","","","",""
"22039","","image-button-response_instructions","8","91918","0.0-8.0","AGWSOBI4I4T9Z","img_art/ins/popularity/ins3KEEPpop.PNG","0","instructions","","","","","","","","","","","","","","","","","","","","","","","",""
"4487","","image-button-response_instructions","9","96406","0.0-9.0","AGWSOBI4I4T9Z","img_art/ins/popularity/ins3ANamepop.PNG","0","instructions","","","","","","","","","","","","","","","","","","","","","","","",""
"2543","","image-button-response_instructions","10","98949","0.0-10.0","AGWSOBI4I4T9Z","img_art/ins/popularity/ins3ARatingpop.png","0","instructions","","","","","","","","","","","","","","","","","","","","","","","",""
"2231","","image-button-response_instructions","11","101182","0.0-11.0","AGWSOBI4I4T9Z","img_art/ins/popularity/ins3ATextpop.png","0","instructions","","","","","","","","","","","","","","","","","","","","","","","",""
"6231","","image-button-response_instructions","12","107414","0.0-12.0","AGWSOBI4I4T9Z","img_art/ins/popularity/ins3ALikespop.png","0","instructions","","","","","","","","","","","","","","","","","","","","","","","",""
"13808","","image-button-response_instructions","13","121222","0.0-13.0","AGWSOBI4I4T9Z","img_art/ins/popularity/ins3KEEPpop.PNG","0","instructions","","","","","","","","","","","","","","","","","","","","","","","",""
"7855","","image-button-response_instructions","14","129078","0.0-14.0","AGWSOBI4I4T9Z","img_art/ins/popularity/ins3_5RED.png","0","instructions","","","","","","","","","","","","","","","","","","","","","","","",""
"7560","","image-button-response_instructions","15","136638","0.0-15.0","AGWSOBI4I4T9Z","img_art/ins/popularity/ins3KEEPpop.PNG","0","instructions","","","","","","","","","","","","","","","","","","","","","","","",""
"12503","","image-button-response_instructions","16","149142","0.0-16.0","AGWSOBI4I4T9Z","img_art/ins/popularity/ins4KEEPpop.PNG","0","instructions","","","","","","","","","","","","","","","","","","","","","","","",""
"5215","","image-button-response_instructions","17","154358","0.0-17.0","AGWSOBI4I4T9Z","img_art/ins/popularity/ins5KEEPpop.PNG","0","instructions","","","","","","","","","","","","","","","","","","","","","","","",""
"2680","","image-button-response_instructions","18","157038","0.0-18.0","AGWSOBI4I4T9Z","","0","instructions","","","","","","","","","","","","","","","","","","","","","","","",""
"5351","","survey-text","19","162406","0.0-19.0-0.0","AGWSOBI4I4T9Z","","","","{""Q0"":""but""}","","","","","","","","","","","","","","","","","","","","","","",""
"30143","","survey-text","20","192550","0.0-20.0-0.0","AGWSOBI4I4T9Z","","","","{""Q0"":""This doesn't really interest me.""}","","","","","","","","","","","","","","","","","","","","","","",""
"14925.699999999255","","image-slider-response","21","207478","0.0-21.0","AGWSOBI4I4T9Z","","","","","-3","","","","","","","","","","","","","","","","","","","","","",""
"null","","image-button-response","22","212482","0.0-22.0","AGWSOBI4I4T9Z","img_art/ins/1.jpg","null","","","","","","","","","","","","","","","","","","","","","","","","",""
"2330","","image-button-response","23","214814","0.0-23.0","AGWSOBI4I4T9Z","img_art/ins/1.jpg","1","","","","","","","","","","","","","","","","","","","","","","","","",""
"5863","","image-button-response","24","220679","0.0-24.0-0.0","AGWSOBI4I4T9Z","img_art/ins/1.jpg","3","","","","","","","","","","","","","","","","","","","","","","","","",""
"7630","","image-button-response","25","228310","0.0-25.0-0.0","AGWSOBI4I4T9Z","img_art/ins/1.jpg","0","","","","","","","","","","","","","","","","","","","","","","","","",""
"null","","html-keyboard-response","26","228813","0.0-26.0","AGWSOBI4I4T9Z","<p style=""font-size: 48px;"">+</p>","","","","","null","allTrialResponses","500","1","-2","img_art/ins/1.jpg","-3","This doesn't really interest me.","Allison,Ashley,Beth,Dora,Erika,Jen","looks like a lot of things going on in the mist,20,20,20","I just don't get why these type of art would be popular,-32,40,20","This color reminds me of poo,-46,60,20","looks like what my niece in 3rd grade did this afternoon,-50,80,20","I like the sophisticated brushwork,40,100,20","It reminds me of a candy land dream I had,36,120,20","Ashley","I just don't get why these type of art would be popular,-32,40,20","Dora","looks like what my niece in 3rd grade did this afternoon,-50,80,20","Allison","looks like a lot of things going on in the mist,20,20,20","0"
"29916","","survey-text","27","258734","0.0-27.0-0.0","AGWSOBI4I4T9Z","","","","{""Q0"":""I like the color scheme.""}","","","","","","","","","","","","","","","","","","","","","","",""
"4726.60000000149","","image-slider-response","28","263462","0.0-28.0","AGWSOBI4I4T9Z","","","","","23","","","","","","","","","","","","","","","","","","","","","",""
"null","","image-button-response","29","268464","0.0-29.0","AGWSOBI4I4T9Z","img_art/ins/2.jpg","null","","","","","","","","","","","","","","","","","","","","","","","","",""
"5091","","image-button-response","30","273558","0.0-30.0","AGWSOBI4I4T9Z","img_art/ins/2.jpg","4","","","","","","","","","","","","","","","","","","","","","","","","",""
"3095","","image-button-response","31","276654","0.0-31.0-0.0","AGWSOBI4I4T9Z","img_art/ins/2.jpg","0","","","","","","","","","","","","","","","","","","","","","","","","",""
"8575","","image-button-response","32","285230","0.0-32.0-0.0","AGWSOBI4I4T9Z","img_art/ins/2.jpg","3","","","","","","","","","","","","","","","","","","","","","","","","",""
"null","","html-keyboard-response","33","286732","0.0-33.0","AGWSOBI4I4T9Z","<p style=""font-size: 48px;"">+</p>","","","","","null","allTrialResponses","1500","1","-1","img_art/ins/2.jpg","23","I like the color scheme.","Allison,Ashley,Jenna,Dora,Kara,Katie","I don't have strong feelings about this,10,20,20","Idk, it is just annoying,-32,40,20","One of my pet peevs,-48,140,20","looks too angry,-50,80,20","I like the blocks of color arrangements,30,160,20","too much color!,-28,180,20","Kara","I like the blocks of color arrangements,30,160,20","Allison","I don't have strong feelings about this,10,20,20","Dora","looks too angry,-50,80,20","0"
"11844","","survey-text","34","298581","0.0-34.0-0.0","AGWSOBI4I4T9Z","","","","{""Q0"":""This makes me think of a cold, winter day.""}","","","","","","","","","","","","","","","","","","","","","","",""
"3558.7999999988824","","image-slider-response","35","302141","0.0-35.0","AGWSOBI4I4T9Z","","","","","-15","","","","","","","","","","","","","","","","","","","","","",""
"null","","image-button-response","36","307144","0.0-36.0","AGWSOBI4I4T9Z","img_art/ins/3.jpg","null","","","","","","","","","","","","","","","","","","","","","","","","",""
"8299","","image-button-response","37","315446","0.0-37.0","AGWSOBI4I4T9Z","img_art/ins/3.jpg","0","","","","","","","","","","","","","","","","","","","","","","","","",""
"4270","","image-button-response","38","319718","0.0-38.0-0.0","AGWSOBI4I4T9Z","img_art/ins/3.jpg","1","","","","","","","","","","","","","","","","","","","","","","","","",""
"838","","image-button-response","39","320558","0.0-39.0-0.0","AGWSOBI4I4T9Z","img_art/ins/3.jpg","2","","","","","","","","","","","","","","","","","","","","","","","","",""
"null","","html-keyboard-response","40","322059","0.0-40.0","AGWSOBI4I4T9Z","<p style=""font-size: 48px;"">+</p>","","","","","null","allTrialResponses","1500","1","0","img_art/ins/3.jpg","-15","This makes me think of a cold, winter day.","Allison,Leslie,Mary,Dora,Kara,Rose","enjoy the different shades of blue,22,20,20","It's an alright work,15,200,20","I like the overlapping of brushes,41,220,20","My worst nightmare,-42,80,20","calming blue is very nice,36,160,20","My daily routine, it's depressing,-20,240,20","Allison","enjoy the different shades of blue,22,20,20","Leslie","It's an alright work,15,200,20","Mary","I like the overlapping of brushes,41,220,20","0"
"6721","","image-button-response_instructions","41","328790","0.0-41.0","AGWSOBI4I4T9Z","","0","instructions","","","","","","","","","","","","","","","","","","","","","","","",""
"12118","","survey-likert","42","340910","0.0-42.0-0.0","AGWSOBI4I4T9Z","","","","{""Q0"":"""",""Q1"":0,""Q2"":1}","","","","","","","","","","","","","","","","","","","","","","",""
"4044","","survey-text","43","344957","0.0-43.0-0.0","AGWSOBI4I4T9Z","","","","{""Q0"":""rock""}","","","","","","","","","","","","","","","","","","","","","","",""
"18639","","survey-text","44","363597","0.0-44.0-0.0","AGWSOBI4I4T9Z","","","","{""Q0"":""This looks like it was done by a 5 year old.""}","","","","","","","","","","","","","","","","","","","","","","",""
"4046.9000000003725","","image-slider-response","45","367646","0.0-45.0","AGWSOBI4I4T9Z","","","","","-3","","","","","","","","","","","","","","","","","","","","","",""
"null","","image-button-response","46","372665","0.0-46.0","AGWSOBI4I4T9Z","img_art/27.jpg","null","","","","","","","","","","","","","","","","","","","","","","","","",""
"3225","","image-button-response","47","375894","0.0-47.0","AGWSOBI4I4T9Z","img_art/27.jpg","1","","","","","","","","","","","","","","","","","","","","","","","","",""
"18326","","image-button-response","48","394222","0.0-48.0-0.0","AGWSOBI4I4T9Z","img_art/27.jpg","0","","","","","","","","","","","","","","","","","","","","","","","","",""
"1670","","image-button-response","49","395894","0.0-49.0-0.0","AGWSOBI4I4T9Z","img_art/27.jpg","2","","","","","","","","","","","","","","","","","","","","","","","","",""
"null","","html-keyboard-response","50","396896","0.0-50.0","AGWSOBI4I4T9Z","<p style=""font-size: 48px;"">+</p>","","","","","null","allTrialResponses","1000","1","1","img_art/27.jpg","-3","This looks like it was done by a 5 year old.","Allison,Cassidy,Laura,Kristen,Olivia,Hannah","Warn colors are pretty, but too blotchy for me.,3,140,20","doesn't look like any effort was put into this piece.,-19,140,20","feels like a bar scene, tucked away in the corner of a small town,-40,320,20","makes me think of fume clouds, low visibility,-28,280,20","city at sunset brings happyness,10,40,20","Reminds me of something I'd see in a gold frame from the Eighties.,-9,240,20","Cassidy","doesn't look like any effort was put into this piece.,-19,140,20","Allison","Warn colors are pretty, but too blotchy for me.,3,140,20","Laura","feels like a bar scene, tucked away in the corner of a small town,-40,320,20","0"
"50272","","survey-text","51","447174","0.0-51.0-0.0","AGWSOBI4I4T9Z","","","","{""Q0"":""I would like it better if the whole painting was the top half""}","","","","","","","","","","","","","","","","","","","","","","",""
"3334.800000000745","","image-slider-response","52","450510","0.0-52.0","AGWSOBI4I4T9Z","","","","","-24","","","","","","","","","","","","","","","","","","","","","",""
"null","","image-button-response","53","455512","0.0-53.0","AGWSOBI4I4T9Z","img_art/12.jpg","null","","","","","","","","","","","","","","","","","","","","","","","","",""
"10371","","image-button-response","54","465886","0.0-54.0","AGWSOBI4I4T9Z","img_art/12.jpg","4","","","","","","","","","","","","","","","","","","","","","","","","",""
"4509","","image-button-response","55","470398","0.0-55.0-0.0","AGWSOBI4I4T9Z","img_art/12.jpg","5","","","","","","","","","","","","","","","","","","","","","","","","",""
"6550","","image-button-response","56","476950","0.0-56.0-0.0","AGWSOBI4I4T9Z","img_art/12.jpg","0","","","","","","","","","","","","","","","","","","","","","","","","",""
"null","","html-keyboard-response","57","478452","0.0-57.0","AGWSOBI4I4T9Z","<p style=""font-size: 48px;"">+</p>","","","","","null","allTrialResponses","1500","1","2","img_art/12.jpg","-24","I would like it better if the whole painting was the top half","Allison,Cassidy,Laura,Shelby,Sarah,Mariah","Minimalist colors and shapes.,-5,140,20","I like the colors and pattern,21,140,20","angry, disturbed and sharp,-25,320,20","The shapes make me feel a bit uncomfortable,-10,240,20","i think it's a good piece but it doesn't appeal to me,-18,180,20","It is very bland and the colors are not cohesive.,-20,140,20","Sarah","i think it's a good piece but it doesn't appeal to me,-18,180,20","Mariah","It is very bland and the colors are not cohesive.,-20,140,20","Allison","Minimalist colors and shapes.,-5,140,20","0"
"24260","","survey-text","58","502718","0.0-58.0-0.0","AGWSOBI4I4T9Z","","","","{""Q0"":""this looks chaotic""}","","","","","","","","","","","","","","","","","","","","","","",""
"3654.800000000745","","image-slider-response","59","506374","0.0-59.0","AGWSOBI4I4T9Z","","","","","-9","","","","","","","","","","","","","","","","","","","","","",""
"null","","image-button-response","60","511376","0.0-60.0","AGWSOBI4I4T9Z","img_art/28.jpg","null","","","","","","","","","","","","","","","","","","","","","","","","",""
"19364","","image-button-response","61","530742","0.0-61.0","AGWSOBI4I4T9Z","img_art/28.jpg","2","","","","","","","","","","","","","","","","","","","","","","","","",""
"2903","","image-button-response","62","533646","0.0-62.0-0.0","AGWSOBI4I4T9Z","img_art/28.jpg","1","","","","","","","","","","","","","","","","","","","","","","","","",""
"4471","","image-button-response","63","538118","0.0-63.0-0.0","AGWSOBI4I4T9Z","img_art/28.jpg","3","","","","","","","","","","","","","","","","","","","","","","","","",""
"null","","html-keyboard-response","64","539620","0.0-64.0","AGWSOBI4I4T9Z","<p style=""font-size: 48px;"">+</p>","","","","","null","allTrialResponses","1500","1","3","img_art/28.jpg","-9","this looks chaotic","Allison,Mikayla,Katherine,Christina,Sarah,Mariah","Dislike the colors.,-20,140,20","It gives me weird vibes.,-25,300,20","Eh it's just kinda brown and muddy and not very nice looking,-18,120,20","very blah colors and it's not fun,-27,240,20","something about all the off-greys is pretty interesting,5,180,20","Colors are pleasing, shapes are vaguely unpleasant. Kidneys at a smoky bar.,5,140,20","Katherine","Eh it's just kinda brown and muddy and not very nice looking,-18,120,20","Mikayla","It gives me weird vibes.,-25,300,20","Christina","very blah colors and it's not fun,-27,240,20","0"
"30085","","survey-text","65","569710","0.0-65.0-0.0","AGWSOBI4I4T9Z","","","","{""Q0"":""looks like a blurred landscape of a beach""}","","","","","","","","","","","","","","","","","","","","","","",""
"3446.39999999851","","image-slider-response","66","573158","0.0-66.0","AGWSOBI4I4T9Z","","","","","14","","","","","","","","","","","","","","","","","","","","","",""
"4815","","image-button-response","67","578160","0.0-67.0","AGWSOBI4I4T9Z","img_art/21.jpg","0","","","","","","","","","","","","","","","","","","","","","","","","",""
"1811","","image-button-response","68","579974","0.0-68.0","AGWSOBI4I4T9Z","img_art/21.jpg","0","","","","","","","","","","","","","","","","","","","","","","","","",""
"17822","","image-button-response","69","597798","0.0-69.0-0.0","AGWSOBI4I4T9Z","img_art/21.jpg","5","","","","","","","","","","","","","","","","","","","","","","","","",""
"8743","","image-button-response","70","606542","0.0-70.0-0.0","AGWSOBI4I4T9Z","img_art/21.jpg","4","","","","","","","","","","","","","","","","","","","","","","","","",""
"null","","html-keyboard-response","71","607045","0.0-71.0","AGWSOBI4I4T9Z","<p style=""font-size: 48px;"">+</p>","","","","","null","allTrialResponses","500","1","4","img_art/21.jpg","14","looks like a blurred landscape of a beach","Andrea,Mikayla,Katherine,Christina,Leslie,Angelica","It feels like a day at sea but the pink is slightly jarring and holding my eye.,26,240,20","Nothing exciting in this one.,-36,300,20","I can't explain why this struck me as absolutely gorgeous. Like the clashing between 2 different worlds,43,120,20","it has a lot of happy colors and it's very classic looking,35,240,20","The colors make me think of a perilous scene at sea, and are pretty interesting.,15,380,20","It looks epic and is nice to look at in terms of colors/style.,23,280,20","Andrea","It feels like a day at sea but the pink is slightly jarring and holding my eye.,26,240,20","Angelica","It looks epic and is nice to look at in terms of colors/style.,23,280,20","Leslie","The colors make me think of a perilous scene at sea, and are pretty interesting.,15,380,20","0"
"32264","","survey-text","72","639318","0.0-72.0-0.0","AGWSOBI4I4T9Z","","","","{""Q0"":""a dreamscape of a lounging woman""}","","","","","","","","","","","","","","","","","","","","","","",""
"3958.699999999255","","image-slider-response","73","643278","0.0-73.0","AGWSOBI4I4T9Z","","","","","-4","","","","","","","","","","","","","","","","","","","","","",""
"null","","image-button-response","74","648280","0.0-74.0","AGWSOBI4I4T9Z","img_art/9.jpg","null","","","","","","","","","","","","","","","","","","","","","","","","",""
"4572","","image-button-response","75","652855","0.0-75.0","AGWSOBI4I4T9Z","img_art/9.jpg","5","","","","","","","","","","","","","","","","","","","","","","","","",""
"10078","","image-button-response","76","662934","0.0-76.0-0.0","AGWSOBI4I4T9Z","img_art/9.jpg","2","","","","","","","","","","","","","","","","","","","","","","","","",""
"2534","","image-button-response","77","665470","0.0-77.0-0.0","AGWSOBI4I4T9Z","img_art/9.jpg","1","","","","","","","","","","","","","","","","","","","","","","","","",""
"null","","html-keyboard-response","78","665972","0.0-78.0","AGWSOBI4I4T9Z","<p style=""font-size: 48px;"">+</p>","","","","","null","allTrialResponses","500","1","5","img_art/9.jpg","-4","a dreamscape of a lounging woman","Andrea,Kelsey,Jennifer,Dominique,Leslie,Angelica","Sleeping woman in a cave. Makes me feel safe.,20,240,20","i like the colors but not the composition,-17,240,20","This piece is very boring to look at.,-27,380,20","This speaks to me like a personalities and sides and not all are nice,19,400,20","The colors are pretty, and remind me of a circus.,5,380,20","The colors and image is ugly.,-7,280,20","Angelica","The colors and image is ugly.,-7,280,20","Jennifer","This piece is very boring to look at.,-27,380,20","Kelsey","i like the colors but not the composition,-17,240,20","0"
"4835","","survey-text","79","670822","0.0-79.0-0.0","AGWSOBI4I4T9Z","","","","{""Q0"":""sky""}","","","","","","","","","","","","","","","","","","","","","","",""
"14511","","survey-text","80","685334","0.0-80.0-0.0","AGWSOBI4I4T9Z","","","","{""Q0"":""a calming waterfall in a forest""}","","","","","","","","","","","","","","","","","","","","","","",""
"2910.89999999851","","image-slider-response","81","688246","0.0-81.0","AGWSOBI4I4T9Z","","","","","10","","","","","","","","","","","","","","","","","","","","","",""
"null","","image-button-response","82","693263","0.0-82.0","AGWSOBI4I4T9Z","img_art/24.jpg","null","","","","","","","","","","","","","","","","","","","","","","","","",""
"2221","","image-button-response","83","695487","0.0-83.0","AGWSOBI4I4T9Z","img_art/24.jpg","2","","","","","","","","","","","","","","","","","","","","","","","","",""
"15046","","image-button-response","84","710534","0.0-84.0-0.0","AGWSOBI4I4T9Z","img_art/24.jpg","0","","","","","","","","","","","","","","","","","","","","","","","","",""
"1391","","image-button-response","85","711926","0.0-85.0-0.0","AGWSOBI4I4T9Z","img_art/24.jpg","3","","","","","","","","","","","","","","","","","","","","","","","","",""
"null","","html-keyboard-response","86","712428","0.0-86.0","AGWSOBI4I4T9Z","<p style=""font-size: 48px;"">+</p>","","","","","null","allTrialResponses","500","1","6","img_art/24.jpg","10","a calming waterfall in a forest","Rachel,Kelsey,Jennifer,Michelle,Alexa,Angelica","Looks like a beautiful stream rolling through terrain of rocks and flowers.,43,80,20","this one is just a bit too harsh,-13,240,20","This piece resembles a waterfall surrounded by trees.,21,380,20","Looks like a waterfall or a brook, the colors are very nice,15,280,20","I absolutely adore this painting. The colors, designs, everything. It's phenomenal,50,40,20","This looks ugly and simple, as if done by a young person.,-2,280,20","Jennifer","This piece resembles a waterfall surrounded by trees.,21,380,20","Rachel","Looks like a beautiful stream rolling through terrain of rocks and flowers.,43,80,20","Michelle","Looks like a waterfall or a brook, the colors are very nice,15,280,20","0"
"28669","","survey-text","87","741102","0.0-87.0-0.0","AGWSOBI4I4T9Z","","","","{""Q0"":""brush strokes are interesting""}","","","","","","","","","","","","","","","","","","","","","","",""
"3254.300000000745","","image-slider-response","88","744358","0.0-88.0","AGWSOBI4I4T9Z","","","","","-26","","","","","","","","","","","","","","","","","","","","","",""
"3927","","image-button-response","89","749360","0.0-89.0","AGWSOBI4I4T9Z","img_art/29.jpg","0","","","","","","","","","","","","","","","","","","","","","","","","",""
"683","","image-button-response","90","750046","0.0-90.0","AGWSOBI4I4T9Z","img_art/29.jpg","0","","","","","","","","","","","","","","","","","","","","","","","","",""
"9087","","image-button-response","91","759135","0.0-91.0-0.0","AGWSOBI4I4T9Z","img_art/29.jpg","4","","","","","","","","","","","","","","","","","","","","","","","","",""
"6494","","image-button-response","92","765631","0.0-92.0-0.0","AGWSOBI4I4T9Z","img_art/29.jpg","3","","","","","","","","","","","","","","","","","","","","","","","","",""
"null","","html-keyboard-response","93","767132","0.0-93.0","AGWSOBI4I4T9Z","<p style=""font-size: 48px;"">+</p>","","","","","null","allTrialResponses","1500","1","7","img_art/29.jpg","-26","brush strokes are interesting","Rachel,Crystal,Jennifer,Michelle,Madeline,Brianna","It looks like someone did not like their art and drew an x over it.,-32,80,20","Reminiscent of Jackson Pollock with a hint of abstract structure with the bordering.,32,300,20","Very interesting composition,41,380,20","The texture really stands out, this is an interesting composition,6,280,20","Looks a bit messy,-13,40,20","It has a red X on there, and x's mean bad in my perspective,-29,20,20","Rachel","It looks like someone did not like their art and drew an x over it.,-32,80,20","Madeline","Looks a bit messy,-13,40,20","Michelle","The texture really stands out, this is an interesting composition,6,280,20","0"
"13037","","survey-text","94","780174","0.0-94.0-0.0","AGWSOBI4I4T9Z","","","","{""Q0"":""makes me think of the 90s""}","","","","","","","","","","","","","","","","","","","","","","",""
"7174.5","","image-slider-response","95","787350","0.0-95.0","AGWSOBI4I4T9Z","","","","","-9","","","","","","","","","","","","","","","","","","","","","",""
"null","","image-button-response","96","792353","0.0-96.0","AGWSOBI4I4T9Z","img_art/13.jpg","null","","","","","","","","","","","","","","","","","","","","","","","","",""
"12801","","image-button-response","97","805158","0.0-97.0","AGWSOBI4I4T9Z","img_art/13.jpg","3","","","","","","","","","","","","","","","","","","","","","","","","",""
"21079","","image-button-response","98","826238","0.0-98.0-0.0","AGWSOBI4I4T9Z","img_art/13.jpg","1","","","","","","","","","","","","","","","","","","","","","","","","",""
"7207","","image-button-response","99","833446","0.0-99.0-0.0","AGWSOBI4I4T9Z","img_art/13.jpg","0","","","","","","","","","","","","","","","","","","","","","","","","",""
"null","","html-keyboard-response","100","833948","0.0-100.0","AGWSOBI4I4T9Z","<p style=""font-size: 48px;"">+</p>","","","","","null","allTrialResponses","500","1","8","img_art/13.jpg","-9","makes me think of the 90s","Rachel,Danielle,Destiny,Michelle,Madeline,Alyssa","Peaceful colors.,20,80,20","While it is a bit basic and doesn't speak to me much, I like the feeling it gives,40,340,20","so simple and stupid this looks like what I did to my cousins wall when we repainted it for her 13th bday,0,360,20","I like the blue colors and the symmetry and paint splatters but I would not hang it in my house,8,280,20","Really love the colors,11,40,20","Pretty and it reminds me of rain droplets running down a window on a rainy day.,40,160,20","Michelle","I like the blue colors and the symmetry and paint splatters but I would not hang it in my house,8,280,20","Danielle","While it is a bit basic and doesn't speak to me much, I like the feeling it gives,40,340,20","Rachel","Peaceful colors.,20,80,20","0"
"19805","","survey-text","101","853758","0.0-101.0-0.0","AGWSOBI4I4T9Z","","","","{""Q0"":""I love watercolors.""}","","","","","","","","","","","","","","","","","","","","","","",""
"3302.800000000745","","image-slider-response","102","857062","0.0-102.0","AGWSOBI4I4T9Z","","","","","29","","","","","","","","","","","","","","","","","","","","","",""
"null","","image-button-response","103","862065","0.0-103.0","AGWSOBI4I4T9Z","img_art/14.jpg","null","","","","","","","","","","","","","","","","","","","","","","","","",""
"16083","","image-button-response","104","878151","0.0-104.0","AGWSOBI4I4T9Z","img_art/14.jpg","4","","","","","","","","","","","","","","","","","","","","","","","","",""
"4078","","image-button-response","105","882231","0.0-105.0-0.0","AGWSOBI4I4T9Z","img_art/14.jpg","5","","","","","","","","","","","","","","","","","","","","","","","","",""
"8822","","image-button-response","106","891054","0.0-106.0-0.0","AGWSOBI4I4T9Z","img_art/14.jpg","2","","","","","","","","","","","","","","","","","","","","","","","","",""
"null","","html-keyboard-response","107","892558","0.0-107.0","AGWSOBI4I4T9Z","<p style=""font-size: 48px;"">+</p>","","","","","null","allTrialResponses","1500","1","9","img_art/14.jpg","29","I love watercolors.","Rachel,Danielle,Paige,Michelle,Elizabeth,Maria","Did not evoke much feeling except confusion. I am not sure what to make of this one.,-20,80,20","Too much yellow in this image, i'm not a fan of art that is overly-saturated with yellow,-30,340,20","It didn't really do anything to excite me.,21,60,20","Too abstract with annoying little details. Just draw a regular tree already,-6,280,20","Love the abstractness of this painting,39,20,20","I enjoy what comes across as a playful take on nature themes,26,120,20","Elizabeth","Love the abstractness of this painting,39,20,20","Maria","I enjoy what comes across as a playful take on nature themes,26,120,20","Paige","It didn't really do anything to excite me.,21,60,20","0"
"26043","","survey-text","108","918606","0.0-108.0-0.0","AGWSOBI4I4T9Z","","","","{""Q0"":""boring and unoriginal""}","","","","","","","","","","","","","","","","","","","","","","",""
"2862.699999999255","","image-slider-response","109","921470","0.0-109.0","AGWSOBI4I4T9Z","","","","","-31","","","","","","","","","","","","","","","","","","","","","",""
"null","","image-button-response","110","926472","0.0-110.0","AGWSOBI4I4T9Z","img_art/15.jpg","null","","","","","","","","","","","","","","","","","","","","","","","","",""
"4212","","image-button-response","111","930687","0.0-111.0","AGWSOBI4I4T9Z","img_art/15.jpg","2","","","","","","","","","","","","","","","","","","","","","","","","",""
"15086","","image-button-response","112","945775","0.0-112.0-0.0","AGWSOBI4I4T9Z","img_art/15.jpg","1","","","","","","","","","","","","","","","","","","","","","","","","",""
"7022","","image-button-response","113","952799","0.0-113.0-0.0","AGWSOBI4I4T9Z","img_art/15.jpg","3","","","","","","","","","","","","","","","","","","","","","","","","",""
"null","","html-keyboard-response","114","953300","0.0-114.0","AGWSOBI4I4T9Z","<p style=""font-size: 48px;"">+</p>","","","","","null","allTrialResponses","500","1","10","img_art/15.jpg","-31","boring and unoriginal","Sabrina,Alexandria,Paige,Amber,Elizabeth,Maria","Extreme darkness and sadness,-30,120,20","it looks like trees but they are up to interpretation,16,80,20","I feel nothing when looking at this,1,60,20","Reminds me of blueberry bushes.,7,200,20","Perfect Abstract painting,50,20,20","i enjoy its apaprent simplicity (of colour and shape),32,120,20","Paige","I feel nothing when looking at this,1,60,20","Alexandria","it looks like trees but they are up to interpretation,16,80,20","Amber","Reminds me of blueberry bushes.,7,200,20","0"
"4274","","survey-text","115","957590","0.0-115.0-0.0","AGWSOBI4I4T9Z","","","","{""Q0"":""our""}","","","","","","","","","","","","","","","","","","","","","","",""
"19303","","survey-text","116","976894","0.0-116.0-0.0","AGWSOBI4I4T9Z","","","","{""Q0"":""the colors flow nicely""}","","","","","","","","","","","","","","","","","","","","","","",""
"3255","","image-slider-response","117","980150","0.0-117.0","AGWSOBI4I4T9Z","","","","","20","","","","","","","","","","","","","","","","","","","","","",""
"null","","image-button-response","118","985162","0.0-118.0","AGWSOBI4I4T9Z","img_art/20.jpg","null","","","","","","","","","","","","","","","","","","","","","","","","",""
"9186","","image-button-response","119","994351","0.0-119.0","AGWSOBI4I4T9Z","img_art/20.jpg","3","","","","","","","","","","","","","","","","","","","","","","","","",""
"1750","","image-button-response","120","996103","0.0-120.0-0.0","AGWSOBI4I4T9Z","img_art/20.jpg","5","","","","","","","","","","","","","","","","","","","","","","","","",""
"6774","","image-button-response","121","1002878","0.0-121.0-0.0","AGWSOBI4I4T9Z","img_art/20.jpg","0","","","","","","","","","","","","","","","","","","","","","","","","",""
"null","","html-keyboard-response","122","1003880","0.0-122.0","AGWSOBI4I4T9Z","<p style=""font-size: 48px;"">+</p>","","","","","null","allTrialResponses","1000","1","11","img_art/20.jpg","20","the colors flow nicely","Marissa,Alexandria,Paige,Amber,Erika,Julia","I feel intrigued and impressed,34,160,20","it looks like a car crash which is depressing,-19,80,20","scared. makes me feel alone or abandoned,-11,60,20","Bold strokes and colors.,6,200,20","The artist had very strong feelings, bold colors,28,100,20","The colors are nice, and the shapes conjure the decay of the city in the face of natural entropy,19,40,20","Amber","Bold strokes and colors.,6,200,20","Julia","The colors are nice, and the shapes conjure the decay of the city in the face of natural entropy,19,40,20","Marissa","I feel intrigued and impressed,34,160,20","0"
"30528","","survey-text","123","1034414","0.0-123.0-0.0","AGWSOBI4I4T9Z","","","","{""Q0"":""nice warm colors""}","","","","","","","","","","","","","","","","","","","","","","",""
"3758.7000000029802","","image-slider-response","124","1038174","0.0-124.0","AGWSOBI4I4T9Z","","","","","9","","","","","","","","","","","","","","","","","","","","","",""
"null","","image-button-response","125","1043177","0.0-125.0","AGWSOBI4I4T9Z","img_art/1.jpg","null","","","","","","","","","","","","","","","","","","","","","","","","",""
"2067","","image-button-response","126","1045247","0.0-126.0","AGWSOBI4I4T9Z","img_art/1.jpg","2","","","","","","","","","","","","","","","","","","","","","","","","",""
"9158","","image-button-response","127","1054407","0.0-127.0-0.0","AGWSOBI4I4T9Z","img_art/1.jpg","3","","","","","","","","","","","","","","","","","","","","","","","","",""
"3006","","image-button-response","128","1057415","0.0-128.0-0.0","AGWSOBI4I4T9Z","img_art/1.jpg","0","","","","","","","","","","","","","","","","","","","","","","","","",""
"null","","html-keyboard-response","129","1057917","0.0-129.0","AGWSOBI4I4T9Z","<p style=""font-size: 48px;"">+</p>","","","","","null","allTrialResponses","500","1","12","img_art/1.jpg","9","nice warm colors","Marissa,Kaitlin,Brittany,Amber,Kelly,Julia","It is beautiful, I really enjoy the colors,32,160,20","I see happiness from different aspects of life,31,60,20","It reminds me of a sunset I once saw.,16,40,20","Really like all of the colors and how they mesh well.,27,200,20","I love colorful photos and I like this one a lot.,25,220,20","I don't feel like much is happening in this painting,-25,40,20","Brittany","It reminds me of a sunset I once saw.,16,40,20","Amber","Really like all of the colors and how they mesh well.,27,200,20","Marissa","It is beautiful, I really enjoy the colors,32,160,20","0"
"18472","","survey-text","130","1076398","0.0-130.0-0.0","AGWSOBI4I4T9Z","","","","{""Q0"":""looks like a fishing harbor""}","","","","","","","","","","","","","","","","","","","","","","",""
"3367","","image-slider-response","131","1079766","0.0-131.0","AGWSOBI4I4T9Z","","","","","9","","","","","","","","","","","","","","","","","","","","","",""
"null","","image-button-response","132","1084769","0.0-132.0","AGWSOBI4I4T9Z","img_art/19.jpg","null","","","","","","","","","","","","","","","","","","","","","","","","",""
"7811","","image-button-response","133","1092583","0.0-133.0","AGWSOBI4I4T9Z","img_art/19.jpg","3","","","","","","","","","","","","","","","","","","","","","","","","",""
"8838","","image-button-response","134","1101422","0.0-134.0-0.0","AGWSOBI4I4T9Z","img_art/19.jpg","1","","","","","","","","","","","","","","","","","","","","","","","","",""
"5662","","image-button-response","135","1107086","0.0-135.0-0.0","AGWSOBI4I4T9Z","img_art/19.jpg","0","","","","","","","","","","","","","","","","","","","","","","","","",""
"null","","html-keyboard-response","136","1108589","0.0-136.0","AGWSOBI4I4T9Z","<p style=""font-size: 48px;"">+</p>","","","","","null","allTrialResponses","1500","1","13","img_art/19.jpg","9","looks like a fishing harbor","Marissa,Sydney,Brittany,Amber,Briana,Brooke","It makes me feel like it is of a street of bakeries,15,160,20","I like the color and the mix of sketches along with paint.,30,320,20","It looks too much of a rough sketch. Don't really enjoy looking at it.,-9,40,20","Reminds me of a busy village.,16,200,20","Its simple and the colors i like. It reminds me of chagall,34,400,20","Snowy winter scene,25,60,20","Amber","Reminds me of a busy village.,16,200,20","Sydney","I like the color and the mix of sketches along with paint.,30,320,20","Marissa","It makes me feel like it is of a street of bakeries,15,160,20","0"
"15379","","survey-text","137","1123974","0.0-137.0-0.0","AGWSOBI4I4T9Z","","","","{""Q0"":""skeletons riding into battle""}","","","","","","","","","","","","","","","","","","","","","","",""
"3990.800000000745","","image-slider-response","138","1127966","0.0-138.0","AGWSOBI4I4T9Z","","","","","-19","","","","","","","","","","","","","","","","","","","","","",""
"2663","","image-button-response","139","1132968","0.0-139.0","AGWSOBI4I4T9Z","img_art/18.jpg","0","","","","","","","","","","","","","","","","","","","","","","","","",""
"835","","image-button-response","140","1133806","0.0-140.0","AGWSOBI4I4T9Z","img_art/18.jpg","0","","","","","","","","","","","","","","","","","","","","","","","","",""
"16583","","image-button-response","141","1150391","0.0-141.0-0.0","AGWSOBI4I4T9Z","img_art/18.jpg","1","","","","","","","","","","","","","","","","","","","","","","","","",""
"11246","","image-button-response","142","1161638","0.0-142.0-0.0","AGWSOBI4I4T9Z","img_art/18.jpg","3","","","","","","","","","","","","","","","","","","","","","","","","",""
"null","","html-keyboard-response","143","1162640","0.0-143.0","AGWSOBI4I4T9Z","<p style=""font-size: 48px;"">+</p>","","","","","null","allTrialResponses","1000","1","14","img_art/18.jpg","-19","skeletons riding into battle","Marissa,Sydney,Grace,Amber,Autumn,Amy","This brings to mind the four horsemen of the apocalypse,8,160,20","I like the colors being used, but I don't like the chaos in the middle of it.,20,320,20","First saw sailing ship in bad weather but then saw woman in upper left - not sure what I'm seeing.,21,180,20","ugly and lots of movement,-6,200,20","This looks amazing.,40,340,20","So much going on. Frightening and tumultous, brave and inspiring. I'd like to spend the rest of my life interpreting it.,30,220,20","Marissa","This brings to mind the four horsemen of the apocalypse,8,160,20","Sydney","I like the colors being used, but I don't like the chaos in the middle of it.,20,320,20","Amber","ugly and lots of movement,-6,200,20","0"
"21703","","survey-text","144","1184350","0.0-144.0-0.0","AGWSOBI4I4T9Z","","","","{""Q0"":""the tree is distracting""}","","","","","","","","","","","","","","","","","","","","","","",""
"2374.599999997765","","image-slider-response","145","1186726","0.0-145.0","AGWSOBI4I4T9Z","","","","","-28","","","","","","","","","","","","","","","","","","","","","",""
"4167","","image-button-response","146","1191728","0.0-146.0","AGWSOBI4I4T9Z","img_art/6.jpg","2","","","","","","","","","","","","","","","","","","","","","","","","",""
"763","","image-button-response","147","1192495","0.0-147.0","AGWSOBI4I4T9Z","img_art/6.jpg","2","","","","","","","","","","","","","","","","","","","","","","","","",""
"8919","","image-button-response","148","1201415","0.0-148.0-0.0","AGWSOBI4I4T9Z","img_art/6.jpg","5","","","","","","","","","","","","","","","","","","","","","","","","",""
"5254","","image-button-response","149","1206671","0.0-149.0-0.0","AGWSOBI4I4T9Z","img_art/6.jpg","1","","","","","","","","","","","","","","","","","","","","","","","","",""
"null","","html-keyboard-response","150","1208172","0.0-150.0","AGWSOBI4I4T9Z","<p style=""font-size: 48px;"">+</p>","","","","","null","allTrialResponses","1500","1","15","img_art/6.jpg","-28","the tree is distracting","Marissa,Sydney,Chelsea,Amber,Gabrielle,Sara","I am intrigued but unsure whether I enjoy this or not,6,160,20","This piece reminds me of the lorax.,5,320,20","It looks like one tall ugly bird.,-43,180,20","Something very simplistic about it. The colors mesh well.,10,200,20","simplistic but reminds me of a crow in a field,-10,160,20","It looks sad and scary at the same time,11,160,20","Chelsea","It looks like one tall ugly bird.,-43,180,20","Sara","It looks sad and scary at the same time,11,160,20","Sydney","This piece reminds me of the lorax.,5,320,20","0"
"5281","","survey-text","151","1213462","0.0-151.0-0.0","AGWSOBI4I4T9Z","","","","{""Q0"":""course""}","","","","","","","","","","","","","","","","","","","","","","",""
"8639","","survey-text","152","1222102","0.0-152.0-0.0","AGWSOBI4I4T9Z","","","","{""Q0"":""too bland""}","","","","","","","","","","","","","","","","","","","","","","",""
"2438.7000000029802","","image-slider-response","153","1224542","0.0-153.0","AGWSOBI4I4T9Z","","","","","-36","","","","","","","","","","","","","","","","","","","","","",""
"null","","image-button-response","154","1229544","0.0-154.0","AGWSOBI4I4T9Z","img_art/26.jpg","null","","","","","","","","","","","","","","","","","","","","","","","","",""
"9140","","image-button-response","155","1238687","0.0-155.0","AGWSOBI4I4T9Z","img_art/26.jpg","3","","","","","","","","","","","","","","","","","","","","","","","","",""
"3430","","image-button-response","156","1242118","0.0-156.0-0.0","AGWSOBI4I4T9Z","img_art/26.jpg","5","","","","","","","","","","","","","","","","","","","","","","","","",""
"6519","","image-button-response","157","1248639","0.0-157.0-0.0","AGWSOBI4I4T9Z","img_art/26.jpg","0","","","","","","","","","","","","","","","","","","","","","","","","",""
"null","","html-keyboard-response","158","1249140","0.0-158.0","AGWSOBI4I4T9Z","<p style=""font-size: 48px;"">+</p>","","","","","null","allTrialResponses","500","1","16","img_art/26.jpg","-36","too bland","Angela,Sydney,Chelsea,Madison,Erica,Sara","Nice, but not very interesting. I do like the blue tree though.,6,260,20","I wish there was more detail, but I really like this simple piece.,35,320,20","I wish it were more pastel but I think it is relaxing to look at.,30,180,20","Colors look glum; photograph is not properly contrasted and does not reflect the appropriate amount of natural light.,-10,60,20","very relaxing and easy going,22,80,20","I can somewhat city a city in this drawing,11,160,20","Madison","Colors look glum; photograph is not properly contrasted and does not reflect the appropriate amount of natural light.,-10,60,20","Sara","I can somewhat city a city in this drawing,11,160,20","Angela","Nice, but not very interesting. I do like the blue tree though.,6,260,20","0"
"11911","","survey-text","159","1261062","0.0-159.0-0.0","AGWSOBI4I4T9Z","","","","{""Q0"":""like looks like a gnarled hand""}","","","","","","","","","","","","","","","","","","","","","","",""
"3174.39999999851","","image-slider-response","160","1264238","0.0-160.0","AGWSOBI4I4T9Z","","","","","-34","","","","","","","","","","","","","","","","","","","","","",""
"null","","image-button-response","161","1269240","0.0-161.0","AGWSOBI4I4T9Z","img_art/4.jpg","null","","","","","","","","","","","","","","","","","","","","","","","","",""
"5787","","image-button-response","162","1275031","0.0-162.0","AGWSOBI4I4T9Z","img_art/4.jpg","5","","","","","","","","","","","","","","","","","","","","","","","","",""
"7734","","image-button-response","163","1282767","0.0-163.0-0.0","AGWSOBI4I4T9Z","img_art/4.jpg","3","","","","","","","","","","","","","","","","","","","","","","","","",""
"6814","","image-button-response","164","1289583","0.0-164.0-0.0","AGWSOBI4I4T9Z","img_art/4.jpg","1","","","","","","","","","","","","","","","","","","","","","","","","",""
"null","","html-keyboard-response","165","1291084","0.0-165.0","AGWSOBI4I4T9Z","<p style=""font-size: 48px;"">+</p>","","","","","null","allTrialResponses","1500","1","17","img_art/4.jpg","-34","like looks like a gnarled hand","Angela,Monica,Heather,Madison,Chloe,Sara","Really like the colors, but don't like the object/squiggle in darker gold and black,4,260,20","The dark yellow color makes me think of mustard, which I dislike,-27,360,20","looks like an award from an award show.,22,260,20","This is what makes suburban dads say, ""my 4-year-old can do that."",-49,60,20","Great movement but don't love the yellowy tones.,31,220,20","Random swirls again,-30,160,20","Sara","Random swirls again,-30,160,20","Madison","This is what makes suburban dads say, ""my 4-year-old can do that."",-49,60,20","Monica","The dark yellow color makes me think of mustard, which I dislike,-27,360,20","0"
"22943","","survey-text","166","1314038","0.0-166.0-0.0","AGWSOBI4I4T9Z","","","","{""Q0"":""like a scene from an 80s avant garde music video""}","","","","","","","","","","","","","","","","","","","","","","",""
"2887.199999999255","","image-slider-response","167","1316927","0.0-167.0","AGWSOBI4I4T9Z","","","","","-25","","","","","","","","","","","","","","","","","","","","","",""
"null","","image-button-response","168","1321929","0.0-168.0","AGWSOBI4I4T9Z","img_art/17.jpg","null","","","","","","","","","","","","","","","","","","","","","","","","",""
"12291","","image-button-response","169","1334223","0.0-169.0","AGWSOBI4I4T9Z","img_art/17.jpg","4","","","","","","","","","","","","","","","","","","","","","","","","",""
"5430","","image-button-response","170","1339655","0.0-170.0-0.0","AGWSOBI4I4T9Z","img_art/17.jpg","5","","","","","","","","","","","","","","","","","","","","","","","","",""
"4254","","image-button-response","171","1343911","0.0-171.0-0.0","AGWSOBI4I4T9Z","img_art/17.jpg","1","","","","","","","","","","","","","","","","","","","","","","","","",""
"null","","html-keyboard-response","172","1344412","0.0-172.0","AGWSOBI4I4T9Z","<p style=""font-size: 48px;"">+</p>","","","","","null","allTrialResponses","500","1","18","img_art/17.jpg","-25","like a scene from an 80s avant garde music video","Kimberly,Monica,Gabriela,Madison,Anna,Sara","I like the trees, but the doors less so,19,260,20","The colors remind me of a sunset and give a bittersweet feeling. It looks unfinished but not terrible.,6,360,20","This makes me feel inspired and happy. I love everything about this portrait,45,140,20","No strong reaction. Beautiful design, but hue appears taciturn. Bad photograph?,1,60,20","it brings a clear picture to my minds eye:,45,300,20","Beautiful patterns but evokes sad emotions in me due to the color shades,31,160,20","Anna","it brings a clear picture to my minds eye:,45,300,20","Sara","Beautiful patterns but evokes sad emotions in me due to the color shades,31,160,20","Monica","The colors remind me of a sunset and give a bittersweet feeling. It looks unfinished but not terrible.,6,360,20","0"
"21963","","survey-text","173","1366382","0.0-173.0-0.0","AGWSOBI4I4T9Z","","","","{""Q0"":""eyecatching confetti""}","","","","","","","","","","","","","","","","","","","","","","",""
"4342.800000000745","","image-slider-response","174","1370726","0.0-174.0","AGWSOBI4I4T9Z","","","","","6","","","","","","","","","","","","","","","","","","","","","",""
"2983","","image-button-response","175","1375728","0.0-175.0","AGWSOBI4I4T9Z","img_art/23.jpg","0","","","","","","","","","","","","","","","","","","","","","","","","",""
"2107","","image-button-response","176","1377839","0.0-176.0","AGWSOBI4I4T9Z","img_art/23.jpg","2","","","","","","","","","","","","","","","","","","","","","","","","",""
"5846","","image-button-response","177","1383686","0.0-177.0-0.0","AGWSOBI4I4T9Z","img_art/23.jpg","5","","","","","","","","","","","","","","","","","","","","","","","","",""
"3775","","image-button-response","178","1387462","0.0-178.0-0.0","AGWSOBI4I4T9Z","img_art/23.jpg","0","","","","","","","","","","","","","","","","","","","","","","","","",""
"null","","html-keyboard-response","179","1388464","0.0-179.0","AGWSOBI4I4T9Z","<p style=""font-size: 48px;"">+</p>","","","","","null","allTrialResponses","1000","1","19","img_art/23.jpg","6","eyecatching confetti","Erin,Monica,Natalie,Jenna,Anna,Sara","Confetti dancer,-7,120,20","I like the sharp contrast of the white on the colorful background,27,360,20","so much detail .,31,400,20","awesome colors. love the white drawing the eye to the center. oddly comforting.,50,360,20","I love the colors and the contrast.,50,300,20","Beautiful color scheme,21,160,20","Natalie","so much detail .,31,400,20","Sara","Beautiful color scheme,21,160,20","Erin","Confetti dancer,-7,120,20","0"
"17033","","survey-text","180","1405502","0.0-180.0-0.0","AGWSOBI4I4T9Z","","","","{""Q0"":""makes me think of the god Triton""}","","","","","","","","","","","","","","","","","","","","","","",""
"3494.2999999970198","","image-slider-response","181","1408998","0.0-181.0","AGWSOBI4I4T9Z","","","","","12","","","","","","","","","","","","","","","","","","","","","",""
"null","","image-button-response","182","1414001","0.0-182.0","AGWSOBI4I4T9Z","img_art/25.jpg","null","","","","","","","","","","","","","","","","","","","","","","","","",""
"9539","","image-button-response","183","1423542","0.0-183.0","AGWSOBI4I4T9Z","img_art/25.jpg","0","","","","","","","","","","","","","","","","","","","","","","","","",""
"3719","","image-button-response","184","1427262","0.0-184.0-0.0","AGWSOBI4I4T9Z","img_art/25.jpg","1","","","","","","","","","","","","","","","","","","","","","","","","",""
"6679","","image-button-response","185","1433942","0.0-185.0-0.0","AGWSOBI4I4T9Z","img_art/25.jpg","2","","","","","","","","","","","","","","","","","","","","","","","","",""
"null","","html-keyboard-response","186","1434943","0.0-186.0","AGWSOBI4I4T9Z","<p style=""font-size: 48px;"">+</p>","","","","","null","allTrialResponses","1000","1","20","img_art/25.jpg","12","makes me think of the god Triton","Erin,Haley,Natalie,Hailey,Kayla,Sara","Looks like glow in the dark halloween decoration,-38,120,20","I like the design but the brightness of the color feels almost blinding to me.,-3,220,20","my response to the picture its weird,-9,400,20","ugly color and very sad old lady,-45,200,20","Ghosts are NOT my thing.,-13,180,20","Green color is not my thing,-29,160,20","Erin","Looks like glow in the dark halloween decoration,-38,120,20","Haley","I like the design but the brightness of the color feels almost blinding to me.,-3,220,20","Natalie","my response to the picture its weird,-9,400,20","0"
"2525","","survey-text","187","1437478","0.0-187.0-0.0","AGWSOBI4I4T9Z","","","","{""Q0"":""we""}","","","","","","","","","","","","","","","","","","","","","","",""
"22928","","survey-text","188","1460407","0.0-188.0-0.0","AGWSOBI4I4T9Z","","","","{""Q0"":""looks like a warm cafe""}","","","","","","","","","","","","","","","","","","","","","","",""
"3246.699999999255","","image-slider-response","189","1463655","0.0-189.0","AGWSOBI4I4T9Z","","","","","8","","","","","","","","","","","","","","","","","","","","","",""
"null","","image-button-response","190","1468657","0.0-190.0","AGWSOBI4I4T9Z","img_art/2.jpg","null","","","","","","","","","","","","","","","","","","","","","","","","",""
"4563","","image-button-response","191","1473223","0.0-191.0","AGWSOBI4I4T9Z","img_art/2.jpg","4","","","","","","","","","","","","","","","","","","","","","","","","",""
"18110","","image-button-response","192","1491335","0.0-192.0-0.0","AGWSOBI4I4T9Z","img_art/2.jpg","3","","","","","","","","","","","","","","","","","","","","","","","","",""
"6238","","image-button-response","193","1497575","0.0-193.0-0.0","AGWSOBI4I4T9Z","img_art/2.jpg","2","","","","","","","","","","","","","","","","","","","","","","","","",""
"null","","html-keyboard-response","194","1498077","0.0-194.0","AGWSOBI4I4T9Z","<p style=""font-size: 48px;"">+</p>","","","","","null","allTrialResponses","500","1","21","img_art/2.jpg","8","looks like a warm cafe","Erin,Haley,Natalie,Katelyn,Amanda,Victoria","There is an odd face here that is creepy,-4,120,20","My first thought was that it looks like a children's art project,-30,220,20","looks like a bunch of gibberish,-39,400,20","Looks childish and i dont like the texture,-25,100,20","Very simple and childish,40,180,20","I like the colors,22,400,20","Amanda","Very simple and childish,40,180,20","Katelyn","Looks childish and i dont like the texture,-25,100,20","Natalie","looks like a bunch of gibberish,-39,400,20","0"
"15179","","survey-text","195","1513262","0.0-195.0-0.0","AGWSOBI4I4T9Z","","","","{""Q0"":""looks like a bloody rollercoaster""}","","","","","","","","","","","","","","","","","","","","","","",""
"2270","","image-slider-response","196","1515534","0.0-196.0","AGWSOBI4I4T9Z","","","","","-32","","","","","","","","","","","","","","","","","","","","","",""
"null","","image-button-response","197","1520536","0.0-197.0","AGWSOBI4I4T9Z","img_art/3.jpg","null","","","","","","","","","","","","","","","","","","","","","","","","",""
"13020","","image-button-response","198","1533558","0.0-198.0","AGWSOBI4I4T9Z","img_art/3.jpg","0","","","","","","","","","","","","","","","","","","","","","","","","",""
"3519","","image-button-response","199","1537079","0.0-199.0-0.0","AGWSOBI4I4T9Z","img_art/3.jpg","2","","","","","","","","","","","","","","","","","","","","","","","","",""
"1638","","image-button-response","200","1538719","0.0-200.0-0.0","AGWSOBI4I4T9Z","img_art/3.jpg","5","","","","","","","","","","","","","","","","","","","","","","","","",""
"null","","html-keyboard-response","201","1539221","0.0-201.0","AGWSOBI4I4T9Z","<p style=""font-size: 48px;"">+</p>","","","","","null","allTrialResponses","500","1","22","img_art/3.jpg","-32","looks like a bloody rollercoaster","Michaela,Kathryn,Natalie,Katelyn,Amanda,Vanessa","It looks like someone took a red sharpie and just scribbled angrily,-20,260,20","This gives me a negative feeling, like someone trying to scratch out their flaws. I see low self-esteem.,-20,140,20","my response to the picture is a lot of red, danger,,-21,400,20","No substance or feeling to it,-20,100,20","Looks like someone threw blood at a wall,-50,180,20","It makes me think of just an angry scribble. There's no beauty to it for me.,-50,380,20","Michaela","It looks like someone took a red sharpie and just scribbled angrily,-20,260,20","Natalie","my response to the picture is a lot of red, danger,,-21,400,20","Vanessa","It makes me think of just an angry scribble. There's no beauty to it for me.,-50,380,20","0"
"16155","","survey-text","202","1555382","0.0-202.0-0.0","AGWSOBI4I4T9Z","","","","{""Q0"":""I almost expect the image to come to life""}","","","","","","","","","","","","","","","","","","","","","","",""
"9614.5","","image-slider-response","203","1564998","0.0-203.0","AGWSOBI4I4T9Z","","","","","30","","","","","","","","","","","","","","","","","","","","","",""
"null","","image-button-response","204","1570000","0.0-204.0","AGWSOBI4I4T9Z","img_art/8.jpg","null","","","","","","","","","","","","","","","","","","","","","","","","",""
"9403","","image-button-response","205","1579406","0.0-205.0","AGWSOBI4I4T9Z","img_art/8.jpg","3","","","","","","","","","","","","","","","","","","","","","","","","",""
"1831","","image-button-response","206","1581238","0.0-206.0-0.0","AGWSOBI4I4T9Z","img_art/8.jpg","2","","","","","","","","","","","","","","","","","","","","","","","","",""
"1343","","image-button-response","207","1582582","0.0-207.0-0.0","AGWSOBI4I4T9Z","img_art/8.jpg","1","","","","","","","","","","","","","","","","","","","","","","","","",""
"null","","html-keyboard-response","208","1583084","0.0-208.0","AGWSOBI4I4T9Z","<p style=""font-size: 48px;"">+</p>","","","","","null","allTrialResponses","500","1","23","img_art/8.jpg","30","I almost expect the image to come to life","Michaela,Molly,Natalie,Miranda,Catherine,Vanessa","It's too boxy for my taste,-10,260,20","Different styles make this picture outstanding.,20,340,20","looks nice, like the details,25,400,20","I like this, the longer I look at in the more details I see.,41,320,20","Lost in a big city confuse as to where to go to next. No matter if you live in a mansion or homeless. Being bigger than what is going on around you,30,160,20","I don't like the negative emotion this picture makes me feel. It's also too abstract.,-30,380,20","Miranda","I like this, the longer I look at in the more details I see.,41,320,20","Natalie","looks nice, like the details,25,400,20","Molly","Different styles make this picture outstanding.,20,340,20","0"
"56588","","survey-text","209","1639679","0.0-209.0-0.0","AGWSOBI4I4T9Z","","","","{""Q0"":""this makes me sad""}","","","","","","","","","","","","","","","","","","","","","","",""
"3862.699999999255","","image-slider-response","210","1643543","0.0-210.0","AGWSOBI4I4T9Z","","","","","-44","","","","","","","","","","","","","","","","","","","","","",""
"null","","image-button-response","211","1648546","0.0-211.0","AGWSOBI4I4T9Z","img_art/16.jpg","null","","","","","","","","","","","","","","","","","","","","","","","","",""
"9042","","image-button-response","212","1657591","0.0-212.0","AGWSOBI4I4T9Z","img_art/16.jpg","5","","","","","","","","","","","","","","","","","","","","","","","","",""
"2534","","image-button-response","213","1660127","0.0-213.0-0.0","AGWSOBI4I4T9Z","img_art/16.jpg","2","","","","","","","","","","","","","","","","","","","","","","","","",""
"606","","image-button-response","214","1660735","0.0-214.0-0.0","AGWSOBI4I4T9Z","img_art/16.jpg","1","","","","","","","","","","","","","","","","","","","","","","","","",""
"null","","html-keyboard-response","215","1662236","0.0-215.0","AGWSOBI4I4T9Z","<p style=""font-size: 48px;"">+</p>","","","","","null","allTrialResponses","1500","1","24","img_art/16.jpg","-44","this makes me sad","Ashley,Molly,Natalie,Miranda,Rebecca,Diana","A lot fo these could abstract or childrens work.,23,320,20","It's frightening.,30,340,20","my reaction is that the picture is creepy,-19,400,20","This looks like it was made by an art student filled with angst,-30,320,20","don't know how to feel, I mean I respect it but I honestly don't know about this,-12,100,20","This one isn't for me. It came off as strange but not in a good way.,-44,380,20","Diana","This one isn't for me. It came off as strange but not in a good way.,-44,380,20","Natalie","my reaction is that the picture is creepy,-19,400,20","Molly","It's frightening.,30,340,20","0"
"14091","","survey-text","216","1676335","0.0-216.0-0.0","AGWSOBI4I4T9Z","","","","{""Q0"":""looks like a giant tidal wave""}","","","","","","","","","","","","","","","","","","","","","","",""
"3895","","image-slider-response","217","1680231","0.0-217.0","AGWSOBI4I4T9Z","","","","","-32","","","","","","","","","","","","","","","","","","","","","",""
"null","","image-button-response","218","1685233","0.0-218.0","AGWSOBI4I4T9Z","img_art/10.jpg","null","","","","","","","","","","","","","","","","","","","","","","","","",""
"1898","","image-button-response","219","1687135","0.0-219.0","AGWSOBI4I4T9Z","img_art/10.jpg","1","","","","","","","","","","","","","","","","","","","","","","","","",""
"4150","","image-button-response","220","1691287","0.0-220.0-0.0","AGWSOBI4I4T9Z","img_art/10.jpg","4","","","","","","","","","","","","","","","","","","","","","","","","",""
"990","","image-button-response","221","1692279","0.0-221.0-0.0","AGWSOBI4I4T9Z","img_art/10.jpg","5","","","","","","","","","","","","","","","","","","","","","","","","",""
"null","","html-keyboard-response","222","1692781","0.0-222.0","AGWSOBI4I4T9Z","<p style=""font-size: 48px;"">+</p>","","","","","null","allTrialResponses","500","1","25","img_art/10.jpg","-32","looks like a giant tidal wave","Melissa,Molly,Natalie,Taylor,Morgan,Diana","shapes are appealing/relationship between the beige square and the black lines,24,240,20","For me, it looks like a giant ship on the sea and it's astonishing.,30,340,20","I see a rollercoaster,23,400,20","Makes me think of the exhilaration of a roller coaster,31,340,20","Roller coaster on an island.,9,380,20","It reminds me of the ocean. Almost like a battlefield, but on the water.,19,380,20","Molly","For me, it looks like a giant ship on the sea and it's astonishing.,30,340,20","Morgan","Roller coaster on an island.,9,380,20","Diana","It reminds me of the ocean. Almost like a battlefield, but on the water.,19,380,20","0"
"3856","","survey-text","223","1696647","0.0-223.0-0.0","AGWSOBI4I4T9Z","","","","{""Q0"":""table""}","","","","","","","","","","","","","","","","","","","","","","",""
"37295","","survey-text","224","1733942","0.0-224.0-0.0","AGWSOBI4I4T9Z","","","","{""Q0"":""it's like looking at a rocky beach""}","","","","","","","","","","","","","","","","","","","","","","",""
"2750.800000000745","","image-slider-response","225","1736695","0.0-225.0","AGWSOBI4I4T9Z","","","","","-4","","","","","","","","","","","","","","","","","","","","","",""
"null","","image-button-response","226","1741697","0.0-226.0","AGWSOBI4I4T9Z","img_art/7.jpg","null","","","","","","","","","","","","","","","","","","","","","","","","",""
"12619","","image-button-response","227","1754319","0.0-227.0","AGWSOBI4I4T9Z","img_art/7.jpg","1","","","","","","","","","","","","","","","","","","","","","","","","",""
"3254","","image-button-response","228","1757575","0.0-228.0-0.0","AGWSOBI4I4T9Z","img_art/7.jpg","0","","","","","","","","","","","","","","","","","","","","","","","","",""
"4070","","image-button-response","229","1761647","0.0-229.0-0.0","AGWSOBI4I4T9Z","img_art/7.jpg","4","","","","","","","","","","","","","","","","","","","","","","","","",""
"null","","html-keyboard-response","230","1762649","0.0-230.0","AGWSOBI4I4T9Z","<p style=""font-size: 48px;"">+</p>","","","","","null","allTrialResponses","1000","1","26","img_art/7.jpg","-4","it's like looking at a rocky beach","Lindsey,Molly,Leah,Tiffany,Morgan,Diana","It's dirty. I don't mind the colors so much as the way they are put together in this dirty-looking pattern.,-41,400,20","Don't understand the meaning of this picture.,-30,340,20","I love it, it looks like a landscape photograph in desert or rocky mountain,50,360,20","I feel relaxed and a little nostalgic, like I'm exploring the wall of a very old building.,18,360,20","Dead bugs on an insect battleground.,-10,380,20","This piece reminds me of ants and it makes my skin crawl.,-37,380,20","Molly","Don't understand the meaning of this picture.,-30,340,20","Lindsey","It's dirty. I don't mind the colors so much as the way they are put together in this dirty-looking pattern.,-41,400,20","Morgan","Dead bugs on an insect battleground.,-10,380,20","0"
"32319","","survey-text","231","1794974","0.0-231.0-0.0","AGWSOBI4I4T9Z","","","","{""Q0"":""the colors are too different from each other""}","","","","","","","","","","","","","","","","","","","","","","",""
"2726.800000000745","","image-slider-response","232","1797703","0.0-232.0","AGWSOBI4I4T9Z","","","","","-38","","","","","","","","","","","","","","","","","","","","","",""
"null","","image-button-response","233","1802704","0.0-233.0","AGWSOBI4I4T9Z","img_art/30.jpg","null","","","","","","","","","","","","","","","","","","","","","","","","",""
"4420","","image-button-response","234","1807127","0.0-234.0","AGWSOBI4I4T9Z","img_art/30.jpg","5","","","","","","","","","","","","","","","","","","","","","","","","",""
"13838","","image-button-response","235","1820967","0.0-235.0-0.0","AGWSOBI4I4T9Z","img_art/30.jpg","2","","","","","","","","","","","","","","","","","","","","","","","","",""
"3102","","image-button-response","236","1824071","0.0-236.0-0.0","AGWSOBI4I4T9Z","img_art/30.jpg","4","","","","","","","","","","","","","","","","","","","","","","","","",""
"null","","html-keyboard-response","237","1825572","0.0-237.0","AGWSOBI4I4T9Z","<p style=""font-size: 48px;"">+</p>","","","","","null","allTrialResponses","1500","1","27","img_art/30.jpg","-38","the colors are too different from each other","Lindsey,Molly,Alicia,Sophia,Morgan,Claire","Interesting. Not sure what I'm seeing but it makes me want to figure it out.,5,400,20","I like the way the artist has painted his work.,40,340,20","Neat, but simple, I could make this. not skilled.,9,120,20","Hmmm. I think the artist is trying to direct me to a spreadsheet?  (s/s),-10,280,20","Sleek eel in the abstract ocean.,30,380,20","too segmented, looks sloppy,-37,260,20","Claire","too segmented, looks sloppy,-37,260,20","Alicia","Neat, but simple, I could make this. not skilled.,9,120,20","Morgan","Sleek eel in the abstract ocean.,30,380,20","0"
"25573","","survey-text","238","1851158","0.0-238.0-0.0","AGWSOBI4I4T9Z","","","","{""Q0"":""a rainy day in a busy town""}","","","","","","","","","","","","","","","","","","","","","","",""
"1902.8999999985099","","image-slider-response","239","1853062","0.0-239.0","AGWSOBI4I4T9Z","","","","","-15","","","","","","","","","","","","","","","","","","","","","",""
"null","","image-button-response","240","1858065","0.0-240.0","AGWSOBI4I4T9Z","img_art/11.jpg","null","","","","","","","","","","","","","","","","","","","","","","","","",""
"5612","","image-button-response","241","1863679","0.0-241.0","AGWSOBI4I4T9Z","img_art/11.jpg","4","","","","","","","","","","","","","","","","","","","","","","","","",""
"2871","","image-button-response","242","1866552","0.0-242.0-0.0","AGWSOBI4I4T9Z","img_art/11.jpg","5","","","","","","","","","","","","","","","","","","","","","","","","",""
"3399","","image-button-response","243","1869951","0.0-243.0-0.0","AGWSOBI4I4T9Z","img_art/11.jpg","2","","","","","","","","","","","","","","","","","","","","","","","","",""
"null","","html-keyboard-response","244","1870955","0.0-244.0","AGWSOBI4I4T9Z","<p style=""font-size: 48px;"">+</p>","","","","","null","allTrialResponses","1000","1","28","img_art/11.jpg","-15","a rainy day in a busy town","Jessica,Emily,Alicia,Cynthia,Morgan,Claire","This looks cool, and definitely comes to life in a way,36,400,20","It's kind of cool and I see it looks clean.,22,40,20","dna, odd but nice.,25,120,20","Sad but hopeful,43,320,20","Waves of signs.,15,380,20","the wavy lines are nice and pleasing,13,260,20","Morgan","Waves of signs.,15,380,20","Claire","the wavy lines are nice and pleasing,13,260,20","Alicia","dna, odd but nice.,25,120,20","0"
"18455","","survey-text","245","1889423","0.0-245.0-0.0","AGWSOBI4I4T9Z","","","","{""Q0"":""looks like 2 keys unlocking a sunset""}","","","","","","","","","","","","","","","","","","","","","","",""
"4742.699999999255","","image-slider-response","246","1894167","0.0-246.0","AGWSOBI4I4T9Z","","","","","11","","","","","","","","","","","","","","","","","","","","","",""
"4182","","image-button-response","247","1899170","0.0-247.0","AGWSOBI4I4T9Z","img_art/22.jpg","0","","","","","","","","","","","","","","","","","","","","","","","","",""
"1962","","image-button-response","248","1901135","0.0-248.0","AGWSOBI4I4T9Z","img_art/22.jpg","0","","","","","","","","","","","","","","","","","","","","","","","","",""
"4687","","image-button-response","249","1905823","0.0-249.0-0.0","AGWSOBI4I4T9Z","img_art/22.jpg","4","","","","","","","","","","","","","","","","","","","","","","","","",""
"1935","","image-button-response","250","1907759","0.0-250.0-0.0","AGWSOBI4I4T9Z","img_art/22.jpg","5","","","","","","","","","","","","","","","","","","","","","","","","",""
"null","","html-keyboard-response","251","1909260","0.0-251.0","AGWSOBI4I4T9Z","<p style=""font-size: 48px;"">+</p>","","","","","null","allTrialResponses","1500","1","29","img_art/22.jpg","11","looks like 2 keys unlocking a sunset","Isabella,Katie,Alicia,Bailey,Morgan,Claire","Sunsets at the beach,42,280,20","Too much red. The red/yellow/orange make me think of heat/fire, which makes me anxious.,-10,160,20","Could be interpreted so many ways, bold. I like it.,29,120,20","Looks like a giant blob,-45,360,20","Glowing city of many emotions.,10,380,20","I enjoy the colors used,24,260,20","Isabella","Sunsets at the beach,42,280,20","Morgan","Glowing city of many emotions.,10,380,20","Claire","I enjoy the colors used,24,260,20","0"
"22436","","survey-text","252","1931703","0.0-252.0-0.0","AGWSOBI4I4T9Z","","","","{""Q0"":""I don't like this""}","","","","","","","","","","","","","","","","","","","","","","",""
"2598.699999999255","","image-slider-response","253","1934303","0.0-253.0","AGWSOBI4I4T9Z","","","","","-47","","","","","","","","","","","","","","","","","","","","","",""
"3447","","image-button-response","254","1939305","0.0-254.0","AGWSOBI4I4T9Z","img_art/5.jpg","1","","","","","","","","","","","","","","","","","","","","","","","","",""
"500","","image-button-response","255","1939807","0.0-255.0","AGWSOBI4I4T9Z","img_art/5.jpg","1","","","","","","","","","","","","","","","","","","","","","","","","",""
"2590","","image-button-response","256","1942399","0.0-256.0-0.0","AGWSOBI4I4T9Z","img_art/5.jpg","4","","","","","","","","","","","","","","","","","","","","","","","","",""
"9879","","image-button-response","257","1952279","0.0-257.0-0.0","AGWSOBI4I4T9Z","img_art/5.jpg","2","","","","","","","","","","","","","","","","","","","","","","","","",""
"null","","html-keyboard-response","258","1953282","0.0-258.0","AGWSOBI4I4T9Z","<p style=""font-size: 48px;"">+</p>","","","","","null","allTrialResponses","1000","1","30","img_art/5.jpg","-47","I don't like this","Isabella,Nicole,Makayla,Kylie,Morgan,Claire","Seems clean and neat,11,280,20","I hate the shapes,-30,20,20","Bright and sunny,19,80,20","It reminds me of a piece of lemon candy, which is one of my favorite flavors,20,300,20","Dull pyramid that says nothing.,7,380,20","I like the strokes and colors used,20,260,20","Nicole","I hate the shapes,-30,20,20","Morgan","Dull pyramid that says nothing.,7,380,20","Makayla","Bright and sunny,19,80,20","0"
"4598","","image-button-response_instructions","259","1957887","0.0-259.0","AGWSOBI4I4T9Z","","0","instructions","","","","","","","","","","","","","","","","","","","","","","","",""
"1068","","image-button-response","260","1958959","0.0-260.0","AGWSOBI4I4T9Z","","0","","","","","","","","","","","","","","","","","","","","","","","","",""
