"rt","url","trial_type","trial_index","time_elapsed","internal_node_id","participant_id","stimulus","button_pressed","Name","responses","response","key_press","variableName","fixationTime","condition","trial","photo","subjectRating","subjectResponse","agentsNames","agent_1_Response","agent_2_Response","agent_3_Response","agent_4_Response","agent_5_Response","agent_6_Response","kept_1_name","kept_1_response","kept_2_name","kept_2_response","kept_3_name","kept_3_response","errorCounter"
"67272","external_page_harvard.html","external-html","0","67416","0.0-0.0","AHPOOKYE7V04D","","","","","","","","","","","","","","","","","","","","","","","","","","",""
"2047","","image-button-response","1","69472","0.0-1.0","AHPOOKYE7V04D","","0","","","","","","","","","","","","","","","","","","","","","","","","",""
"1698","","image-button-response","2","71204","0.0-2.0-0.0","AHPOOKYE7V04D","","1","phone","","","","","","","","","","","","","","","","","","","","","","","",""
"7716","","survey-text","3","78932","0.0-3.0-0.0","AHPOOKYE7V04D","","","","{""Q0"":""AHPOOKYE7V04D""}","","","","","","","","","","","","","","","","","","","","","","",""
"3028","","image-button-response_instructions","4","81971","0.0-4.0","AHPOOKYE7V04D","","0","instructions","","","","","","","","","","","","","","","","","","","","","","","",""
"11105","","image-button-response_instructions","5","93080","0.0-5.0","AHPOOKYE7V04D","img_art/ins/popularity/ins1.png","0","instructions","","","","","","","","","","","","","","","","","","","","","","","",""
"2927","","image-button-response_instructions","6","96009","0.0-6.0","AHPOOKYE7V04D","img_art/ins/popularity/ins2.png","0","instructions","","","","","","","","","","","","","","","","","","","","","","","",""
"10479","","image-button-response_instructions","7","106491","0.0-7.0","AHPOOKYE7V04D","img_art/ins/popularity/ins2Extreme.png","0","instructions","","","","","","","","","","","","","","","","","","","","","","","",""
"1106","","image-button-response_instructions","8","107602","0.0-8.0","AHPOOKYE7V04D","img_art/ins/popularity/ins3KEEPpop.PNG","0","instructions","","","","","","","","","","","","","","","","","","","","","","","",""
"2065","","image-button-response_instructions","9","109672","0.0-9.0","AHPOOKYE7V04D","img_art/ins/popularity/ins3ANamepop.PNG","0","instructions","","","","","","","","","","","","","","","","","","","","","","","",""
"1592","","image-button-response_instructions","10","111267","0.0-10.0","AHPOOKYE7V04D","img_art/ins/popularity/ins3ARatingpop.png","0","instructions","","","","","","","","","","","","","","","","","","","","","","","",""
"1275","","image-button-response_instructions","11","112548","0.0-11.0","AHPOOKYE7V04D","img_art/ins/popularity/ins3ATextpop.png","0","instructions","","","","","","","","","","","","","","","","","","","","","","","",""
"2271","","image-button-response_instructions","12","114826","0.0-12.0","AHPOOKYE7V04D","img_art/ins/popularity/ins3ALikespop.png","0","instructions","","","","","","","","","","","","","","","","","","","","","","","",""
"1642","","image-button-response_instructions","13","116473","0.0-13.0","AHPOOKYE7V04D","img_art/ins/popularity/ins3KEEPpop.PNG","0","instructions","","","","","","","","","","","","","","","","","","","","","","","",""
"1871","","image-button-response_instructions","14","118349","0.0-14.0","AHPOOKYE7V04D","img_art/ins/popularity/ins3_5RED.png","0","instructions","","","","","","","","","","","","","","","","","","","","","","","",""
"1479","","image-button-response_instructions","15","119834","0.0-15.0","AHPOOKYE7V04D","img_art/ins/popularity/ins3KEEPpop.PNG","0","instructions","","","","","","","","","","","","","","","","","","","","","","","",""
"2938","","image-button-response_instructions","16","122776","0.0-16.0","AHPOOKYE7V04D","img_art/ins/popularity/ins4KEEPpop.PNG","0","instructions","","","","","","","","","","","","","","","","","","","","","","","",""
"1815","","image-button-response_instructions","17","124596","0.0-17.0","AHPOOKYE7V04D","img_art/ins/popularity/ins5KEEPpop.PNG","0","instructions","","","","","","","","","","","","","","","","","","","","","","","",""
"1175","","image-button-response_instructions","18","125778","0.0-18.0","AHPOOKYE7V04D","","0","instructions","","","","","","","","","","","","","","","","","","","","","","","",""
"2743","","survey-text","19","128601","0.0-19.0-0.0","AHPOOKYE7V04D","","","","{""Q0"":""but""}","","","","","","","","","","","","","","","","","","","","","","",""
"11336","","survey-text","20","139942","0.0-20.0-0.0","AHPOOKYE7V04D","","","","{""Q0"":""generic abstract piece, no real feeling""}","","","","","","","","","","","","","","","","","","","","","","",""
"6030.100000023842","","image-slider-response","21","145978","0.0-21.0","AHPOOKYE7V04D","","","","","-5","","","","","","","","","","","","","","","","","","","","","",""
"4515","","image-button-response","22","150993","0.0-22.0","AHPOOKYE7V04D","img_art/ins/1.jpg","5","","","","","","","","","","","","","","","","","","","","","","","","",""
"585","","image-button-response","23","151586","0.0-23.0","AHPOOKYE7V04D","img_art/ins/1.jpg","5","","","","","","","","","","","","","","","","","","","","","","","","",""
"6567","","image-button-response","24","158163","0.0-24.0-0.0","AHPOOKYE7V04D","img_art/ins/1.jpg","4","","","","","","","","","","","","","","","","","","","","","","","","",""
"2792","","image-button-response","25","160967","0.0-25.0-0.0","AHPOOKYE7V04D","img_art/ins/1.jpg","3","","","","","","","","","","","","","","","","","","","","","","","","",""
"null","","html-keyboard-response","26","161981","0.0-26.0","AHPOOKYE7V04D","<p style=""font-size: 48px;"">+</p>","","","","","null","allTrialResponses","1000","1","-2","img_art/ins/1.jpg","-5","generic abstract piece, no real feeling","Adam,Alex,Ben,Carl,Daniel,Jack","Seems like doodles,-20,20,20","very creative work.,36,40,20","This color reminds me of poo,-46,60,20","very calming artwork,42,80,20","It looks like a murder scene.,-48,100,20","I like the sophisticated brushwork,40,120,20","Jack","I like the sophisticated brushwork,40,120,20","Daniel","It looks like a murder scene.,-48,100,20","Carl","very calming artwork,42,80,20","0"
"18569","","survey-text","27","180565","0.0-27.0-0.0","AHPOOKYE7V04D","","","","{""Q0"":""interesting layering of paint, like the unusual color combo""}","","","","","","","","","","","","","","","","","","","","","","",""
"11674.600000023842","","image-slider-response","28","192244","0.0-28.0","AHPOOKYE7V04D","","","","","22","","","","","","","","","","","","","","","","","","","","","",""
"3456","","image-button-response","29","197255","0.0-29.0","AHPOOKYE7V04D","img_art/ins/2.jpg","1","","","","","","","","","","","","","","","","","","","","","","","","",""
"2553","","image-button-response","30","199812","0.0-30.0","AHPOOKYE7V04D","img_art/ins/2.jpg","5","","","","","","","","","","","","","","","","","","","","","","","","",""
"1677","","image-button-response","31","201494","0.0-31.0-0.0","AHPOOKYE7V04D","img_art/ins/2.jpg","1","","","","","","","","","","","","","","","","","","","","","","","","",""
"2231","","image-button-response","32","203736","0.0-32.0-0.0","AHPOOKYE7V04D","img_art/ins/2.jpg","3","","","","","","","","","","","","","","","","","","","","","","","","",""
"null","","html-keyboard-response","33","204253","0.0-33.0","AHPOOKYE7V04D","<p style=""font-size: 48px;"">+</p>","","","","","null","allTrialResponses","500","1","-1","img_art/ins/2.jpg","22","interesting layering of paint, like the unusual color combo","James,John,Kyle,Carl,Daniel,Jack","looks too angry,-50,140,20","love the texture of paint,48,160,20","Idk, it is just annoying,-32,180,20","I can feel the artist's passion in it,45,80,20","One of my pet peevs,-48,100,20","I would never be able to compose a sophisticated pallete like this,48,120,20","Jack","I would never be able to compose a sophisticated pallete like this,48,120,20","John","love the texture of paint,48,160,20","Carl","I can feel the artist's passion in it,45,80,20","0"
"8570","","survey-text","34","212836","0.0-34.0-0.0","AHPOOKYE7V04D","","","","{""Q0"":""I love the combination of blues""}","","","","","","","","","","","","","","","","","","","","","","",""
"8792.100000023842","","image-slider-response","35","221632","0.0-35.0","AHPOOKYE7V04D","","","","","40","","","","","","","","","","","","","","","","","","","","","",""
"null","","image-button-response","36","226636","0.0-36.0","AHPOOKYE7V04D","img_art/ins/3.jpg","null","","","","","","","","","","","","","","","","","","","","","","","","",""
"336","","image-button-response","37","226974","0.0-37.0","AHPOOKYE7V04D","img_art/ins/3.jpg","1","","","","","","","","","","","","","","","","","","","","","","","","",""
"966","","image-button-response","38","227944","0.0-38.0-0.0","AHPOOKYE7V04D","img_art/ins/3.jpg","0","","","","","","","","","","","","","","","","","","","","","","","","",""
"1921","","image-button-response","39","229868","0.0-39.0-0.0","AHPOOKYE7V04D","img_art/ins/3.jpg","0","","","","","","","","","","","","","","","","","","","","","","","","",""
"5459","","image-button-response","40","238769","0.0-39.1-0.1","AHPOOKYE7V04D","img_art/ins/3.jpg","3","","","","","","","","","","","","","","","","","","","","","","","","",""
"null","","html-keyboard-response","41","240275","0.0-40.0","AHPOOKYE7V04D","<p style=""font-size: 48px;"">+</p>","","","","","null","allTrialResponses","1500","1","0","img_art/ins/3.jpg","40","I love the combination of blues","Mike,John,Sam,Carl,Ron,Jack","enjoy the different shades of blue,22,200,20","I like the overlapping of brushes,41,160,20","I can feel a rainy day from this painting,18,240,20","It's an alright work,15,80,20","It looks depressing,-26,220,20","I feel connected to the artist,40,120,20","John","I like the overlapping of brushes,41,160,20","Mike","enjoy the different shades of blue,22,200,20","Carl","It's an alright work,15,80,20","2"
"4113","","image-button-response_instructions","42","244404","0.0-41.0","AHPOOKYE7V04D","","0","instructions","","","","","","","","","","","","","","","","","","","","","","","",""
"7924","","survey-likert","43","252341","0.0-42.0-0.0","AHPOOKYE7V04D","","","","{""Q0"":"""",""Q1"":0,""Q2"":1}","","","","","","","","","","","","","","","","","","","","","","",""
"29075","","survey-text","44","281444","0.0-43.0-0.0","AHPOOKYE7V04D","","","","{""Q0"":""rock""}","","","","","","","","","","","","","","","","","","","","","","",""
"12368","","survey-text","45","293818","0.0-44.0-0.0","AHPOOKYE7V04D","","","","{""Q0"":""very complex, tells an abstract story, like it""}","","","","","","","","","","","","","","","","","","","","","","",""
"4438.699999928474","","image-slider-response","46","298262","0.0-45.0","AHPOOKYE7V04D","","","","","16","","","","","","","","","","","","","","","","","","","","","",""
"null","","image-button-response","47","303342","0.0-46.0","AHPOOKYE7V04D","img_art/27.jpg","null","","","","","","","","","","","","","","","","","","","","","","","","",""
"6772","","image-button-response","48","310123","0.0-47.0","AHPOOKYE7V04D","img_art/27.jpg","3","","","","","","","","","","","","","","","","","","","","","","","","",""
"6131","","image-button-response","49","316264","0.0-48.0-0.0","AHPOOKYE7V04D","img_art/27.jpg","2","","","","","","","","","","","","","","","","","","","","","","","","",""
"5281","","image-button-response","50","321557","0.0-49.0-0.0","AHPOOKYE7V04D","img_art/27.jpg","4","","","","","","","","","","","","","","","","","","","","","","","","",""
"null","","html-keyboard-response","51","323065","0.0-50.0","AHPOOKYE7V04D","<p style=""font-size: 48px;"">+</p>","","","","","null","allTrialResponses","1500","1","1","img_art/27.jpg","16","very complex, tells an abstract story, like it","Adam,Zachary,Cody,Ryan,Luke,Ian","Warn colors are pretty, but too blotchy for me.,3,40,20","Color story is boring in nature, and I feel nothing but boredom from this piece.,-20,400,20","Not sure how I feel about this. Messy, even for art. But good colors.,0,180,20","I love the childish aspect to it,37,380,20","it looks very simple and childlike,-31,20,20","I'm not a fan. It looks like something my nephews (1 and 2) would make,-8,260,20","Ryan","I love the childish aspect to it,37,380,20","Cody","Not sure how I feel about this. Messy, even for art. But good colors.,0,180,20","Luke","it looks very simple and childlike,-31,20,20","2"
"9255","","survey-text","52","332334","0.0-51.0-0.0","AHPOOKYE7V04D","","","","{""Q0"":""I am neutral on this piece""}","","","","","","","","","","","","","","","","","","","","","","",""
"10757.600000023842","","image-slider-response","53","343097","0.0-52.0","AHPOOKYE7V04D","","","","","0","","","","","","","","","","","","","","","","","","","","","",""
"3562","","image-button-response","54","348108","0.0-53.0","AHPOOKYE7V04D","img_art/26.jpg","3","","","","","","","","","","","","","","","","","","","","","","","","",""
"1708","","image-button-response","55","349824","0.0-54.0","AHPOOKYE7V04D","img_art/26.jpg","4","","","","","","","","","","","","","","","","","","","","","","","","",""
"710","","image-button-response","56","350543","0.0-55.0-0.0","AHPOOKYE7V04D","img_art/26.jpg","3","","","","","","","","","","","","","","","","","","","","","","","","",""
"4074","","image-button-response","57","354626","0.0-56.0-0.0","AHPOOKYE7V04D","img_art/26.jpg","1","","","","","","","","","","","","","","","","","","","","","","","","",""
"null","","html-keyboard-response","58","356133","0.0-57.0","AHPOOKYE7V04D","<p style=""font-size: 48px;"">+</p>","","","","","null","allTrialResponses","1500","1","2","img_art/26.jpg","0","I am neutral on this piece","Sean,Jordan,Cody,Ryan,Luke,Trevor","picture looks alright,1,40,20","Reminds me of walks in my dads city when I was little,22,160,20","Looks unfinished,-31,180,20","Pleasant to look at,28,380,20","makes me happy and reminds me of a paris courtyard,29,20,20","looks like a little kids painting,-17,280,20","Luke","makes me happy and reminds me of a paris courtyard,29,20,20","Ryan","Pleasant to look at,28,380,20","Jordan","Reminds me of walks in my dads city when I was little,22,160,20","2"
"7661","","survey-text","59","363807","0.0-58.0-0.0","AHPOOKYE7V04D","","","","{""Q0"":""garish use of colors, jarring""}","","","","","","","","","","","","","","","","","","","","","","",""
"6460.599999904633","","image-slider-response","60","370274","0.0-59.0","AHPOOKYE7V04D","","","","","-35","","","","","","","","","","","","","","","","","","","","","",""
"3725","","image-button-response","61","375283","0.0-60.0","AHPOOKYE7V04D","img_art/12.jpg","5","","","","","","","","","","","","","","","","","","","","","","","","",""
"1170","","image-button-response","62","376461","0.0-61.0","AHPOOKYE7V04D","img_art/12.jpg","1","","","","","","","","","","","","","","","","","","","","","","","","",""
"1207","","image-button-response","63","377679","0.0-62.0-0.0","AHPOOKYE7V04D","img_art/12.jpg","5","","","","","","","","","","","","","","","","","","","","","","","","",""
"6302","","image-button-response","64","383990","0.0-63.0-0.0","AHPOOKYE7V04D","img_art/12.jpg","4","","","","","","","","","","","","","","","","","","","","","","","","",""
"null","","html-keyboard-response","65","384497","0.0-64.0","AHPOOKYE7V04D","<p style=""font-size: 48px;"">+</p>","","","","","null","allTrialResponses","500","1","3","img_art/12.jpg","-35","garish use of colors, jarring","Jesus,Jordan,Thomas,Ryan,Luke,Carlos","I like the color scheme.,10,100,20","Made me uncomfortable, reminded me of the 90s,-9,160,20","Very interesting. Makes me want to look at it for a long time.,16,220,20","The colors are beautiful and it has great composition,50,380,20","don't feel a lot but it seems very simple,-6,20,20","It is very bland and the colors are not cohesive.,-20,80,20","Jordan","Made me uncomfortable, reminded me of the 90s,-9,160,20","Carlos","It is very bland and the colors are not cohesive.,-20,80,20","Luke","don't feel a lot but it seems very simple,-6,20,20","2"
"14843","","survey-text","66","399346","0.0-65.0-0.0","AHPOOKYE7V04D","","","","{""Q0"":""wow that is truly different, kind of eerie""}","","","","","","","","","","","","","","","","","","","","","","",""
"5135.700000047684","","image-slider-response","67","404489","0.0-66.0","AHPOOKYE7V04D","","","","","26","","","","","","","","","","","","","","","","","","","","","",""
"null","","image-button-response","68","409500","0.0-67.0","AHPOOKYE7V04D","img_art/25.jpg","null","","","","","","","","","","","","","","","","","","","","","","","","",""
"2318","","image-button-response","69","411824","0.0-68.0","AHPOOKYE7V04D","img_art/25.jpg","0","","","","","","","","","","","","","","","","","","","","","","","","",""
"997","","image-button-response","70","412825","0.0-69.0-0.0","AHPOOKYE7V04D","img_art/25.jpg","1","","","","","","","","","","","","","","","","","","","","","","","","",""
"1149","","image-button-response","71","413982","0.0-70.0-0.0","AHPOOKYE7V04D","img_art/25.jpg","4","","","","","","","","","","","","","","","","","","","","","","","","",""
"null","","html-keyboard-response","72","414986","0.0-71.0","AHPOOKYE7V04D","<p style=""font-size: 48px;"">+</p>","","","","","null","allTrialResponses","1000","1","4","img_art/25.jpg","26","wow that is truly different, kind of eerie","Dylan,Jordan,Devon,Brett,Luke,Carlos","This is too dark and creepy. I also hate the color,-30,40,20","This is creepy and I dont like it,-28,160,20","i feel a bit dull, a bit scared,-20,400,20","Egyptian heiroglyphics and painting,15,360,20","the contrasting colors are very interesting,24,20,20","The proportions are unpleasant.,-30,80,20","Dylan","This is too dark and creepy. I also hate the color,-30,40,20","Jordan","This is creepy and I dont like it,-28,160,20","Luke","the contrasting colors are very interesting,24,20,20","2"
"10595","","survey-text","73","425597","0.0-72.0-0.0","AHPOOKYE7V04D","","","","{""Q0"":""looks like mustard being squeezed""}","","","","","","","","","","","","","","","","","","","","","","",""
"4811.899999976158","","image-slider-response","74","430416","0.0-73.0","AHPOOKYE7V04D","","","","","5","","","","","","","","","","","","","","","","","","","","","",""
"3712","","image-button-response","75","435425","0.0-74.0","AHPOOKYE7V04D","img_art/4.jpg","4","","","","","","","","","","","","","","","","","","","","","","","","",""
"119","","image-button-response","76","435553","0.0-75.0","AHPOOKYE7V04D","img_art/4.jpg","4","","","","","","","","","","","","","","","","","","","","","","","","",""
"1668","","image-button-response","77","437229","0.0-76.0-0.0","AHPOOKYE7V04D","img_art/4.jpg","2","","","","","","","","","","","","","","","","","","","","","","","","",""
"1232","","image-button-response","78","438472","0.0-77.0-0.0","AHPOOKYE7V04D","img_art/4.jpg","0","","","","","","","","","","","","","","","","","","","","","","","","",""
"null","","html-keyboard-response","79","439981","0.0-78.0","AHPOOKYE7V04D","<p style=""font-size: 48px;"">+</p>","","","","","null","allTrialResponses","1500","1","5","img_art/4.jpg","5","looks like mustard being squeezed","Dylan,Jordan,Jason,John,Luke,Hunter","This artwork looks like a child did it,-41,40,20","A hand reaching for something it cannot obtain,-9,160,20","I don't understand this at all,3,20,20","Extremely simple and like not alot of time was put into it,-20,120,20","it looks like a simple finger painting, yet i liked the color choices,-12,20,20","appealing warm palette,6,240,20","Luke","it looks like a simple finger painting, yet i liked the color choices,-12,20,20","Jason","I don't understand this at all,3,20,20","Dylan","This artwork looks like a child did it,-41,40,20","2"
"2962","","survey-text","80","442967","0.0-79.0-0.0","AHPOOKYE7V04D","","","","{""Q0"":""sky""}","","","","","","","","","","","","","","","","","","","","","","",""
"25114","","survey-text","81","468088","0.0-80.0-0.0","AHPOOKYE7V04D","","","","{""Q0"":""absurdist, almost dadaist with complex meaning""}","","","","","","","","","","","","","","","","","","","","","","",""
"6178.100000023842","","image-slider-response","82","474273","0.0-81.0","AHPOOKYE7V04D","","","","","-4","","","","","","","","","","","","","","","","","","","","","",""
"4981","","image-button-response","83","479281","0.0-82.0","AHPOOKYE7V04D","img_art/8.jpg","1","","","","","","","","","","","","","","","","","","","","","","","","",""
"2278","","image-button-response","84","481571","0.0-83.0","AHPOOKYE7V04D","img_art/8.jpg","2","","","","","","","","","","","","","","","","","","","","","","","","",""
"5106","","image-button-response","85","486685","0.0-84.0-0.0","AHPOOKYE7V04D","img_art/8.jpg","1","","","","","","","","","","","","","","","","","","","","","","","","",""
"1345","","image-button-response","86","488040","0.0-85.0-0.0","AHPOOKYE7V04D","img_art/8.jpg","5","","","","","","","","","","","","","","","","","","","","","","","","",""
"null","","html-keyboard-response","87","488543","0.0-86.0","AHPOOKYE7V04D","<p style=""font-size: 48px;"">+</p>","","","","","null","allTrialResponses","500","1","6","img_art/8.jpg","-4","absurdist, almost dadaist with complex meaning","Dylan,Bryan,Jason,Spencer,Luke,Shane","The colors are nice but the big face in the sky is creepy,-11,40,20","Like the colors & the imagery - old city, native peoples maybe.,20,400,20","There are a lot of different interesting elements in the picture.,12,20,20","Nice formats, I just don't like it much,-16,120,20","It is very colorful with a deeper meaning,25,20,20","Ancient city looked after by diety,38,80,20","Jason","There are a lot of different interesting elements in the picture.,12,20,20","Bryan","Like the colors & the imagery - old city, native peoples maybe.,20,400,20","Shane","Ancient city looked after by diety,38,80,20","2"
"9813","","survey-text","88","498363","0.0-87.0-0.0","AHPOOKYE7V04D","","","","{""Q0"":""too hard to see on this monitor""}","","","","","","","","","","","","","","","","","","","","","","",""
"4336.899999976158","","image-slider-response","89","502709","0.0-88.0","AHPOOKYE7V04D","","","","","-28","","","","","","","","","","","","","","","","","","","","","",""
"null","","image-button-response","90","507718","0.0-89.0","AHPOOKYE7V04D","img_art/17.jpg","null","","","","","","","","","","","","","","","","","","","","","","","","",""
"163","","image-button-response","91","507891","0.0-90.0","AHPOOKYE7V04D","img_art/17.jpg","3","","","","","","","","","","","","","","","","","","","","","","","","",""
"2976","","image-button-response","92","510871","0.0-91.0-0.0","AHPOOKYE7V04D","img_art/17.jpg","1","","","","","","","","","","","","","","","","","","","","","","","","",""
"1178","","image-button-response","93","512060","0.0-92.0-0.0","AHPOOKYE7V04D","img_art/17.jpg","5","","","","","","","","","","","","","","","","","","","","","","","","",""
"null","","html-keyboard-response","94","513068","0.0-93.0","AHPOOKYE7V04D","<p style=""font-size: 48px;"">+</p>","","","","","null","allTrialResponses","1000","1","7","img_art/17.jpg","-28","too hard to see on this monitor","Tyler,Bryan,Jason,Cole,Blake,Shane","No strong reaction. Beautiful design, but hue appears taciturn. Bad photograph?,1,320,20","Reminds me of winters in Minnesota.,48,400,20","Very beautiful,19,20,20","It looks unfinished,-7,200,20","soft and warm light colors are relaxing,12,280,20","Pleasant fall to winter day,22,80,20","Cole","It looks unfinished,-7,200,20","Bryan","Reminds me of winters in Minnesota.,48,400,20","Shane","Pleasant fall to winter day,22,80,20","2"
"15561","","survey-text","95","528636","0.0-94.0-0.0","AHPOOKYE7V04D","","","","{""Q0"":""visualization of a musical score""}","","","","","","","","","","","","","","","","","","","","","","",""
"7646.100000023842","","image-slider-response","96","536285","0.0-95.0","AHPOOKYE7V04D","","","","","4","","","","","","","","","","","","","","","","","","","","","",""
"null","","image-button-response","97","541294","0.0-96.0","AHPOOKYE7V04D","img_art/10.jpg","null","","","","","","","","","","","","","","","","","","","","","","","","",""
"116964","","image-button-response","98","658264","0.0-97.0","AHPOOKYE7V04D","img_art/10.jpg","3","","","","","","","","","","","","","","","","","","","","","","","","",""
"4250","","image-button-response","99","662525","0.0-98.0-0.0","AHPOOKYE7V04D","img_art/10.jpg","2","","","","","","","","","","","","","","","","","","","","","","","","",""
"1248","","image-button-response","100","663780","0.0-99.0-0.0","AHPOOKYE7V04D","img_art/10.jpg","1","","","","","","","","","","","","","","","","","","","","","","","","",""
"null","","html-keyboard-response","101","665298","0.0-100.0","AHPOOKYE7V04D","<p style=""font-size: 48px;"">+</p>","","","","","null","allTrialResponses","1500","1","8","img_art/10.jpg","4","visualization of a musical score","Christian,Bryan,Lucas,Cole,Stephen,Shane","gives a sense of a roller coaster unit splashed in water. it's not but i love it nevertheless,44,140,20","First impression was musical instrument then, because of the gray colors, death.,5,400,20","For me, it looks like a giant ship on the sea and it's astonishing.,30,380,20","It confuses me. I dont know whats going on,14,200,20","Very nice painting, would like it more with different color choice.,6,140,20","Like a decision making process,46,80,20","Cole","It confuses me. I dont know whats going on,14,200,20","Lucas","For me, it looks like a giant ship on the sea and it's astonishing.,30,380,20","Bryan","First impression was musical instrument then, because of the gray colors, death.,5,400,20","2"
"16714","","survey-text","102","682029","0.0-101.0-0.0","AHPOOKYE7V04D","","","","{""Q0"":""eerie, creepy""}","","","","","","","","","","","","","","","","","","","","","","",""
"7744.100000023842","","image-slider-response","103","689779","0.0-102.0","AHPOOKYE7V04D","","","","","-1","","","","","","","","","","","","","","","","","","","","","",""
"4386","","image-button-response","104","694784","0.0-103.0","AHPOOKYE7V04D","img_art/28.jpg","1","","","","","","","","","","","","","","","","","","","","","","","","",""
"1147","","image-button-response","105","695942","0.0-104.0","AHPOOKYE7V04D","img_art/28.jpg","3","","","","","","","","","","","","","","","","","","","","","","","","",""
"5097","","image-button-response","106","701048","0.0-105.0-0.0","AHPOOKYE7V04D","img_art/28.jpg","2","","","","","","","","","","","","","","","","","","","","","","","","",""
"1447","","image-button-response","107","702504","0.0-106.0-0.0","AHPOOKYE7V04D","img_art/28.jpg","1","","","","","","","","","","","","","","","","","","","","","","","","",""
"null","","html-keyboard-response","108","704017","0.0-107.0","AHPOOKYE7V04D","<p style=""font-size: 48px;"">+</p>","","","","","null","allTrialResponses","1500","1","9","img_art/28.jpg","-1","eerie, creepy","Alexis,Bryan,Lucas,Cole,Patrick,Adrian","The brown and green colors used look dull and unappealing,-30,140,20","A meeting in Old Jerusalem.,11,400,20","This painting is mysterious, it makes me curious.,5,380,20","Is this anything?,-20,200,20","This swirly drawing i snot my type I get confused and dizzy,-20,280,20","Not a fan of the drab colors but it looks a little bit interesting.,-7,60,20","Cole","Is this anything?,-20,200,20","Lucas","This painting is mysterious, it makes me curious.,5,380,20","Bryan","A meeting in Old Jerusalem.,11,400,20","2"
"6290","","survey-text","109","710323","0.0-108.0-0.0","AHPOOKYE7V04D","","","","{""Q0"":""blurry""}","","","","","","","","","","","","","","","","","","","","","","",""
"3614","","image-slider-response","110","713945","0.0-109.0","AHPOOKYE7V04D","","","","","-30","","","","","","","","","","","","","","","","","","","","","",""
"4979","","image-button-response","111","718954","0.0-110.0","AHPOOKYE7V04D","img_art/1.jpg","0","","","","","","","","","","","","","","","","","","","","","","","","",""
"1138","","image-button-response","112","720100","0.0-111.0","AHPOOKYE7V04D","img_art/1.jpg","3","","","","","","","","","","","","","","","","","","","","","","","","",""
"1940","","image-button-response","113","722047","0.0-112.0-0.0","AHPOOKYE7V04D","img_art/1.jpg","0","","","","","","","","","","","","","","","","","","","","","","","","",""
"2728","","image-button-response","114","724781","0.0-113.0-0.0","AHPOOKYE7V04D","img_art/1.jpg","1","","","","","","","","","","","","","","","","","","","","","","","","",""
"null","","html-keyboard-response","115","725790","0.0-114.0","AHPOOKYE7V04D","<p style=""font-size: 48px;"">+</p>","","","","","null","allTrialResponses","1000","1","10","img_art/1.jpg","-30","blurry","Elijah,Bryan,Lucas,Cole,Jeffrey,Tanner","Makes me feel confused,-6,80,20","Again, like the colors & abstractness.,29,400,20","The colors match and create a nice artistic disorder.,20,380,20","I like the colors. But it doesnt look like anything,27,200,20","Makes me warm and relaxed,38,40,20","river, fall, cozy, warm,12,180,20","Cole","I like the colors. But it doesnt look like anything,27,200,20","Elijah","Makes me feel confused,-6,80,20","Bryan","Again, like the colors & abstractness.,29,400,20","2"
"8646","","survey-text","116","734464","0.0-115.0-0.0","AHPOOKYE7V04D","","","","{""Q0"":""our""}","","","","","","","","","","","","","","","","","","","","","","",""
"11978","","survey-text","117","746449","0.0-116.0-0.0","AHPOOKYE7V04D","","","","{""Q0"":""interesting scene""}","","","","","","","","","","","","","","","","","","","","","","",""
"10980.900000095367","","image-slider-response","118","757436","0.0-117.0","AHPOOKYE7V04D","","","","","13","","","","","","","","","","","","","","","","","","","","","",""
"null","","image-button-response","119","762451","0.0-118.0","AHPOOKYE7V04D","img_art/21.jpg","null","","","","","","","","","","","","","","","","","","","","","","","","",""
"24252","","image-button-response","120","786706","0.0-119.0","AHPOOKYE7V04D","img_art/21.jpg","4","","","","","","","","","","","","","","","","","","","","","","","","",""
"4481","","image-button-response","121","791191","0.0-120.0-0.0","AHPOOKYE7V04D","img_art/21.jpg","2","","","","","","","","","","","","","","","","","","","","","","","","",""
"1267","","image-button-response","122","792464","0.0-121.0-0.0","AHPOOKYE7V04D","img_art/21.jpg","5","","","","","","","","","","","","","","","","","","","","","","","","",""
"null","","html-keyboard-response","123","792972","0.0-122.0","AHPOOKYE7V04D","<p style=""font-size: 48px;"">+</p>","","","","","null","allTrialResponses","500","1","11","img_art/21.jpg","13","interesting scene","Elijah,Bryan,Peter,Cole,Brendan,Alexander","Can't understand what it is,-27,80,20","Like the colors, the cloudy, airy effects. Nice.,46,400,20","I like the two sides meeting, like a movie scene,15,320,20","Unfinished. Confusing to look at,-12,200,20","looks like a sea during some war,27,340,20","Survivable storm on the open sea.,27,120,20","Brendan","looks like a sea during some war,27,340,20","Peter","I like the two sides meeting, like a movie scene,15,320,20","Alexander","Survivable storm on the open sea.,27,120,20","2"
"11527","","survey-text","124","804506","0.0-123.0-0.0","AHPOOKYE7V04D","","","","{""Q0"":""I am unsure how I feel""}","","","","","","","","","","","","","","","","","","","","","","",""
"6175.299999952316","","image-slider-response","125","810684","0.0-124.0","AHPOOKYE7V04D","","","","","-1","","","","","","","","","","","","","","","","","","","","","",""
"4582","","image-button-response","126","815697","0.0-125.0","AHPOOKYE7V04D","img_art/11.jpg","4","","","","","","","","","","","","","","","","","","","","","","","","",""
"4592","","image-button-response","127","820295","0.0-126.0","AHPOOKYE7V04D","img_art/11.jpg","1","","","","","","","","","","","","","","","","","","","","","","","","",""
"1523","","image-button-response","128","821827","0.0-127.0-0.0","AHPOOKYE7V04D","img_art/11.jpg","4","","","","","","","","","","","","","","","","","","","","","","","","",""
"1866","","image-button-response","129","823702","0.0-128.0-0.0","AHPOOKYE7V04D","img_art/11.jpg","2","","","","","","","","","","","","","","","","","","","","","","","","",""
"null","","html-keyboard-response","130","825206","0.0-129.0","AHPOOKYE7V04D","<p style=""font-size: 48px;"">+</p>","","","","","null","allTrialResponses","1500","1","12","img_art/11.jpg","-1","I am unsure how I feel","Derek,Nathaniel,Peter,Joshua,Brendan,Alexander","There's a lot going on in this painting but it is pleasing and neat looking,31,360,20","Kind of bizzare in that I can imagine ships or something from it.,11,220,20","Smoggy, oily, industrial. Don't like,1,320,20","Is interesting. Wouldn't bother me to have this hanging where I'd see it every day.,11,240,20","i dont understand this painting,-1,340,20","Waves of signs.,15,120,20","Nathaniel","Kind of bizzare in that I can imagine ships or something from it.,11,220,20","Brendan","i dont understand this painting,-1,340,20","Peter","Smoggy, oily, industrial. Don't like,1,320,20","2"
"11938","","survey-text","131","837152","0.0-130.0-0.0","AHPOOKYE7V04D","","","","{""Q0"":""unharmonious and disjointed""}","","","","","","","","","","","","","","","","","","","","","","",""
"5793","","image-slider-response","132","842948","0.0-131.0","AHPOOKYE7V04D","","","","","-17","","","","","","","","","","","","","","","","","","","","","",""
"4651","","image-button-response","133","847961","0.0-132.0","AHPOOKYE7V04D","img_art/29.jpg","3","","","","","","","","","","","","","","","","","","","","","","","","",""
"666","","image-button-response","134","848633","0.0-133.0","AHPOOKYE7V04D","img_art/29.jpg","3","","","","","","","","","","","","","","","","","","","","","","","","",""
"3568","","image-button-response","135","852214","0.0-134.0-0.0","AHPOOKYE7V04D","img_art/29.jpg","5","","","","","","","","","","","","","","","","","","","","","","","","",""
"2018","","image-button-response","136","854244","0.0-135.0-0.0","AHPOOKYE7V04D","img_art/29.jpg","1","","","","","","","","","","","","","","","","","","","","","","","","",""
"null","","html-keyboard-response","137","855750","0.0-136.0","AHPOOKYE7V04D","<p style=""font-size: 48px;"">+</p>","","","","","null","allTrialResponses","1500","1","13","img_art/29.jpg","-17","unharmonious and disjointed","Robert,Nathaniel,Peter,William,Brendan,Travis","Looks like a murder,-50,360,20","Giant messy blob. Looks like it tries to be edgy, but fails.,-40,220,20","Looks like a jail cell,-15,320,20","makes me think of destruction,-20,380,20","it looks like a prison,-33,340,20","Neural...just a blackboard jungle.,3,260,20","William","makes me think of destruction,-20,380,20","Travis","Neural...just a blackboard jungle.,3,260,20","Nathaniel","Giant messy blob. Looks like it tries to be edgy, but fails.,-40,220,20","2"
"19261","","survey-text","138","875027","0.0-137.0-0.0","AHPOOKYE7V04D","","","","{""Q0"":""interesting figure in the middle""}","","","","","","","","","","","","","","","","","","","","","","",""
"4209","","image-slider-response","139","879240","0.0-138.0","AHPOOKYE7V04D","","","","","2","","","","","","","","","","","","","","","","","","","","","",""
"4220","","image-button-response","140","884249","0.0-139.0","AHPOOKYE7V04D","img_art/18.jpg","5","","","","","","","","","","","","","","","","","","","","","","","","",""
"1762","","image-button-response","141","886016","0.0-140.0","AHPOOKYE7V04D","img_art/18.jpg","1","","","","","","","","","","","","","","","","","","","","","","","","",""
"1157","","image-button-response","142","887176","0.0-141.0-0.0","AHPOOKYE7V04D","img_art/18.jpg","0","","","","","","","","","","","","","","","","","","","","","","","","",""
"2168","","image-button-response","143","889348","0.0-142.0-0.0","AHPOOKYE7V04D","img_art/18.jpg","0","","","","","","","","","","","","","","","","","","","","","","","","",""
"1631","","image-button-response","144","895688","0.0-142.1-0.1","AHPOOKYE7V04D","img_art/18.jpg","5","","","","","","","","","","","","","","","","","","","","","","","","",""
"null","","html-keyboard-response","145","896202","0.0-143.0","AHPOOKYE7V04D","<p style=""font-size: 48px;"">+</p>","","","","","null","allTrialResponses","500","1","14","img_art/18.jpg","2","interesting figure in the middle","Timothy,Nathaniel,Jonathan,William,Jorge,Travis","This gives a very ominous feeling,-30,240,20","Looks like a jumbled mess. I prefer a clearer picture,-18,220,20","There's danger in this painting and it's awesome,40,140,20","Makes me think of stormy oceans,20,380,20","Imaginative, makes me feel creative.,42,180,20","I don't know...kind of a dissatified feeling inside.,-6,260,20","Nathaniel","Looks like a jumbled mess. I prefer a clearer picture,-18,220,20","Timothy","This gives a very ominous feeling,-30,240,20","Travis","I don't know...kind of a dissatified feeling inside.,-6,260,20","4"
"9901","","survey-text","146","906119","0.0-144.0-0.0","AHPOOKYE7V04D","","","","{""Q0"":""interesting textural elements""}","","","","","","","","","","","","","","","","","","","","","","",""
"6158.299999952316","","image-slider-response","147","912281","0.0-145.0","AHPOOKYE7V04D","","","","","6","","","","","","","","","","","","","","","","","","","","","",""
"2642","","image-button-response","148","917300","0.0-146.0","AHPOOKYE7V04D","img_art/7.jpg","3","","","","","","","","","","","","","","","","","","","","","","","","",""
"659","","image-button-response","149","917963","0.0-147.0","AHPOOKYE7V04D","img_art/7.jpg","3","","","","","","","","","","","","","","","","","","","","","","","","",""
"4006","","image-button-response","150","921973","0.0-148.0-0.0","AHPOOKYE7V04D","img_art/7.jpg","0","","","","","","","","","","","","","","","","","","","","","","","","",""
"1050","","image-button-response","151","923028","0.0-149.0-0.0","AHPOOKYE7V04D","img_art/7.jpg","1","","","","","","","","","","","","","","","","","","","","","","","","",""
"null","","html-keyboard-response","152","923531","0.0-150.0","AHPOOKYE7V04D","<p style=""font-size: 48px;"">+</p>","","","","","null","allTrialResponses","500","1","15","img_art/7.jpg","6","interesting textural elements","Timothy,Nathaniel,Isaac,Aaron,Cameron,Travis","This feels very earthy and grounded,20,240,20","It gives off an alien-like vastness of space vibe which I like,9,220,20","It looks more like wallpaper rather than a painting.,-27,280,20","It's kind of ugly but I like the texture.,10,20,20","tracks in dirt?,-15,60,20","Just neutral...looks like sand at the beach.,3,260,20","Aaron","It's kind of ugly but I like the texture.,10,20,20","Timothy","This feels very earthy and grounded,20,240,20","Nathaniel","It gives off an alien-like vastness of space vibe which I like,9,220,20","4"
"4515","","survey-text","153","928059","0.0-151.0-0.0","AHPOOKYE7V04D","","","","{""Q0"":""course""}","","","","","","","","","","","","","","","","","","","","","","",""
"11367","","survey-text","154","939428","0.0-152.0-0.0","AHPOOKYE7V04D","","","","{""Q0"":""beautiful abstract waterfall""}","","","","","","","","","","","","","","","","","","","","","","",""
"5585.5","","image-slider-response","155","945019","0.0-153.0","AHPOOKYE7V04D","","","","","10","","","","","","","","","","","","","","","","","","","","","",""
"null","","image-button-response","156","950024","0.0-154.0","AHPOOKYE7V04D","img_art/24.jpg","null","","","","","","","","","","","","","","","","","","","","","","","","",""
"1472","","image-button-response","157","951504","0.0-155.0","AHPOOKYE7V04D","img_art/24.jpg","3","","","","","","","","","","","","","","","","","","","","","","","","",""
"1894","","image-button-response","158","953404","0.0-156.0-0.0","AHPOOKYE7V04D","img_art/24.jpg","2","","","","","","","","","","","","","","","","","","","","","","","","",""
"2483","","image-button-response","159","955893","0.0-157.0-0.0","AHPOOKYE7V04D","img_art/24.jpg","1","","","","","","","","","","","","","","","","","","","","","","","","",""
"null","","html-keyboard-response","160","957404","0.0-158.0","AHPOOKYE7V04D","<p style=""font-size: 48px;"">+</p>","","","","","null","allTrialResponses","1500","1","16","img_art/24.jpg","10","beautiful abstract waterfall","Timothy,Nathaniel,Mark,Aaron,Brian,Ethan","Earthy wonderful, love everything about it,50,240,20","Feels surreal, in a way, and vibrant,37,220,20","Waterfall, and I love the coloring.,48,80,20","I like how it evokes the feeling of being in a forest. The colors are pretty,31,20,20","it's a nice stream, but I don't care for plain nature,-15,380,20","This is sort of interesting. I think it's a bit busy. Less is more.,3,120,20","Aaron","I like how it evokes the feeling of being in a forest. The colors are pretty,31,20,20","Mark","Waterfall, and I love the coloring.,48,80,20","Nathaniel","Feels surreal, in a way, and vibrant,37,220,20","4"
"14388","","survey-text","161","971812","0.0-159.0-0.0","AHPOOKYE7V04D","","","","{""Q0"":""abstract odalisque""}","","","","","","","","","","","","","","","","","","","","","","",""
"3689.6999999284744","","image-slider-response","162","975505","0.0-160.0","AHPOOKYE7V04D","","","","","3","","","","","","","","","","","","","","","","","","","","","",""
"null","","image-button-response","163","980510","0.0-161.0","AHPOOKYE7V04D","img_art/9.jpg","null","","","","","","","","","","","","","","","","","","","","","","","","",""
"448","","image-button-response","164","980964","0.0-162.0","AHPOOKYE7V04D","img_art/9.jpg","2","","","","","","","","","","","","","","","","","","","","","","","","",""
"868","","image-button-response","165","981841","0.0-163.0-0.0","AHPOOKYE7V04D","img_art/9.jpg","1","","","","","","","","","","","","","","","","","","","","","","","","",""
"812","","image-button-response","166","982662","0.0-164.0-0.0","AHPOOKYE7V04D","img_art/9.jpg","0","","","","","","","","","","","","","","","","","","","","","","","","",""
"null","","html-keyboard-response","167","983167","0.0-165.0","AHPOOKYE7V04D","<p style=""font-size: 48px;"">+</p>","","","","","null","allTrialResponses","500","1","17","img_art/9.jpg","3","abstract odalisque","Miguel,Nathaniel,Mark,Aaron,Austin,Shawn","Abstract but not well made,-26,160,20","Not very enticing. No real substance other than a lady laying down,-35,220,20","Sleeping woman in a cave. Makes me feel safe.,20,80,20","It looks like a child's crayon drawing.,-10,20,20","Love the uniqueness,21,240,20","Cheesy. Looks unprofessional,-20,100,20","Mark","Sleeping woman in a cave. Makes me feel safe.,20,80,20","Nathaniel","Not very enticing. No real substance other than a lady laying down,-35,220,20","Miguel","Abstract but not well made,-26,160,20","4"
"11798","","survey-text","168","994973","0.0-166.0-0.0","AHPOOKYE7V04D","","","","{""Q0"":""too unharmonious, random""}","","","","","","","","","","","","","","","","","","","","","","",""
"7590.899999976158","","image-slider-response","169","1002571","0.0-167.0","AHPOOKYE7V04D","","","","","-19","","","","","","","","","","","","","","","","","","","","","",""
"3257","","image-button-response","170","1007584","0.0-168.0","AHPOOKYE7V04D","img_art/2.jpg","3","","","","","","","","","","","","","","","","","","","","","","","","",""
"811","","image-button-response","171","1008402","0.0-169.0","AHPOOKYE7V04D","img_art/2.jpg","1","","","","","","","","","","","","","","","","","","","","","","","","",""
"1610","","image-button-response","172","1010020","0.0-170.0-0.0","AHPOOKYE7V04D","img_art/2.jpg","3","","","","","","","","","","","","","","","","","","","","","","","","",""
"3069","","image-button-response","173","1013096","0.0-171.0-0.0","AHPOOKYE7V04D","img_art/2.jpg","5","","","","","","","","","","","","","","","","","","","","","","","","",""
"null","","html-keyboard-response","174","1014114","0.0-172.0","AHPOOKYE7V04D","<p style=""font-size: 48px;"">+</p>","","","","","null","allTrialResponses","1000","1","18","img_art/2.jpg","-19","too unharmonious, random","Miguel,Nathaniel,Mark,Kevin,James,Paul","7 year old painted?,-35,160,20","Too gloopy and unfocused,-38,220,20","It feels like a party and Moulin Rouge.,20,80,20","That looks look a cartoon character of some kind.,11,320,20","The only parts I like is the light blue, red and black. The green color isn't very flattering.,11,380,20","I like the blue color in the center but that's it, the green is a gross color,-3,300,20","Nathaniel","Too gloopy and unfocused,-38,220,20","Kevin","That looks look a cartoon character of some kind.,11,320,20","Paul","I like the blue color in the center but that's it, the green is a gross color,-3,300,20","4"
"14746","","survey-text","175","1028878","0.0-173.0-0.0","AHPOOKYE7V04D","","","","{""Q0"":""interesting abstract primitive landscape""}","","","","","","","","","","","","","","","","","","","","","","",""
"5647.900000095367","","image-slider-response","176","1034531","0.0-174.0","AHPOOKYE7V04D","","","","","2","","","","","","","","","","","","","","","","","","","","","",""
"null","","image-button-response","177","1039539","0.0-175.0","AHPOOKYE7V04D","img_art/19.jpg","null","","","","","","","","","","","","","","","","","","","","","","","","",""
"5365","","image-button-response","178","1044908","0.0-176.0","AHPOOKYE7V04D","img_art/19.jpg","0","","","","","","","","","","","","","","","","","","","","","","","","",""
"1071","","image-button-response","179","1046001","0.0-177.0-0.0","AHPOOKYE7V04D","img_art/19.jpg","5","","","","","","","","","","","","","","","","","","","","","","","","",""
"2268","","image-button-response","180","1048279","0.0-178.0-0.0","AHPOOKYE7V04D","img_art/19.jpg","4","","","","","","","","","","","","","","","","","","","","","","","","",""
"null","","html-keyboard-response","181","1049793","0.0-179.0","AHPOOKYE7V04D","<p style=""font-size: 48px;"">+</p>","","","","","null","allTrialResponses","1500","1","19","img_art/19.jpg","2","interesting abstract primitive landscape","Logan,Nathaniel,Bryce,Kevin,Taylor,Paul","this flow I just really like how everything blends but also doesn't,45,360,20","Horrible. Squiggly lines everywhere.,-50,220,20","Very pretty and colorful.,23,20,20","Thats a lazy town,-8,320,20","Looks like a homeless man and this painting should be too.,-5,200,20","The shapes make me recall a city scene but it looks dirty,-22,300,20","Logan","this flow I just really like how everything blends but also doesn't,45,360,20","Paul","The shapes make me recall a city scene but it looks dirty,-22,300,20","Taylor","Looks like a homeless man and this painting should be too.,-5,200,20","4"
"24159","","survey-text","182","1073972","0.0-180.0-0.0","AHPOOKYE7V04D","","","","{""Q0"":""beautiful interplay of ight and dark, counterchanged colord""}","","","","","","","","","","","","","","","","","","","","","","",""
"6168.100000023842","","image-slider-response","183","1080144","0.0-181.0","AHPOOKYE7V04D","","","","","5","","","","","","","","","","","","","","","","","","","","","",""
"3954","","image-button-response","184","1085158","0.0-182.0","AHPOOKYE7V04D","img_art/13.jpg","4","","","","","","","","","","","","","","","","","","","","","","","","",""
"2432","","image-button-response","185","1087595","0.0-183.0","AHPOOKYE7V04D","img_art/13.jpg","4","","","","","","","","","","","","","","","","","","","","","","","","",""
"3933","","image-button-response","186","1091536","0.0-184.0-0.0","AHPOOKYE7V04D","img_art/13.jpg","3","","","","","","","","","","","","","","","","","","","","","","","","",""
"1493","","image-button-response","187","1093037","0.0-185.0-0.0","AHPOOKYE7V04D","img_art/13.jpg","1","","","","","","","","","","","","","","","","","","","","","","","","",""
"null","","html-keyboard-response","188","1094558","0.0-186.0","AHPOOKYE7V04D","<p style=""font-size: 48px;"">+</p>","","","","","null","allTrialResponses","1500","1","20","img_art/13.jpg","5","beautiful interplay of ight and dark, counterchanged colord","Logan,Dustin,Noah,Benjamin,Taylor,Paul","so simple and stupid this looks like what I did to my cousins wall when we repainted it for her 13th bday,0,360,20","Cool and calming colors. I like splatter art.,10,20,20","evokes a dampening feeling,-9,260,20","Reminds me of rain running down a window.,35,260,20","Simple and in my favorite color. I actually like this one.,40,200,20","It's like any other splatter paint art piece, nothing special,1,300,20","Taylor","Simple and in my favorite color. I actually like this one.,40,200,20","Benjamin","Reminds me of rain running down a window.,35,260,20","Dustin","Cool and calming colors. I like splatter art.,10,20,20","4"
"5014","","survey-text","189","1099597","0.0-187.0-0.0","AHPOOKYE7V04D","","","","{""Q0"":""we""}","","","","","","","","","","","","","","","","","","","","","","",""
"8465","","survey-text","190","1108072","0.0-188.0-0.0","AHPOOKYE7V04D","","","","{""Q0"":""interesting use of white space""}","","","","","","","","","","","","","","","","","","","","","","",""
"5962.600000023842","","image-slider-response","191","1114037","0.0-189.0","AHPOOKYE7V04D","","","","","22","","","","","","","","","","","","","","","","","","","","","",""
"2708","","image-button-response","192","1119053","0.0-190.0","AHPOOKYE7V04D","img_art/15.jpg","3","","","","","","","","","","","","","","","","","","","","","","","","",""
"2964","","image-button-response","193","1122023","0.0-191.0","AHPOOKYE7V04D","img_art/15.jpg","3","","","","","","","","","","","","","","","","","","","","","","","","",""
"3387","","image-button-response","194","1125415","0.0-192.0-0.0","AHPOOKYE7V04D","img_art/15.jpg","5","","","","","","","","","","","","","","","","","","","","","","","","",""
"663","","image-button-response","195","1126087","0.0-193.0-0.0","AHPOOKYE7V04D","img_art/15.jpg","4","","","","","","","","","","","","","","","","","","","","","","","","",""
"null","","html-keyboard-response","196","1126594","0.0-194.0","AHPOOKYE7V04D","<p style=""font-size: 48px;"">+</p>","","","","","null","allTrialResponses","500","1","21","img_art/15.jpg","22","interesting use of white space","Jesse,Dustin,Nicholas,Benjamin,Taylor,Jacob","Doesnt trigger much of a reaction overall,-2,80,20","Too much black. I see weeds or dead/dying flowers.,-40,20,20","Not interesting enough. Boring,-37,240,20","Reminds me of blueberry bushes.,7,260,20","Getting better.,10,200,20","I think it's trying to execute a cool idea, but unfortunately it doesn't appeal,5,340,20","Benjamin","Reminds me of blueberry bushes.,7,260,20","Jacob","I think it's trying to execute a cool idea, but unfortunately it doesn't appeal,5,340,20","Taylor","Getting better.,10,200,20","4"
"13788","","survey-text","197","1140408","0.0-195.0-0.0","AHPOOKYE7V04D","","","","{""Q0"":""juxtaposition of teddy bear and gun is jarring""}","","","","","","","","","","","","","","","","","","","","","","",""
"5678.299999952316","","image-slider-response","198","1146091","0.0-196.0","AHPOOKYE7V04D","","","","","-29","","","","","","","","","","","","","","","","","","","","","",""
"4004","","image-button-response","199","1151098","0.0-197.0","AHPOOKYE7V04D","img_art/16.jpg","4","","","","","","","","","","","","","","","","","","","","","","","","",""
"2095","","image-button-response","200","1153197","0.0-198.0","AHPOOKYE7V04D","img_art/16.jpg","4","","","","","","","","","","","","","","","","","","","","","","","","",""
"922","","image-button-response","201","1154128","0.0-199.0-0.0","AHPOOKYE7V04D","img_art/16.jpg","5","","","","","","","","","","","","","","","","","","","","","","","","",""
"1105","","image-button-response","202","1155240","0.0-200.0-0.0","AHPOOKYE7V04D","img_art/16.jpg","3","","","","","","","","","","","","","","","","","","","","","","","","",""
"null","","html-keyboard-response","203","1155742","0.0-201.0","AHPOOKYE7V04D","<p style=""font-size: 48px;"">+</p>","","","","","null","allTrialResponses","500","1","22","img_art/16.jpg","-29","juxtaposition of teddy bear and gun is jarring","Andrew,Alex,Gregory,Benjamin,Taylor,Jacob","It just makes me feel uncomfortable,-25,160,20","I'm a fan of collage and of reminiscing about childhood so this was nice,10,100,20","Weird and funny,40,220,20","Don't like the teddy bear. It takes away from the painting.,-39,260,20","It is sick to put a teddy bear and a gun on the same piece of canvas.,-40,200,20","Cool but the bear creeps me out?,8,340,20","Taylor","It is sick to put a teddy bear and a gun on the same piece of canvas.,-40,200,20","Jacob","Cool but the bear creeps me out?,8,340,20","Benjamin","Don't like the teddy bear. It takes away from the painting.,-39,260,20","4"
"8715","","survey-text","204","1164467","0.0-202.0-0.0","AHPOOKYE7V04D","","","","{""Q0"":""powerful in its simplicity""}","","","","","","","","","","","","","","","","","","","","","","",""
"6958.799999952316","","image-slider-response","205","1171434","0.0-203.0","AHPOOKYE7V04D","","","","","13","","","","","","","","","","","","","","","","","","","","","",""
"null","","image-button-response","206","1176448","0.0-204.0","AHPOOKYE7V04D","img_art/5.jpg","null","","","","","","","","","","","","","","","","","","","","","","","","",""
"3107","","image-button-response","207","1179563","0.0-205.0","AHPOOKYE7V04D","img_art/5.jpg","5","","","","","","","","","","","","","","","","","","","","","","","","",""
"768","","image-button-response","208","1180343","0.0-206.0-0.0","AHPOOKYE7V04D","img_art/5.jpg","4","","","","","","","","","","","","","","","","","","","","","","","","",""
"542","","image-button-response","209","1180895","0.0-207.0-0.0","AHPOOKYE7V04D","img_art/5.jpg","3","","","","","","","","","","","","","","","","","","","","","","","","",""
"null","","html-keyboard-response","210","1181900","0.0-208.0","AHPOOKYE7V04D","<p style=""font-size: 48px;"">+</p>","","","","","null","allTrialResponses","1000","1","23","img_art/5.jpg","13","powerful in its simplicity","Michael,Vincent,Antonio,Benjamin,Taylor,Jacob","Complete garbage. Looks like a kid drew it.,-50,140,20","It speaks volumes to some. It's also a conversational piece. And very different ideas,34,360,20","Too much angular things happening, makes me think of stabbing something which makes me uncomfortable,-50,220,20","Missing something,-5,260,20","More kindergarten art class. Who buys this stuff?,-45,200,20","Don't really know the point of this one.,-11,340,20","Jacob","Don't really know the point of this one.,-11,340,20","Taylor","More kindergarten art class. Who buys this stuff?,-45,200,20","Benjamin","Missing something,-5,260,20","4"
"14309","","survey-text","211","1196236","0.0-209.0-0.0","AHPOOKYE7V04D","","","","{""Q0"":""too generic of an abstract piece""}","","","","","","","","","","","","","","","","","","","","","","",""
"5426.5","","image-slider-response","212","1201667","0.0-210.0","AHPOOKYE7V04D","","","","","-18","","","","","","","","","","","","","","","","","","","","","",""
"4207","","image-button-response","213","1206689","0.0-211.0","AHPOOKYE7V04D","img_art/3.jpg","3","","","","","","","","","","","","","","","","","","","","","","","","",""
"739","","image-button-response","214","1207434","0.0-212.0","AHPOOKYE7V04D","img_art/3.jpg","3","","","","","","","","","","","","","","","","","","","","","","","","",""
"1075","","image-button-response","215","1208514","0.0-213.0-0.0","AHPOOKYE7V04D","img_art/3.jpg","1","","","","","","","","","","","","","","","","","","","","","","","","",""
"1164","","image-button-response","216","1209686","0.0-214.0-0.0","AHPOOKYE7V04D","img_art/3.jpg","5","","","","","","","","","","","","","","","","","","","","","","","","",""
"null","","html-keyboard-response","217","1211190","0.0-215.0","AHPOOKYE7V04D","<p style=""font-size: 48px;"">+</p>","","","","","null","allTrialResponses","1500","1","24","img_art/3.jpg","-18","too generic of an abstract piece","Charles,Gabriel,Eric,Benjamin,Taylor,Jacob","I like that it feels kind of simple but still chaotic,6,100,20","just scribbles, not pleasing,-30,160,20","This piece makes me think it has a backstory or a reason which I like.,5,100,20","seems to be a lot of angry scribble.,-20,260,20","Why kids with color crayons is called art is beyond me. People pay for this???,-40,200,20","Don't get the scribbles.,-13,340,20","Benjamin","seems to be a lot of angry scribble.,-20,260,20","Gabriel","just scribbles, not pleasing,-30,160,20","Jacob","Don't get the scribbles.,-13,340,20","4"
"10177","","survey-text","218","1221391","0.0-216.0-0.0","AHPOOKYE7V04D","","","","{""Q0"":""white figures very interesting""}","","","","","","","","","","","","","","","","","","","","","","",""
"8884.200000047684","","image-slider-response","219","1230281","0.0-217.0","AHPOOKYE7V04D","","","","","2","","","","","","","","","","","","","","","","","","","","","",""
"null","","image-button-response","220","1235295","0.0-218.0","AHPOOKYE7V04D","img_art/23.jpg","null","","","","","","","","","","","","","","","","","","","","","","","","",""
"7716","","image-button-response","221","1243018","0.0-219.0","AHPOOKYE7V04D","img_art/23.jpg","4","","","","","","","","","","","","","","","","","","","","","","","","",""
"2290","","image-button-response","222","1245318","0.0-220.0-0.0","AHPOOKYE7V04D","img_art/23.jpg","2","","","","","","","","","","","","","","","","","","","","","","","","",""
"665","","image-button-response","223","1245993","0.0-221.0-0.0","AHPOOKYE7V04D","img_art/23.jpg","1","","","","","","","","","","","","","","","","","","","","","","","","",""
"null","","html-keyboard-response","224","1247012","0.0-222.0","AHPOOKYE7V04D","<p style=""font-size: 48px;"">+</p>","","","","","null","allTrialResponses","1000","1","25","img_art/23.jpg","2","white figures very interesting","Jose,Gabriel,Richard,Benjamin,Mitchell,Jacob","This one is awesome, kinda looks like a cake with sprinkles but in a different universe,50,200,20","i think this ones okay,10,160,20","it's OK, but just OK, kind of interesting but I wouldn't spend money on it,4,340,20","The background colors seem too dark and the middle images take away from it.,4,260,20","Partying, dancing, delusion, kaus.,10,180,20","This is very cool!,24,340,20","Mitchell","Partying, dancing, delusion, kaus.,10,180,20","Richard","it's OK, but just OK, kind of interesting but I wouldn't spend money on it,4,340,20","Gabriel","i think this ones okay,10,160,20","4"
"3433","","survey-text","225","1250474","0.0-223.0-0.0","AHPOOKYE7V04D","","","","{""Q0"":""table""}","","","","","","","","","","","","","","","","","","","","","","",""
"9282","","survey-text","226","1259759","0.0-224.0-0.0","AHPOOKYE7V04D","","","","{""Q0"":""seems kind of random""}","","","","","","","","","","","","","","","","","","","","","","",""
"6410.600000023842","","image-slider-response","227","1266176","0.0-225.0","AHPOOKYE7V04D","","","","","-27","","","","","","","","","","","","","","","","","","","","","",""
"3825","","image-button-response","228","1271180","0.0-226.0","AHPOOKYE7V04D","img_art/30.jpg","0","","","","","","","","","","","","","","","","","","","","","","","","",""
"656","","image-button-response","229","1271840","0.0-227.0","AHPOOKYE7V04D","img_art/30.jpg","1","","","","","","","","","","","","","","","","","","","","","","","","",""
"580","","image-button-response","230","1272428","0.0-228.0-0.0","AHPOOKYE7V04D","img_art/30.jpg","0","","","","","","","","","","","","","","","","","","","","","","","","",""
"3185","","image-button-response","231","1275622","0.0-229.0-0.0","AHPOOKYE7V04D","img_art/30.jpg","0","","","","","","","","","","","","","","","","","","","","","","","","",""
"1165","","image-button-response","232","1282430","0.0-229.1-0.1","AHPOOKYE7V04D","img_art/30.jpg","1","","","","","","","","","","","","","","","","","","","","","","","","",""
"735","","image-button-response","233","1286477","0.0-229.2-0.2","AHPOOKYE7V04D","img_art/30.jpg","0","","","","","","","","","","","","","","","","","","","","","","","","",""
"1094","","image-button-response","234","1291855","0.0-229.3-0.3","AHPOOKYE7V04D","img_art/30.jpg","2","","","","","","","","","","","","","","","","","","","","","","","","",""
"null","","html-keyboard-response","235","1292872","0.0-230.0","AHPOOKYE7V04D","<p style=""font-size: 48px;"">+</p>","","","","","null","allTrialResponses","1000","1","26","img_art/30.jpg","-27","seems kind of random","Christopher,Gabriel,Richard,Caleb,Mitchell,Marcus","looks simple, I can't see a lot of care going into this,-33,160,20","dont like this much at all,-30,160,20","looks very childish, like your kid did it,-33,340,20","Colors are nice but it just seems too simple.,-26,40,20","connection, Everything is connected even in contrast.,42,180,20","Really don't like this piece. It feels very lazy to me.,-31,60,20","Gabriel","dont like this much at all,-30,160,20","Christopher","looks simple, I can't see a lot of care going into this,-33,160,20","Richard","looks very childish, like your kid did it,-33,340,20","10"
"11361","","survey-text","236","1304245","0.0-231.0-0.0","AHPOOKYE7V04D","","","","{""Q0"":""bleak postapocalyptic landscape""}","","","","","","","","","","","","","","","","","","","","","","",""
"6582.200000047684","","image-slider-response","237","1310831","0.0-232.0","AHPOOKYE7V04D","","","","","-22","","","","","","","","","","","","","","","","","","","","","",""
"null","","image-button-response","238","1315846","0.0-233.0","AHPOOKYE7V04D","img_art/20.jpg","null","","","","","","","","","","","","","","","","","","","","","","","","",""
"1159","","image-button-response","239","1317008","0.0-234.0","AHPOOKYE7V04D","img_art/20.jpg","1","","","","","","","","","","","","","","","","","","","","","","","","",""
"4667","","image-button-response","240","1321678","0.0-235.0-0.0","AHPOOKYE7V04D","img_art/20.jpg","0","","","","","","","","","","","","","","","","","","","","","","","","",""
"1857","","image-button-response","241","1323540","0.0-236.0-0.0","AHPOOKYE7V04D","img_art/20.jpg","4","","","","","","","","","","","","","","","","","","","","","","","","",""
"null","","html-keyboard-response","242","1325054","0.0-237.0","AHPOOKYE7V04D","<p style=""font-size: 48px;"">+</p>","","","","","null","allTrialResponses","1500","1","27","img_art/20.jpg","-22","bleak postapocalyptic landscape","Christopher,Gabriel,Richard,Luis,Garrett,Juan","i ind of like this, it's saying something but not my style,6,160,20","i almost feel like i can recognize what this is,-6,160,20","The white blob on the left seems out of place,-34,340,20","I love the way it expresses dark nature and uncontrolled situations.,44,400,20","I really like this. There are lots of objects the artist wanted to show and the colors are good.,38,180,20","I like the deep blues, but I don't like the way this picture makes me feel.,-13,260,20","Gabriel","i almost feel like i can recognize what this is,-6,160,20","Christopher","i ind of like this, it's saying something but not my style,6,160,20","Garrett","I really like this. There are lots of objects the artist wanted to show and the colors are good.,38,180,20","10"
"11748","","survey-text","243","1336830","0.0-238.0-0.0","AHPOOKYE7V04D","","","","{""Q0"":""I really enjoy the figure at center""}","","","","","","","","","","","","","","","","","","","","","","",""
"3961","","image-slider-response","244","1340796","0.0-239.0","AHPOOKYE7V04D","","","","","11","","","","","","","","","","","","","","","","","","","","","",""
"3606","","image-button-response","245","1345814","0.0-240.0","AHPOOKYE7V04D","img_art/14.jpg","4","","","","","","","","","","","","","","","","","","","","","","","","",""
"1136","","image-button-response","246","1346955","0.0-241.0","AHPOOKYE7V04D","img_art/14.jpg","4","","","","","","","","","","","","","","","","","","","","","","","","",""
"1592","","image-button-response","247","1348555","0.0-242.0-0.0","AHPOOKYE7V04D","img_art/14.jpg","1","","","","","","","","","","","","","","","","","","","","","","","","",""
"1220","","image-button-response","248","1349787","0.0-243.0-0.0","AHPOOKYE7V04D","img_art/14.jpg","3","","","","","","","","","","","","","","","","","","","","","","","","",""
"null","","html-keyboard-response","249","1350792","0.0-244.0","AHPOOKYE7V04D","<p style=""font-size: 48px;"">+</p>","","","","","null","allTrialResponses","1000","1","28","img_art/14.jpg","11","I really enjoy the figure at center","Christopher,Gabriel,Jared,Evan,Garrett,Corey","this looks pretty childish,-15,160,20","i like this one!,23,160,20","it put me on edge.,-11,400,20","I like the sharpness of the lines,20,140,20","I like this picture because it looks like a tree and the colors used look cool.,20,180,20","its okay. pretty bland but looks like nature,8,260,20","Garrett","I like this picture because it looks like a tree and the colors used look cool.,20,180,20","Gabriel","i like this one!,23,160,20","Evan","I like the sharpness of the lines,20,140,20","10"
"8677","","survey-text","250","1359478","0.0-245.0-0.0","AHPOOKYE7V04D","","","","{""Q0"":""what a striking, stark figure""}","","","","","","","","","","","","","","","","","","","","","","",""
"3322.7000000476837","","image-slider-response","251","1362806","0.0-246.0","AHPOOKYE7V04D","","","","","21","","","","","","","","","","","","","","","","","","","","","",""
"null","","image-button-response","252","1367813","0.0-247.0","AHPOOKYE7V04D","img_art/6.jpg","null","","","","","","","","","","","","","","","","","","","","","","","","",""
"714","","image-button-response","253","1368533","0.0-248.0","AHPOOKYE7V04D","img_art/6.jpg","5","","","","","","","","","","","","","","","","","","","","","","","","",""
"2234","","image-button-response","254","1370774","0.0-249.0-0.0","AHPOOKYE7V04D","img_art/6.jpg","0","","","","","","","","","","","","","","","","","","","","","","","","",""
"1787","","image-button-response","255","1372573","0.0-250.0-0.0","AHPOOKYE7V04D","img_art/6.jpg","3","","","","","","","","","","","","","","","","","","","","","","","","",""
"null","","html-keyboard-response","256","1373079","0.0-251.0","AHPOOKYE7V04D","<p style=""font-size: 48px;"">+</p>","","","","","null","allTrialResponses","500","1","29","img_art/6.jpg","21","what a striking, stark figure","Scott,Gabriel,Dakota,Evan,Garrett,Seth","reminds me of a bird,31,20,20","its like a jalapeno,-28,160,20","graceful and light,35,280,20","I am intrigued but unsure whether I enjoy this or not,6,140,20","I can't tell what this image is, but it's boring because of lack of color variety and nothing in it,-41,180,20","I love it. It reminds me of a bird sitting on a wall.,26,60,20","Seth","I love it. It reminds me of a bird sitting on a wall.,26,60,20","Scott","reminds me of a bird,31,20,20","Evan","I am intrigued but unsure whether I enjoy this or not,6,140,20","10"
"9623","","survey-text","257","1382713","0.0-252.0-0.0","AHPOOKYE7V04D","","","","{""Q0"":""do not like the color palette""}","","","","","","","","","","","","","","","","","","","","","","",""
"4535.800000071526","","image-slider-response","258","1387254","0.0-253.0","AHPOOKYE7V04D","","","","","23","","","","","","","","","","","","","","","","","","","","","",""
"2483","","image-button-response","259","1392262","0.0-254.0","AHPOOKYE7V04D","img_art/22.jpg","1","","","","","","","","","","","","","","","","","","","","","","","","",""
"322","","image-button-response","260","1392591","0.0-255.0","AHPOOKYE7V04D","img_art/22.jpg","2","","","","","","","","","","","","","","","","","","","","","","","","",""
"2099","","image-button-response","261","1394701","0.0-256.0-0.0","AHPOOKYE7V04D","img_art/22.jpg","4","","","","","","","","","","","","","","","","","","","","","","","","",""
"2889","","image-button-response","262","1397601","0.0-257.0-0.0","AHPOOKYE7V04D","img_art/22.jpg","3","","","","","","","","","","","","","","","","","","","","","","","","",""
"null","","html-keyboard-response","263","1399116","0.0-258.0","AHPOOKYE7V04D","<p style=""font-size: 48px;"">+</p>","","","","","null","allTrialResponses","1500","1","30","img_art/22.jpg","23","do not like the color palette","Scott,Brandon,Bradley,Evan,Justin,Seth","really beautiful colors and contrast,30,20,20","Don't like this type of abstract work,-39,320,20","I like this one. There is a lot to see if you keep looking for it.,27,300,20","I enjoy the vibrant colors,23,140,20","It reminds me of sunsets and dusks.,22,280,20","I think the colors are beautiful they remind me of a sunset.,13,60,20","Bradley","I like this one. There is a lot to see if you keep looking for it.,27,300,20","Justin","It reminds me of sunsets and dusks.,22,280,20","Evan","I enjoy the vibrant colors,23,140,20","10"
"4660","","image-button-response_instructions","264","1403801","0.0-259.0","AHPOOKYE7V04D","","0","instructions","","","","","","","","","","","","","","","","","","","","","","","",""
"3295","","image-button-response","265","1407105","0.0-260.0","AHPOOKYE7V04D","","0","","","","","","","","","","","","","","","","","","","","","","","","",""
