"rt","url","trial_type","trial_index","time_elapsed","internal_node_id","participant_id","stimulus","button_pressed","Name","responses","response","key_press","variableName","fixationTime","condition","trial","photo","subjectRating","subjectResponse","agentsNames","agent_1_Response","agent_2_Response","agent_3_Response","agent_4_Response","agent_5_Response","agent_6_Response","kept_1_name","kept_1_response","kept_2_name","kept_2_response","kept_3_name","kept_3_response","errorCounter"
"9233","external_page_harvard.html","external-html","0","9365","0.0-0.0","AHZ7C7ETHYX3N","","","","","","","","","","","","","","","","","","","","","","","","","","",""
"1645","","image-button-response","1","11012","0.0-1.0","AHZ7C7ETHYX3N","","0","","","","","","","","","","","","","","","","","","","","","","","","",""
"1579","","image-button-response","2","12596","0.0-2.0-0.0","AHZ7C7ETHYX3N","","1","phone","","","","","","","","","","","","","","","","","","","","","","","",""
"2971","","survey-text","3","15569","0.0-3.0-0.0","AHZ7C7ETHYX3N","","","","{""Q0"":""AHZ7C7ETHYX3N""}","","","","","","","","","","","","","","","","","","","","","","",""
"16551","","image-button-response_instructions","4","32122","0.0-4.0","AHZ7C7ETHYX3N","","0","instructions","","","","","","","","","","","","","","","","","","","","","","","",""
"22971","","image-button-response_instructions","5","55094","0.0-5.0","AHZ7C7ETHYX3N","img_art/ins/popularity/ins1.png","0","instructions","","","","","","","","","","","","","","","","","","","","","","","",""
"4049","","image-button-response_instructions","6","59143","0.0-6.0","AHZ7C7ETHYX3N","img_art/ins/popularity/ins2.png","0","instructions","","","","","","","","","","","","","","","","","","","","","","","",""
"5412","","image-button-response_instructions","7","64556","0.0-7.0","AHZ7C7ETHYX3N","img_art/ins/popularity/ins2Extreme.png","0","instructions","","","","","","","","","","","","","","","","","","","","","","","",""
"3472","","image-button-response_instructions","8","68030","0.0-8.0","AHZ7C7ETHYX3N","img_art/ins/popularity/ins3KEEPpop.PNG","0","instructions","","","","","","","","","","","","","","","","","","","","","","","",""
"4158","","image-button-response_instructions","9","72189","0.0-9.0","AHZ7C7ETHYX3N","img_art/ins/popularity/ins3ANamepop.PNG","0","instructions","","","","","","","","","","","","","","","","","","","","","","","",""
"2554","","image-button-response_instructions","10","74745","0.0-10.0","AHZ7C7ETHYX3N","img_art/ins/popularity/ins3ARatingpop.png","0","instructions","","","","","","","","","","","","","","","","","","","","","","","",""
"3011","","image-button-response_instructions","11","77758","0.0-11.0","AHZ7C7ETHYX3N","img_art/ins/popularity/ins3ATextpop.png","0","instructions","","","","","","","","","","","","","","","","","","","","","","","",""
"3622","","image-button-response_instructions","12","81382","0.0-12.0","AHZ7C7ETHYX3N","img_art/ins/popularity/ins3ALikespop.png","0","instructions","","","","","","","","","","","","","","","","","","","","","","","",""
"8380","","image-button-response_instructions","13","89763","0.0-13.0","AHZ7C7ETHYX3N","img_art/ins/popularity/ins3KEEPpop.PNG","0","instructions","","","","","","","","","","","","","","","","","","","","","","","",""
"4740","","image-button-response_instructions","14","94505","0.0-14.0","AHZ7C7ETHYX3N","img_art/ins/popularity/ins3_5RED.png","0","instructions","","","","","","","","","","","","","","","","","","","","","","","",""
"4117","","image-button-response_instructions","15","98624","0.0-15.0","AHZ7C7ETHYX3N","img_art/ins/popularity/ins3KEEPpop.PNG","0","instructions","","","","","","","","","","","","","","","","","","","","","","","",""
"4712","","image-button-response_instructions","16","103338","0.0-16.0","AHZ7C7ETHYX3N","img_art/ins/popularity/ins4KEEPpop.PNG","0","instructions","","","","","","","","","","","","","","","","","","","","","","","",""
"3349","","image-button-response_instructions","17","106689","0.0-17.0","AHZ7C7ETHYX3N","img_art/ins/popularity/ins5KEEPpop.PNG","0","instructions","","","","","","","","","","","","","","","","","","","","","","","",""
"1080","","image-button-response_instructions","18","107771","0.0-18.0","AHZ7C7ETHYX3N","","0","instructions","","","","","","","","","","","","","","","","","","","","","","","",""
"9688","","survey-text","19","117489","0.0-19.0-0.0","AHZ7C7ETHYX3N","","","","{""Q0"":""but""}","","","","","","","","","","","","","","","","","","","","","","",""
"10060","","survey-text","20","127552","0.0-20.0-0.0","AHZ7C7ETHYX3N","","","","{""Q0"":""its calming and relaxing to me""}","","","","","","","","","","","","","","","","","","","","","","",""
"8060.099999964237","","image-slider-response","21","135614","0.0-21.0","AHZ7C7ETHYX3N","","","","","22","","","","","","","","","","","","","","","","","","","","","",""
"3426","","image-button-response","22","140618","0.0-22.0","AHZ7C7ETHYX3N","img_art/ins/1.jpg","1","","","","","","","","","","","","","","","","","","","","","","","","",""
"1481","","image-button-response","23","142102","0.0-23.0","AHZ7C7ETHYX3N","img_art/ins/1.jpg","3","","","","","","","","","","","","","","","","","","","","","","","","",""
"10133","","image-button-response","24","152237","0.0-24.0-0.0","AHZ7C7ETHYX3N","img_art/ins/1.jpg","5","","","","","","","","","","","","","","","","","","","","","","","","",""
"9399","","image-button-response","25","161639","0.0-25.0-0.0","AHZ7C7ETHYX3N","img_art/ins/1.jpg","1","","","","","","","","","","","","","","","","","","","","","","","","",""
"null","","html-keyboard-response","26","162149","0.0-26.0","AHZ7C7ETHYX3N","<p style=""font-size: 48px;"">+</p>","","","","","null","allTrialResponses","500","1","-2","img_art/ins/1.jpg","22","its calming and relaxing to me","Adam,Alex,Ben,Carl,Daniel,Jack","Seems like doodles,-20,20,20","very creative work.,36,40,20","This color reminds me of poo,-46,60,20","very calming artwork,42,80,20","It looks like a murder scene.,-48,100,20","I like the sophisticated brushwork,40,120,20","Carl","very calming artwork,42,80,20","Jack","I like the sophisticated brushwork,40,120,20","Alex","very creative work.,36,40,20","0"
"20426","","survey-text","27","182581","0.0-27.0-0.0","AHZ7C7ETHYX3N","","","","{""Q0"":""somewhat harsh for me, dont like shade of red""}","","","","","","","","","","","","","","","","","","","","","","",""
"4028.699999988079","","image-slider-response","28","186612","0.0-28.0","AHZ7C7ETHYX3N","","","","","-35","","","","","","","","","","","","","","","","","","","","","",""
"4091","","image-button-response","29","191616","0.0-29.0","AHZ7C7ETHYX3N","img_art/ins/2.jpg","0","","","","","","","","","","","","","","","","","","","","","","","","",""
"7606","","image-button-response","30","199224","0.0-30.0","AHZ7C7ETHYX3N","img_art/ins/2.jpg","2","","","","","","","","","","","","","","","","","","","","","","","","",""
"4852","","image-button-response","31","204077","0.0-31.0-0.0","AHZ7C7ETHYX3N","img_art/ins/2.jpg","3","","","","","","","","","","","","","","","","","","","","","","","","",""
"1512","","image-button-response","32","205592","0.0-32.0-0.0","AHZ7C7ETHYX3N","img_art/ins/2.jpg","5","","","","","","","","","","","","","","","","","","","","","","","","",""
"null","","html-keyboard-response","33","206595","0.0-33.0","AHZ7C7ETHYX3N","<p style=""font-size: 48px;"">+</p>","","","","","null","allTrialResponses","1000","1","-1","img_art/ins/2.jpg","-35","somewhat harsh for me, dont like shade of red","James,Alex,Kyle,Carl,John,Jack","looks too angry,-50,140,20","I like the blocks of color arrangements,30,40,20","Idk, it is just annoying,-32,180,20","I can feel the artist's passion in it,45,80,20","love the texture of paint,48,160,20","I would never be able to compose a sophisticated pallete like this,48,120,20","Kyle","Idk, it is just annoying,-32,180,20","Carl","I can feel the artist's passion in it,45,80,20","Jack","I would never be able to compose a sophisticated pallete like this,48,120,20","0"
"26226","","survey-text","34","232824","0.0-34.0-0.0","AHZ7C7ETHYX3N","","","","{""Q0"":""Its interesting to me, birds in flight""}","","","","","","","","","","","","","","","","","","","","","","",""
"3471.699999988079","","image-slider-response","35","236298","0.0-35.0","AHZ7C7ETHYX3N","","","","","40","","","","","","","","","","","","","","","","","","","","","",""
"1692","","image-button-response","36","241305","0.0-36.0","AHZ7C7ETHYX3N","img_art/ins/3.jpg","0","","","","","","","","","","","","","","","","","","","","","","","","",""
"523","","image-button-response","37","241830","0.0-37.0","AHZ7C7ETHYX3N","img_art/ins/3.jpg","2","","","","","","","","","","","","","","","","","","","","","","","","",""
"4414","","image-button-response","38","246246","0.0-38.0-0.0","AHZ7C7ETHYX3N","img_art/ins/3.jpg","5","","","","","","","","","","","","","","","","","","","","","","","","",""
"4217","","image-button-response","39","250465","0.0-39.0-0.0","AHZ7C7ETHYX3N","img_art/ins/3.jpg","1","","","","","","","","","","","","","","","","","","","","","","","","",""
"null","","html-keyboard-response","40","251967","0.0-40.0","AHZ7C7ETHYX3N","<p style=""font-size: 48px;"">+</p>","","","","","null","allTrialResponses","1500","1","0","img_art/ins/3.jpg","40","Its interesting to me, birds in flight","Mike,Sam,Kyle,Carl,Ron,Jack","enjoy the different shades of blue,22,200,20","I can feel a rainy day from this painting,18,240,20","It looks like a playground for bats,-36,180,20","It's an alright work,15,80,20","It looks depressing,-26,220,20","I feel connected to the artist,40,120,20","Kyle","It looks like a playground for bats,-36,180,20","Jack","I feel connected to the artist,40,120,20","Sam","I can feel a rainy day from this painting,18,240,20","0"
"5418","","image-button-response_instructions","41","257389","0.0-41.0","AHZ7C7ETHYX3N","","0","instructions","","","","","","","","","","","","","","","","","","","","","","","",""
"45450","","survey-likert","42","302841","0.0-42.0-0.0","AHZ7C7ETHYX3N","","","","{""Q0"":"""",""Q1"":0,""Q2"":1}","","","","","","","","","","","","","","","","","","","","","","",""
"4850","","survey-text","43","307696","0.0-43.0-0.0","AHZ7C7ETHYX3N","","","","{""Q0"":""rock""}","","","","","","","","","","","","","","","","","","","","","","",""
"20466","","survey-text","44","328165","0.0-44.0-0.0","AHZ7C7ETHYX3N","","","","{""Q0"":""looks like a ship in distress to me""}","","","","","","","","","","","","","","","","","","","","","","",""
"4639.600000023842","","image-slider-response","45","332807","0.0-45.0","AHZ7C7ETHYX3N","","","","","-9","","","","","","","","","","","","","","","","","","","","","",""
"4264","","image-button-response","46","337845","0.0-46.0","AHZ7C7ETHYX3N","img_art/9.jpg","2","","","","","","","","","","","","","","","","","","","","","","","","",""
"1447","","image-button-response","47","339294","0.0-47.0","AHZ7C7ETHYX3N","img_art/9.jpg","2","","","","","","","","","","","","","","","","","","","","","","","","",""
"2500","","image-button-response","48","341796","0.0-48.0-0.0","AHZ7C7ETHYX3N","img_art/9.jpg","4","","","","","","","","","","","","","","","","","","","","","","","","",""
"5062","","image-button-response","49","346862","0.0-49.0-0.0","AHZ7C7ETHYX3N","img_art/9.jpg","0","","","","","","","","","","","","","","","","","","","","","","","","",""
"null","","html-keyboard-response","50","347367","0.0-50.0","AHZ7C7ETHYX3N","<p style=""font-size: 48px;"">+</p>","","","","","null","allTrialResponses","500","1","1","img_art/9.jpg","-9","looks like a ship in distress to me","Ryan,Evan,Joshua,Kevin,Brandon,Tanner","Makes me feel angry, its not very clear,-50,380,20","It makes me think of Snow White sleeping,11,140,20","Someone lying in bed?  Don't care for it.,-14,240,20","This is a picture of a scary mans head sideways.,-24,320,20","I like the sense of forboding, the green creates a claustrophobic feeling,10,320,20","sleep, calm, safe,12,180,20","Joshua","Someone lying in bed?  Don't care for it.,-14,240,20","Brandon","I like the sense of forboding, the green creates a claustrophobic feeling,10,320,20","Ryan","Makes me feel angry, its not very clear,-50,380,20","0"
"30083","","survey-text","51","377458","0.0-51.0-0.0","AHZ7C7ETHYX3N","","","","{""Q0"":""not sure what to make of this, confusing monochrome""}","","","","","","","","","","","","","","","","","","","","","","",""
"2735.699999988079","","image-slider-response","52","380195","0.0-52.0","AHZ7C7ETHYX3N","","","","","-32","","","","","","","","","","","","","","","","","","","","","",""
"null","","image-button-response","53","385198","0.0-53.0","AHZ7C7ETHYX3N","img_art/10.jpg","null","","","","","","","","","","","","","","","","","","","","","","","","",""
"2487","","image-button-response","54","387687","0.0-54.0","AHZ7C7ETHYX3N","img_art/10.jpg","3","","","","","","","","","","","","","","","","","","","","","","","","",""
"750","","image-button-response","55","388439","0.0-55.0-0.0","AHZ7C7ETHYX3N","img_art/10.jpg","4","","","","","","","","","","","","","","","","","","","","","","","","",""
"5465","","image-button-response","56","393906","0.0-56.0-0.0","AHZ7C7ETHYX3N","img_art/10.jpg","1","","","","","","","","","","","","","","","","","","","","","","","","",""
"null","","html-keyboard-response","57","394907","0.0-57.0","AHZ7C7ETHYX3N","<p style=""font-size: 48px;"">+</p>","","","","","null","allTrialResponses","1000","1","2","img_art/10.jpg","-32","not sure what to make of this, confusing monochrome","Ryan,Carlos,Joshua,Bryce,Brandon,Stephen","Reminds me of a beautiful ship wreck,36,380,20","The colors and shapes are soothing but also disconcerting.,21,80,20","This one is interesting. I like it.,11,240,20","Kinda creepy not my favorite,-26,20,20","Too abstract and it doesn't really remind me of anything,-40,320,20","Very nice painting, would like it more with different color choice.,6,140,20","Bryce","Kinda creepy not my favorite,-26,20,20","Brandon","Too abstract and it doesn't really remind me of anything,-40,320,20","Carlos","The colors and shapes are soothing but also disconcerting.,21,80,20","0"
"30282","","survey-text","58","425194","0.0-58.0-0.0","AHZ7C7ETHYX3N","","","","{""Q0"":""interesting city scape, like the water colors""}","","","","","","","","","","","","","","","","","","","","","","",""
"3125.899999976158","","image-slider-response","59","428322","0.0-59.0","AHZ7C7ETHYX3N","","","","","22","","","","","","","","","","","","","","","","","","","","","",""
"3583","","image-button-response","60","433332","0.0-60.0","AHZ7C7ETHYX3N","img_art/26.jpg","2","","","","","","","","","","","","","","","","","","","","","","","","",""
"691","","image-button-response","61","434025","0.0-61.0","AHZ7C7ETHYX3N","img_art/26.jpg","2","","","","","","","","","","","","","","","","","","","","","","","","",""
"1582","","image-button-response","62","435609","0.0-62.0-0.0","AHZ7C7ETHYX3N","img_art/26.jpg","3","","","","","","","","","","","","","","","","","","","","","","","","",""
"3771","","image-button-response","63","439381","0.0-63.0-0.0","AHZ7C7ETHYX3N","img_art/26.jpg","5","","","","","","","","","","","","","","","","","","","","","","","","",""
"null","","html-keyboard-response","64","439888","0.0-64.0","AHZ7C7ETHYX3N","<p style=""font-size: 48px;"">+</p>","","","","","null","allTrialResponses","500","1","3","img_art/26.jpg","22","interesting city scape, like the water colors","Alejandro,Carlos,Kyle,Bryce,Brandon,Jose","Do not like water colors at all,-50,80,20","Pleasant but bland.,10,80,20","This seems like a quiet painting,11,340,20","Love the colors in this one.,22,20,20","Much too simple and without color for my taste,-33,320,20","This style of objects that are supposed to be something but then are blurry is interesting.,38,200,20","Kyle","This seems like a quiet painting,11,340,20","Bryce","Love the colors in this one.,22,20,20","Jose","This style of objects that are supposed to be something but then are blurry is interesting.,38,200,20","0"
"21444","","survey-text","65","461335","0.0-65.0-0.0","AHZ7C7ETHYX3N","","","","{""Q0"":""not interested in the car wreck at all""}","","","","","","","","","","","","","","","","","","","","","","",""
"3706.400000035763","","image-slider-response","66","465044","0.0-66.0","AHZ7C7ETHYX3N","","","","","-50","","","","","","","","","","","","","","","","","","","","","",""
"4729","","image-button-response","67","470046","0.0-67.0","AHZ7C7ETHYX3N","img_art/14.jpg","3","","","","","","","","","","","","","","","","","","","","","","","","",""
"7758","","image-button-response","68","477805","0.0-68.0","AHZ7C7ETHYX3N","img_art/14.jpg","2","","","","","","","","","","","","","","","","","","","","","","","","",""
"2319","","image-button-response","69","480125","0.0-69.0-0.0","AHZ7C7ETHYX3N","img_art/14.jpg","3","","","","","","","","","","","","","","","","","","","","","","","","",""
"1912","","image-button-response","70","482039","0.0-70.0-0.0","AHZ7C7ETHYX3N","img_art/14.jpg","5","","","","","","","","","","","","","","","","","","","","","","","","",""
"null","","html-keyboard-response","71","483043","0.0-71.0","AHZ7C7ETHYX3N","<p style=""font-size: 48px;"">+</p>","","","","","null","allTrialResponses","1000","1","4","img_art/14.jpg","-50","not interested in the car wreck at all","Trevor,Devon,Kyle,Bryce,John,Jose","has a tree look to it and it's colors are happy,9,280,20","this would make a very beautiful art project,22,400,20","The colors are nice and it reminds me of a shrub or tree,10,340,20","The red looks like blood and im not a huge fan,15,20,20","Beautiful tree,the use of water colors makes it soothing to look at,37,120,20","I don't like the color red,30,200,20","Kyle","The colors are nice and it reminds me of a shrub or tree,10,340,20","Bryce","The red looks like blood and im not a huge fan,15,20,20","Jose","I don't like the color red,30,200,20","0"
"18702","","survey-text","72","501752","0.0-72.0-0.0","AHZ7C7ETHYX3N","","","","{""Q0"":""I like this it draws me in somehow""}","","","","","","","","","","","","","","","","","","","","","","",""
"4186.199999988079","","image-slider-response","73","505940","0.0-73.0","AHZ7C7ETHYX3N","","","","","41","","","","","","","","","","","","","","","","","","","","","",""
"4963","","image-button-response","74","510954","0.0-74.0","AHZ7C7ETHYX3N","img_art/24.jpg","2","","","","","","","","","","","","","","","","","","","","","","","","",""
"561","","image-button-response","75","511517","0.0-75.0","AHZ7C7ETHYX3N","img_art/24.jpg","2","","","","","","","","","","","","","","","","","","","","","","","","",""
"1206","","image-button-response","76","512725","0.0-76.0-0.0","AHZ7C7ETHYX3N","img_art/24.jpg","3","","","","","","","","","","","","","","","","","","","","","","","","",""
"1527","","image-button-response","77","514255","0.0-77.0-0.0","AHZ7C7ETHYX3N","img_art/24.jpg","4","","","","","","","","","","","","","","","","","","","","","","","","",""
"null","","html-keyboard-response","78","514770","0.0-78.0","AHZ7C7ETHYX3N","<p style=""font-size: 48px;"">+</p>","","","","","null","allTrialResponses","500","1","5","img_art/24.jpg","41","I like this it draws me in somehow","Hunter,Dakota,Kyle,Bryce,Steven,Jose","feels overdone, but still executed well,0,240,20","chunky fresh color,27,280,20","This one is nice because it reminds me of nature,18,340,20","Looks like a waterfall!,34,20,20","It's beautiful! I love it! I see a waterfall, and they are my favorite things in the world,50,160,20","The combination of nature / realism with abstract colors is unique.,39,200,20","Kyle","This one is nice because it reminds me of nature,18,340,20","Bryce","Looks like a waterfall!,34,20,20","Steven","It's beautiful! I love it! I see a waterfall, and they are my favorite things in the world,50,160,20","0"
"4465","","survey-text","79","519243","0.0-79.0-0.0","AHZ7C7ETHYX3N","","","","{""Q0"":""sky""}","","","","","","","","","","","","","","","","","","","","","","",""
"23544","","survey-text","80","542789","0.0-80.0-0.0","AHZ7C7ETHYX3N","","","","{""Q0"":""makes me nervous, Im looking away""}","","","","","","","","","","","","","","","","","","","","","","",""
"3050.300000011921","","image-slider-response","81","545841","0.0-81.0","AHZ7C7ETHYX3N","","","","","-50","","","","","","","","","","","","","","","","","","","","","",""
"3771","","image-button-response","82","550855","0.0-82.0","AHZ7C7ETHYX3N","img_art/15.jpg","4","","","","","","","","","","","","","","","","","","","","","","","","",""
"740","","image-button-response","83","551597","0.0-83.0","AHZ7C7ETHYX3N","img_art/15.jpg","5","","","","","","","","","","","","","","","","","","","","","","","","",""
"531","","image-button-response","84","552130","0.0-84.0-0.0","AHZ7C7ETHYX3N","img_art/15.jpg","4","","","","","","","","","","","","","","","","","","","","","","","","",""
"5244","","image-button-response","85","557376","0.0-85.0-0.0","AHZ7C7ETHYX3N","img_art/15.jpg","3","","","","","","","","","","","","","","","","","","","","","","","","",""
"null","","html-keyboard-response","86","557886","0.0-86.0","AHZ7C7ETHYX3N","<p style=""font-size: 48px;"">+</p>","","","","","null","allTrialResponses","500","1","6","img_art/15.jpg","-50","makes me nervous, Im looking away","Tristan,Vincent,Kyle,Bryce,Steven,Adrian","basic colors and pleasing shapes providing a calming effect,15,300,20","I like the colors and the different style This brings,7,360,20","I like it as the colors complement each other well,21,340,20","The dots are cool with the blue accents.,24,20,20","I'm just not into it,-5,160,20","Not a fan. This piece would only go with very specific decor in a modern home.,-35,60,20","Adrian","Not a fan. This piece would only go with very specific decor in a modern home.,-35,60,20","Steven","I'm just not into it,-5,160,20","Bryce","The dots are cool with the blue accents.,24,20,20","0"
"33584","","survey-text","87","591475","0.0-87.0-0.0","AHZ7C7ETHYX3N","","","","{""Q0"":""looks like photo nothing about enjoyable to look at""}","","","","","","","","","","","","","","","","","","","","","","",""
"3440.7000000476837","","image-slider-response","88","594918","0.0-88.0","AHZ7C7ETHYX3N","","","","","-42","","","","","","","","","","","","","","","","","","","","","",""
"3512","","image-button-response","89","599925","0.0-89.0","AHZ7C7ETHYX3N","img_art/7.jpg","1","","","","","","","","","","","","","","","","","","","","","","","","",""
"1023","","image-button-response","90","600951","0.0-90.0","AHZ7C7ETHYX3N","img_art/7.jpg","0","","","","","","","","","","","","","","","","","","","","","","","","",""
"1198","","image-button-response","91","602151","0.0-91.0-0.0","AHZ7C7ETHYX3N","img_art/7.jpg","1","","","","","","","","","","","","","","","","","","","","","","","","",""
"1102","","image-button-response","92","603255","0.0-92.0-0.0","AHZ7C7ETHYX3N","img_art/7.jpg","0","","","","","","","","","","","","","","","","","","","","","","","","",""
"2753","","image-button-response","93","609006","0.0-92.1-0.1","AHZ7C7ETHYX3N","img_art/7.jpg","5","","","","","","","","","","","","","","","","","","","","","","","","",""
"null","","html-keyboard-response","94","609516","0.0-93.0","AHZ7C7ETHYX3N","<p style=""font-size: 48px;"">+</p>","","","","","null","allTrialResponses","500","1","7","img_art/7.jpg","-42","looks like photo nothing about enjoyable to look at","Jared,Derek,Brendan,Bryce,Steven,Adrian","it looks like a dog ran through some wet cement,-22,400,20","Not a fan of the pattern or colors,-40,360,20","some rocks on a mars?,7,340,20","I love the texture.,20,20,20","looks like the surface of the moon.,1,160,20","It's dirty. I don't mind the colors so much as the way they are put together in this dirty-looking pattern.,-41,60,20","Jared","it looks like a dog ran through some wet cement,-22,400,20","Derek","Not a fan of the pattern or colors,-40,360,20","Adrian","It's dirty. I don't mind the colors so much as the way they are put together in this dirty-looking pattern.,-41,60,20","2"
"31607","","survey-text","95","641126","0.0-94.0-0.0","AHZ7C7ETHYX3N","","","","{""Q0"":""amateurish collage not for me  ""}","","","","","","","","","","","","","","","","","","","","","","",""
"3966.599999964237","","image-slider-response","96","645094","0.0-95.0","AHZ7C7ETHYX3N","","","","","-50","","","","","","","","","","","","","","","","","","","","","",""
"3210","","image-button-response","97","650099","0.0-96.0","AHZ7C7ETHYX3N","img_art/16.jpg","1","","","","","","","","","","","","","","","","","","","","","","","","",""
"2632","","image-button-response","98","652734","0.0-97.0","AHZ7C7ETHYX3N","img_art/16.jpg","3","","","","","","","","","","","","","","","","","","","","","","","","",""
"1121","","image-button-response","99","653857","0.0-98.0-0.0","AHZ7C7ETHYX3N","img_art/16.jpg","4","","","","","","","","","","","","","","","","","","","","","","","","",""
"2067","","image-button-response","100","655926","0.0-99.0-0.0","AHZ7C7ETHYX3N","img_art/16.jpg","5","","","","","","","","","","","","","","","","","","","","","","","","",""
"null","","html-keyboard-response","101","656928","0.0-100.0","AHZ7C7ETHYX3N","<p style=""font-size: 48px;"">+</p>","","","","","null","allTrialResponses","1000","1","8","img_art/16.jpg","-50","amateurish collage not for me  ","Jared,Derek,Shane,Christopher,Timothy,Adrian","it looks psychotic,-31,400,20","I can't figure out the meaning of this painting but it is pleasant to look at,40,360,20","This looks chaotic,-25,80,20","i don't like the collage aspect,-25,160,20","This feels like images of a painful childhood,-50,240,20","It's depressing. Probably achieved its goal. But I wouldn't want it hanging in my home.,-31,60,20","Christopher","i don't like the collage aspect,-25,160,20","Timothy","This feels like images of a painful childhood,-50,240,20","Adrian","It's depressing. Probably achieved its goal. But I wouldn't want it hanging in my home.,-31,60,20","2"
"15423","","survey-text","102","672358","0.0-101.0-0.0","AHZ7C7ETHYX3N","","","","{""Q0"":""cool abstract like the muted tones""}","","","","","","","","","","","","","","","","","","","","","","",""
"3334.100000023842","","image-slider-response","103","675694","0.0-102.0","AHZ7C7ETHYX3N","","","","","41","","","","","","","","","","","","","","","","","","","","","",""
"3529","","image-button-response","104","680697","0.0-103.0","AHZ7C7ETHYX3N","img_art/1.jpg","2","","","","","","","","","","","","","","","","","","","","","","","","",""
"1396","","image-button-response","105","682095","0.0-104.0","AHZ7C7ETHYX3N","img_art/1.jpg","4","","","","","","","","","","","","","","","","","","","","","","","","",""
"3151","","image-button-response","106","685248","0.0-105.0-0.0","AHZ7C7ETHYX3N","img_art/1.jpg","2","","","","","","","","","","","","","","","","","","","","","","","","",""
"1009","","image-button-response","107","686259","0.0-106.0-0.0","AHZ7C7ETHYX3N","img_art/1.jpg","1","","","","","","","","","","","","","","","","","","","","","","","","",""
"null","","html-keyboard-response","108","687773","0.0-107.0","AHZ7C7ETHYX3N","<p style=""font-size: 48px;"">+</p>","","","","","null","allTrialResponses","1500","1","9","img_art/1.jpg","41","cool abstract like the muted tones","Grant,Luke,Marcus,Christopher,Timothy,Adrian","The use of reds, blues, and yellows together reminds me of fire. Very interesting to look at.,40,200,20","it is very colorful and makes me happy,44,20,20","Like the colors very much, and this piece makes me feel peaceful.,29,60,20","it's boring despite all the colors,-2,160,20","This one has a pleasent energy,15,240,20","Not a fan of the colors. Makes me think of the Australian bush fires.,-5,60,20","Timothy","This one has a pleasent energy,15,240,20","Marcus","Like the colors very much, and this piece makes me feel peaceful.,29,60,20","Luke","it is very colorful and makes me happy,44,20,20","2"
"26396","","survey-text","109","714173","0.0-108.0-0.0","AHZ7C7ETHYX3N","","","","{""Q0"":""a little too spooky for my taste""}","","","","","","","","","","","","","","","","","","","","","","",""
"2611.100000023842","","image-slider-response","110","716786","0.0-109.0","AHZ7C7ETHYX3N","","","","","-39","","","","","","","","","","","","","","","","","","","","","",""
"3723","","image-button-response","111","721788","0.0-110.0","AHZ7C7ETHYX3N","img_art/21.jpg","2","","","","","","","","","","","","","","","","","","","","","","","","",""
"3505","","image-button-response","112","725295","0.0-111.0","AHZ7C7ETHYX3N","img_art/21.jpg","5","","","","","","","","","","","","","","","","","","","","","","","","",""
"1159","","image-button-response","113","726455","0.0-112.0-0.0","AHZ7C7ETHYX3N","img_art/21.jpg","2","","","","","","","","","","","","","","","","","","","","","","","","",""
"3191","","image-button-response","114","729647","0.0-113.0-0.0","AHZ7C7ETHYX3N","img_art/21.jpg","0","","","","","","","","","","","","","","","","","","","","","","","","",""
"null","","html-keyboard-response","115","730657","0.0-114.0","AHZ7C7ETHYX3N","<p style=""font-size: 48px;"">+</p>","","","","","null","allTrialResponses","1000","1","10","img_art/21.jpg","-39","a little too spooky for my taste","Justin,Luke,Marcus,Miguel,Timothy,Richard","Alright. I like the colors.,5,280,20","the vast colors make me happy,15,20,20","I feel like I'm looking at two different paintings mashed together in the middle.,20,60,20","Amazing colors.,34,160,20","Very calming and soft, makes me feel good,31,240,20","setting sun sky? nice colors and blending,14,340,20","Richard","setting sun sky? nice colors and blending,14,340,20","Marcus","I feel like I'm looking at two different paintings mashed together in the middle.,20,60,20","Justin","Alright. I like the colors.,5,280,20","2"
"3820","","survey-text","116","734488","0.0-115.0-0.0","AHZ7C7ETHYX3N","","","","{""Q0"":""our""}","","","","","","","","","","","","","","","","","","","","","","",""
"21846","","survey-text","117","756335","0.0-116.0-0.0","AHZ7C7ETHYX3N","","","","{""Q0"":""I think Ive seen this before, not a fan of this style""}","","","","","","","","","","","","","","","","","","","","","","",""
"3207.100000023842","","image-slider-response","118","759544","0.0-117.0","AHZ7C7ETHYX3N","","","","","-44","","","","","","","","","","","","","","","","","","","","","",""
"4845","","image-button-response","119","764554","0.0-118.0","AHZ7C7ETHYX3N","img_art/20.jpg","3","","","","","","","","","","","","","","","","","","","","","","","","",""
"3598","","image-button-response","120","768155","0.0-119.0","AHZ7C7ETHYX3N","img_art/20.jpg","5","","","","","","","","","","","","","","","","","","","","","","","","",""
"5912","","image-button-response","121","774069","0.0-120.0-0.0","AHZ7C7ETHYX3N","img_art/20.jpg","0","","","","","","","","","","","","","","","","","","","","","","","","",""
"1464","","image-button-response","122","775535","0.0-121.0-0.0","AHZ7C7ETHYX3N","img_art/20.jpg","0","","","","","","","","","","","","","","","","","","","","","","","","",""
"767","","image-button-response","123","780414","0.0-121.1-0.1","AHZ7C7ETHYX3N","img_art/20.jpg","2","","","","","","","","","","","","","","","","","","","","","","","","",""
"null","","html-keyboard-response","124","781916","0.0-122.0","AHZ7C7ETHYX3N","<p style=""font-size: 48px;"">+</p>","","","","","null","allTrialResponses","1500","1","11","img_art/20.jpg","-44","I think Ive seen this before, not a fan of this style","Justin,Peter,Marcus,Colton,Garrett,Richard","The colors and the scene depicted is interesting.,13,280,20","Little picturesque town that I would like to visit,19,320,20","I like the blues, and the sense of foreboding it makes me feel.,20,60,20","reminds me of Salvadore Dali,24,220,20","I really like this. There are lots of objects the artist wanted to show and the colors are good.,38,180,20","The white blob on the left seems out of place,-34,340,20","Richard","The white blob on the left seems out of place,-34,340,20","Justin","The colors and the scene depicted is interesting.,13,280,20","Marcus","I like the blues, and the sense of foreboding it makes me feel.,20,60,20","4"
"25994","","survey-text","125","807917","0.0-123.0-0.0","AHZ7C7ETHYX3N","","","","{""Q0"":""Kind of like a river town reflected  at night, its ok""}","","","","","","","","","","","","","","","","","","","","","","",""
"3332.400000035763","","image-slider-response","126","811251","0.0-124.0","AHZ7C7ETHYX3N","","","","","-1","","","","","","","","","","","","","","","","","","","","","",""
"null","","image-button-response","127","816270","0.0-125.0","AHZ7C7ETHYX3N","img_art/11.jpg","null","","","","","","","","","","","","","","","","","","","","","","","","",""
"1423","","image-button-response","128","817696","0.0-126.0","AHZ7C7ETHYX3N","img_art/11.jpg","2","","","","","","","","","","","","","","","","","","","","","","","","",""
"3583","","image-button-response","129","821282","0.0-127.0-0.0","AHZ7C7ETHYX3N","img_art/11.jpg","3","","","","","","","","","","","","","","","","","","","","","","","","",""
"1387","","image-button-response","130","822671","0.0-128.0-0.0","AHZ7C7ETHYX3N","img_art/11.jpg","4","","","","","","","","","","","","","","","","","","","","","","","","",""
"null","","html-keyboard-response","131","823673","0.0-129.0","AHZ7C7ETHYX3N","<p style=""font-size: 48px;"">+</p>","","","","","null","allTrialResponses","1000","1","12","img_art/11.jpg","-1","Kind of like a river town reflected  at night, its ok","Justin,Bradley,Marcus,Dylan,Edward,Richard","It reminds me of telephone wires.,1,280,20","WOW!  I love how the ships and the seas become one in this piece.,50,300,20","I like this one very much, especially the shades of gray.,30,60,20","I normally would not like this photo, but the design is nice.,21,40,20","Reminds me of a city and how chaotic it can be,22,60,20","I like this one mostly a good combination of colors and light and dark,12,340,20","Marcus","I like this one very much, especially the shades of gray.,30,60,20","Dylan","I normally would not like this photo, but the design is nice.,21,40,20","Edward","Reminds me of a city and how chaotic it can be,22,60,20","4"
"15320","","survey-text","132","838998","0.0-130.0-0.0","AHZ7C7ETHYX3N","","","","{""Q0"":""prett combination of strokes and colors""}","","","","","","","","","","","","","","","","","","","","","","",""
"3024.199999988079","","image-slider-response","133","842024","0.0-131.0","AHZ7C7ETHYX3N","","","","","36","","","","","","","","","","","","","","","","","","","","","",""
"1762","","image-button-response","134","847043","0.0-132.0","AHZ7C7ETHYX3N","img_art/30.jpg","1","","","","","","","","","","","","","","","","","","","","","","","","",""
"815","","image-button-response","135","847861","0.0-133.0","AHZ7C7ETHYX3N","img_art/30.jpg","3","","","","","","","","","","","","","","","","","","","","","","","","",""
"1998","","image-button-response","136","849861","0.0-134.0-0.0","AHZ7C7ETHYX3N","img_art/30.jpg","5","","","","","","","","","","","","","","","","","","","","","","","","",""
"1919","","image-button-response","137","851781","0.0-135.0-0.0","AHZ7C7ETHYX3N","img_art/30.jpg","1","","","","","","","","","","","","","","","","","","","","","","","","",""
"null","","html-keyboard-response","138","852790","0.0-136.0","AHZ7C7ETHYX3N","<p style=""font-size: 48px;"">+</p>","","","","","null","allTrialResponses","1000","1","13","img_art/30.jpg","36","prett combination of strokes and colors","Malik,Cameron,Marcus,Dylan,Edward,Jesse","I can't parse any intention or emotion,-17,40,20","Like the color and style,31,60,20","Really don't like this piece. It feels very lazy to me.,-31,60,20","I really love the pastel colors and the 3D design in this,43,40,20","My son made me a painting that looked like this,26,60,20","I do like the multi-dimensional aspect of this piece,10,80,20","Dylan","I really love the pastel colors and the 3D design in this,43,40,20","Jesse","I do like the multi-dimensional aspect of this piece,10,80,20","Cameron","Like the color and style,31,60,20","4"
"20612","","survey-text","139","873407","0.0-137.0-0.0","AHZ7C7ETHYX3N","","","","{""Q0"":""too many edges and boxes its confusing""}","","","","","","","","","","","","","","","","","","","","","","",""
"2815.100000023842","","image-slider-response","140","876223","0.0-138.0","AHZ7C7ETHYX3N","","","","","-38","","","","","","","","","","","","","","","","","","","","","",""
"1457","","image-button-response","141","881229","0.0-139.0","AHZ7C7ETHYX3N","img_art/12.jpg","0","","","","","","","","","","","","","","","","","","","","","","","","",""
"952","","image-button-response","142","882182","0.0-140.0","AHZ7C7ETHYX3N","img_art/12.jpg","4","","","","","","","","","","","","","","","","","","","","","","","","",""
"1153","","image-button-response","143","883337","0.0-141.0-0.0","AHZ7C7ETHYX3N","img_art/12.jpg","1","","","","","","","","","","","","","","","","","","","","","","","","",""
"844","","image-button-response","144","884184","0.0-142.0-0.0","AHZ7C7ETHYX3N","img_art/12.jpg","0","","","","","","","","","","","","","","","","","","","","","","","","",""
"null","","html-keyboard-response","145","885695","0.0-143.0","AHZ7C7ETHYX3N","<p style=""font-size: 48px;"">+</p>","","","","","null","allTrialResponses","1500","1","14","img_art/12.jpg","-38","too many edges and boxes its confusing","Patrick,Cameron,Jonathan,Dylan,Mason,Jesse","I don't like the blocking,-20,280,20","Dislike the style, the sharp rectangular pattern very jarring.,-20,60,20","I like all the squares and the colors but it feels too cluttered to me,20,140,20","I like the pattern of this picture, but the colors could be nicer,11,40,20","it's ok, but blocky, looks old.,3,100,20","Just confuses me overall,-11,80,20","Mason","it's ok, but blocky, looks old.,3,100,20","Cameron","Dislike the style, the sharp rectangular pattern very jarring.,-20,60,20","Patrick","I don't like the blocking,-20,280,20","4"
"28762","","survey-text","146","914462","0.0-144.0-0.0","AHZ7C7ETHYX3N","","","","{""Q0"":""I dont want to look at this at all""}","","","","","","","","","","","","","","","","","","","","","","",""
"3377.600000023842","","image-slider-response","147","917842","0.0-145.0","AHZ7C7ETHYX3N","","","","","-50","","","","","","","","","","","","","","","","","","","","","",""
"3849","","image-button-response","148","922848","0.0-146.0","AHZ7C7ETHYX3N","img_art/23.jpg","3","","","","","","","","","","","","","","","","","","","","","","","","",""
"708","","image-button-response","149","923558","0.0-147.0","AHZ7C7ETHYX3N","img_art/23.jpg","4","","","","","","","","","","","","","","","","","","","","","","","","",""
"1051","","image-button-response","150","924610","0.0-148.0-0.0","AHZ7C7ETHYX3N","img_art/23.jpg","5","","","","","","","","","","","","","","","","","","","","","","","","",""
"1088","","image-button-response","151","925701","0.0-149.0-0.0","AHZ7C7ETHYX3N","img_art/23.jpg","3","","","","","","","","","","","","","","","","","","","","","","","","",""
"null","","html-keyboard-response","152","926706","0.0-150.0","AHZ7C7ETHYX3N","<p style=""font-size: 48px;"">+</p>","","","","","null","allTrialResponses","1000","1","15","img_art/23.jpg","-50","I dont want to look at this at all","Patrick,Cameron,Ian,Dalton,Mason,Jake","Beautiful color scheme,21,280,20","looks like those paper chain things.,0,60,20","It's very colorful and different, the white looks like people dancing,26,260,20","illegible wording with a graffiti background,1,300,20","No reactions, childish.,-19,100,20","This looks like hotel room art, it's ugly and odd.,-2,360,20","Mason","No reactions, childish.,-19,100,20","Jake","This looks like hotel room art, it's ugly and odd.,-2,360,20","Dalton","illegible wording with a graffiti background,1,300,20","4"
"4262","","survey-text","153","930977","0.0-151.0-0.0","AHZ7C7ETHYX3N","","","","{""Q0"":""course""}","","","","","","","","","","","","","","","","","","","","","","",""
"29254","","survey-text","154","960232","0.0-152.0-0.0","AHZ7C7ETHYX3N","","","","{""Q0"":""I like the colors but not the tilted world""}","","","","","","","","","","","","","","","","","","","","","","",""
"2977.600000023842","","image-slider-response","155","963212","0.0-153.0","AHZ7C7ETHYX3N","","","","","-36","","","","","","","","","","","","","","","","","","","","","",""
"3574","","image-button-response","156","968215","0.0-154.0","AHZ7C7ETHYX3N","img_art/8.jpg","1","","","","","","","","","","","","","","","","","","","","","","","","",""
"197","","image-button-response","157","968414","0.0-155.0","AHZ7C7ETHYX3N","img_art/8.jpg","4","","","","","","","","","","","","","","","","","","","","","","","","",""
"2342","","image-button-response","158","970758","0.0-156.0-0.0","AHZ7C7ETHYX3N","img_art/8.jpg","5","","","","","","","","","","","","","","","","","","","","","","","","",""
"1583","","image-button-response","159","972343","0.0-157.0-0.0","AHZ7C7ETHYX3N","img_art/8.jpg","1","","","","","","","","","","","","","","","","","","","","","","","","",""
"null","","html-keyboard-response","160","972845","0.0-158.0","AHZ7C7ETHYX3N","<p style=""font-size: 48px;"">+</p>","","","","","null","allTrialResponses","500","1","16","img_art/8.jpg","-36","I like the colors but not the tilted world","Shawn,Jeremy,Sean,Dalton,Mason,Jake","Cheesy. A little too knock you over the dead with its message without making it emotional,-31,100,20","Nervous like being up high,10,60,20","looks nice, like the details,25,40,20","woman looking over a the community,1,300,20","wow. blocky, angled, neat colors. The faces are what makes it. love it.,45,100,20","It's a poor rendition of an MC Escher inspired piece.,-25,360,20","Mason","wow. blocky, angled, neat colors. The faces are what makes it. love it.,45,100,20","Jake","It's a poor rendition of an MC Escher inspired piece.,-25,360,20","Jeremy","Nervous like being up high,10,60,20","4"
"25341","","survey-text","161","998191","0.0-159.0-0.0","AHZ7C7ETHYX3N","","","","{""Q0"":""another that makes me uncomfortable, looks like a problem of sorts""}","","","","","","","","","","","","","","","","","","","","","","",""
"4060.399999976158","","image-slider-response","162","1002253","0.0-160.0","AHZ7C7ETHYX3N","","","","","-50","","","","","","","","","","","","","","","","","","","","","",""
"1811","","image-button-response","163","1007264","0.0-161.0","AHZ7C7ETHYX3N","img_art/18.jpg","1","","","","","","","","","","","","","","","","","","","","","","","","",""
"798","","image-button-response","164","1008064","0.0-162.0","AHZ7C7ETHYX3N","img_art/18.jpg","4","","","","","","","","","","","","","","","","","","","","","","","","",""
"704","","image-button-response","165","1008770","0.0-163.0-0.0","AHZ7C7ETHYX3N","img_art/18.jpg","5","","","","","","","","","","","","","","","","","","","","","","","","",""
"1435","","image-button-response","166","1010206","0.0-164.0-0.0","AHZ7C7ETHYX3N","img_art/18.jpg","1","","","","","","","","","","","","","","","","","","","","","","","","",""
"null","","html-keyboard-response","167","1011208","0.0-165.0","AHZ7C7ETHYX3N","<p style=""font-size: 48px;"">+</p>","","","","","null","allTrialResponses","1000","1","17","img_art/18.jpg","-50","another that makes me uncomfortable, looks like a problem of sorts","Kenneth,Jeremy,Noah,Adam,Mason,Jake","It's interesting. I'm not sure how I feel about it, but i enjoy the ghostly apparitions.,10,300,20","Unhappy. Makes me thing of evil,-10,60,20","enjoy the juxtaposition of abstract with tangible elements & the use of color,10,260,20","Colors are okay. Reminds me of cavalry.,10,40,20","Skeletons, death, bleak colors, still kinda like it.,16,100,20","It looks grotesque and violent.,-50,360,20","Mason","Skeletons, death, bleak colors, still kinda like it.,16,100,20","Jake","It looks grotesque and violent.,-50,360,20","Jeremy","Unhappy. Makes me thing of evil,-10,60,20","4"
"31527","","survey-text","168","1042740","0.0-166.0-0.0","AHZ7C7ETHYX3N","","","","{""Q0"":""very peaceful scene, it draws me in closer""}","","","","","","","","","","","","","","","","","","","","","","",""
"2405.199999988079","","image-slider-response","169","1045147","0.0-167.0","AHZ7C7ETHYX3N","","","","","38","","","","","","","","","","","","","","","","","","","","","",""
"null","","image-button-response","170","1050165","0.0-168.0","AHZ7C7ETHYX3N","img_art/17.jpg","null","","","","","","","","","","","","","","","","","","","","","","","","",""
"110","","image-button-response","171","1050277","0.0-169.0","AHZ7C7ETHYX3N","img_art/17.jpg","0","","","","","","","","","","","","","","","","","","","","","","","","",""
"893","","image-button-response","172","1051171","0.0-170.0-0.0","AHZ7C7ETHYX3N","img_art/17.jpg","4","","","","","","","","","","","","","","","","","","","","","","","","",""
"4115","","image-button-response","173","1055288","0.0-171.0-0.0","AHZ7C7ETHYX3N","img_art/17.jpg","1","","","","","","","","","","","","","","","","","","","","","","","","",""
"null","","html-keyboard-response","174","1055789","0.0-172.0","AHZ7C7ETHYX3N","<p style=""font-size: 48px;"">+</p>","","","","","null","allTrialResponses","500","1","18","img_art/17.jpg","38","very peaceful scene, it draws me in closer","Blake,Jeremy,Victor,Travis,Mason,Jake","soft and warm light colors are relaxing,12,280,20","very pretty. Makes me happy,45,60,20","cool. Sharp and blocky below, light and flowing on top. Overall pleasing to look at,32,340,20","Very pretty...the colors and good and flow well.,33,260,20","Like this one, super creative, calming.,43,100,20","This could have been good but was poorly done.,-5,360,20","Blake","soft and warm light colors are relaxing,12,280,20","Mason","Like this one, super creative, calming.,43,100,20","Jeremy","very pretty. Makes me happy,45,60,20","4"
"18642","","survey-text","175","1074435","0.0-173.0-0.0","AHZ7C7ETHYX3N","","","","{""Q0"":""hectic city scape, its a mess""}","","","","","","","","","","","","","","","","","","","","","","",""
"2705.300000011921","","image-slider-response","176","1077142","0.0-174.0","AHZ7C7ETHYX3N","","","","","-50","","","","","","","","","","","","","","","","","","","","","",""
"2563","","image-button-response","177","1082149","0.0-175.0","AHZ7C7ETHYX3N","img_art/19.jpg","1","","","","","","","","","","","","","","","","","","","","","","","","",""
"2732","","image-button-response","178","1084883","0.0-176.0","AHZ7C7ETHYX3N","img_art/19.jpg","0","","","","","","","","","","","","","","","","","","","","","","","","",""
"2499","","image-button-response","179","1087384","0.0-177.0-0.0","AHZ7C7ETHYX3N","img_art/19.jpg","3","","","","","","","","","","","","","","","","","","","","","","","","",""
"1246","","image-button-response","180","1088632","0.0-178.0-0.0","AHZ7C7ETHYX3N","img_art/19.jpg","1","","","","","","","","","","","","","","","","","","","","","","","","",""
"null","","html-keyboard-response","181","1089634","0.0-179.0","AHZ7C7ETHYX3N","<p style=""font-size: 48px;"">+</p>","","","","","null","allTrialResponses","1000","1","19","img_art/19.jpg","-50","hectic city scape, its a mess","Blake,Jeremy,Aaron,Jason,Mason,Brett","an old cityfrom many years ago. its ok,6,280,20","it's too busy for me. Makes me feel stressed.,1,60,20","I like the shapes.,22,20,20","The picture contains a lot of brown and weird drips,-4,20,20","calming, like the drips,25,100,20","Reminds me of a quaint little town I once visited in Italy,50,360,20","Blake","an old cityfrom many years ago. its ok,6,280,20","Jason","The picture contains a lot of brown and weird drips,-4,20,20","Jeremy","it's too busy for me. Makes me feel stressed.,1,60,20","4"
"11094","","survey-text","182","1100733","0.0-180.0-0.0","AHZ7C7ETHYX3N","","","","{""Q0"":""childish attempt at something""}","","","","","","","","","","","","","","","","","","","","","","",""
"2969.699999988079","","image-slider-response","183","1103705","0.0-181.0","AHZ7C7ETHYX3N","","","","","-50","","","","","","","","","","","","","","","","","","","","","",""
"3487","","image-button-response","184","1108721","0.0-182.0","AHZ7C7ETHYX3N","img_art/27.jpg","2","","","","","","","","","","","","","","","","","","","","","","","","",""
"1639","","image-button-response","185","1110362","0.0-183.0","AHZ7C7ETHYX3N","img_art/27.jpg","5","","","","","","","","","","","","","","","","","","","","","","","","",""
"1074","","image-button-response","186","1111438","0.0-184.0-0.0","AHZ7C7ETHYX3N","img_art/27.jpg","2","","","","","","","","","","","","","","","","","","","","","","","","",""
"892","","image-button-response","187","1112332","0.0-185.0-0.0","AHZ7C7ETHYX3N","img_art/27.jpg","1","","","","","","","","","","","","","","","","","","","","","","","","",""
"null","","html-keyboard-response","188","1113336","0.0-186.0","AHZ7C7ETHYX3N","<p style=""font-size: 48px;"">+</p>","","","","","null","allTrialResponses","1000","1","20","img_art/27.jpg","-50","childish attempt at something","Blake,Jeremy,Bryan,Jason,Caleb,Jesus","fruity and sweet. warm and juicy,10,280,20","Pleased. Reminds me of a child drawing,46,60,20","Not fond of the bad pencil drawing mixed with the drab colors.,-21,400,20","The variation of orange is nice,9,20,20","An abstract piece with such lifeless colors.,-26,40,20","The color palette isn't my taste,-24,100,20","Jesus","The color palette isn't my taste,-24,100,20","Bryan","Not fond of the bad pencil drawing mixed with the drab colors.,-21,400,20","Jeremy","Pleased. Reminds me of a child drawing,46,60,20","4"
"3455","","survey-text","189","1116801","0.0-187.0-0.0","AHZ7C7ETHYX3N","","","","{""Q0"":""we""}","","","","","","","","","","","","","","","","","","","","","","",""
"35080","","survey-text","190","1151883","0.0-188.0-0.0","AHZ7C7ETHYX3N","","","","{""Q0"":""boring, uninteresting nothing""}","","","","","","","","","","","","","","","","","","","","","","",""
"2288.800000011921","","image-slider-response","191","1154173","0.0-189.0","AHZ7C7ETHYX3N","","","","","-50","","","","","","","","","","","","","","","","","","","","","",""
"1301","","image-button-response","192","1159178","0.0-190.0","AHZ7C7ETHYX3N","img_art/6.jpg","0","","","","","","","","","","","","","","","","","","","","","","","","",""
"1637","","image-button-response","193","1160817","0.0-191.0","AHZ7C7ETHYX3N","img_art/6.jpg","2","","","","","","","","","","","","","","","","","","","","","","","","",""
"680","","image-button-response","194","1161499","0.0-192.0-0.0","AHZ7C7ETHYX3N","img_art/6.jpg","1","","","","","","","","","","","","","","","","","","","","","","","","",""
"507","","image-button-response","195","1162008","0.0-193.0-0.0","AHZ7C7ETHYX3N","img_art/6.jpg","0","","","","","","","","","","","","","","","","","","","","","","","","",""
"null","","html-keyboard-response","196","1163014","0.0-194.0","AHZ7C7ETHYX3N","<p style=""font-size: 48px;"">+</p>","","","","","null","allTrialResponses","1000","1","21","img_art/6.jpg","-50","boring, uninteresting nothing","Logan,Jeremy,Bryan,Taylor,Connor,Jesus","boring. don't really like birds,1,360,20","Kind of boring. I don't care for many abstracts,1,60,20","Growth in the desert?  Don't care for it very much.,-26,400,20","A crow on one leg?,-10,200,20","Blackbird in the desert,27,240,20","I enjoy the color contrast.,20,100,20","Bryan","Growth in the desert?  Don't care for it very much.,-26,400,20","Jeremy","Kind of boring. I don't care for many abstracts,1,60,20","Logan","boring. don't really like birds,1,360,20","4"
"13889","","survey-text","197","1176909","0.0-195.0-0.0","AHZ7C7ETHYX3N","","","","{""Q0"":""no to scribble called art""}","","","","","","","","","","","","","","","","","","","","","","",""
"2446.899999976158","","image-slider-response","198","1179358","0.0-196.0","AHZ7C7ETHYX3N","","","","","-50","","","","","","","","","","","","","","","","","","","","","",""
"2531","","image-button-response","199","1184360","0.0-197.0","AHZ7C7ETHYX3N","img_art/3.jpg","0","","","","","","","","","","","","","","","","","","","","","","","","",""
"1168","","image-button-response","200","1185531","0.0-198.0","AHZ7C7ETHYX3N","img_art/3.jpg","2","","","","","","","","","","","","","","","","","","","","","","","","",""
"3056","","image-button-response","201","1188589","0.0-199.0-0.0","AHZ7C7ETHYX3N","img_art/3.jpg","4","","","","","","","","","","","","","","","","","","","","","","","","",""
"1454","","image-button-response","202","1190047","0.0-200.0-0.0","AHZ7C7ETHYX3N","img_art/3.jpg","0","","","","","","","","","","","","","","","","","","","","","","","","",""
"null","","html-keyboard-response","203","1191057","0.0-201.0","AHZ7C7ETHYX3N","<p style=""font-size: 48px;"">+</p>","","","","","null","allTrialResponses","1000","1","22","img_art/3.jpg","-50","no to scribble called art","Logan,Jeremy,Bryan,Matthew,Jordan,Ethan","im just getting more agitated and less appreciative of art. I have absolutely no scale to base on,-34,360,20","seems too angry,-50,60,20","Just no. I love red but this looks like blood splatter on a wall from a horrific killing.,-45,400,20","Reminds of John Lenonn's art a bit.,27,120,20","Reminded me of blood or something bad,-21,160,20","I usually don't like red. Red in this angry piece is very fitting.,19,120,20","Bryan","Just no. I love red but this looks like blood splatter on a wall from a horrific killing.,-45,400,20","Jordan","Reminded me of blood or something bad,-21,160,20","Logan","im just getting more agitated and less appreciative of art. I have absolutely no scale to base on,-34,360,20","4"
"14722","","survey-text","204","1205784","0.0-202.0-0.0","AHZ7C7ETHYX3N","","","","{""Q0"":""something sad about figures and the colors""}","","","","","","","","","","","","","","","","","","","","","","",""
"2734.899999976158","","image-slider-response","205","1208520","0.0-203.0","AHZ7C7ETHYX3N","","","","","-36","","","","","","","","","","","","","","","","","","","","","",""
"4839","","image-button-response","206","1213532","0.0-204.0","AHZ7C7ETHYX3N","img_art/28.jpg","3","","","","","","","","","","","","","","","","","","","","","","","","",""
"1191","","image-button-response","207","1214725","0.0-205.0","AHZ7C7ETHYX3N","img_art/28.jpg","5","","","","","","","","","","","","","","","","","","","","","","","","",""
"1260","","image-button-response","208","1215986","0.0-206.0-0.0","AHZ7C7ETHYX3N","img_art/28.jpg","1","","","","","","","","","","","","","","","","","","","","","","","","",""
"1255","","image-button-response","209","1217242","0.0-207.0-0.0","AHZ7C7ETHYX3N","img_art/28.jpg","3","","","","","","","","","","","","","","","","","","","","","","","","",""
"null","","html-keyboard-response","210","1218755","0.0-208.0","AHZ7C7ETHYX3N","<p style=""font-size: 48px;"">+</p>","","","","","null","allTrialResponses","1500","1","23","img_art/28.jpg","-36","something sad about figures and the colors","Logan,Anthony,Bryan,Mitchell,Jordan,Scott","I wish I knew why I liked it, maybes its the pinky tones,36,360,20","This picture doesn't really stand out to me,1,200,20","A meeting in Old Jerusalem.,11,400,20","A mom protecting her child because something scary, (perhaps imaginary) wants to take the child.,-10,180,20","A messy bed room,-7,160,20","I don't like the color choice,-30,20,20","Scott","I don't like the color choice,-30,20,20","Anthony","This picture doesn't really stand out to me,1,200,20","Mitchell","A mom protecting her child because something scary, (perhaps imaginary) wants to take the child.,-10,180,20","4"
"46934","","survey-text","211","1265693","0.0-209.0-0.0","AHZ7C7ETHYX3N","","","","{""Q0"":""i dont know what Im seeing here looks like several different things at the same time""}","","","","","","","","","","","","","","","","","","","","","","",""
"2625.900000035763","","image-slider-response","212","1268321","0.0-210.0","AHZ7C7ETHYX3N","","","","","-27","","","","","","","","","","","","","","","","","","","","","",""
"2200","","image-button-response","213","1273325","0.0-211.0","AHZ7C7ETHYX3N","img_art/2.jpg","0","","","","","","","","","","","","","","","","","","","","","","","","",""
"507","","image-button-response","214","1273834","0.0-212.0","AHZ7C7ETHYX3N","img_art/2.jpg","4","","","","","","","","","","","","","","","","","","","","","","","","",""
"1048","","image-button-response","215","1274884","0.0-213.0-0.0","AHZ7C7ETHYX3N","img_art/2.jpg","5","","","","","","","","","","","","","","","","","","","","","","","","",""
"822","","image-button-response","216","1275708","0.0-214.0-0.0","AHZ7C7ETHYX3N","img_art/2.jpg","0","","","","","","","","","","","","","","","","","","","","","","","","",""
"null","","html-keyboard-response","217","1276713","0.0-215.0","AHZ7C7ETHYX3N","<p style=""font-size: 48px;"">+</p>","","","","","null","allTrialResponses","1000","1","24","img_art/2.jpg","-27","i dont know what Im seeing here looks like several different things at the same time","David,Anthony,Nicholas,Mitchell,Christian,Scott","I feel that its too abstract for me to understand what I'm looking at.,-15,340,20","Ugly color scheme,-50,200,20","Cute and happy,22,240,20","Dependence. Things relying on each other. Caring,-4,180,20","do not understand,-21,140,20","looks like a child's artwork,-40,20,20","Christian","do not understand,-21,140,20","Scott","looks like a child's artwork,-40,20,20","David","I feel that its too abstract for me to understand what I'm looking at.,-15,340,20","4"
"16397","","survey-text","218","1293116","0.0-216.0-0.0","AHZ7C7ETHYX3N","","","","{""Q0"":""its a messy thing not appealing at all""}","","","","","","","","","","","","","","","","","","","","","","",""
"2798.099999964237","","image-slider-response","219","1295916","0.0-217.0","AHZ7C7ETHYX3N","","","","","-50","","","","","","","","","","","","","","","","","","","","","",""
"4224","","image-button-response","220","1300922","0.0-218.0","AHZ7C7ETHYX3N","img_art/4.jpg","2","","","","","","","","","","","","","","","","","","","","","","","","",""
"1297","","image-button-response","221","1302221","0.0-219.0","AHZ7C7ETHYX3N","img_art/4.jpg","4","","","","","","","","","","","","","","","","","","","","","","","","",""
"940","","image-button-response","222","1303163","0.0-220.0-0.0","AHZ7C7ETHYX3N","img_art/4.jpg","3","","","","","","","","","","","","","","","","","","","","","","","","",""
"844","","image-button-response","223","1304009","0.0-221.0-0.0","AHZ7C7ETHYX3N","img_art/4.jpg","2","","","","","","","","","","","","","","","","","","","","","","","","",""
"null","","html-keyboard-response","224","1304511","0.0-222.0","AHZ7C7ETHYX3N","<p style=""font-size: 48px;"">+</p>","","","","","null","allTrialResponses","500","1","25","img_art/4.jpg","-50","its a messy thing not appealing at all","David,Austin,Alex,Gregory,Christian,Scott","I like the design. It can be interpreted in various ways, such as a hand of horror or still piece.,15,340,20","Like the color vibrancy,29,240,20","Looks like more paint smearing but at least there is structure,-5,100,20","Mustard yellow doesn't do it for me,-25,220,20","no sorry i can't really understand,-18,140,20","feels free flowing and relaxed,21,20,20","Christian","no sorry i can't really understand,-18,140,20","Gregory","Mustard yellow doesn't do it for me,-25,220,20","Alex","Looks like more paint smearing but at least there is structure,-5,100,20","4"
"4612","","survey-text","225","1309131","0.0-223.0-0.0","AHZ7C7ETHYX3N","","","","{""Q0"":""table""}","","","","","","","","","","","","","","","","","","","","","","",""
"34276","","survey-text","226","1343409","0.0-224.0-0.0","AHZ7C7ETHYX3N","","","","{""Q0"":""I'm a fan of these colors and the blending""}","","","","","","","","","","","","","","","","","","","","","","",""
"2828.199999988079","","image-slider-response","227","1346239","0.0-225.0","AHZ7C7ETHYX3N","","","","","33","","","","","","","","","","","","","","","","","","","","","",""
"3614","","image-button-response","228","1351242","0.0-226.0","AHZ7C7ETHYX3N","img_art/22.jpg","3","","","","","","","","","","","","","","","","","","","","","","","","",""
"140","","image-button-response","229","1351385","0.0-227.0","AHZ7C7ETHYX3N","img_art/22.jpg","5","","","","","","","","","","","","","","","","","","","","","","","","",""
"671","","image-button-response","230","1352058","0.0-228.0-0.0","AHZ7C7ETHYX3N","img_art/22.jpg","3","","","","","","","","","","","","","","","","","","","","","","","","",""
"2155","","image-button-response","231","1354215","0.0-229.0-0.0","AHZ7C7ETHYX3N","img_art/22.jpg","0","","","","","","","","","","","","","","","","","","","","","","","","",""
"null","","html-keyboard-response","232","1354718","0.0-230.0","AHZ7C7ETHYX3N","<p style=""font-size: 48px;"">+</p>","","","","","null","allTrialResponses","500","1","26","img_art/22.jpg","33","I'm a fan of these colors and the blending","James,Michael,Alex,Gregory,Christian,Jacob","Like the black key and the rainbow color theme.,31,380,20","There is some flow and organization.,10,140,20","Not a huge fan of the blocks, also very abstract, I have no idea what it is,8,100,20","Like the mix of warm and cool colors,15,220,20","colorful water (in front of castle?),17,140,20","I like the mixing of the primary colors.,8,340,20","Jacob","I like the mixing of the primary colors.,8,340,20","Gregory","Like the mix of warm and cool colors,15,220,20","James","Like the black key and the rainbow color theme.,31,380,20","4"
"26043","","survey-text","233","1380767","0.0-231.0-0.0","AHZ7C7ETHYX3N","","","","{""Q0"":""technical looking scene which i would turn away from""}","","","","","","","","","","","","","","","","","","","","","","",""
"3049.400000035763","","image-slider-response","234","1383818","0.0-232.0","AHZ7C7ETHYX3N","","","","","-50","","","","","","","","","","","","","","","","","","","","","",""
"null","","image-button-response","235","1388825","0.0-233.0","AHZ7C7ETHYX3N","img_art/29.jpg","null","","","","","","","","","","","","","","","","","","","","","","","","",""
"22906","","image-button-response","236","1411733","0.0-234.0","AHZ7C7ETHYX3N","img_art/29.jpg","1","","","","","","","","","","","","","","","","","","","","","","","","",""
"2169","","image-button-response","237","1413904","0.0-235.0-0.0","AHZ7C7ETHYX3N","img_art/29.jpg","4","","","","","","","","","","","","","","","","","","","","","","","","",""
"1170","","image-button-response","238","1415076","0.0-236.0-0.0","AHZ7C7ETHYX3N","img_art/29.jpg","5","","","","","","","","","","","","","","","","","","","","","","","","",""
"null","","html-keyboard-response","239","1416077","0.0-237.0","AHZ7C7ETHYX3N","<p style=""font-size: 48px;"">+</p>","","","","","null","allTrialResponses","1000","1","27","img_art/29.jpg","-50","technical looking scene which i would turn away from","James,Cody,Seth,Gregory,Isaiah,Jacob","It has a red X on there, and x's mean bad in my perspective,-29,380,20","Feels messy, stressful,-22,180,20","I rated it lower because it looked like a crime scene. It didn't make me feel good.,-44,60,20","3D looks is really cool,30,220,20","I feel a little disgust. There is something off-putting about the smooth shapes and dark colors.,-43,300,20","It looks cool but I don't really get what's going on, it looks too busy,0,340,20","Cody","Feels messy, stressful,-22,180,20","Isaiah","I feel a little disgust. There is something off-putting about the smooth shapes and dark colors.,-43,300,20","Jacob","It looks cool but I don't really get what's going on, it looks too busy,0,340,20","4"
"7815","","survey-text","240","1423897","0.0-238.0-0.0","AHZ7C7ETHYX3N","","","","{""Q0"":""gross death""}","","","","","","","","","","","","","","","","","","","","","","",""
"2547.300000011921","","image-slider-response","241","1426445","0.0-239.0","AHZ7C7ETHYX3N","","","","","-50","","","","","","","","","","","","","","","","","","","","","",""
"3835","","image-button-response","242","1431447","0.0-240.0","AHZ7C7ETHYX3N","img_art/25.jpg","2","","","","","","","","","","","","","","","","","","","","","","","","",""
"1883","","image-button-response","243","1433332","0.0-241.0","AHZ7C7ETHYX3N","img_art/25.jpg","0","","","","","","","","","","","","","","","","","","","","","","","","",""
"712","","image-button-response","244","1434047","0.0-242.0-0.0","AHZ7C7ETHYX3N","img_art/25.jpg","2","","","","","","","","","","","","","","","","","","","","","","","","",""
"3587","","image-button-response","245","1437637","0.0-243.0-0.0","AHZ7C7ETHYX3N","img_art/25.jpg","4","","","","","","","","","","","","","","","","","","","","","","","","",""
"null","","html-keyboard-response","246","1438639","0.0-244.0","AHZ7C7ETHYX3N","<p style=""font-size: 48px;"">+</p>","","","","","null","allTrialResponses","1000","1","28","img_art/25.jpg","-50","gross death","Robert,Cody,Devin,Daniel,Isaiah,Jacob","It made me think of healing.,22,360,20","Like the colors and the figure,30,180,20","It looks a bit strange to me, neck too long,-19,380,20","Beautiful color with an interesting otherworldly figure,29,320,20","I feel little to no emotion looking at this painting.,0,300,20","I really like how the lines form this piece.,8,340,20","Robert","It made me think of healing.,22,360,20","Devin","It looks a bit strange to me, neck too long,-19,380,20","Isaiah","I feel little to no emotion looking at this painting.,0,300,20","4"
"9266","","survey-text","247","1447913","0.0-245.0-0.0","AHZ7C7ETHYX3N","","","","{""Q0"":""kid stuff""}","","","","","","","","","","","","","","","","","","","","","","",""
"3003","","image-slider-response","248","1450918","0.0-246.0","AHZ7C7ETHYX3N","","","","","-50","","","","","","","","","","","","","","","","","","","","","",""
"null","","image-button-response","249","1455931","0.0-247.0","AHZ7C7ETHYX3N","img_art/5.jpg","null","","","","","","","","","","","","","","","","","","","","","","","","",""
"4499","","image-button-response","250","1460431","0.0-248.0","AHZ7C7ETHYX3N","img_art/5.jpg","2","","","","","","","","","","","","","","","","","","","","","","","","",""
"29658","","image-button-response","251","1490090","0.0-249.0-0.0","AHZ7C7ETHYX3N","img_art/5.jpg","4","","","","","","","","","","","","","","","","","","","","","","","","",""
"1513","","image-button-response","252","1491605","0.0-250.0-0.0","AHZ7C7ETHYX3N","img_art/5.jpg","0","","","","","","","","","","","","","","","","","","","","","","","","",""
"null","","html-keyboard-response","253","1492606","0.0-251.0","AHZ7C7ETHYX3N","<p style=""font-size: 48px;"">+</p>","","","","","null","allTrialResponses","1000","1","29","img_art/5.jpg","-50","kid stuff","Robert,Charles,Devin,Mark,Isaiah,Joseph","This did not do a thing for me.,-50,360,20","It feels positive and kind of uplifting,24,100,20","A bit too messy in my eyes,-4,380,20","Perfume bottle, reminds of fancy nights out.,11,80,20","I feel nothing looking at this.,-5,300,20","I like that the pyramid is putting off a beacon of light.,11,220,20","Devin","A bit too messy in my eyes,-4,380,20","Isaiah","I feel nothing looking at this.,-5,300,20","Robert","This did not do a thing for me.,-50,360,20","4"
"12452","","survey-text","254","1505063","0.0-252.0-0.0","AHZ7C7ETHYX3N","","","","{""Q0"":""cool and interesting""}","","","","","","","","","","","","","","","","","","","","","","",""
"2838.2000000476837","","image-slider-response","255","1507903","0.0-253.0","AHZ7C7ETHYX3N","","","","","29","","","","","","","","","","","","","","","","","","","","","",""
"1645","","image-button-response","256","1512907","0.0-254.0","AHZ7C7ETHYX3N","img_art/13.jpg","0","","","","","","","","","","","","","","","","","","","","","","","","",""
"940","","image-button-response","257","1513848","0.0-255.0","AHZ7C7ETHYX3N","img_art/13.jpg","4","","","","","","","","","","","","","","","","","","","","","","","","",""
"1247","","image-button-response","258","1515097","0.0-256.0-0.0","AHZ7C7ETHYX3N","img_art/13.jpg","2","","","","","","","","","","","","","","","","","","","","","","","","",""
"610","","image-button-response","259","1515709","0.0-257.0-0.0","AHZ7C7ETHYX3N","img_art/13.jpg","0","","","","","","","","","","","","","","","","","","","","","","","","",""
"null","","html-keyboard-response","260","1516211","0.0-258.0","AHZ7C7ETHYX3N","<p style=""font-size: 48px;"">+</p>","","","","","null","allTrialResponses","500","1","30","img_art/13.jpg","29","cool and interesting","Robert,Gabriel,Devin,Isaac,Isaiah,Nathaniel","Raindrops splashing on the window.,50,360,20","its like the ocean,24,160,20","Really love the colors,11,380,20","The colors are okay but I don't like the shapes here.,-18,280,20","The painting makes me feel awe and like I am very little. Like I am alone at the bottom of the ocean.,41,300,20","Looks like an upclose dried set of water droplets. Boring.,-25,220,20","Isaiah","The painting makes me feel awe and like I am very little. Like I am alone at the bottom of the ocean.,41,300,20","Devin","Really love the colors,11,380,20","Robert","Raindrops splashing on the window.,50,360,20","4"
"2440","","image-button-response_instructions","261","1518657","0.0-259.0","AHZ7C7ETHYX3N","","0","instructions","","","","","","","","","","","","","","","","","","","","","","","",""
"1264","","image-button-response","262","1519927","0.0-260.0","AHZ7C7ETHYX3N","","0","","","","","","","","","","","","","","","","","","","","","","","","",""
