"rt","url","trial_type","trial_index","time_elapsed","internal_node_id","participant_id","stimulus","button_pressed","Name","responses","response","key_press","variableName","fixationTime","condition","trial","photo","subjectRating","subjectResponse","agentsNames","agent_1_Response","agent_2_Response","agent_3_Response","agent_4_Response","agent_5_Response","agent_6_Response","kept_1_name","kept_1_response","kept_2_name","kept_2_response","kept_3_name","kept_3_response","errorCounter"
"5419","external_page_harvard.html","external-html","0","5492","0.0-0.0","AIA7RZSAONU5M","","","","","","","","","","","","","","","","","","","","","","","","","","",""
"1607","","image-button-response","1","7102","0.0-1.0","AIA7RZSAONU5M","","1","","","","","","","","","","","","","","","","","","","","","","","","",""
"1659","","image-button-response","2","8770","0.0-2.0-0.0","AIA7RZSAONU5M","","1","phone","","","","","","","","","","","","","","","","","","","","","","","",""
"7738","","survey-text","3","16510","0.0-3.0-0.0","AIA7RZSAONU5M","","","","{""Q0"":""AIA7RZSAONU5M""}","","","","","","","","","","","","","","","","","","","","","","",""
"12728","","image-button-response_instructions","4","29242","0.0-4.0","AIA7RZSAONU5M","","0","instructions","","","","","","","","","","","","","","","","","","","","","","","",""
"10409","","image-button-response_instructions","5","39654","0.0-5.0","AIA7RZSAONU5M","img_art/ins/popularity/ins1.png","0","instructions","","","","","","","","","","","","","","","","","","","","","","","",""
"6058","","image-button-response_instructions","6","45714","0.0-6.0","AIA7RZSAONU5M","img_art/ins/popularity/ins2.png","0","instructions","","","","","","","","","","","","","","","","","","","","","","","",""
"7247","","image-button-response_instructions","7","52962","0.0-7.0","AIA7RZSAONU5M","img_art/ins/popularity/ins2Extreme.png","0","instructions","","","","","","","","","","","","","","","","","","","","","","","",""
"5561","","image-button-response_instructions","8","58527","0.0-8.0","AIA7RZSAONU5M","img_art/ins/popularity/ins3KEEPpop.PNG","0","instructions","","","","","","","","","","","","","","","","","","","","","","","",""
"3762","","image-button-response_instructions","9","62291","0.0-9.0","AIA7RZSAONU5M","img_art/ins/popularity/ins3ANamepop.PNG","0","instructions","","","","","","","","","","","","","","","","","","","","","","","",""
"2533","","image-button-response_instructions","10","64827","0.0-10.0","AIA7RZSAONU5M","img_art/ins/popularity/ins3ARatingpop.png","0","instructions","","","","","","","","","","","","","","","","","","","","","","","",""
"2889","","image-button-response_instructions","11","67719","0.0-11.0","AIA7RZSAONU5M","img_art/ins/popularity/ins3ATextpop.png","0","instructions","","","","","","","","","","","","","","","","","","","","","","","",""
"5871","","image-button-response_instructions","12","73593","0.0-12.0","AIA7RZSAONU5M","img_art/ins/popularity/ins3ALikespop.png","0","instructions","","","","","","","","","","","","","","","","","","","","","","","",""
"9621","","image-button-response_instructions","13","83217","0.0-13.0","AIA7RZSAONU5M","img_art/ins/popularity/ins3KEEPpop.PNG","0","instructions","","","","","","","","","","","","","","","","","","","","","","","",""
"3319","","image-button-response_instructions","14","86538","0.0-14.0","AIA7RZSAONU5M","img_art/ins/popularity/ins3_5RED.png","0","instructions","","","","","","","","","","","","","","","","","","","","","","","",""
"2194","","image-button-response_instructions","15","88734","0.0-15.0","AIA7RZSAONU5M","img_art/ins/popularity/ins3KEEPpop.PNG","0","instructions","","","","","","","","","","","","","","","","","","","","","","","",""
"6679","","image-button-response_instructions","16","95414","0.0-16.0","AIA7RZSAONU5M","img_art/ins/popularity/ins4KEEPpop.PNG","0","instructions","","","","","","","","","","","","","","","","","","","","","","","",""
"5073","","image-button-response_instructions","17","100489","0.0-17.0","AIA7RZSAONU5M","img_art/ins/popularity/ins5KEEPpop.PNG","0","instructions","","","","","","","","","","","","","","","","","","","","","","","",""
"1256","","image-button-response_instructions","18","101747","0.0-18.0","AIA7RZSAONU5M","","0","instructions","","","","","","","","","","","","","","","","","","","","","","","",""
"4582","","survey-text","19","106365","0.0-19.0-0.0","AIA7RZSAONU5M","","","","{""Q0"":""but""}","","","","","","","","","","","","","","","","","","","","","","",""
"16633","","survey-text","20","123001","0.0-20.0-0.0","AIA7RZSAONU5M","","","","{""Q0"":""it's pretty and reminds me of a meadow""}","","","","","","","","","","","","","","","","","","","","","","",""
"2761.800000011921","","image-slider-response","21","125767","0.0-21.0","AIA7RZSAONU5M","","","","","24","","","","","","","","","","","","","","","","","","","","","",""
"4788","","image-button-response","22","130780","0.0-22.0","AIA7RZSAONU5M","img_art/ins/1.jpg","0","","","","","","","","","","","","","","","","","","","","","","","","",""
"2498","","image-button-response","23","133283","0.0-23.0","AIA7RZSAONU5M","img_art/ins/1.jpg","0","","","","","","","","","","","","","","","","","","","","","","","","",""
"3780","","image-button-response","24","137068","0.0-24.0-0.0","AIA7RZSAONU5M","img_art/ins/1.jpg","5","","","","","","","","","","","","","","","","","","","","","","","","",""
"1043","","image-button-response","25","138117","0.0-25.0-0.0","AIA7RZSAONU5M","img_art/ins/1.jpg","4","","","","","","","","","","","","","","","","","","","","","","","","",""
"null","","html-keyboard-response","26","138621","0.0-26.0","AIA7RZSAONU5M","<p style=""font-size: 48px;"">+</p>","","","","","null","allTrialResponses","500","1","-2","img_art/ins/1.jpg","24","it's pretty and reminds me of a meadow","Allison,Ashley,Beth,Dora,Erika,Jen","looks like a lot of things going on in the mist,20,20,20","I just don't get why these type of art would be popular,-32,40,20","This color reminds me of poo,-46,60,20","looks like what my niece in 3rd grade did this afternoon,-50,80,20","I like the sophisticated brushwork,40,100,20","It reminds me of a candy land dream I had,36,120,20","Allison","looks like a lot of things going on in the mist,20,20,20","Jen","It reminds me of a candy land dream I had,36,120,20","Erika","I like the sophisticated brushwork,40,100,20","0"
"14543","","survey-text","27","153173","0.0-27.0-0.0","AIA7RZSAONU5M","","","","{""Q0"":""I like how it looks dark and menacing""}","","","","","","","","","","","","","","","","","","","","","","",""
"3785.899999976158","","image-slider-response","28","156962","0.0-28.0","AIA7RZSAONU5M","","","","","38","","","","","","","","","","","","","","","","","","","","","",""
"null","","image-button-response","29","161967","0.0-29.0","AIA7RZSAONU5M","img_art/ins/2.jpg","null","","","","","","","","","","","","","","","","","","","","","","","","",""
"3272","","image-button-response","30","165241","0.0-30.0","AIA7RZSAONU5M","img_art/ins/2.jpg","4","","","","","","","","","","","","","","","","","","","","","","","","",""
"1917","","image-button-response","31","167161","0.0-31.0-0.0","AIA7RZSAONU5M","img_art/ins/2.jpg","5","","","","","","","","","","","","","","","","","","","","","","","","",""
"2540","","image-button-response","32","169705","0.0-32.0-0.0","AIA7RZSAONU5M","img_art/ins/2.jpg","0","","","","","","","","","","","","","","","","","","","","","","","","",""
"null","","html-keyboard-response","33","170713","0.0-33.0","AIA7RZSAONU5M","<p style=""font-size: 48px;"">+</p>","","","","","null","allTrialResponses","1000","1","-1","img_art/ins/2.jpg","38","I like how it looks dark and menacing","Allison,Kara,Katie,Jenna,Erika,Jen","I don't have strong feelings about this,10,20,20","I like the blocks of color arrangements,30,160,20","too much color!,-28,180,20","One of my pet peevs,-48,140,20","I would never be able to compose a sophisticated pallete like this,48,100,20","It reminds me of a fireplace,36,120,20","Erika","I would never be able to compose a sophisticated pallete like this,48,100,20","Jen","It reminds me of a fireplace,36,120,20","Allison","I don't have strong feelings about this,10,20,20","0"
"14389","","survey-text","34","185110","0.0-34.0-0.0","AIA7RZSAONU5M","","","","{""Q0"":""I love the intensity of the blues used!""}","","","","","","","","","","","","","","","","","","","","","","",""
"3644","","image-slider-response","35","188757","0.0-35.0","AIA7RZSAONU5M","","","","","46","","","","","","","","","","","","","","","","","","","","","",""
"3070","","image-button-response","36","193762","0.0-36.0","AIA7RZSAONU5M","img_art/ins/3.jpg","0","","","","","","","","","","","","","","","","","","","","","","","","",""
"4133","","image-button-response","37","197898","0.0-37.0","AIA7RZSAONU5M","img_art/ins/3.jpg","1","","","","","","","","","","","","","","","","","","","","","","","","",""
"1042","","image-button-response","38","198945","0.0-38.0-0.0","AIA7RZSAONU5M","img_art/ins/3.jpg","4","","","","","","","","","","","","","","","","","","","","","","","","",""
"912","","image-button-response","39","199860","0.0-39.0-0.0","AIA7RZSAONU5M","img_art/ins/3.jpg","0","","","","","","","","","","","","","","","","","","","","","","","","",""
"null","","html-keyboard-response","40","200366","0.0-40.0","AIA7RZSAONU5M","<p style=""font-size: 48px;"">+</p>","","","","","null","allTrialResponses","500","1","0","img_art/ins/3.jpg","46","I love the intensity of the blues used!","Allison,Mary,Rose,Leslie,Erika,Jen","enjoy the different shades of blue,22,20,20","I like the overlapping of brushes,41,220,20","My daily routine, it's depressing,-20,240,20","It's an alright work,15,200,20","I feel connected to the artist,40,100,20","I can feel a rainy day from this painting,18,120,20","Mary","I like the overlapping of brushes,41,220,20","Erika","I feel connected to the artist,40,100,20","Allison","enjoy the different shades of blue,22,20,20","0"
"5803","","image-button-response_instructions","41","206177","0.0-41.0","AIA7RZSAONU5M","","0","instructions","","","","","","","","","","","","","","","","","","","","","","","",""
"11156","","survey-likert","42","217336","0.0-42.0-0.0","AIA7RZSAONU5M","","","","{""Q0"":"""",""Q1"":0,""Q2"":1}","","","","","","","","","","","","","","","","","","","","","","",""
"8541","","survey-text","43","225883","0.0-43.0-0.0","AIA7RZSAONU5M","","","","{""Q0"":""rock""}","","","","","","","","","","","","","","","","","","","","","","",""
"10927","","survey-text","44","236814","0.0-44.0-0.0","AIA7RZSAONU5M","","","","{""Q0"":""I like how it looks like rain on glass.""}","","","","","","","","","","","","","","","","","","","","","","",""
"3043.800000011921","","image-slider-response","45","239860","0.0-45.0","AIA7RZSAONU5M","","","","","17","","","","","","","","","","","","","","","","","","","","","",""
"null","","image-button-response","46","244891","0.0-46.0","AIA7RZSAONU5M","img_art/13.jpg","null","","","","","","","","","","","","","","","","","","","","","","","","",""
"652","","image-button-response","47","245546","0.0-47.0","AIA7RZSAONU5M","img_art/13.jpg","2","","","","","","","","","","","","","","","","","","","","","","","","",""
"1292","","image-button-response","48","246842","0.0-48.0-0.0","AIA7RZSAONU5M","img_art/13.jpg","4","","","","","","","","","","","","","","","","","","","","","","","","",""
"919","","image-button-response","49","247767","0.0-49.0-0.0","AIA7RZSAONU5M","img_art/13.jpg","5","","","","","","","","","","","","","","","","","","","","","","","","",""
"null","","html-keyboard-response","50","248774","0.0-50.0","AIA7RZSAONU5M","<p style=""font-size: 48px;"">+</p>","","","","","null","allTrialResponses","1000","1","1","img_art/13.jpg","17","I like how it looks like rain on glass.","Kathryn,Angelica,Crystal,Chelsea,Andrea,Laura","Reminds me of depression anxiety, but negativity is dampened by motion. It's trying to release itself through expression.,-10,140,20","It's too violent looking and there's too much contrast between the white/black.,-21,280,20","Reminiscent of Jackson Pollock and gives me a feeling of chaotic satisfaction,50,300,20","The colors are okay but I don't like the shapes here.,-18,180,20","Raindrops on a window. Makes me feel like traveling.,31,240,20","water on my shower curtain - I feel refreshed, renewed,9,320,20","Crystal","Reminiscent of Jackson Pollock and gives me a feeling of chaotic satisfaction,50,300,20","Andrea","Raindrops on a window. Makes me feel like traveling.,31,240,20","Laura","water on my shower curtain - I feel refreshed, renewed,9,320,20","0"
"23848","","survey-text","51","272631","0.0-51.0-0.0","AIA7RZSAONU5M","","","","{""Q0"":""I love the texture in the \""clouds\""""}","","","","","","","","","","","","","","","","","","","","","","",""
"3288.400000035763","","image-slider-response","52","275922","0.0-52.0","AIA7RZSAONU5M","","","","","35","","","","","","","","","","","","","","","","","","","","","",""
"2447","","image-button-response","53","280928","0.0-53.0","AIA7RZSAONU5M","img_art/17.jpg","1","","","","","","","","","","","","","","","","","","","","","","","","",""
"6534","","image-button-response","54","287467","0.0-54.0","AIA7RZSAONU5M","img_art/17.jpg","5","","","","","","","","","","","","","","","","","","","","","","","","",""
"915","","image-button-response","55","288387","0.0-55.0-0.0","AIA7RZSAONU5M","img_art/17.jpg","1","","","","","","","","","","","","","","","","","","","","","","","","",""
"606","","image-button-response","56","288997","0.0-56.0-0.0","AIA7RZSAONU5M","img_art/17.jpg","2","","","","","","","","","","","","","","","","","","","","","","","","",""
"null","","html-keyboard-response","57","290006","0.0-57.0","AIA7RZSAONU5M","<p style=""font-size: 48px;"">+</p>","","","","","null","allTrialResponses","1000","1","2","img_art/17.jpg","35","I love the texture in the ""clouds""","Shannon,Nicole,Crystal,Jacqueline,Andrea,Laura","I like the way the colors were used behind the tree. Makes the image colorful and interesting.,30,220,20","Feels nostalgic somehow,31,20,20","Embodies beauty and complexity and in simplicity as well,50,300,20","It's okay, I just don't see much too it.,7,300,20","A coming storm but I think I would appreciate it more with more contrast.,-12,240,20","home - reminds me of fond memories of the Barnes Museum courtyard (looks just like it),30,320,20","Laura","home - reminds me of fond memories of the Barnes Museum courtyard (looks just like it),30,320,20","Nicole","Feels nostalgic somehow,31,20,20","Crystal","Embodies beauty and complexity and in simplicity as well,50,300,20","0"
"14068","","survey-text","58","304082","0.0-58.0-0.0","AIA7RZSAONU5M","","","","{""Q0"":""This reminds me of a crow in a field""}","","","","","","","","","","","","","","","","","","","","","","",""
"3260.099999964237","","image-slider-response","59","307345","0.0-59.0","AIA7RZSAONU5M","","","","","9","","","","","","","","","","","","","","","","","","","","","",""
"3550","","image-button-response","60","312353","0.0-60.0","AIA7RZSAONU5M","img_art/6.jpg","0","","","","","","","","","","","","","","","","","","","","","","","","",""
"1088","","image-button-response","61","313445","0.0-61.0","AIA7RZSAONU5M","img_art/6.jpg","0","","","","","","","","","","","","","","","","","","","","","","","","",""
"3918","","image-button-response","62","317366","0.0-62.0-0.0","AIA7RZSAONU5M","img_art/6.jpg","2","","","","","","","","","","","","","","","","","","","","","","","","",""
"2823","","image-button-response","63","320193","0.0-63.0-0.0","AIA7RZSAONU5M","img_art/6.jpg","3","","","","","","","","","","","","","","","","","","","","","","","","",""
"null","","html-keyboard-response","64","321201","0.0-64.0","AIA7RZSAONU5M","<p style=""font-size: 48px;"">+</p>","","","","","null","allTrialResponses","1000","1","3","img_art/6.jpg","9","This reminds me of a crow in a field","Katherine,Nicole,Crystal,Hannah,Kimberly,Laura","This could be so many different things. I saw a bird first but then it looks like a needle going into skin,34,120,20","The colors and rough brush strokes make me nervous,-10,20,20","Gives me a feeling of solitude and nothingness,11,300,20","Looks like a bird. It's fine.,7,240,20","It's pretty dour,-10,260,20","graceful and light,35,320,20","Katherine","This could be so many different things. I saw a bird first but then it looks like a needle going into skin,34,120,20","Crystal","Gives me a feeling of solitude and nothingness,11,300,20","Hannah","Looks like a bird. It's fine.,7,240,20","0"
"9678","","survey-text","65","330887","0.0-65.0-0.0","AIA7RZSAONU5M","","","","{""Q0"":""This looks like a hand to me.""}","","","","","","","","","","","","","","","","","","","","","","",""
"4027.5","","image-slider-response","66","334918","0.0-66.0","AIA7RZSAONU5M","","","","","5","","","","","","","","","","","","","","","","","","","","","",""
"null","","image-button-response","67","339921","0.0-67.0","AIA7RZSAONU5M","img_art/4.jpg","null","","","","","","","","","","","","","","","","","","","","","","","","",""
"265","","image-button-response","68","340190","0.0-68.0","AIA7RZSAONU5M","img_art/4.jpg","0","","","","","","","","","","","","","","","","","","","","","","","","",""
"5708","","image-button-response","69","345902","0.0-69.0-0.0","AIA7RZSAONU5M","img_art/4.jpg","5","","","","","","","","","","","","","","","","","","","","","","","","",""
"878","","image-button-response","70","346785","0.0-70.0-0.0","AIA7RZSAONU5M","img_art/4.jpg","4","","","","","","","","","","","","","","","","","","","","","","","","",""
"null","","html-keyboard-response","71","347290","0.0-71.0","AIA7RZSAONU5M","<p style=""font-size: 48px;"">+</p>","","","","","null","allTrialResponses","500","1","4","img_art/4.jpg","5","This looks like a hand to me.","Katherine,Jordan,Crystal,Hannah,Alyssa,Sierra","I like how many different ways there are to interpret this.,27,120,20","The colors remind me of mcdonalds,-33,20,20","Looks like finger nails from the Guinness world record book.,-30,300,20","looks very rudimentary and too simple.,-14,240,20","Extremely simple and like not alot of time was put into it,-20,160,20","it looks like a deformed hand,-9,260,20","Katherine","I like how many different ways there are to interpret this.,27,120,20","Sierra","it looks like a deformed hand,-9,260,20","Alyssa","Extremely simple and like not alot of time was put into it,-20,160,20","0"
"14884","","survey-text","72","362181","0.0-72.0-0.0","AIA7RZSAONU5M","","","","{""Q0"":""This reminds me of a rollarcoaster.""}","","","","","","","","","","","","","","","","","","","","","","",""
"3194.5","","image-slider-response","73","365379","0.0-73.0","AIA7RZSAONU5M","","","","","17","","","","","","","","","","","","","","","","","","","","","",""
"null","","image-button-response","74","370385","0.0-74.0","AIA7RZSAONU5M","img_art/10.jpg","null","","","","","","","","","","","","","","","","","","","","","","","","",""
"8030","","image-button-response","75","378420","0.0-75.0","AIA7RZSAONU5M","img_art/10.jpg","1","","","","","","","","","","","","","","","","","","","","","","","","",""
"652","","image-button-response","76","379075","0.0-76.0-0.0","AIA7RZSAONU5M","img_art/10.jpg","0","","","","","","","","","","","","","","","","","","","","","","","","",""
"1809","","image-button-response","77","380888","0.0-77.0-0.0","AIA7RZSAONU5M","img_art/10.jpg","2","","","","","","","","","","","","","","","","","","","","","","","","",""
"null","","html-keyboard-response","78","381894","0.0-78.0","AIA7RZSAONU5M","<p style=""font-size: 48px;"">+</p>","","","","","null","allTrialResponses","1000","1","5","img_art/10.jpg","17","This reminds me of a rollarcoaster.","Katherine,Erica,Mikayla,Michelle,Alyssa,Sierra","This is pretty rad. The outline looks like a music staff,15,120,20","Relaxing; a lot of going on but colours make it easy to look at,20,80,20","Kinda creepy not my favorite,-26,300,20","This could be a guitar, or it could be a completely random shape.,-3,280,20","Bleak and uninteresting,-10,160,20","it just doesnt appeal to me.,-10,260,20","Erica","Relaxing; a lot of going on but colours make it easy to look at,20,80,20","Katherine","This is pretty rad. The outline looks like a music staff,15,120,20","Mikayla","Kinda creepy not my favorite,-26,300,20","0"
"4838","","survey-text","79","386743","0.0-79.0-0.0","AIA7RZSAONU5M","","","","{""Q0"":""sky""}","","","","","","","","","","","","","","","","","","","","","","",""
"14764","","survey-text","80","401511","0.0-80.0-0.0","AIA7RZSAONU5M","","","","{""Q0"":""This one is kind of muted and drab.""}","","","","","","","","","","","","","","","","","","","","","","",""
"2332.900000035763","","image-slider-response","81","403848","0.0-81.0","AIA7RZSAONU5M","","","","","-17","","","","","","","","","","","","","","","","","","","","","",""
"null","","image-button-response","82","408853","0.0-82.0","AIA7RZSAONU5M","img_art/26.jpg","null","","","","","","","","","","","","","","","","","","","","","","","","",""
"5285","","image-button-response","83","414141","0.0-83.0","AIA7RZSAONU5M","img_art/26.jpg","4","","","","","","","","","","","","","","","","","","","","","","","","",""
"1091","","image-button-response","84","415237","0.0-84.0-0.0","AIA7RZSAONU5M","img_art/26.jpg","5","","","","","","","","","","","","","","","","","","","","","","","","",""
"1630","","image-button-response","85","416871","0.0-85.0-0.0","AIA7RZSAONU5M","img_art/26.jpg","0","","","","","","","","","","","","","","","","","","","","","","","","",""
"null","","html-keyboard-response","86","418376","0.0-86.0","AIA7RZSAONU5M","<p style=""font-size: 48px;"">+</p>","","","","","null","allTrialResponses","1500","1","6","img_art/26.jpg","-17","This one is kind of muted and drab.","Katherine,Erica,Mikayla,Breanna,Kaylee,Angela","This style of objects that are supposed to be something but then are blurry is interesting.,38,120,20","very relaxing and easy going,22,80,20","Love the colors in this one.,22,300,20","Splash of paint in an ordered way,7,380,20","cool cozy town vibes,50,200,20","Nice, but not very interesting. I do like the blue tree though.,6,260,20","Kaylee","cool cozy town vibes,50,200,20","Angela","Nice, but not very interesting. I do like the blue tree though.,6,260,20","Katherine","This style of objects that are supposed to be something but then are blurry is interesting.,38,120,20","0"
"28546","","survey-text","87","446930","0.0-87.0-0.0","AIA7RZSAONU5M","","","","{""Q0"":""I like the smaller drawings on top of the larger shapes.""}","","","","","","","","","","","","","","","","","","","","","","",""
"2477","","image-slider-response","88","449411","0.0-88.0","AIA7RZSAONU5M","","","","","30","","","","","","","","","","","","","","","","","","","","","",""
"null","","image-button-response","89","454415","0.0-89.0","AIA7RZSAONU5M","img_art/9.jpg","null","","","","","","","","","","","","","","","","","","","","","","","","",""
"3156","","image-button-response","90","457574","0.0-90.0","AIA7RZSAONU5M","img_art/9.jpg","2","","","","","","","","","","","","","","","","","","","","","","","","",""
"700","","image-button-response","91","458279","0.0-91.0-0.0","AIA7RZSAONU5M","img_art/9.jpg","1","","","","","","","","","","","","","","","","","","","","","","","","",""
"1501","","image-button-response","92","459783","0.0-92.0-0.0","AIA7RZSAONU5M","img_art/9.jpg","0","","","","","","","","","","","","","","","","","","","","","","","","",""
"null","","html-keyboard-response","93","461291","0.0-93.0","AIA7RZSAONU5M","<p style=""font-size: 48px;"">+</p>","","","","","null","allTrialResponses","1500","1","7","img_art/9.jpg","30","I like the smaller drawings on top of the larger shapes.","Katherine,Kayla,Madeline,Cassidy,Kaylee,Angela","Idk what is in the middle but the blurry image makes it seem like the subject is of the painters interest,22,120,20","It's nice. Peaceful. Calming.,11,180,20","I really like the colors and details.,8,40,20","The colors are okay, but this looks like someone scribbled with a crayon,1,140,20","not my type of art,-33,200,20","This painting feels too jumbled for me to like it.,-12,260,20","Madeline","I really like the colors and details.,8,40,20","Kayla","It's nice. Peaceful. Calming.,11,180,20","Katherine","Idk what is in the middle but the blurry image makes it seem like the subject is of the painters interest,22,120,20","0"
"17687","","survey-text","94","478985","0.0-94.0-0.0","AIA7RZSAONU5M","","","","{""Q0"":""This is simple and makes me feel \""meh\"".""}","","","","","","","","","","","","","","","","","","","","","","",""
"2940.400000035763","","image-slider-response","95","481928","0.0-95.0","AIA7RZSAONU5M","","","","","-4","","","","","","","","","","","","","","","","","","","","","",""
"4486","","image-button-response","96","486932","0.0-96.0","AIA7RZSAONU5M","img_art/22.jpg","3","","","","","","","","","","","","","","","","","","","","","","","","",""
"902","","image-button-response","97","487837","0.0-97.0","AIA7RZSAONU5M","img_art/22.jpg","3","","","","","","","","","","","","","","","","","","","","","","","","",""
"1468","","image-button-response","98","489309","0.0-98.0-0.0","AIA7RZSAONU5M","img_art/22.jpg","1","","","","","","","","","","","","","","","","","","","","","","","","",""
"1218","","image-button-response","99","490530","0.0-99.0-0.0","AIA7RZSAONU5M","img_art/22.jpg","2","","","","","","","","","","","","","","","","","","","","","","","","",""
"null","","html-keyboard-response","100","491033","0.0-100.0","AIA7RZSAONU5M","<p style=""font-size: 48px;"">+</p>","","","","","null","allTrialResponses","500","1","8","img_art/22.jpg","-4","This is simple and makes me feel ""meh"".","Katherine,Kayla,Madeline,Allison,Brooke,Claire","Cool squares but what's the circle?,38,120,20","I don't like that it looks like a person is there upside down.,-16,180,20","I really like the colors here,3,40,20","Very generic mix of primary colors and shapes. Not a huge fan.,-10,140,20","Like this one, like a sunset,30,60,20","I enjoy the colors used,24,260,20","Allison","Very generic mix of primary colors and shapes. Not a huge fan.,-10,140,20","Kayla","I don't like that it looks like a person is there upside down.,-16,180,20","Madeline","I really like the colors here,3,40,20","0"
"13252","","survey-text","101","504293","0.0-101.0-0.0","AIA7RZSAONU5M","","","","{""Q0"":""I love how dream like this feels.""}","","","","","","","","","","","","","","","","","","","","","","",""
"2555.199999988079","","image-slider-response","102","506851","0.0-102.0","AIA7RZSAONU5M","","","","","41","","","","","","","","","","","","","","","","","","","","","",""
"3433","","image-button-response","103","511856","0.0-103.0","AIA7RZSAONU5M","img_art/8.jpg","2","","","","","","","","","","","","","","","","","","","","","","","","",""
"1079","","image-button-response","104","512942","0.0-104.0","AIA7RZSAONU5M","img_art/8.jpg","2","","","","","","","","","","","","","","","","","","","","","","","","",""
"922","","image-button-response","105","513867","0.0-105.0-0.0","AIA7RZSAONU5M","img_art/8.jpg","4","","","","","","","","","","","","","","","","","","","","","","","","",""
"634","","image-button-response","106","514506","0.0-106.0-0.0","AIA7RZSAONU5M","img_art/8.jpg","3","","","","","","","","","","","","","","","","","","","","","","","","",""
"null","","html-keyboard-response","107","516008","0.0-107.0","AIA7RZSAONU5M","<p style=""font-size: 48px;"">+</p>","","","","","null","allTrialResponses","1500","1","9","img_art/8.jpg","41","I love how dream like this feels.","Michaela,Kayla,Madeline,Allison,Olivia,Meghan","It's too boxy for my taste,-10,260,20","The faces are kinda freaky.,-17,180,20","Very nice detail and colors!,10,40,20","Eclectic city with good mix of colors.,10,140,20","being watched over,17,40,20","the face is creepy,-49,220,20","Madeline","Very nice detail and colors!,10,40,20","Olivia","being watched over,17,40,20","Allison","Eclectic city with good mix of colors.,10,140,20","0"
"23063","","survey-text","108","539078","0.0-108.0-0.0","AIA7RZSAONU5M","","","","{""Q0"":""The middle of this painting feels energetic. ""}","","","","","","","","","","","","","","","","","","","","","","",""
"3002","","image-slider-response","109","542083","0.0-109.0","AIA7RZSAONU5M","","","","","18","","","","","","","","","","","","","","","","","","","","","",""
"4548","","image-button-response","110","547087","0.0-110.0","AIA7RZSAONU5M","img_art/18.jpg","2","","","","","","","","","","","","","","","","","","","","","","","","",""
"274","","image-button-response","111","547365","0.0-111.0","AIA7RZSAONU5M","img_art/18.jpg","2","","","","","","","","","","","","","","","","","","","","","","","","",""
"1180","","image-button-response","112","548549","0.0-112.0-0.0","AIA7RZSAONU5M","img_art/18.jpg","3","","","","","","","","","","","","","","","","","","","","","","","","",""
"5512","","image-button-response","113","554066","0.0-113.0-0.0","AIA7RZSAONU5M","img_art/18.jpg","4","","","","","","","","","","","","","","","","","","","","","","","","",""
"null","","html-keyboard-response","114","554568","0.0-114.0","AIA7RZSAONU5M","<p style=""font-size: 48px;"">+</p>","","","","","null","allTrialResponses","500","1","10","img_art/18.jpg","18","The middle of this painting feels energetic. ","Haley,Kaitlyn,Madeline,Allison,Olivia,Cassandra","I could stare at this for long stretches of time and still find new details. I love it.,40,220,20","Umclear what is present in the picture,0,80,20","Good concept but then scribbled on a bit?,15,40,20","Colors are okay. Reminds me of cavalry.,10,140,20","death rides in life,-25,40,20","I don't know...kind of a dissatified feeling inside.,-6,120,20","Madeline","Good concept but then scribbled on a bit?,15,40,20","Allison","Colors are okay. Reminds me of cavalry.,10,140,20","Olivia","death rides in life,-25,40,20","0"
"5293","","survey-text","115","559873","0.0-115.0-0.0","AIA7RZSAONU5M","","","","{""Q0"":""our""}","","","","","","","","","","","","","","","","","","","","","","",""
"18610","","survey-text","116","578487","0.0-116.0-0.0","AIA7RZSAONU5M","","","","{""Q0"":""This is very simple, but I like the shapes and colors.""}","","","","","","","","","","","","","","","","","","","","","","",""
"2966.5","","image-slider-response","117","581456","0.0-117.0","AIA7RZSAONU5M","","","","","7","","","","","","","","","","","","","","","","","","","","","",""
"4048","","image-button-response","118","586461","0.0-118.0","AIA7RZSAONU5M","img_art/5.jpg","1","","","","","","","","","","","","","","","","","","","","","","","","",""
"582","","image-button-response","119","587047","0.0-119.0","AIA7RZSAONU5M","img_art/5.jpg","1","","","","","","","","","","","","","","","","","","","","","","","","",""
"4098","","image-button-response","120","591150","0.0-120.0-0.0","AIA7RZSAONU5M","img_art/5.jpg","4","","","","","","","","","","","","","","","","","","","","","","","","",""
"5200","","image-button-response","121","596356","0.0-121.0-0.0","AIA7RZSAONU5M","img_art/5.jpg","5","","","","","","","","","","","","","","","","","","","","","","","","",""
"null","","html-keyboard-response","122","597363","0.0-122.0","AIA7RZSAONU5M","<p style=""font-size: 48px;"">+</p>","","","","","null","allTrialResponses","1000","1","11","img_art/5.jpg","7","This is very simple, but I like the shapes and colors.","Samantha,Monica,Madeline,Allison,Olivia,Jasmine","I cant explain why i like this so much but it really calls out to me,50,140,20","I like how simple it is and the pink brushstrokes are nice,27,360,20","A bit too messy in my eyes,-4,40,20","Too loud. Dislike the bright yellow.,-5,140,20","a brush in time,-14,40,20","Not sure what to say about this piece honestly. It's okay I guess.,0,340,20","Monica","I like how simple it is and the pink brushstrokes are nice,27,360,20","Olivia","a brush in time,-14,40,20","Jasmine","Not sure what to say about this piece honestly. It's okay I guess.,0,340,20","0"
"21604","","survey-text","123","618974","0.0-123.0-0.0","AIA7RZSAONU5M","","","","{""Q0"":""This just seems kind messy and uncontrolled.""}","","","","","","","","","","","","","","","","","","","","","","",""
"3331.199999988079","","image-slider-response","124","622309","0.0-124.0","AIA7RZSAONU5M","","","","","-25","","","","","","","","","","","","","","","","","","","","","",""
"4359","","image-button-response","125","627319","0.0-125.0","AIA7RZSAONU5M","img_art/3.jpg","2","","","","","","","","","","","","","","","","","","","","","","","","",""
"2217","","image-button-response","126","629541","0.0-126.0","AIA7RZSAONU5M","img_art/3.jpg","2","","","","","","","","","","","","","","","","","","","","","","","","",""
"1502","","image-button-response","127","631046","0.0-127.0-0.0","AIA7RZSAONU5M","img_art/3.jpg","1","","","","","","","","","","","","","","","","","","","","","","","","",""
"1077","","image-button-response","128","632127","0.0-128.0-0.0","AIA7RZSAONU5M","img_art/3.jpg","4","","","","","","","","","","","","","","","","","","","","","","","","",""
"null","","html-keyboard-response","129","633634","0.0-129.0","AIA7RZSAONU5M","<p style=""font-size: 48px;"">+</p>","","","","","null","allTrialResponses","1500","1","12","img_art/3.jpg","-25","This just seems kind messy and uncontrolled.","Melissa,Monica,Katie,Danielle,Olivia,Jasmine","strong color, interesting negative shapes,21,240,20","It looks like random scribbles by a child and not appealing,-38,360,20","Messy. Looks like a children's drawing being passed off as expensive art. Too much red.,-50,160,20","Looks like it was painted with blood, which I'm aware is an art style, but it just looks messy.,-20,340,20","confusing taking over,-15,40,20","I don't really have a strong reaction to this one,0,340,20","Katie","Messy. Looks like a children's drawing being passed off as expensive art. Too much red.,-50,160,20","Monica","It looks like random scribbles by a child and not appealing,-38,360,20","Olivia","confusing taking over,-15,40,20","0"
"13124","","survey-text","130","646766","0.0-130.0-0.0","AIA7RZSAONU5M","","","","{""Q0"":""I like the colors, but they're a bit muted.""}","","","","","","","","","","","","","","","","","","","","","","",""
"3180.099999964237","","image-slider-response","131","649950","0.0-131.0","AIA7RZSAONU5M","","","","","6","","","","","","","","","","","","","","","","","","","","","",""
"null","","image-button-response","132","654961","0.0-132.0","AIA7RZSAONU5M","img_art/1.jpg","null","","","","","","","","","","","","","","","","","","","","","","","","",""
"2532","","image-button-response","133","657499","0.0-133.0","AIA7RZSAONU5M","img_art/1.jpg","5","","","","","","","","","","","","","","","","","","","","","","","","",""
"1351","","image-button-response","134","658853","0.0-134.0-0.0","AIA7RZSAONU5M","img_art/1.jpg","1","","","","","","","","","","","","","","","","","","","","","","","","",""
"2617","","image-button-response","135","661474","0.0-135.0-0.0","AIA7RZSAONU5M","img_art/1.jpg","3","","","","","","","","","","","","","","","","","","","","","","","","",""
"null","","html-keyboard-response","136","661976","0.0-136.0","AIA7RZSAONU5M","<p style=""font-size: 48px;"">+</p>","","","","","null","allTrialResponses","500","1","13","img_art/1.jpg","6","I like the colors, but they're a bit muted.","Autumn,Monica,Katie,Madison,Olivia,Mary","Doesn't represent anything in particular.,-47,340,20","I like the yellow and purple but the large red spot reminds me of blood and isn't great,6,360,20","Too messy. Just looks like a mess of dark colors.,-20,160,20","This looks like the same artist as the first picture, but cropped? Looks incomplete.,28,60,20","feels like there is meaning,9,40,20","This piece feels soft and romantic to me. I do not care for so much orange though.,3,180,20","Mary","This piece feels soft and romantic to me. I do not care for so much orange though.,3,180,20","Monica","I like the yellow and purple but the large red spot reminds me of blood and isn't great,6,360,20","Madison","This looks like the same artist as the first picture, but cropped? Looks incomplete.,28,60,20","0"
"17626","","survey-text","137","679609","0.0-137.0-0.0","AIA7RZSAONU5M","","","","{""Q0"":""Looks like a child scribbled with crayon over a painting.""}","","","","","","","","","","","","","","","","","","","","","","",""
"3105","","image-slider-response","138","682717","0.0-138.0","AIA7RZSAONU5M","","","","","-36","","","","","","","","","","","","","","","","","","","","","",""
"3380","","image-button-response","139","687725","0.0-139.0","AIA7RZSAONU5M","img_art/27.jpg","4","","","","","","","","","","","","","","","","","","","","","","","","",""
"689","","image-button-response","140","688419","0.0-140.0","AIA7RZSAONU5M","img_art/27.jpg","4","","","","","","","","","","","","","","","","","","","","","","","","",""
"1180","","image-button-response","141","689603","0.0-141.0-0.0","AIA7RZSAONU5M","img_art/27.jpg","1","","","","","","","","","","","","","","","","","","","","","","","","",""
"720","","image-button-response","142","690328","0.0-142.0-0.0","AIA7RZSAONU5M","img_art/27.jpg","0","","","","","","","","","","","","","","","","","","","","","","","","",""
"null","","html-keyboard-response","143","691835","0.0-143.0","AIA7RZSAONU5M","<p style=""font-size: 48px;"">+</p>","","","","","null","allTrialResponses","1500","1","14","img_art/27.jpg","-36","Looks like a child scribbled with crayon over a painting.","Brittany,Monica,Caitlin,Madison,Sara,Mary","The colors are put together in an interesting way.,-9,40,20","It tries to remind me of the autumn season but it's grey and looks dirty,-5,360,20","Looks like a child added his own interpretation with a black marker.,-5,80,20","The photographing is horribly distracting. I would feel more favorable toward the original colors/ brightness,1,60,20","Not cohesive design,-31,160,20","I like the layer upon layer of different mediums used here.,21,180,20","Sara","Not cohesive design,-31,160,20","Monica","It tries to remind me of the autumn season but it's grey and looks dirty,-5,360,20","Brittany","The colors are put together in an interesting way.,-9,40,20","0"
"10532","","survey-text","144","702377","0.0-144.0-0.0","AIA7RZSAONU5M","","","","{""Q0"":""The colors look like sludge.""}","","","","","","","","","","","","","","","","","","","","","","",""
"2813","","image-slider-response","145","705193","0.0-145.0","AIA7RZSAONU5M","","","","","-46","","","","","","","","","","","","","","","","","","","","","",""
"null","","image-button-response","146","710200","0.0-146.0","AIA7RZSAONU5M","img_art/2.jpg","null","","","","","","","","","","","","","","","","","","","","","","","","",""
"1052","","image-button-response","147","711255","0.0-147.0","AIA7RZSAONU5M","img_art/2.jpg","2","","","","","","","","","","","","","","","","","","","","","","","","",""
"1357","","image-button-response","148","712615","0.0-148.0-0.0","AIA7RZSAONU5M","img_art/2.jpg","0","","","","","","","","","","","","","","","","","","","","","","","","",""
"2157","","image-button-response","149","714776","0.0-149.0-0.0","AIA7RZSAONU5M","img_art/2.jpg","0","","","","","","","","","","","","","","","","","","","","","","","","",""
"684","","image-button-response","150","718792","0.0-149.1-0.1","AIA7RZSAONU5M","img_art/2.jpg","1","","","","","","","","","","","","","","","","","","","","","","","","",""
"null","","html-keyboard-response","151","719799","0.0-150.0","AIA7RZSAONU5M","<p style=""font-size: 48px;"">+</p>","","","","","null","allTrialResponses","1000","1","15","img_art/2.jpg","-46","The colors look like sludge.","Brittany,Monica,Amy,Savannah,Sara,Jessica","This one feels rather flat and not engaging.,-15,40,20","I like the blue color in the center but that's it, the green is a gross color,-3,360,20","The color palette of this painting is for me displeasing and immature.,-30,220,20","Very gross colors. What were they thinking?,-47,200,20","Dark tone feels sad,-30,160,20","I don't get the meaning of this piece either.,-13,400,20","Amy","The color palette of this painting is for me displeasing and immature.,-30,220,20","Brittany","This one feels rather flat and not engaging.,-15,40,20","Monica","I like the blue color in the center but that's it, the green is a gross color,-3,360,20","2"
"6164","","survey-text","152","725977","0.0-151.0-0.0","AIA7RZSAONU5M","","","","{""Q0"":""course""}","","","","","","","","","","","","","","","","","","","","","","",""
"16420","","survey-text","153","742401","0.0-152.0-0.0","AIA7RZSAONU5M","","","","{""Q0"":""I like the wonkiness of the shapes.""}","","","","","","","","","","","","","","","","","","","","","","",""
"4111.299999952316","","image-slider-response","154","746516","0.0-153.0","AIA7RZSAONU5M","","","","","17","","","","","","","","","","","","","","","","","","","","","",""
"null","","image-button-response","155","751525","0.0-154.0","AIA7RZSAONU5M","img_art/19.jpg","null","","","","","","","","","","","","","","","","","","","","","","","","",""
"2889","","image-button-response","156","754418","0.0-155.0","AIA7RZSAONU5M","img_art/19.jpg","5","","","","","","","","","","","","","","","","","","","","","","","","",""
"1221","","image-button-response","157","755643","0.0-156.0-0.0","AIA7RZSAONU5M","img_art/19.jpg","2","","","","","","","","","","","","","","","","","","","","","","","","",""
"1642","","image-button-response","158","757289","0.0-157.0-0.0","AIA7RZSAONU5M","img_art/19.jpg","0","","","","","","","","","","","","","","","","","","","","","","","","",""
"null","","html-keyboard-response","159","758796","0.0-158.0","AIA7RZSAONU5M","<p style=""font-size: 48px;"">+</p>","","","","","null","allTrialResponses","1500","1","16","img_art/19.jpg","17","I like the wonkiness of the shapes.","Brittany,Monica,Amy,Emily,Kelsey,Jamie","It looks too much of a rough sketch. Don't really enjoy looking at it.,-9,40,20","The shapes make me recall a city scene but it looks dirty,-22,360,20","Though provoking. Adventurous.,10,220,20","Loks like an amature did it, Not pleasing.,-45,40,20","not sure if i like it or not,1,240,20","Looks like a busy port,10,320,20","Jamie","Looks like a busy port,10,320,20","Amy","Though provoking. Adventurous.,10,220,20","Brittany","It looks too much of a rough sketch. Don't really enjoy looking at it.,-9,40,20","2"
"14565","","survey-text","160","773370","0.0-159.0-0.0","AIA7RZSAONU5M","","","","{""Q0"":""The teddy bear makes me laugh.""}","","","","","","","","","","","","","","","","","","","","","","",""
"4169","","image-slider-response","161","777542","0.0-160.0","AIA7RZSAONU5M","","","","","22","","","","","","","","","","","","","","","","","","","","","",""
"4547","","image-button-response","162","782553","0.0-161.0","AIA7RZSAONU5M","img_art/16.jpg","4","","","","","","","","","","","","","","","","","","","","","","","","",""
"607","","image-button-response","163","783165","0.0-162.0","AIA7RZSAONU5M","img_art/16.jpg","4","","","","","","","","","","","","","","","","","","","","","","","","",""
"897","","image-button-response","164","784066","0.0-163.0-0.0","AIA7RZSAONU5M","img_art/16.jpg","5","","","","","","","","","","","","","","","","","","","","","","","","",""
"2680","","image-button-response","165","786750","0.0-164.0-0.0","AIA7RZSAONU5M","img_art/16.jpg","1","","","","","","","","","","","","","","","","","","","","","","","","",""
"null","","html-keyboard-response","166","787255","0.0-165.0","AIA7RZSAONU5M","<p style=""font-size: 48px;"">+</p>","","","","","null","allTrialResponses","500","1","17","img_art/16.jpg","22","The teddy bear makes me laugh.","Brittany,Ashley,Amy,Amber,Amanda,Jamie","Kind of dull, colors and drawings are not really interesting.,0,40,20","A lot fo these could abstract or childrens work.,23,320,20","visceral and a little disturbing.,10,220,20","Don't like the teddy bear. It takes away from the painting.,-39,200,20","Very modern, reminds me of bansky,43,180,20","Weird and funny,40,320,20","Amanda","Very modern, reminds me of bansky,43,180,20","Jamie","Weird and funny,40,320,20","Ashley","A lot fo these could abstract or childrens work.,23,320,20","2"
"23316","","survey-text","167","810579","0.0-166.0-0.0","AIA7RZSAONU5M","","","","{""Q0"":""I like  the texture of all the black, reminds me of a bus.""}","","","","","","","","","","","","","","","","","","","","","","",""
"3897.5","","image-slider-response","168","814480","0.0-167.0","AIA7RZSAONU5M","","","","","39","","","","","","","","","","","","","","","","","","","","","",""
"null","","image-button-response","169","819490","0.0-168.0","AIA7RZSAONU5M","img_art/15.jpg","null","","","","","","","","","","","","","","","","","","","","","","","","",""
"1264","","image-button-response","170","820758","0.0-169.0","AIA7RZSAONU5M","img_art/15.jpg","1","","","","","","","","","","","","","","","","","","","","","","","","",""
"2654","","image-button-response","171","823416","0.0-170.0-0.0","AIA7RZSAONU5M","img_art/15.jpg","0","","","","","","","","","","","","","","","","","","","","","","","","",""
"1441","","image-button-response","172","824862","0.0-171.0-0.0","AIA7RZSAONU5M","img_art/15.jpg","5","","","","","","","","","","","","","","","","","","","","","","","","",""
"null","","html-keyboard-response","173","826367","0.0-172.0","AIA7RZSAONU5M","<p style=""font-size: 48px;"">+</p>","","","","","null","allTrialResponses","1500","1","18","img_art/15.jpg","39","I like  the texture of all the black, reminds me of a bus.","Erika,Ashley,Vanessa,Kylie,Amanda,Jamie","I like the dense patterns and the splashes  of blue,38,100,20","I think of birds, nature, levels of space.,18,320,20","I don't even know what's going on here. Again, this is too abstract.,-21,380,20","I don't know how I feel about this,31,300,20","It triggers my tripophobia,-50,180,20","Black and blue is my favorite color combination,35,320,20","Ashley","I think of birds, nature, levels of space.,18,320,20","Erika","I like the dense patterns and the splashes  of blue,38,100,20","Jamie","Black and blue is my favorite color combination,35,320,20","2"
"27692","","survey-text","174","854066","0.0-173.0-0.0","AIA7RZSAONU5M","","","","{""Q0"":""This reminds me of a misty morning in nature.""}","","","","","","","","","","","","","","","","","","","","","","",""
"3288.699999988079","","image-slider-response","175","857358","0.0-174.0","AIA7RZSAONU5M","","","","","35","","","","","","","","","","","","","","","","","","","","","",""
"null","","image-button-response","176","862363","0.0-175.0","AIA7RZSAONU5M","img_art/21.jpg","null","","","","","","","","","","","","","","","","","","","","","","","","",""
"2438","","image-button-response","177","864805","0.0-176.0","AIA7RZSAONU5M","img_art/21.jpg","1","","","","","","","","","","","","","","","","","","","","","","","","",""
"1097","","image-button-response","178","865906","0.0-177.0-0.0","AIA7RZSAONU5M","img_art/21.jpg","4","","","","","","","","","","","","","","","","","","","","","","","","",""
"632","","image-button-response","179","866542","0.0-178.0-0.0","AIA7RZSAONU5M","img_art/21.jpg","5","","","","","","","","","","","","","","","","","","","","","","","","",""
"null","","html-keyboard-response","180","867045","0.0-179.0","AIA7RZSAONU5M","<p style=""font-size: 48px;"">+</p>","","","","","null","allTrialResponses","500","1","19","img_art/21.jpg","35","This reminds me of a misty morning in nature.","Erika,Ashley,Miranda,Jennifer,Chloe,Jamie","Indistinct, but beautiful hues,10,100,20","Disturbing, land meets ocean, lvoely really.,43,320,20","This looks very interesting because something is happening but I can't tell what.,28,320,20","Bland, this painting is my least favorite,-20,380,20","Lovely colors and emotive effects. Turner-esque in a not-so derivative way.,44,220,20","Contrast of fire and water looks cool,20,320,20","Ashley","Disturbing, land meets ocean, lvoely really.,43,320,20","Chloe","Lovely colors and emotive effects. Turner-esque in a not-so derivative way.,44,220,20","Jamie","Contrast of fire and water looks cool,20,320,20","2"
"17436","","survey-text","181","884489","0.0-180.0-0.0","AIA7RZSAONU5M","","","","{""Q0"":""Looks dirty like pollution.""}","","","","","","","","","","","","","","","","","","","","","","",""
"3033.400000035763","","image-slider-response","182","887526","0.0-181.0","AIA7RZSAONU5M","","","","","-19","","","","","","","","","","","","","","","","","","","","","",""
"null","","image-button-response","183","892534","0.0-182.0","AIA7RZSAONU5M","img_art/20.jpg","null","","","","","","","","","","","","","","","","","","","","","","","","",""
"643","","image-button-response","184","893181","0.0-183.0","AIA7RZSAONU5M","img_art/20.jpg","2","","","","","","","","","","","","","","","","","","","","","","","","",""
"2208","","image-button-response","185","895392","0.0-184.0-0.0","AIA7RZSAONU5M","img_art/20.jpg","4","","","","","","","","","","","","","","","","","","","","","","","","",""
"3355","","image-button-response","186","898751","0.0-185.0-0.0","AIA7RZSAONU5M","img_art/20.jpg","0","","","","","","","","","","","","","","","","","","","","","","","","",""
"null","","html-keyboard-response","187","899762","0.0-186.0","AIA7RZSAONU5M","<p style=""font-size: 48px;"">+</p>","","","","","null","allTrialResponses","1000","1","20","img_art/20.jpg","-19","Looks dirty like pollution.","Lindsey,Ashley,Alexandria,Dominique,Chloe,Jamie","Not sure what it is. The colors are pleasant; makes me want to figure it out. An animal skull in the desert?,10,400,20","Painting within a painting, abstract.,32,320,20","it looks like a car crash which is depressing,-19,80,20","I love the colors and coukd spend alot of time with the picture,33,400,20","Mood setting if a little dreary,20,220,20","Looks like some type of future dystopian civilization,35,320,20","Alexandria","it looks like a car crash which is depressing,-19,80,20","Chloe","Mood setting if a little dreary,20,220,20","Lindsey","Not sure what it is. The colors are pleasant; makes me want to figure it out. An animal skull in the desert?,10,400,20","2"
"3818","","survey-text","188","903592","0.0-187.0-0.0","AIA7RZSAONU5M","","","","{""Q0"":""we""}","","","","","","","","","","","","","","","","","","","","","","",""
"17623","","survey-text","189","921217","0.0-188.0-0.0","AIA7RZSAONU5M","","","","{""Q0"":""The repeating squares is interesting.""}","","","","","","","","","","","","","","","","","","","","","","",""
"3415.5","","image-slider-response","190","924636","0.0-189.0","AIA7RZSAONU5M","","","","","13","","","","","","","","","","","","","","","","","","","","","",""
"null","","image-button-response","191","929645","0.0-190.0","AIA7RZSAONU5M","img_art/12.jpg","null","","","","","","","","","","","","","","","","","","","","","","","","",""
"1478","","image-button-response","192","931128","0.0-191.0","AIA7RZSAONU5M","img_art/12.jpg","4","","","","","","","","","","","","","","","","","","","","","","","","",""
"1583","","image-button-response","193","932714","0.0-192.0-0.0","AIA7RZSAONU5M","img_art/12.jpg","5","","","","","","","","","","","","","","","","","","","","","","","","",""
"1846","","image-button-response","194","934565","0.0-193.0-0.0","AIA7RZSAONU5M","img_art/12.jpg","3","","","","","","","","","","","","","","","","","","","","","","","","",""
"null","","html-keyboard-response","195","935069","0.0-194.0","AIA7RZSAONU5M","<p style=""font-size: 48px;"">+</p>","","","","","null","allTrialResponses","500","1","21","img_art/12.jpg","13","The repeating squares is interesting.","Lindsey,Margaret,Alexandria,Sabrina,Chloe,Grace","Ugly colors and I'm just not too much a fan of cubist abstract art.,-50,400,20","I like the bottom half and hate the top half,7,100,20","don't feel a lot but it seems very simple,-6,80,20","I like the fact it shares both light and edgy,32,120,20","Nice hallway art for a hotel.,21,220,20","Love the colors & the abstractness.,31,180,20","Chloe","Nice hallway art for a hotel.,21,220,20","Grace","Love the colors & the abstractness.,31,180,20","Sabrina","I like the fact it shares both light and edgy,32,120,20","2"
"24405","","survey-text","196","959482","0.0-195.0-0.0","AIA7RZSAONU5M","","","","{""Q0"":""I like the energy in the middle, it feels like figures to me.""}","","","","","","","","","","","","","","","","","","","","","","",""
"3574","","image-slider-response","197","963060","0.0-196.0","AIA7RZSAONU5M","","","","","26","","","","","","","","","","","","","","","","","","","","","",""
"4382","","image-button-response","198","968063","0.0-197.0","AIA7RZSAONU5M","img_art/28.jpg","4","","","","","","","","","","","","","","","","","","","","","","","","",""
"783","","image-button-response","199","968850","0.0-198.0","AIA7RZSAONU5M","img_art/28.jpg","4","","","","","","","","","","","","","","","","","","","","","","","","",""
"920","","image-button-response","200","969773","0.0-199.0-0.0","AIA7RZSAONU5M","img_art/28.jpg","5","","","","","","","","","","","","","","","","","","","","","","","","",""
"3676","","image-button-response","201","973453","0.0-200.0-0.0","AIA7RZSAONU5M","img_art/28.jpg","0","","","","","","","","","","","","","","","","","","","","","","","","",""
"null","","html-keyboard-response","202","974963","0.0-201.0","AIA7RZSAONU5M","<p style=""font-size: 48px;"">+</p>","","","","","null","allTrialResponses","1500","1","22","img_art/28.jpg","26","I like the energy in the middle, it feels like figures to me.","Destiny,Emma,Maria,Sabrina,Chloe,Grace","I wish I knew why I liked it, maybes its the pinky tones,36,360,20","Don't love the colors,-10,60,20","I want to like it, but I'm not really sure what to make of it,2,120,20","Self-hate and abuse at home, unsafe and torturing,-30,120,20","Evocative but a little dreary.,20,220,20","A meeting in Old Jerusalem.,11,180,20","Chloe","Evocative but a little dreary.,20,220,20","Grace","A meeting in Old Jerusalem.,11,180,20","Destiny","I wish I knew why I liked it, maybes its the pinky tones,36,360,20","2"
"19612","","survey-text","203","994585","0.0-202.0-0.0","AIA7RZSAONU5M","","","","{""Q0"":""I like the contrast of white against the colors.""}","","","","","","","","","","","","","","","","","","","","","","",""
"1743.3999999761581","","image-slider-response","204","996332","0.0-203.0","AIA7RZSAONU5M","","","","","26","","","","","","","","","","","","","","","","","","","","","",""
"null","","image-button-response","205","1001343","0.0-204.0","AIA7RZSAONU5M","img_art/23.jpg","null","","","","","","","","","","","","","","","","","","","","","","","","",""
"936","","image-button-response","206","1002283","0.0-205.0","AIA7RZSAONU5M","img_art/23.jpg","5","","","","","","","","","","","","","","","","","","","","","","","","",""
"1124","","image-button-response","207","1003410","0.0-206.0-0.0","AIA7RZSAONU5M","img_art/23.jpg","2","","","","","","","","","","","","","","","","","","","","","","","","",""
"1041","","image-button-response","208","1004457","0.0-207.0-0.0","AIA7RZSAONU5M","img_art/23.jpg","3","","","","","","","","","","","","","","","","","","","","","","","","",""
"null","","html-keyboard-response","209","1004960","0.0-208.0","AIA7RZSAONU5M","<p style=""font-size: 48px;"">+</p>","","","","","null","allTrialResponses","500","1","23","img_art/23.jpg","26","I like the contrast of white against the colors.","Destiny,Hailey,Briana,Alexandra,Chloe,Grace","This looks like the cover art for a scene band,-29,360,20","cold and dark feeling,-27,200,20","White in the middle look like people dancing naked,19,400,20","This is my favorite of them all. I love the colors.,41,60,20","Poster shop camp.,-40,220,20","Looks like fireworks.,21,180,20","Grace","Looks like fireworks.,21,180,20","Briana","White in the middle look like people dancing naked,19,400,20","Alexandra","This is my favorite of them all. I love the colors.,41,60,20","2"
"19033","","survey-text","210","1024001","0.0-209.0-0.0","AIA7RZSAONU5M","","","","{""Q0"":""This looks like a dreary city scape, but I like it.""}","","","","","","","","","","","","","","","","","","","","","","",""
"2908.300000011921","","image-slider-response","211","1026912","0.0-210.0","AIA7RZSAONU5M","","","","","34","","","","","","","","","","","","","","","","","","","","","",""
"4252","","image-button-response","212","1031922","0.0-211.0","AIA7RZSAONU5M","img_art/11.jpg","5","","","","","","","","","","","","","","","","","","","","","","","","",""
"1120","","image-button-response","213","1033047","0.0-212.0","AIA7RZSAONU5M","img_art/11.jpg","5","","","","","","","","","","","","","","","","","","","","","","","","",""
"917","","image-button-response","214","1033968","0.0-213.0-0.0","AIA7RZSAONU5M","img_art/11.jpg","3","","","","","","","","","","","","","","","","","","","","","","","","",""
"1113","","image-button-response","215","1035086","0.0-214.0-0.0","AIA7RZSAONU5M","img_art/11.jpg","1","","","","","","","","","","","","","","","","","","","","","","","","",""
"null","","html-keyboard-response","216","1035594","0.0-215.0","AIA7RZSAONU5M","<p style=""font-size: 48px;"">+</p>","","","","","null","allTrialResponses","500","1","24","img_art/11.jpg","34","This looks like a dreary city scape, but I like it.","Alicia,Kaitlin,Briana,Alexandra,Diana,Grace","dna, odd but nice.,25,120,20","a beautiful piece of art,33,60,20","Grays arent my thing,-25,400,20","I normally would not like this photo, but the design is nice.,21,60,20","It makes my head feel dizzy. So I rated it lower.,-25,380,20","Rainy asian city scape.,31,180,20","Grace","Rainy asian city scape.,31,180,20","Alexandra","I normally would not like this photo, but the design is nice.,21,60,20","Kaitlin","a beautiful piece of art,33,60,20","2"
"17635","","survey-text","217","1053239","0.0-216.0-0.0","AIA7RZSAONU5M","","","","{""Q0"":""I love the lady liberty figure in the middle.""}","","","","","","","","","","","","","","","","","","","","","","",""
"3379.400000035763","","image-slider-response","218","1056621","0.0-217.0","AIA7RZSAONU5M","","","","","34","","","","","","","","","","","","","","","","","","","","","",""
"null","","image-button-response","219","1061625","0.0-218.0","AIA7RZSAONU5M","img_art/25.jpg","null","","","","","","","","","","","","","","","","","","","","","","","","",""
"13143","","image-button-response","220","1074772","0.0-219.0","AIA7RZSAONU5M","img_art/25.jpg","4","","","","","","","","","","","","","","","","","","","","","","","","",""
"2320","","image-button-response","221","1077096","0.0-220.0-0.0","AIA7RZSAONU5M","img_art/25.jpg","0","","","","","","","","","","","","","","","","","","","","","","","","",""
"3000","","image-button-response","222","1080100","0.0-221.0-0.0","AIA7RZSAONU5M","img_art/25.jpg","0","","","","","","","","","","","","","","","","","","","","","","","","",""
"1375","","image-button-response","223","1085026","0.0-221.1-0.1","AIA7RZSAONU5M","img_art/25.jpg","5","","","","","","","","","","","","","","","","","","","","","","","","",""
"null","","html-keyboard-response","224","1086536","0.0-222.0","AIA7RZSAONU5M","<p style=""font-size: 48px;"">+</p>","","","","","null","allTrialResponses","1500","1","25","img_art/25.jpg","34","I love the lady liberty figure in the middle.","Anna,Kaitlin,Erin,Alexandra,Stephanie,Grace","I love the green and the texture,50,300,20","i feel a bit dull, a bit scared,-20,60,20","Looks like glow in the dark halloween decoration,-38,120,20","This is too dark and creepy. I also hate the color,-30,60,20","It made me think of healing.,22,300,20","Scary. Something out of a Stephen King book/movie.,-31,180,20","Stephanie","It made me think of healing.,22,300,20","Anna","I love the green and the texture,50,300,20","Grace","Scary. Something out of a Stephen King book/movie.,-31,180,20","4"
"4566","","survey-text","225","1091119","0.0-223.0-0.0","AIA7RZSAONU5M","","","","{""Q0"":""table""}","","","","","","","","","","","","","","","","","","","","","","",""
"11941","","survey-text","226","1103063","0.0-224.0-0.0","AIA7RZSAONU5M","","","","{""Q0"":""This reminds me of a tree.""}","","","","","","","","","","","","","","","","","","","","","","",""
"2655.2999999523163","","image-slider-response","227","1105722","0.0-225.0","AIA7RZSAONU5M","","","","","5","","","","","","","","","","","","","","","","","","","","","",""
"null","","image-button-response","228","1110726","0.0-226.0","AIA7RZSAONU5M","img_art/14.jpg","null","","","","","","","","","","","","","","","","","","","","","","","","",""
"2345","","image-button-response","229","1113074","0.0-227.0","AIA7RZSAONU5M","img_art/14.jpg","0","","","","","","","","","","","","","","","","","","","","","","","","",""
"945","","image-button-response","230","1114023","0.0-228.0-0.0","AIA7RZSAONU5M","img_art/14.jpg","3","","","","","","","","","","","","","","","","","","","","","","","","",""
"580","","image-button-response","231","1114607","0.0-229.0-0.0","AIA7RZSAONU5M","img_art/14.jpg","4","","","","","","","","","","","","","","","","","","","","","","","","",""
"null","","html-keyboard-response","232","1116109","0.0-230.0","AIA7RZSAONU5M","<p style=""font-size: 48px;"">+</p>","","","","","null","allTrialResponses","1500","1","26","img_art/14.jpg","5","This reminds me of a tree.","Anna,Tiffany,Elizabeth,Brianna,Stephanie,Grace","It reminds me of a tree in the desert.,15,300,20","I feel uncomfortable looking at this painting, it is a mess that needs to be cleaned up.,-16,360,20","Love the abstractness of this painting,39,20,20","It uses interesting techniques on this picture, but I have no feelings for or against.,1,20,20","Late Winter when things are just starting to bloom.,21,300,20","Like some of the colors but not much else.,1,180,20","Anna","It reminds me of a tree in the desert.,15,300,20","Brianna","It uses interesting techniques on this picture, but I have no feelings for or against.,1,20,20","Stephanie","Late Winter when things are just starting to bloom.,21,300,20","4"
"13074","","survey-text","233","1129193","0.0-231.0-0.0","AIA7RZSAONU5M","","","","{""Q0"":""It just looks like sand on the ground.""}","","","","","","","","","","","","","","","","","","","","","","",""
"2430.199999988079","","image-slider-response","234","1131627","0.0-232.0","AIA7RZSAONU5M","","","","","-24","","","","","","","","","","","","","","","","","","","","","",""
"4650","","image-button-response","235","1136636","0.0-233.0","AIA7RZSAONU5M","img_art/7.jpg","0","","","","","","","","","","","","","","","","","","","","","","","","",""
"1241","","image-button-response","236","1137882","0.0-234.0","AIA7RZSAONU5M","img_art/7.jpg","0","","","","","","","","","","","","","","","","","","","","","","","","",""
"882","","image-button-response","237","1138767","0.0-235.0-0.0","AIA7RZSAONU5M","img_art/7.jpg","2","","","","","","","","","","","","","","","","","","","","","","","","",""
"754","","image-button-response","238","1139526","0.0-236.0-0.0","AIA7RZSAONU5M","img_art/7.jpg","5","","","","","","","","","","","","","","","","","","","","","","","","",""
"null","","html-keyboard-response","239","1140030","0.0-237.0","AIA7RZSAONU5M","<p style=""font-size: 48px;"">+</p>","","","","","null","allTrialResponses","500","1","27","img_art/7.jpg","-24","It just looks like sand on the ground.","Anna,Rebecca,Makayla,Brianna,Stephanie,Isabella","It's kind of ugly but I like the texture.,10,300,20","would love to take a closer look at the texture,15,100,20","It's just like sand from the beach,2,80,20","Looks plain and dull, sorry.,-31,20,20","This looks muddy and stomped on. I think of destruction.,-50,300,20","Dessert like almost like dry land,4,280,20","Anna","It's kind of ugly but I like the texture.,10,300,20","Makayla","It's just like sand from the beach,2,80,20","Isabella","Dessert like almost like dry land,4,280,20","4"
"10873","","survey-text","240","1150912","0.0-238.0-0.0","AIA7RZSAONU5M","","","","{""Q0"":""I love the energy of the water.""}","","","","","","","","","","","","","","","","","","","","","","",""
"2830.800000011921","","image-slider-response","241","1153746","0.0-239.0","AIA7RZSAONU5M","","","","","24","","","","","","","","","","","","","","","","","","","","","",""
"4268","","image-button-response","242","1158755","0.0-240.0","AIA7RZSAONU5M","img_art/24.jpg","3","","","","","","","","","","","","","","","","","","","","","","","","",""
"615","","image-button-response","243","1159373","0.0-241.0","AIA7RZSAONU5M","img_art/24.jpg","3","","","","","","","","","","","","","","","","","","","","","","","","",""
"835","","image-button-response","244","1160211","0.0-242.0-0.0","AIA7RZSAONU5M","img_art/24.jpg","5","","","","","","","","","","","","","","","","","","","","","","","","",""
"1527","","image-button-response","245","1161743","0.0-243.0-0.0","AIA7RZSAONU5M","img_art/24.jpg","0","","","","","","","","","","","","","","","","","","","","","","","","",""
"null","","html-keyboard-response","246","1162246","0.0-244.0","AIA7RZSAONU5M","<p style=""font-size: 48px;"">+</p>","","","","","null","allTrialResponses","500","1","28","img_art/24.jpg","24","I love the energy of the water.","Anna,Sophia,Makayla,Natalie,Cheyenne,Isabella","I like how it evokes the feeling of being in a forest. The colors are pretty,31,300,20","Hmm. Don't know what to make of this one.,1,280,20","Looks like a serene waterfall and woods,29,80,20","I like the waterfall,22,400,20","I like how the colors mix in this one.,20,200,20","A peaceful day by the river,42,280,20","Natalie","I like the waterfall,22,400,20","Isabella","A peaceful day by the river,42,280,20","Anna","I like how it evokes the feeling of being in a forest. The colors are pretty,31,300,20","4"
"17250","","survey-text","247","1179508","0.0-245.0-0.0","AIA7RZSAONU5M","","","","{""Q0"":""Strange and surreal, but I like it.""}","","","","","","","","","","","","","","","","","","","","","","",""
"2423.5","","image-slider-response","248","1181934","0.0-246.0","AIA7RZSAONU5M","","","","","20","","","","","","","","","","","","","","","","","","","","","",""
"4402","","image-button-response","249","1186939","0.0-247.0","AIA7RZSAONU5M","img_art/29.jpg","4","","","","","","","","","","","","","","","","","","","","","","","","",""
"1405","","image-button-response","250","1188349","0.0-248.0","AIA7RZSAONU5M","img_art/29.jpg","4","","","","","","","","","","","","","","","","","","","","","","","","",""
"803","","image-button-response","251","1189156","0.0-249.0-0.0","AIA7RZSAONU5M","img_art/29.jpg","3","","","","","","","","","","","","","","","","","","","","","","","","",""
"1188","","image-button-response","252","1190347","0.0-250.0-0.0","AIA7RZSAONU5M","img_art/29.jpg","0","","","","","","","","","","","","","","","","","","","","","","","","",""
"null","","html-keyboard-response","253","1191854","0.0-251.0","AIA7RZSAONU5M","<p style=""font-size: 48px;"">+</p>","","","","","null","allTrialResponses","1500","1","29","img_art/29.jpg","20","Strange and surreal, but I like it.","Anna,Alexis,Shelby,Natalie,Molly,Isabella","I like the texture and colors and how it makes me feel. I like how it's different from other abstract art.,45,300,20","The black color is great, but I'm really not a fan of this hectic style,-40,100,20","Doesnt say much for me,0,240,20","my response to the picture is that it looks so nice and cool and the details,34,400,20","Looks kinda scary.,25,340,20","Darkness and torment,-50,280,20","Molly","Looks kinda scary.,25,340,20","Natalie","my response to the picture is that it looks so nice and cool and the details,34,400,20","Anna","I like the texture and colors and how it makes me feel. I like how it's different from other abstract art.,45,300,20","4"
"19088","","survey-text","254","1210951","0.0-252.0-0.0","AIA7RZSAONU5M","","","","{""Q0"":""The red strokes have a great energy.""}","","","","","","","","","","","","","","","","","","","","","","",""
"3629.699999988079","","image-slider-response","255","1214584","0.0-253.0","AIA7RZSAONU5M","","","","","19","","","","","","","","","","","","","","","","","","","","","",""
"null","","image-button-response","256","1219589","0.0-254.0","AIA7RZSAONU5M","img_art/30.jpg","null","","","","","","","","","","","","","","","","","","","","","","","","",""
"347","","image-button-response","257","1219941","0.0-255.0","AIA7RZSAONU5M","img_art/30.jpg","2","","","","","","","","","","","","","","","","","","","","","","","","",""
"823","","image-button-response","258","1220769","0.0-256.0-0.0","AIA7RZSAONU5M","img_art/30.jpg","0","","","","","","","","","","","","","","","","","","","","","","","","",""
"750","","image-button-response","259","1221523","0.0-257.0-0.0","AIA7RZSAONU5M","img_art/30.jpg","4","","","","","","","","","","","","","","","","","","","","","","","","",""
"null","","html-keyboard-response","260","1222526","0.0-258.0","AIA7RZSAONU5M","<p style=""font-size: 48px;"">+</p>","","","","","null","allTrialResponses","1000","1","30","img_art/30.jpg","19","The red strokes have a great energy.","Anna,Heather,Kristen,Natalie,Molly,Mariah","It looks like a pretty but unremarkable painting in a doctors office,15,300,20","beautiful paint brush strokes,1,260,20","makes me think of a tunnel filled with graffiti,19,280,20","the colors look nice,19,400,20","I like the way the artist has painted his work.,40,340,20","It just feels hasty and not well composed. Has an angsty teen feel,-31,140,20","Kristen","makes me think of a tunnel filled with graffiti,19,280,20","Anna","It looks like a pretty but unremarkable painting in a doctors office,15,300,20","Molly","I like the way the artist has painted his work.,40,340,20","4"
"4798","","image-button-response_instructions","261","1227332","0.0-259.0","AIA7RZSAONU5M","","0","instructions","","","","","","","","","","","","","","","","","","","","","","","",""
"1609","","image-button-response","262","1228950","0.0-260.0","AIA7RZSAONU5M","","0","","","","","","","","","","","","","","","","","","","","","","","","",""
