"rt","url","trial_type","trial_index","time_elapsed","internal_node_id","participant_id","stimulus","button_pressed","Name","responses","response","key_press","variableName","fixationTime","condition","trial","photo","subjectRating","subjectResponse","agentsNames","agent_1_Response","agent_2_Response","agent_3_Response","agent_4_Response","agent_5_Response","agent_6_Response","kept_1_name","kept_1_response","kept_2_name","kept_2_response","kept_3_name","kept_3_response","errorCounter"
"26857","external_page_harvard.html","external-html","0","27014","0.0-0.0","AIJIWIBFAT2DG","","","","","","","","","","","","","","","","","","","","","","","","","","",""
"4554","","image-button-response","1","31571","0.0-1.0","AIJIWIBFAT2DG","","0","","","","","","","","","","","","","","","","","","","","","","","","",""
"2851","","image-button-response","2","34428","0.0-2.0-0.0","AIJIWIBFAT2DG","","1","phone","","","","","","","","","","","","","","","","","","","","","","","",""
"8605","","survey-text","3","43036","0.0-3.0-0.0","AIJIWIBFAT2DG","","","","{""Q0"":""AIJIWIBFAT2DG""}","","","","","","","","","","","","","","","","","","","","","","",""
"11026","","image-button-response_instructions","4","54064","0.0-4.0","AIJIWIBFAT2DG","","0","instructions","","","","","","","","","","","","","","","","","","","","","","","",""
"48280","","image-button-response_instructions","5","102345","0.0-5.0","AIJIWIBFAT2DG","img_art/ins/popularity/ins1.png","0","instructions","","","","","","","","","","","","","","","","","","","","","","","",""
"16070","","image-button-response_instructions","6","118417","0.0-6.0","AIJIWIBFAT2DG","img_art/ins/popularity/ins2.png","0","instructions","","","","","","","","","","","","","","","","","","","","","","","",""
"33642","","image-button-response_instructions","7","152061","0.0-7.0","AIJIWIBFAT2DG","img_art/ins/popularity/ins2Extreme.png","0","instructions","","","","","","","","","","","","","","","","","","","","","","","",""
"19580","","image-button-response_instructions","8","171642","0.0-8.0","AIJIWIBFAT2DG","img_art/ins/popularity/ins3KEEPpop.PNG","0","instructions","","","","","","","","","","","","","","","","","","","","","","","",""
"11872","","image-button-response_instructions","9","183516","0.0-9.0","AIJIWIBFAT2DG","img_art/ins/popularity/ins3ANamepop.PNG","0","instructions","","","","","","","","","","","","","","","","","","","","","","","",""
"4874","","image-button-response_instructions","10","188392","0.0-10.0","AIJIWIBFAT2DG","img_art/ins/popularity/ins3ARatingpop.png","0","instructions","","","","","","","","","","","","","","","","","","","","","","","",""
"2122","","image-button-response_instructions","11","190516","0.0-11.0","AIJIWIBFAT2DG","img_art/ins/popularity/ins3ATextpop.png","0","instructions","","","","","","","","","","","","","","","","","","","","","","","",""
"4489","","image-button-response_instructions","12","195007","0.0-12.0","AIJIWIBFAT2DG","img_art/ins/popularity/ins3ALikespop.png","0","instructions","","","","","","","","","","","","","","","","","","","","","","","",""
"38375","","image-button-response_instructions","13","233384","0.0-13.0","AIJIWIBFAT2DG","img_art/ins/popularity/ins3KEEPpop.PNG","0","instructions","","","","","","","","","","","","","","","","","","","","","","","",""
"17930","","image-button-response_instructions","14","251316","0.0-14.0","AIJIWIBFAT2DG","img_art/ins/popularity/ins3_5RED.png","0","instructions","","","","","","","","","","","","","","","","","","","","","","","",""
"11280","","image-button-response_instructions","15","262597","0.0-15.0","AIJIWIBFAT2DG","img_art/ins/popularity/ins3KEEPpop.PNG","0","instructions","","","","","","","","","","","","","","","","","","","","","","","",""
"24047","","image-button-response_instructions","16","286646","0.0-16.0","AIJIWIBFAT2DG","img_art/ins/popularity/ins4KEEPpop.PNG","0","instructions","","","","","","","","","","","","","","","","","","","","","","","",""
"14223","","image-button-response_instructions","17","300870","0.0-17.0","AIJIWIBFAT2DG","img_art/ins/popularity/ins5KEEPpop.PNG","0","instructions","","","","","","","","","","","","","","","","","","","","","","","",""
"3646","","image-button-response_instructions","18","304518","0.0-18.0","AIJIWIBFAT2DG","","0","instructions","","","","","","","","","","","","","","","","","","","","","","","",""
"10080","","survey-text","19","314620","0.0-19.0-0.0","AIJIWIBFAT2DG","","","","{""Q0"":""but""}","","","","","","","","","","","","","","","","","","","","","","",""
"31221","","survey-text","20","345843","0.0-20.0-0.0","AIJIWIBFAT2DG","","","","{""Q0"":""It's unique and thought provoking. Gives me a light and airy feeling.""}","","","","","","","","","","","","","","","","","","","","","","",""
"11888.5","","image-slider-response","21","357735","0.0-21.0","AIJIWIBFAT2DG","","","","","25","","","","","","","","","","","","","","","","","","","","","",""
"null","","image-button-response","22","362744","0.0-22.0","AIJIWIBFAT2DG","img_art/ins/1.jpg","null","","","","","","","","","","","","","","","","","","","","","","","","",""
"7140","","image-button-response","23","369887","0.0-23.0","AIJIWIBFAT2DG","img_art/ins/1.jpg","3","","","","","","","","","","","","","","","","","","","","","","","","",""
"7383","","image-button-response","24","377273","0.0-24.0-0.0","AIJIWIBFAT2DG","img_art/ins/1.jpg","1","","","","","","","","","","","","","","","","","","","","","","","","",""
"1692","","image-button-response","25","378969","0.0-25.0-0.0","AIJIWIBFAT2DG","img_art/ins/1.jpg","5","","","","","","","","","","","","","","","","","","","","","","","","",""
"null","","html-keyboard-response","26","380473","0.0-26.0","AIJIWIBFAT2DG","<p style=""font-size: 48px;"">+</p>","","","","","null","allTrialResponses","1500","1","-2","img_art/ins/1.jpg","25","It's unique and thought provoking. Gives me a light and airy feeling.","Adam,Alex,Ben,Carl,Daniel,Jack","Seems like doodles,-20,20,20","very creative work.,36,40,20","This color reminds me of poo,-46,60,20","very calming artwork,42,80,20","It looks like a murder scene.,-48,100,20","I like the sophisticated brushwork,40,120,20","Carl","very calming artwork,42,80,20","Alex","very creative work.,36,40,20","Jack","I like the sophisticated brushwork,40,120,20","0"
"36215","","survey-text","27","416693","0.0-27.0-0.0","AIJIWIBFAT2DG","","","","{""Q0"":""A bit chunky but reminds me of industrial and sci fi""}","","","","","","","","","","","","","","","","","","","","","","",""
"15654.199999928474","","image-slider-response","28","432349","0.0-28.0","AIJIWIBFAT2DG","","","","","8","","","","","","","","","","","","","","","","","","","","","",""
"null","","image-button-response","29","437356","0.0-29.0","AIJIWIBFAT2DG","img_art/ins/2.jpg","null","","","","","","","","","","","","","","","","","","","","","","","","",""
"2618","","image-button-response","30","439976","0.0-30.0","AIJIWIBFAT2DG","img_art/ins/2.jpg","1","","","","","","","","","","","","","","","","","","","","","","","","",""
"4411","","image-button-response","31","444390","0.0-31.0-0.0","AIJIWIBFAT2DG","img_art/ins/2.jpg","5","","","","","","","","","","","","","","","","","","","","","","","","",""
"9449","","image-button-response","32","453842","0.0-32.0-0.0","AIJIWIBFAT2DG","img_art/ins/2.jpg","4","","","","","","","","","","","","","","","","","","","","","","","","",""
"null","","html-keyboard-response","33","455345","0.0-33.0","AIJIWIBFAT2DG","<p style=""font-size: 48px;"">+</p>","","","","","null","allTrialResponses","1500","1","-1","img_art/ins/2.jpg","8","A bit chunky but reminds me of industrial and sci fi","James,Alex,Kyle,Carl,John,Jack","looks too angry,-50,140,20","I like the blocks of color arrangements,30,40,20","Idk, it is just annoying,-32,180,20","I can feel the artist's passion in it,45,80,20","love the texture of paint,48,160,20","I would never be able to compose a sophisticated pallete like this,48,120,20","Alex","I like the blocks of color arrangements,30,40,20","Jack","I would never be able to compose a sophisticated pallete like this,48,120,20","John","love the texture of paint,48,160,20","0"
"26565","","survey-text","34","481913","0.0-34.0-0.0","AIJIWIBFAT2DG","","","","{""Q0"":""I love the shades and placement, but I don't quite get it.""}","","","","","","","","","","","","","","","","","","","","","","",""
"8383.5","","image-slider-response","35","490298","0.0-35.0","AIJIWIBFAT2DG","","","","","-14","","","","","","","","","","","","","","","","","","","","","",""
"null","","image-button-response","36","495301","0.0-36.0","AIJIWIBFAT2DG","img_art/ins/3.jpg","null","","","","","","","","","","","","","","","","","","","","","","","","",""
"6516","","image-button-response","37","501819","0.0-37.0","AIJIWIBFAT2DG","img_art/ins/3.jpg","5","","","","","","","","","","","","","","","","","","","","","","","","",""
"5267","","image-button-response","38","507088","0.0-38.0-0.0","AIJIWIBFAT2DG","img_art/ins/3.jpg","4","","","","","","","","","","","","","","","","","","","","","","","","",""
"6133","","image-button-response","39","513224","0.0-39.0-0.0","AIJIWIBFAT2DG","img_art/ins/3.jpg","0","","","","","","","","","","","","","","","","","","","","","","","","",""
"null","","html-keyboard-response","40","513726","0.0-40.0","AIJIWIBFAT2DG","<p style=""font-size: 48px;"">+</p>","","","","","null","allTrialResponses","500","1","0","img_art/ins/3.jpg","-14","I love the shades and placement, but I don't quite get it.","Sam,Alex,Ron,Mike,John,Jack","I can feel a rainy day from this painting,18,240,20","calming blue is very nice,36,40,20","It looks depressing,-26,220,20","enjoy the different shades of blue,22,200,20","I like the overlapping of brushes,41,160,20","I feel connected to the artist,40,120,20","Jack","I feel connected to the artist,40,120,20","John","I like the overlapping of brushes,41,160,20","Sam","I can feel a rainy day from this painting,18,240,20","0"
"3770","","image-button-response_instructions","41","517502","0.0-41.0","AIJIWIBFAT2DG","","0","instructions","","","","","","","","","","","","","","","","","","","","","","","",""
"18219","","survey-likert","42","535722","0.0-42.0-0.0","AIJIWIBFAT2DG","","","","{""Q0"":"""",""Q1"":0,""Q2"":1}","","","","","","","","","","","","","","","","","","","","","","",""
"8974","","survey-text","43","544702","0.0-43.0-0.0","AIJIWIBFAT2DG","","","","{""Q0"":""rock""}","","","","","","","","","","","","","","","","","","","","","","",""
"34581","","survey-text","44","579284","0.0-44.0-0.0","AIJIWIBFAT2DG","","","","{""Q0"":""I can picture a scene and story, it's very unique""}","","","","","","","","","","","","","","","","","","","","","","",""
"5027.300000071526","","image-slider-response","45","584313","0.0-45.0","AIJIWIBFAT2DG","","","","","30","","","","","","","","","","","","","","","","","","","","","",""
"null","","image-button-response","46","589334","0.0-46.0","AIJIWIBFAT2DG","img_art/28.jpg","null","","","","","","","","","","","","","","","","","","","","","","","","",""
"10726","","image-button-response","47","600062","0.0-47.0","AIJIWIBFAT2DG","img_art/28.jpg","1","","","","","","","","","","","","","","","","","","","","","","","","",""
"9173","","image-button-response","48","609237","0.0-48.0-0.0","AIJIWIBFAT2DG","img_art/28.jpg","0","","","","","","","","","","","","","","","","","","","","","","","","",""
"25255","","image-button-response","49","634495","0.0-49.0-0.0","AIJIWIBFAT2DG","img_art/28.jpg","4","","","","","","","","","","","","","","","","","","","","","","","","",""
"null","","html-keyboard-response","50","635499","0.0-50.0","AIJIWIBFAT2DG","<p style=""font-size: 48px;"">+</p>","","","","","null","allTrialResponses","1000","1","1","img_art/28.jpg","30","I can picture a scene and story, it's very unique","Mitchell,Shane,Travis,Ryan,Jose,Scott","A mom protecting her child because something scary, (perhaps imaginary) wants to take the child.,-10,180,20","This is also something I would see in a serious but safe environment,14,80,20","Hate it...brown and drab,-37,260,20","Colors look too muddy for my liking,-33,380,20","Eh it's just kinda brown and muddy and not very nice looking,-18,200,20","I don't like the color choice,-30,20,20","Shane","This is also something I would see in a serious but safe environment,14,80,20","Mitchell","A mom protecting her child because something scary, (perhaps imaginary) wants to take the child.,-10,180,20","Jose","Eh it's just kinda brown and muddy and not very nice looking,-18,200,20","0"
"54541","","survey-text","51","690045","0.0-51.0-0.0","AIJIWIBFAT2DG","","","","{""Q0"":""I'm drawn to the center, but the framing is like a child's drew over the artwork.""}","","","","","","","","","","","","","","","","","","","","","","",""
"3346.5","","image-slider-response","52","693394","0.0-52.0","AIJIWIBFAT2DG","","","","","-13","","","","","","","","","","","","","","","","","","","","","",""
"null","","image-button-response","53","698399","0.0-53.0","AIJIWIBFAT2DG","img_art/9.jpg","null","","","","","","","","","","","","","","","","","","","","","","","","",""
"14343","","image-button-response","54","712744","0.0-54.0","AIJIWIBFAT2DG","img_art/9.jpg","2","","","","","","","","","","","","","","","","","","","","","","","","",""
"34019","","image-button-response","55","746765","0.0-55.0-0.0","AIJIWIBFAT2DG","img_art/9.jpg","4","","","","","","","","","","","","","","","","","","","","","","","","",""
"12589","","image-button-response","56","759357","0.0-56.0-0.0","AIJIWIBFAT2DG","img_art/9.jpg","0","","","","","","","","","","","","","","","","","","","","","","","","",""
"null","","html-keyboard-response","57","760864","0.0-57.0","AIJIWIBFAT2DG","<p style=""font-size: 48px;"">+</p>","","","","","null","allTrialResponses","1500","1","2","img_art/9.jpg","-13","I'm drawn to the center, but the framing is like a child's drew over the artwork.","Mitchell,Shane,Malik,Cole,Jose,Blake","Cozy, In her own world. feminine .,30,180,20","Angry beast mouth,-37,80,20","Colorful and expressive,15,40,20","I see a foot. Idk colors are pleasant,12,200,20","Idk what is in the middle but the blurry image makes it seem like the subject is of the painters interest,22,200,20","looks like a woman in bed and its ok,8,280,20","Malik","Colorful and expressive,15,40,20","Jose","Idk what is in the middle but the blurry image makes it seem like the subject is of the painters interest,22,200,20","Mitchell","Cozy, In her own world. feminine .,30,180,20","0"
"44647","","survey-text","58","805516","0.0-58.0-0.0","AIJIWIBFAT2DG","","","","{""Q0"":""Reminds me of me soaking in the sunset at the beach""}","","","","","","","","","","","","","","","","","","","","","","",""
"3727.2999999523163","","image-slider-response","59","809245","0.0-59.0","AIJIWIBFAT2DG","","","","","41","","","","","","","","","","","","","","","","","","","","","",""
"null","","image-button-response","60","814251","0.0-60.0","AIJIWIBFAT2DG","img_art/6.jpg","null","","","","","","","","","","","","","","","","","","","","","","","","",""
"7538","","image-button-response","61","821791","0.0-61.0","AIJIWIBFAT2DG","img_art/6.jpg","0","","","","","","","","","","","","","","","","","","","","","","","","",""
"11486","","image-button-response","62","833279","0.0-62.0-0.0","AIJIWIBFAT2DG","img_art/6.jpg","4","","","","","","","","","","","","","","","","","","","","","","","","",""
"22768","","image-button-response","63","856050","0.0-63.0-0.0","AIJIWIBFAT2DG","img_art/6.jpg","5","","","","","","","","","","","","","","","","","","","","","","","","",""
"null","","html-keyboard-response","64","856553","0.0-64.0","AIJIWIBFAT2DG","<p style=""font-size: 48px;"">+</p>","","","","","null","allTrialResponses","500","1","3","img_art/6.jpg","41","Reminds me of me soaking in the sunset at the beach","Mitchell,Jorge,Malik,Trevor,Jose,Justin","Looking, searching at the same time being content.,30,180,20","seeds of change,11,180,20","Lonesome in nature,13,40,20","i like the simplicity of the tree and the colors,50,280,20","This could be so many different things. I saw a bird first but then it looks like a needle going into skin,34,200,20","It's alright. I imagined the peach from James and the Giant Peach.,1,280,20","Mitchell","Looking, searching at the same time being content.,30,180,20","Jose","This could be so many different things. I saw a bird first but then it looks like a needle going into skin,34,200,20","Justin","It's alright. I imagined the peach from James and the Giant Peach.,1,280,20","0"
"75954","","survey-text","65","932510","0.0-65.0-0.0","AIJIWIBFAT2DG","","","","{""Q0"":""It's comforting seeing the person behind comforting the middle and the middle comforting the front who's comforting the child they are holding.""}","","","","","","","","","","","","","","","","","","","","","","",""
"5859","","image-slider-response","66","938371","0.0-66.0","AIJIWIBFAT2DG","","","","","26","","","","","","","","","","","","","","","","","","","","","",""
"null","","image-button-response","67","943378","0.0-67.0","AIJIWIBFAT2DG","img_art/4.jpg","null","","","","","","","","","","","","","","","","","","","","","","","","",""
"198","","image-button-response","68","943580","0.0-68.0","AIJIWIBFAT2DG","img_art/4.jpg","4","","","","","","","","","","","","","","","","","","","","","","","","",""
"12254","","image-button-response","69","955837","0.0-69.0-0.0","AIJIWIBFAT2DG","img_art/4.jpg","0","","","","","","","","","","","","","","","","","","","","","","","","",""
"10826","","image-button-response","70","966665","0.0-70.0-0.0","AIJIWIBFAT2DG","img_art/4.jpg","1","","","","","","","","","","","","","","","","","","","","","","","","",""
"null","","html-keyboard-response","71","967168","0.0-71.0","AIJIWIBFAT2DG","<p style=""font-size: 48px;"">+</p>","","","","","null","allTrialResponses","500","1","4","img_art/4.jpg","26","It's comforting seeing the person behind comforting the middle and the middle comforting the front who's comforting the child they are holding.","Mitchell,Dakota,Devon,Kenneth,Jose,Justin","Hearts, family connected. They are standing on a narrow base and could fall to pieces at anytime.,40,180,20","spontaneous, without hesitation,22,280,20","heart symbol - this tells a story of hidden love,30,400,20","The longer I stare at this the less I like it.,-19,300,20","I like how many different ways there are to interpret this.,27,200,20","Rather boring design and colors.,-21,280,20","Jose","I like how many different ways there are to interpret this.,27,200,20","Mitchell","Hearts, family connected. They are standing on a narrow base and could fall to pieces at anytime.,40,180,20","Dakota","spontaneous, without hesitation,22,280,20","0"
"31156","","survey-text","72","998330","0.0-72.0-0.0","AIJIWIBFAT2DG","","","","{""Q0"":""An eerie battle scene but but beautiful at the same time""}","","","","","","","","","","","","","","","","","","","","","","",""
"2814.399999976158","","image-slider-response","73","1001146","0.0-73.0","AIJIWIBFAT2DG","","","","","19","","","","","","","","","","","","","","","","","","","","","",""
"null","","image-button-response","74","1006153","0.0-74.0","AIJIWIBFAT2DG","img_art/21.jpg","null","","","","","","","","","","","","","","","","","","","","","","","","",""
"18860","","image-button-response","75","1025015","0.0-75.0","AIJIWIBFAT2DG","img_art/21.jpg","3","","","","","","","","","","","","","","","","","","","","","","","","",""
"7876","","image-button-response","76","1032893","0.0-76.0-0.0","AIJIWIBFAT2DG","img_art/21.jpg","4","","","","","","","","","","","","","","","","","","","","","","","","",""
"24729","","image-button-response","77","1057625","0.0-77.0-0.0","AIJIWIBFAT2DG","img_art/21.jpg","1","","","","","","","","","","","","","","","","","","","","","","","","",""
"null","","html-keyboard-response","78","1059130","0.0-78.0","AIJIWIBFAT2DG","<p style=""font-size: 48px;"">+</p>","","","","","null","allTrialResponses","1500","1","5","img_art/21.jpg","19","An eerie battle scene but but beautiful at the same time","Mitchell,Dakota,Michael,Bryan,Jose,Cameron","Nature, water, ever changing. Cold then warm. Reaction is mostly positive and some negative,30,180,20","a serene, calm and eloquent storm,9,280,20","What's the point?,-30,140,20","Like the colors, the cloudy, airy effects. Nice.,46,400,20","I can't explain why this struck me as absolutely gorgeous. Like the clashing between 2 different worlds,43,200,20","Like the colors. Don't like the white dots on the right side of the painting though.,15,60,20","Bryan","Like the colors, the cloudy, airy effects. Nice.,46,400,20","Jose","I can't explain why this struck me as absolutely gorgeous. Like the clashing between 2 different worlds,43,200,20","Dakota","a serene, calm and eloquent storm,9,280,20","0"
"6686","","survey-text","79","1065823","0.0-79.0-0.0","AIJIWIBFAT2DG","","","","{""Q0"":""sky""}","","","","","","","","","","","","","","","","","","","","","","",""
"29179","","survey-text","80","1095005","0.0-80.0-0.0","AIJIWIBFAT2DG","","","","{""Q0"":""Don't really like it. There's no story and no skill to it.""}","","","","","","","","","","","","","","","","","","","","","","",""
"4009.600000023842","","image-slider-response","81","1099016","0.0-81.0","AIJIWIBFAT2DG","","","","","-38","","","","","","","","","","","","","","","","","","","","","",""
"null","","image-button-response","82","1104019","0.0-82.0","AIJIWIBFAT2DG","img_art/3.jpg","null","","","","","","","","","","","","","","","","","","","","","","","","",""
"1320","","image-button-response","83","1105342","0.0-83.0","AIJIWIBFAT2DG","img_art/3.jpg","0","","","","","","","","","","","","","","","","","","","","","","","","",""
"2913","","image-button-response","84","1108258","0.0-84.0-0.0","AIJIWIBFAT2DG","img_art/3.jpg","2","","","","","","","","","","","","","","","","","","","","","","","","",""
"11297","","image-button-response","85","1119558","0.0-85.0-0.0","AIJIWIBFAT2DG","img_art/3.jpg","3","","","","","","","","","","","","","","","","","","","","","","","","",""
"null","","html-keyboard-response","86","1120060","0.0-86.0","AIJIWIBFAT2DG","<p style=""font-size: 48px;"">+</p>","","","","","null","allTrialResponses","500","1","6","img_art/3.jpg","-38","Don't really like it. There's no story and no skill to it.","Joshua,Dakota,Noah,Bryan,Jose,Jonathan","Looks like a Basquiat but just not my cup of tea.,-29,240,20","wild scribbling, freedom, expression,40,280,20","I struggle to see the art,-20,260,20","Just no. I love red but this looks like blood splatter on a wall from a horrific killing.,-45,400,20","Too much red! Reminds me of blood. I hate blood.,-34,200,20","Something I'd paint when I'm mad. I feel that,20,140,20","Joshua","Looks like a Basquiat but just not my cup of tea.,-29,240,20","Noah","I struggle to see the art,-20,260,20","Bryan","Just no. I love red but this looks like blood splatter on a wall from a horrific killing.,-45,400,20","0"
"25544","","survey-text","87","1145609","0.0-87.0-0.0","AIJIWIBFAT2DG","","","","{""Q0"":""Wow, the artistry and color and blocking. There's so much going on, it's awesome.""}","","","","","","","","","","","","","","","","","","","","","","",""
"3629.600000023842","","image-slider-response","88","1149241","0.0-88.0","AIJIWIBFAT2DG","","","","","50","","","","","","","","","","","","","","","","","","","","","",""
"null","","image-button-response","89","1154248","0.0-89.0","AIJIWIBFAT2DG","img_art/8.jpg","null","","","","","","","","","","","","","","","","","","","","","","","","",""
"2174","","image-button-response","90","1156425","0.0-90.0","AIJIWIBFAT2DG","img_art/8.jpg","5","","","","","","","","","","","","","","","","","","","","","","","","",""
"4823","","image-button-response","91","1161251","0.0-91.0-0.0","AIJIWIBFAT2DG","img_art/8.jpg","4","","","","","","","","","","","","","","","","","","","","","","","","",""
"3325","","image-button-response","92","1164579","0.0-92.0-0.0","AIJIWIBFAT2DG","img_art/8.jpg","3","","","","","","","","","","","","","","","","","","","","","","","","",""
"null","","html-keyboard-response","93","1165583","0.0-93.0","AIJIWIBFAT2DG","<p style=""font-size: 48px;"">+</p>","","","","","null","allTrialResponses","1000","1","7","img_art/8.jpg","50","Wow, the artistry and color and blocking. There's so much going on, it's awesome.","Joshua,James,Noah,Bryan,Tyler,Elijah","I don't understand it. Makes no sense to me.,5,240,20","It's very odd and I don't really like it,-30,380,20","not sure what to make of this - just neutral again,-1,260,20","Like the colors & the imagery - old city, native peoples maybe.,20,400,20","The composition is striking, and some of the images are quite dramatic,11,320,20","Makes me feel nice,23,80,20","Elijah","Makes me feel nice,23,80,20","Tyler","The composition is striking, and some of the images are quite dramatic,11,320,20","Bryan","Like the colors & the imagery - old city, native peoples maybe.,20,400,20","0"
"47606","","survey-text","94","1213193","0.0-94.0-0.0","AIJIWIBFAT2DG","","","","{""Q0"":""Makes me nostalgic reminding me of traveling overseas.""}","","","","","","","","","","","","","","","","","","","","","","",""
"4131.299999952316","","image-slider-response","95","1217327","0.0-95.0","AIJIWIBFAT2DG","","","","","30","","","","","","","","","","","","","","","","","","","","","",""
"null","","image-button-response","96","1222335","0.0-96.0","AIJIWIBFAT2DG","img_art/11.jpg","null","","","","","","","","","","","","","","","","","","","","","","","","",""
"910","","image-button-response","97","1223246","0.0-97.0","AIJIWIBFAT2DG","img_art/11.jpg","0","","","","","","","","","","","","","","","","","","","","","","","","",""
"5326","","image-button-response","98","1228575","0.0-98.0-0.0","AIJIWIBFAT2DG","img_art/11.jpg","4","","","","","","","","","","","","","","","","","","","","","","","","",""
"4268","","image-button-response","99","1232845","0.0-99.0-0.0","AIJIWIBFAT2DG","img_art/11.jpg","5","","","","","","","","","","","","","","","","","","","","","","","","",""
"null","","html-keyboard-response","100","1234351","0.0-100.0","AIJIWIBFAT2DG","<p style=""font-size: 48px;"">+</p>","","","","","null","allTrialResponses","1500","1","8","img_art/11.jpg","30","Makes me nostalgic reminding me of traveling overseas.","Benjamin,Andrew,Corey,Bryan,Tyler,Elijah","Look like it's in constant movement.,10,260,20","It's a really cool painting, but it reminds me of bad traffic,-20,160,20","dont like the colors. Its a gloomy day in london and this is the transit system,-26,260,20","Rainy asian city scape.,31,400,20","Rainy day at an urban sea port. Portugal?,30,320,20","Very cool, makes me feel good,39,80,20","Benjamin","Look like it's in constant movement.,10,260,20","Tyler","Rainy day at an urban sea port. Portugal?,30,320,20","Elijah","Very cool, makes me feel good,39,80,20","0"
"71053","","survey-text","101","1305409","0.0-101.0-0.0","AIJIWIBFAT2DG","","","","{""Q0"":""I feel intrigued. I love the brush strokes on the edge, and curious why it's a no zone with the x.""}","","","","","","","","","","","","","","","","","","","","","","",""
"3761.600000023842","","image-slider-response","102","1309172","0.0-102.0","AIJIWIBFAT2DG","","","","","5","","","","","","","","","","","","","","","","","","","","","",""
"null","","image-button-response","103","1314180","0.0-103.0","AIJIWIBFAT2DG","img_art/29.jpg","null","","","","","","","","","","","","","","","","","","","","","","","","",""
"730","","image-button-response","104","1314912","0.0-104.0","AIJIWIBFAT2DG","img_art/29.jpg","5","","","","","","","","","","","","","","","","","","","","","","","","",""
"7491","","image-button-response","105","1322406","0.0-105.0-0.0","AIJIWIBFAT2DG","img_art/29.jpg","4","","","","","","","","","","","","","","","","","","","","","","","","",""
"12568","","image-button-response","106","1334977","0.0-106.0-0.0","AIJIWIBFAT2DG","img_art/29.jpg","0","","","","","","","","","","","","","","","","","","","","","","","","",""
"null","","html-keyboard-response","107","1335981","0.0-107.0","AIJIWIBFAT2DG","<p style=""font-size: 48px;"">+</p>","","","","","null","allTrialResponses","1000","1","9","img_art/29.jpg","5","I feel intrigued. I love the brush strokes on the edge, and curious why it's a no zone with the x.","Benjamin,Jeremy,Logan,Jeffrey,Tyler,Elijah","Don't like the red X across the painting.,-15,260,20","unhappy. Looking at this all the time would depress me.,-11,60,20","is this supposed to be edgy,-21,360,20","Looks like an accident more than an art to me,-26,40,20","Well if the artist themself is crossing it out, why should I pay any mind?,-30,320,20","Makes me feel untidy,-9,80,20","Elijah","Makes me feel untidy,-9,80,20","Tyler","Well if the artist themself is crossing it out, why should I pay any mind?,-30,320,20","Benjamin","Don't like the red X across the painting.,-15,260,20","0"
"36181","","survey-text","108","1372167","0.0-108.0-0.0","AIJIWIBFAT2DG","","","","{""Q0"":""Hope. Growth coming from the cracks in the ground and springing forth color.""}","","","","","","","","","","","","","","","","","","","","","","",""
"2995.100000023842","","image-slider-response","109","1375164","0.0-109.0","AIJIWIBFAT2DG","","","","","32","","","","","","","","","","","","","","","","","","","","","",""
"null","","image-button-response","110","1380171","0.0-110.0","AIJIWIBFAT2DG","img_art/14.jpg","null","","","","","","","","","","","","","","","","","","","","","","","","",""
"3670","","image-button-response","111","1383844","0.0-111.0","AIJIWIBFAT2DG","img_art/14.jpg","1","","","","","","","","","","","","","","","","","","","","","","","","",""
"11352","","image-button-response","112","1395198","0.0-112.0-0.0","AIJIWIBFAT2DG","img_art/14.jpg","5","","","","","","","","","","","","","","","","","","","","","","","","",""
"6013","","image-button-response","113","1401214","0.0-113.0-0.0","AIJIWIBFAT2DG","img_art/14.jpg","2","","","","","","","","","","","","","","","","","","","","","","","","",""
"null","","html-keyboard-response","114","1402720","0.0-114.0","AIJIWIBFAT2DG","<p style=""font-size: 48px;"">+</p>","","","","","null","allTrialResponses","1500","1","10","img_art/14.jpg","32","Hope. Growth coming from the cracks in the ground and springing forth color.","Benjamin,Jordan,Aaron,Angel,Tyler,Elijah","Reminds me of the outdoors.,12,260,20","Reminds me of art class,22,160,20","It reminds me of a tree in the desert.,15,20,20","This reminds me of a tree but the tree is sickly, and poorly cared for.,-10,180,20","No strong feelings either direction.,-4,320,20","Makes me feel good,30,80,20","Jordan","Reminds me of art class,22,160,20","Elijah","Makes me feel good,30,80,20","Aaron","It reminds me of a tree in the desert.,15,20,20","0"
"4054","","survey-text","115","1406783","0.0-115.0-0.0","AIJIWIBFAT2DG","","","","{""Q0"":""our""}","","","","","","","","","","","","","","","","","","","","","","",""
"44291","","survey-text","116","1451077","0.0-116.0-0.0","AIJIWIBFAT2DG","","","","{""Q0"":""The colors are awesome! I feel so good looking at this and can inspect it for long periods of time.""}","","","","","","","","","","","","","","","","","","","","","","",""
"4542.799999952316","","image-slider-response","117","1455621","0.0-117.0","AIJIWIBFAT2DG","","","","","47","","","","","","","","","","","","","","","","","","","","","",""
"null","","image-button-response","118","1460629","0.0-118.0","AIJIWIBFAT2DG","img_art/13.jpg","null","","","","","","","","","","","","","","","","","","","","","","","","",""
"1651","","image-button-response","119","1462282","0.0-119.0","AIJIWIBFAT2DG","img_art/13.jpg","2","","","","","","","","","","","","","","","","","","","","","","","","",""
"10198","","image-button-response","120","1472481","0.0-120.0-0.0","AIJIWIBFAT2DG","img_art/13.jpg","3","","","","","","","","","","","","","","","","","","","","","","","","",""
"1167","","image-button-response","121","1473651","0.0-121.0-0.0","AIJIWIBFAT2DG","img_art/13.jpg","1","","","","","","","","","","","","","","","","","","","","","","","","",""
"null","","html-keyboard-response","122","1475153","0.0-122.0","AIJIWIBFAT2DG","<p style=""font-size: 48px;"">+</p>","","","","","null","allTrialResponses","1500","1","11","img_art/13.jpg","47","The colors are awesome! I feel so good looking at this and can inspect it for long periods of time.","Jake,Jordan,Aaron,Gregory,Marcus,Elijah","It's too violent looking and there's too much contrast between the white/black.,-21,360,20","This is easy to look at,46,160,20","It reminds me of a window on a rainy day.,40,20,20","Cool colors and looks like rain on a window,45,220,20","It's okay. Feels like a blander take on a Jackson Pollack,11,60,20","Makes me feel nice and calm,18,80,20","Aaron","It reminds me of a window on a rainy day.,40,20,20","Gregory","Cool colors and looks like rain on a window,45,220,20","Jordan","This is easy to look at,46,160,20","0"
"40109","","survey-text","123","1515266","0.0-123.0-0.0","AIJIWIBFAT2DG","","","","{""Q0"":""Peacocks in a forest in the fall. Makes me feel good and in awe.""}","","","","","","","","","","","","","","","","","","","","","","",""
"3679.399999976158","","image-slider-response","124","1518948","0.0-124.0","AIJIWIBFAT2DG","","","","","38","","","","","","","","","","","","","","","","","","","","","",""
"3212","","image-button-response","125","1523955","0.0-125.0","AIJIWIBFAT2DG","img_art/24.jpg","1","","","","","","","","","","","","","","","","","","","","","","","","",""
"756","","image-button-response","126","1524714","0.0-126.0","AIJIWIBFAT2DG","img_art/24.jpg","1","","","","","","","","","","","","","","","","","","","","","","","","",""
"4528","","image-button-response","127","1529244","0.0-127.0-0.0","AIJIWIBFAT2DG","img_art/24.jpg","2","","","","","","","","","","","","","","","","","","","","","","","","",""
"10185","","image-button-response","128","1539432","0.0-128.0-0.0","AIJIWIBFAT2DG","img_art/24.jpg","4","","","","","","","","","","","","","","","","","","","","","","","","",""
"null","","html-keyboard-response","129","1540433","0.0-129.0","AIJIWIBFAT2DG","<p style=""font-size: 48px;"">+</p>","","","","","null","allTrialResponses","1000","1","12","img_art/24.jpg","38","Peacocks in a forest in the fall. Makes me feel good and in awe.","Ethan,Jordan,Aaron,Gregory,William,Christian","This is sort of interesting. I think it's a bit busy. Less is more.,3,120,20","Beautiful waterfall I like waterfalls,39,160,20","I like how it evokes the feeling of being in a forest. The colors are pretty,31,20,20","Beautiful waterfall with nice colors,40,220,20","very peaceful and serene,47,380,20","organized mess at first glance, would love to inspect this in closer proximity,39,140,20","Jordan","Beautiful waterfall I like waterfalls,39,160,20","Aaron","I like how it evokes the feeling of being in a forest. The colors are pretty,31,20,20","William","very peaceful and serene,47,380,20","0"
"31671","","survey-text","130","1572108","0.0-130.0-0.0","AIJIWIBFAT2DG","","","","{""Q0"":""Brings back memories of my childhood and not all good.""}","","","","","","","","","","","","","","","","","","","","","","",""
"3105.899999976158","","image-slider-response","131","1575216","0.0-131.0","AIJIWIBFAT2DG","","","","","-20","","","","","","","","","","","","","","","","","","","","","",""
"4067","","image-button-response","132","1580223","0.0-132.0","AIJIWIBFAT2DG","img_art/1.jpg","1","","","","","","","","","","","","","","","","","","","","","","","","",""
"12021","","image-button-response","133","1592247","0.0-133.0","AIJIWIBFAT2DG","img_art/1.jpg","5","","","","","","","","","","","","","","","","","","","","","","","","",""
"10238","","image-button-response","134","1602486","0.0-134.0-0.0","AIJIWIBFAT2DG","img_art/1.jpg","1","","","","","","","","","","","","","","","","","","","","","","","","",""
"2350","","image-button-response","135","1604838","0.0-135.0-0.0","AIJIWIBFAT2DG","img_art/1.jpg","2","","","","","","","","","","","","","","","","","","","","","","","","",""
"null","","html-keyboard-response","136","1605340","0.0-136.0","AIJIWIBFAT2DG","<p style=""font-size: 48px;"">+</p>","","","","","null","allTrialResponses","500","1","13","img_art/1.jpg","-20","Brings back memories of my childhood and not all good.","David,Jordan,Aaron,Chase,William,Connor","This image doesn't invoke much in me.,0,340,20","I like the warmth of the picture,21,160,20","The colors are nice but that's all it is,21,20,20","It's alright but lacks any depth.,-5,120,20","love how the colors blend,42,380,20","Love the coloration and abstract figures,18,240,20","Connor","Love the coloration and abstract figures,18,240,20","Jordan","I like the warmth of the picture,21,160,20","Aaron","The colors are nice but that's all it is,21,20,20","0"
"53097","","survey-text","137","1658444","0.0-137.0-0.0","AIJIWIBFAT2DG","","","","{""Q0"":""Love how the dark and somber turns to bright and hopeful""}","","","","","","","","","","","","","","","","","","","","","","",""
"4969.600000023842","","image-slider-response","138","1663415","0.0-138.0","AIJIWIBFAT2DG","","","","","40","","","","","","","","","","","","","","","","","","","","","",""
"null","","image-button-response","139","1668420","0.0-139.0","AIJIWIBFAT2DG","img_art/12.jpg","null","","","","","","","","","","","","","","","","","","","","","","","","",""
"22939","","image-button-response","140","1691361","0.0-140.0","AIJIWIBFAT2DG","img_art/12.jpg","1","","","","","","","","","","","","","","","","","","","","","","","","",""
"1470","","image-button-response","141","1692833","0.0-141.0-0.0","AIJIWIBFAT2DG","img_art/12.jpg","2","","","","","","","","","","","","","","","","","","","","","","","","",""
"6070","","image-button-response","142","1698905","0.0-142.0-0.0","AIJIWIBFAT2DG","img_art/12.jpg","5","","","","","","","","","","","","","","","","","","","","","","","","",""
"null","","html-keyboard-response","143","1699906","0.0-143.0","AIJIWIBFAT2DG","<p style=""font-size: 48px;"">+</p>","","","","","null","allTrialResponses","1000","1","14","img_art/12.jpg","40","Love how the dark and somber turns to bright and hopeful","Grant,Jordan,Aaron,Bryce,Anthony,Connor","This elicits no reaction in me.,0,200,20","Made me uncomfortable, reminded me of the 90s,-9,160,20","Therapist wall art.,10,20,20","A little bit boring.,-24,20,20","This piece doesn't provoke any kind of reaction,0,200,20","City scape but palette is odd,4,240,20","Jordan","Made me uncomfortable, reminded me of the 90s,-9,160,20","Aaron","Therapist wall art.,10,20,20","Connor","City scape but palette is odd,4,240,20","0"
"30363","","survey-text","144","1730274","0.0-144.0-0.0","AIJIWIBFAT2DG","","","","{""Q0"":""I feel I'm relaxing at a pond and expect to see frogs""}","","","","","","","","","","","","","","","","","","","","","","",""
"3209.7000000476837","","image-slider-response","145","1733485","0.0-145.0","AIJIWIBFAT2DG","","","","","9","","","","","","","","","","","","","","","","","","","","","",""
"null","","image-button-response","146","1738493","0.0-146.0","AIJIWIBFAT2DG","img_art/10.jpg","null","","","","","","","","","","","","","","","","","","","","","","","","",""
"641","","image-button-response","147","1739135","0.0-147.0","AIJIWIBFAT2DG","img_art/10.jpg","0","","","","","","","","","","","","","","","","","","","","","","","","",""
"10281","","image-button-response","148","1749419","0.0-148.0-0.0","AIJIWIBFAT2DG","img_art/10.jpg","5","","","","","","","","","","","","","","","","","","","","","","","","",""
"5328","","image-button-response","149","1754750","0.0-149.0-0.0","AIJIWIBFAT2DG","img_art/10.jpg","3","","","","","","","","","","","","","","","","","","","","","","","","",""
"null","","html-keyboard-response","150","1755255","0.0-150.0","AIJIWIBFAT2DG","<p style=""font-size: 48px;"">+</p>","","","","","null","allTrialResponses","500","1","15","img_art/10.jpg","9","I feel I'm relaxing at a pond and expect to see frogs","Nathaniel,Jordan,Aaron,Colton,Zachary,Connor","For black and white, this is pretty vibrant and cool. I like this.,39,220,20","Looks gross and messy,-39,160,20","I like how simple but intricate it is.,30,20,20","it looks very musical,24,220,20","Reminds me of a terrarium with cacti inside. It reminds me of home.,27,400,20","Cello music instrument,11,240,20","Nathaniel","For black and white, this is pretty vibrant and cool. I like this.,39,220,20","Connor","Cello music instrument,11,240,20","Colton","it looks very musical,24,220,20","0"
"12773","","survey-text","151","1768037","0.0-151.0-0.0","AIJIWIBFAT2DG","","","","{""Q0"":""course""}","","","","","","","","","","","","","","","","","","","","","","",""
"30039","","survey-text","152","1798078","0.0-152.0-0.0","AIJIWIBFAT2DG","","","","{""Q0"":""I feel like I'm looking at a bag of trash on the side of the road""}","","","","","","","","","","","","","","","","","","","","","","",""
"3585.5999999046326","","image-slider-response","153","1801665","0.0-153.0","AIJIWIBFAT2DG","","","","","-20","","","","","","","","","","","","","","","","","","","","","",""
"null","","image-button-response","154","1806669","0.0-154.0","AIJIWIBFAT2DG","img_art/5.jpg","null","","","","","","","","","","","","","","","","","","","","","","","","",""
"20913","","image-button-response","155","1827585","0.0-155.0","AIJIWIBFAT2DG","img_art/5.jpg","3","","","","","","","","","","","","","","","","","","","","","","","","",""
"46331","","image-button-response","156","1873918","0.0-156.0-0.0","AIJIWIBFAT2DG","img_art/5.jpg","4","","","","","","","","","","","","","","","","","","","","","","","","",""
"4774","","image-button-response","157","1878695","0.0-157.0-0.0","AIJIWIBFAT2DG","img_art/5.jpg","5","","","","","","","","","","","","","","","","","","","","","","","","",""
"null","","html-keyboard-response","158","1880202","0.0-158.0","AIJIWIBFAT2DG","<p style=""font-size: 48px;"">+</p>","","","","","null","allTrialResponses","1500","1","16","img_art/5.jpg","-20","I feel like I'm looking at a bag of trash on the side of the road","Nathaniel,Carlos,Ian,Colton,Steven,Connor","Not sure what that even is. Looks like a 2-year old drawing,-40,220,20","It feels very strong and open.,31,80,20","This either looks like a bell or aliens finishing the pyramids,-34,260,20","I like the strokes and colors used,20,220,20","I dont really get anything from this,-25,160,20","Flame, candle, wind,30,240,20","Colton","I like the strokes and colors used,20,220,20","Steven","I dont really get anything from this,-25,160,20","Connor","Flame, candle, wind,30,240,20","0"
"35952","","survey-text","159","1916159","0.0-159.0-0.0","AIJIWIBFAT2DG","","","","{""Q0"":""I feel relaxed and at home. It's like walking through a small community town with character.""}","","","","","","","","","","","","","","","","","","","","","","",""
"2511.100000023842","","image-slider-response","160","1918671","0.0-160.0","AIJIWIBFAT2DG","","","","","38","","","","","","","","","","","","","","","","","","","","","",""
"null","","image-button-response","161","1923675","0.0-161.0","AIJIWIBFAT2DG","img_art/19.jpg","null","","","","","","","","","","","","","","","","","","","","","","","","",""
"3503","","image-button-response","162","1927180","0.0-162.0","AIJIWIBFAT2DG","img_art/19.jpg","0","","","","","","","","","","","","","","","","","","","","","","","","",""
"15470","","image-button-response","163","1942651","0.0-163.0-0.0","AIJIWIBFAT2DG","img_art/19.jpg","2","","","","","","","","","","","","","","","","","","","","","","","","",""
"8695","","image-button-response","164","1951349","0.0-164.0-0.0","AIJIWIBFAT2DG","img_art/19.jpg","1","","","","","","","","","","","","","","","","","","","","","","","","",""
"null","","html-keyboard-response","165","1952851","0.0-165.0","AIJIWIBFAT2DG","<p style=""font-size: 48px;"">+</p>","","","","","null","allTrialResponses","1500","1","17","img_art/19.jpg","38","I feel relaxed and at home. It's like walking through a small community town with character.","Vincent,Isaiah,Derek,Colton,Steven,Connor","I really like the colors and feel of this one and alot of life,41,360,20","I feel a little anxious and happy. I'm about to walk into a market and any number of treasures could be found,14,300,20","It has a chaotic energy about it that draws me in,40,360,20","way too much going on,-33,220,20","I like it, I see someone walking his dog in the early morning time,23,160,20","Childish music hall,-20,240,20","Vincent","I really like the colors and feel of this one and alot of life,41,360,20","Derek","It has a chaotic energy about it that draws me in,40,360,20","Isaiah","I feel a little anxious and happy. I'm about to walk into a market and any number of treasures could be found,14,300,20","0"
"59258","","survey-text","166","2012114","0.0-166.0-0.0","AIJIWIBFAT2DG","","","","{""Q0"":""Reminds me of a chaotic carousel ""}","","","","","","","","","","","","","","","","","","","","","","",""
"5019.5","","image-slider-response","167","2017135","0.0-167.0","AIJIWIBFAT2DG","","","","","-6","","","","","","","","","","","","","","","","","","","","","",""
"null","","image-button-response","168","2022140","0.0-168.0","AIJIWIBFAT2DG","img_art/18.jpg","null","","","","","","","","","","","","","","","","","","","","","","","","",""
"2731","","image-button-response","169","2024873","0.0-169.0","AIJIWIBFAT2DG","img_art/18.jpg","2","","","","","","","","","","","","","","","","","","","","","","","","",""
"32702","","image-button-response","170","2057578","0.0-170.0-0.0","AIJIWIBFAT2DG","img_art/18.jpg","3","","","","","","","","","","","","","","","","","","","","","","","","",""
"2631","","image-button-response","171","2060212","0.0-171.0-0.0","AIJIWIBFAT2DG","img_art/18.jpg","0","","","","","","","","","","","","","","","","","","","","","","","","",""
"null","","html-keyboard-response","172","2061719","0.0-172.0","AIJIWIBFAT2DG","<p style=""font-size: 48px;"">+</p>","","","","","null","allTrialResponses","1500","1","18","img_art/18.jpg","-6","Reminds me of a chaotic carousel ","Vincent,Isaiah,Derek,Tristan,Bradley,Charles","Very conversational and can see many different looks and feels from this .,34,360,20","I'm mildly disgusted by the colors, and can't piece together the story the figures are trying to tell.,-10,300,20","Very wild and abstract. I love it and would definitely hang this up in my home,50,360,20","So much going on. Frightening and tumultous, brave and inspiring. I'd like to spend the rest of my life interpreting it.,30,300,20","This one is very dark and apocalyptic indeed!,-30,300,20","I enjoy the detailed line work in this one,21,100,20","Derek","Very wild and abstract. I love it and would definitely hang this up in my home,50,360,20","Tristan","So much going on. Frightening and tumultous, brave and inspiring. I'd like to spend the rest of my life interpreting it.,30,300,20","Vincent","Very conversational and can see many different looks and feels from this .,34,360,20","0"
"31778","","survey-text","173","2093503","0.0-173.0-0.0","AIJIWIBFAT2DG","","","","{""Q0"":""It feels like art is coming to life in front of you in your studio and it is exciting.""}","","","","","","","","","","","","","","","","","","","","","","",""
"3565.5","","image-slider-response","174","2097071","0.0-174.0","AIJIWIBFAT2DG","","","","","44","","","","","","","","","","","","","","","","","","","","","",""
"null","","image-button-response","175","2102077","0.0-175.0","AIJIWIBFAT2DG","img_art/17.jpg","null","","","","","","","","","","","","","","","","","","","","","","","","",""
"24825","","image-button-response","176","2126904","0.0-176.0","AIJIWIBFAT2DG","img_art/17.jpg","0","","","","","","","","","","","","","","","","","","","","","","","","",""
"34062","","image-button-response","177","2160970","0.0-177.0-0.0","AIJIWIBFAT2DG","img_art/17.jpg","5","","","","","","","","","","","","","","","","","","","","","","","","",""
"4840","","image-button-response","178","2165813","0.0-178.0-0.0","AIJIWIBFAT2DG","img_art/17.jpg","2","","","","","","","","","","","","","","","","","","","","","","","","",""
"null","","html-keyboard-response","179","2167319","0.0-179.0","AIJIWIBFAT2DG","<p style=""font-size: 48px;"">+</p>","","","","","null","allTrialResponses","1500","1","19","img_art/17.jpg","44","It feels like art is coming to life in front of you in your studio and it is exciting.","Vincent,Luke,Derek,Tristan,Nicholas,Alexis","Another favorite a relaxing day with nature a day to take it all In,34,360,20","it looks very intricate and colorful,50,20,20","The colors are beautiful and the painting itself is magnificent,50,360,20","peaceful. contemplative. balanced. old,10,300,20","Nice colors, shapes, flow,31,240,20","This makes me feel inspired and happy. I love everything about this portrait,45,140,20","Vincent","Another favorite a relaxing day with nature a day to take it all In,34,360,20","Alexis","This makes me feel inspired and happy. I love everything about this portrait,45,140,20","Derek","The colors are beautiful and the painting itself is magnificent,50,360,20","0"
"56204","","survey-text","180","2223530","0.0-180.0-0.0","AIJIWIBFAT2DG","","","","{""Q0"":""Vines and flowers coming off the varanda at night. It feels a bit creepy though.""}","","","","","","","","","","","","","","","","","","","","","","",""
"2945.399999976158","","image-slider-response","181","2226477","0.0-181.0","AIJIWIBFAT2DG","","","","","9","","","","","","","","","","","","","","","","","","","","","",""
"null","","image-button-response","182","2231484","0.0-182.0","AIJIWIBFAT2DG","img_art/15.jpg","null","","","","","","","","","","","","","","","","","","","","","","","","",""
"8020","","image-button-response","183","2239507","0.0-183.0","AIJIWIBFAT2DG","img_art/15.jpg","2","","","","","","","","","","","","","","","","","","","","","","","","",""
"2231","","image-button-response","184","2241741","0.0-184.0-0.0","AIJIWIBFAT2DG","img_art/15.jpg","5","","","","","","","","","","","","","","","","","","","","","","","","",""
"9430","","image-button-response","185","2251174","0.0-185.0-0.0","AIJIWIBFAT2DG","img_art/15.jpg","0","","","","","","","","","","","","","","","","","","","","","","","","",""
"null","","html-keyboard-response","186","2252178","0.0-186.0","AIJIWIBFAT2DG","<p style=""font-size: 48px;"">+</p>","","","","","null","allTrialResponses","1000","1","20","img_art/15.jpg","9","Vines and flowers coming off the varanda at night. It feels a bit creepy though.","Vincent,Paul,Derek,Thomas,Jared,Alexis","I like the colors and the different style This brings,7,360,20","I don't feel much of anything when looking at this, it's just a random pattern,1,300,20","Although it looks a bit bland in terms of color, I really like the print/pattern,25,360,20","Interesting, and I don't dislike it.,9,220,20","i cant find somthing ilike about it,-31,400,20","it is dark and gloomy,-9,140,20","Derek","Although it looks a bit bland in terms of color, I really like the print/pattern,25,360,20","Alexis","it is dark and gloomy,-9,140,20","Vincent","I like the colors and the different style This brings,7,360,20","0"
"11336","","survey-text","187","2263524","0.0-187.0-0.0","AIJIWIBFAT2DG","","","","{""Q0"":""we""}","","","","","","","","","","","","","","","","","","","","","","",""
"29108","","survey-text","188","2292635","0.0-188.0-0.0","AIJIWIBFAT2DG","","","","{""Q0"":""The colors and color blocking makes me happy""}","","","","","","","","","","","","","","","","","","","","","","",""
"3041.5","","image-slider-response","189","2295679","0.0-189.0","AIJIWIBFAT2DG","","","","","23","","","","","","","","","","","","","","","","","","","","","",""
"4597","","image-button-response","190","2300686","0.0-190.0","AIJIWIBFAT2DG","img_art/22.jpg","0","","","","","","","","","","","","","","","","","","","","","","","","",""
"1026","","image-button-response","191","2301715","0.0-191.0","AIJIWIBFAT2DG","img_art/22.jpg","0","","","","","","","","","","","","","","","","","","","","","","","","",""
"1628","","image-button-response","192","2303345","0.0-192.0-0.0","AIJIWIBFAT2DG","img_art/22.jpg","0","","","","","","","","","","","","","","","","","","","","","","","","",""
"9441","","image-button-response","193","2317415","0.0-192.1-0.1","AIJIWIBFAT2DG","img_art/22.jpg","3","","","","","","","","","","","","","","","","","","","","","","","","",""
"2104","","image-button-response","194","2319520","0.0-193.0-0.0","AIJIWIBFAT2DG","img_art/22.jpg","0","","","","","","","","","","","","","","","","","","","","","","","","",""
"3219","","image-button-response","195","2326302","0.0-193.1-0.1","AIJIWIBFAT2DG","img_art/22.jpg","2","","","","","","","","","","","","","","","","","","","","","","","","",""
"null","","html-keyboard-response","196","2326806","0.0-194.0","AIJIWIBFAT2DG","<p style=""font-size: 48px;"">+</p>","","","","","null","allTrialResponses","500","1","21","img_art/22.jpg","23","The colors and color blocking makes me happy","Vincent,Mark,Derek,Evan,John,Alexis","Can fit with anyone. And in any home a great piece of art,35,360,20","I don't feel much of anything.,0,80,20","Really pretty. Love the colors.,30,360,20","I enjoy the vibrant colors,23,140,20","Its okay,it doesnt make me feel any sort of strong emotion,1,120,20","Neither like nor dislike it. The red, yellow and blue colors are bright but I don't know what it's meant to be.,1,140,20","Vincent","Can fit with anyone. And in any home a great piece of art,35,360,20","Evan","I enjoy the vibrant colors,23,140,20","Derek","Really pretty. Love the colors.,30,360,20","4"
"46717","","survey-text","197","2373530","0.0-195.0-0.0","AIJIWIBFAT2DG","","","","{""Q0"":""I'm confused. It seems they had a painting and had to cover it up with more paint and this time they just splotched and played with it.""}","","","","","","","","","","","","","","","","","","","","","","",""
"21752.200000047684","","image-slider-response","198","2395283","0.0-196.0","AIJIWIBFAT2DG","","","","","-13","","","","","","","","","","","","","","","","","","","","","",""
"null","","image-button-response","199","2400290","0.0-197.0","AIJIWIBFAT2DG","img_art/30.jpg","null","","","","","","","","","","","","","","","","","","","","","","","","",""
"2850","","image-button-response","200","2403142","0.0-198.0","AIJIWIBFAT2DG","img_art/30.jpg","2","","","","","","","","","","","","","","","","","","","","","","","","",""
"8529","","image-button-response","201","2411674","0.0-199.0-0.0","AIJIWIBFAT2DG","img_art/30.jpg","3","","","","","","","","","","","","","","","","","","","","","","","","",""
"2707","","image-button-response","202","2414384","0.0-200.0-0.0","AIJIWIBFAT2DG","img_art/30.jpg","0","","","","","","","","","","","","","","","","","","","","","","","","",""
"null","","html-keyboard-response","203","2415885","0.0-201.0","AIJIWIBFAT2DG","<p style=""font-size: 48px;"">+</p>","","","","","null","allTrialResponses","1500","1","22","img_art/30.jpg","-13","I'm confused. It seems they had a painting and had to cover it up with more paint and this time they just splotched and played with it.","Vincent,Daniel,Derek,Evan,Cody,Samuel","Personal , calming conservative signature business ideal.,32,360,20","10 year old 10 minute project ""Fun with Painting"",-42,320,20","Looks quite basic but the colors are nice and there is a wildness about it that I love,0,360,20","I really like the broad and colorful strokes,21,140,20","Like the design, not a big fan of the colors,20,180,20","perceiving greatness,20,400,20","Derek","Looks quite basic but the colors are nice and there is a wildness about it that I love,0,360,20","Evan","I really like the broad and colorful strokes,21,140,20","Vincent","Personal , calming conservative signature business ideal.,32,360,20","4"
"32419","","survey-text","204","2448311","0.0-202.0-0.0","AIJIWIBFAT2DG","","","","{""Q0"":""It feels playful and reminds me of birthdays or christmas morning.""}","","","","","","","","","","","","","","","","","","","","","","",""
"4412.299999952316","","image-slider-response","205","2452725","0.0-203.0","AIJIWIBFAT2DG","","","","","18","","","","","","","","","","","","","","","","","","","","","",""
"null","","image-button-response","206","2457732","0.0-204.0","AIJIWIBFAT2DG","img_art/16.jpg","null","","","","","","","","","","","","","","","","","","","","","","","","",""
"7580","","image-button-response","207","2465315","0.0-205.0","AIJIWIBFAT2DG","img_art/16.jpg","0","","","","","","","","","","","","","","","","","","","","","","","","",""
"5201","","image-button-response","208","2470519","0.0-206.0-0.0","AIJIWIBFAT2DG","img_art/16.jpg","3","","","","","","","","","","","","","","","","","","","","","","","","",""
"6667","","image-button-response","209","2477188","0.0-207.0-0.0","AIJIWIBFAT2DG","img_art/16.jpg","2","","","","","","","","","","","","","","","","","","","","","","","","",""
"null","","html-keyboard-response","210","2477692","0.0-208.0","AIJIWIBFAT2DG","<p style=""font-size: 48px;"">+</p>","","","","","null","allTrialResponses","500","1","23","img_art/16.jpg","18","It feels playful and reminds me of birthdays or christmas morning.","Vincent,Devin,Derek,Evan,Kevin,Sean","Toys toys toys. Happy playful free spirit,30,360,20","That bear looks unfitting!,-8,380,20","I can't figure out the meaning of this painting but it is pleasant to look at,40,360,20","I do not like this dark and twisted portrayal of childhood,-42,140,20","Hmm i don't know what going on here.,1,320,20","my reaction is that the picture is creepy,-19,40,20","Vincent","Toys toys toys. Happy playful free spirit,30,360,20","Evan","I do not like this dark and twisted portrayal of childhood,-42,140,20","Derek","I can't figure out the meaning of this painting but it is pleasant to look at,40,360,20","4"
"37091","","survey-text","211","2514789","0.0-209.0-0.0","AIJIWIBFAT2DG","","","","{""Q0"":""I like the colors, but the painting doesn't feel right.""}","","","","","","","","","","","","","","","","","","","","","","",""
"3807.2999999523163","","image-slider-response","212","2518598","0.0-210.0","AIJIWIBFAT2DG","","","","","-34","","","","","","","","","","","","","","","","","","","","","",""
"null","","image-button-response","213","2523606","0.0-211.0","AIJIWIBFAT2DG","img_art/27.jpg","null","","","","","","","","","","","","","","","","","","","","","","","","",""
"3303","","image-button-response","214","2526910","0.0-212.0","AIJIWIBFAT2DG","img_art/27.jpg","0","","","","","","","","","","","","","","","","","","","","","","","","",""
"6227","","image-button-response","215","2533140","0.0-213.0-0.0","AIJIWIBFAT2DG","img_art/27.jpg","3","","","","","","","","","","","","","","","","","","","","","","","","",""
"10015","","image-button-response","216","2543158","0.0-214.0-0.0","AIJIWIBFAT2DG","img_art/27.jpg","5","","","","","","","","","","","","","","","","","","","","","","","","",""
"null","","html-keyboard-response","217","2544660","0.0-215.0","AIJIWIBFAT2DG","<p style=""font-size: 48px;"">+</p>","","","","","null","allTrialResponses","1500","1","24","img_art/27.jpg","-34","I like the colors, but the painting doesn't feel right.","Vincent,Garrett,Derek,Evan,Nathan,Seth","A beautiful day full of Hope and Inspiritation. The warmth of hot cocoa with the family gathering around,33,360,20","This image could do a better job of showing what is going on and it could use more colors.,-42,180,20","I love the mood of this painting,30,360,20","I am bothered by the green doodles,-20,140,20","Looks a bit like a child's project with unsatisfying colors,-31,200,20","I don't care for the green scribbles; not sure what they are. But I adore the colors in the background.,24,60,20","Vincent","A beautiful day full of Hope and Inspiritation. The warmth of hot cocoa with the family gathering around,33,360,20","Evan","I am bothered by the green doodles,-20,140,20","Seth","I don't care for the green scribbles; not sure what they are. But I adore the colors in the background.,24,60,20","4"
"33326","","survey-text","218","2577994","0.0-216.0-0.0","AIJIWIBFAT2DG","","","","{""Q0"":""A celebration comes to mind and I'm so happy! Playing music and dancing in a world of color.""}","","","","","","","","","","","","","","","","","","","","","","",""
"3346.2999999523163","","image-slider-response","219","2581341","0.0-217.0","AIJIWIBFAT2DG","","","","","50","","","","","","","","","","","","","","","","","","","","","",""
"null","","image-button-response","220","2586349","0.0-218.0","AIJIWIBFAT2DG","img_art/23.jpg","null","","","","","","","","","","","","","","","","","","","","","","","","",""
"7078","","image-button-response","221","2593429","0.0-219.0","AIJIWIBFAT2DG","img_art/23.jpg","3","","","","","","","","","","","","","","","","","","","","","","","","",""
"3097","","image-button-response","222","2596529","0.0-220.0-0.0","AIJIWIBFAT2DG","img_art/23.jpg","5","","","","","","","","","","","","","","","","","","","","","","","","",""
"7388","","image-button-response","223","2603920","0.0-221.0-0.0","AIJIWIBFAT2DG","img_art/23.jpg","0","","","","","","","","","","","","","","","","","","","","","","","","",""
"null","","html-keyboard-response","224","2605426","0.0-222.0","AIJIWIBFAT2DG","<p style=""font-size: 48px;"">+</p>","","","","","null","allTrialResponses","1500","1","25","img_art/23.jpg","50","A celebration comes to mind and I'm so happy! Playing music and dancing in a world of color.","Vincent,Robert,Adam,Evan,Dalton,Seth","Very happy , busy , free, and full of Hope,28,360,20","This makes me think of an orchestra playing a forth of july song,12,360,20","I like the color contrast, though I'm unable to tell what the white shapes are.,25,40,20","It feels exciting,23,140,20","illegible wording with a graffiti background,1,300,20","I thought this art was exciting and it reminded me of dancing people.,12,60,20","Evan","It feels exciting,23,140,20","Seth","I thought this art was exciting and it reminded me of dancing people.,12,60,20","Vincent","Very happy , busy , free, and full of Hope,28,360,20","4"
"16384","","survey-text","225","2621818","0.0-223.0-0.0","AIJIWIBFAT2DG","","","","{""Q0"":""table""}","","","","","","","","","","","","","","","","","","","","","","",""
"59401","","survey-text","226","2681220","0.0-224.0-0.0","AIJIWIBFAT2DG","","","","{""Q0"":""Travel in the dessert seems adventerous""}","","","","","","","","","","","","","","","","","","","","","","",""
"3891.399999976158","","image-slider-response","227","2685113","0.0-225.0","AIJIWIBFAT2DG","","","","","33","","","","","","","","","","","","","","","","","","","","","",""
"null","","image-button-response","228","2690121","0.0-226.0","AIJIWIBFAT2DG","img_art/20.jpg","null","","","","","","","","","","","","","","","","","","","","","","","","",""
"8601","","image-button-response","229","2698724","0.0-227.0","AIJIWIBFAT2DG","img_art/20.jpg","3","","","","","","","","","","","","","","","","","","","","","","","","",""
"7901","","image-button-response","230","2706627","0.0-228.0-0.0","AIJIWIBFAT2DG","img_art/20.jpg","0","","","","","","","","","","","","","","","","","","","","","","","","",""
"17144","","image-button-response","231","2723774","0.0-229.0-0.0","AIJIWIBFAT2DG","img_art/20.jpg","2","","","","","","","","","","","","","","","","","","","","","","","","",""
"null","","html-keyboard-response","232","2725279","0.0-230.0","AIJIWIBFAT2DG","<p style=""font-size: 48px;"">+</p>","","","","","null","allTrialResponses","1500","1","26","img_art/20.jpg","33","Travel in the dessert seems adventerous","Vincent,Jack,Alejandro,Evan,Gabriel,Seth","I love the colors and coukd spend alot of time with the picture,33,360,20","could look for hours. love the brush work. color choices look like a desert.,50,320,20","The pulling and sagging nature is very beautiful.,30,80,20","I feel intrigued and impressed,34,140,20","i almost feel like i can recognize what this is,-6,160,20","I'm not sure why this reminds me of surrealism. It might be the colors used.,16,60,20","Evan","I feel intrigued and impressed,34,140,20","Vincent","I love the colors and coukd spend alot of time with the picture,33,360,20","Alejandro","The pulling and sagging nature is very beautiful.,30,80,20","4"
"18168","","survey-text","233","2743456","0.0-231.0-0.0","AIJIWIBFAT2DG","","","","{""Q0"":""Eerie feeling. It feels like death is upon us.""}","","","","","","","","","","","","","","","","","","","","","","",""
"176849.89999997616","","image-slider-response","234","2920302","0.0-232.0","AIJIWIBFAT2DG","","","","","23","","","","","","","","","","","","","","","","","","","","","",""
"null","","image-button-response","235","2925308","0.0-233.0","AIJIWIBFAT2DG","img_art/25.jpg","null","","","","","","","","","","","","","","","","","","","","","","","","",""
"493","","image-button-response","236","2925803","0.0-234.0","AIJIWIBFAT2DG","img_art/25.jpg","0","","","","","","","","","","","","","","","","","","","","","","","","",""
"135829","","image-button-response","237","3061634","0.0-235.0-0.0","AIJIWIBFAT2DG","img_art/25.jpg","3","","","","","","","","","","","","","","","","","","","","","","","","",""
"7270","","image-button-response","238","3068907","0.0-236.0-0.0","AIJIWIBFAT2DG","img_art/25.jpg","2","","","","","","","","","","","","","","","","","","","","","","","","",""
"null","","html-keyboard-response","239","3069411","0.0-237.0","AIJIWIBFAT2DG","<p style=""font-size: 48px;"">+</p>","","","","","null","allTrialResponses","500","1","27","img_art/25.jpg","23","Eerie feeling. It feels like death is upon us.","Vincent,Brett,Alejandro,Evan,Brendan,Christopher","Iike this picture; it speaks to me on a personal level. But seems to scare the ones around me.,7,360,20","Egyptian heiroglyphics and painting,15,360,20","Seems ritualistic and nativist,50,80,20","I really like the green and the fact that it is tattered on the edges,23,140,20","is this an ancient woman?,-16,340,20","green is really cool, and the pieces in black fit together and are interesting,20,160,20","Vincent","Iike this picture; it speaks to me on a personal level. But seems to scare the ones around me.,7,360,20","Evan","I really like the green and the fact that it is tattered on the edges,23,140,20","Alejandro","Seems ritualistic and nativist,50,80,20","4"
"22790","","survey-text","240","3092208","0.0-238.0-0.0","AIJIWIBFAT2DG","","","","{""Q0"":""Downtown in the fall is so refreshing""}","","","","","","","","","","","","","","","","","","","","","","",""
"12195.299999952316","","image-slider-response","241","3104405","0.0-239.0","AIJIWIBFAT2DG","","","","","38","","","","","","","","","","","","","","","","","","","","","",""
"null","","image-button-response","242","3109412","0.0-240.0","AIJIWIBFAT2DG","img_art/26.jpg","null","","","","","","","","","","","","","","","","","","","","","","","","",""
"3466","","image-button-response","243","3112881","0.0-241.0","AIJIWIBFAT2DG","img_art/26.jpg","3","","","","","","","","","","","","","","","","","","","","","","","","",""
"1577","","image-button-response","244","3114461","0.0-242.0-0.0","AIJIWIBFAT2DG","img_art/26.jpg","0","","","","","","","","","","","","","","","","","","","","","","","","",""
"11582","","image-button-response","245","3126045","0.0-243.0-0.0","AIJIWIBFAT2DG","img_art/26.jpg","0","","","","","","","","","","","","","","","","","","","","","","","","",""
"1710","","image-button-response","246","3129943","0.0-243.1-0.1","AIJIWIBFAT2DG","img_art/26.jpg","5","","","","","","","","","","","","","","","","","","","","","","","","",""
"null","","html-keyboard-response","247","3131449","0.0-244.0","AIJIWIBFAT2DG","<p style=""font-size: 48px;"">+</p>","","","","","null","allTrialResponses","1500","1","28","img_art/26.jpg","38","Downtown in the fall is so refreshing","Vincent,Caleb,Alejandro,Evan,Lucas,Jacob","Small town and home feel on A nice day.,28,360,20","Appears childish and unfinished.,-20,40,20","Do not like water colors at all,-50,80,20","It feels simple and pretty,12,140,20","Nothing to say.,0,380,20","It doesn't look so vibrant, I'm not sure what feelings they were trying to capture,-41,340,20","Evan","It feels simple and pretty,12,140,20","Vincent","Small town and home feel on A nice day.,28,360,20","Jacob","It doesn't look so vibrant, I'm not sure what feelings they were trying to capture,-41,340,20","6"
"64259","","survey-text","248","3195717","0.0-245.0-0.0","AIJIWIBFAT2DG","","","","{""Q0"":""Makes me excited for vacation! I feel the sand between my toes and the rocks and shells as well.""}","","","","","","","","","","","","","","","","","","","","","","",""
"3921.2999999523163","","image-slider-response","249","3199640","0.0-246.0","AIJIWIBFAT2DG","","","","","20","","","","","","","","","","","","","","","","","","","","","",""
"3645","","image-button-response","250","3204643","0.0-247.0","AIJIWIBFAT2DG","img_art/7.jpg","0","","","","","","","","","","","","","","","","","","","","","","","","",""
"1442","","image-button-response","251","3206086","0.0-248.0","AIJIWIBFAT2DG","img_art/7.jpg","0","","","","","","","","","","","","","","","","","","","","","","","","",""
"10864","","image-button-response","252","3216952","0.0-249.0-0.0","AIJIWIBFAT2DG","img_art/7.jpg","5","","","","","","","","","","","","","","","","","","","","","","","","",""
"2275","","image-button-response","253","3219230","0.0-250.0-0.0","AIJIWIBFAT2DG","img_art/7.jpg","2","","","","","","","","","","","","","","","","","","","","","","","","",""
"null","","html-keyboard-response","254","3220233","0.0-251.0","AIJIWIBFAT2DG","<p style=""font-size: 48px;"">+</p>","","","","","null","allTrialResponses","1000","1","29","img_art/7.jpg","20","Makes me excited for vacation! I feel the sand between my toes and the rocks and shells as well.","Vincent,Victor,Jesus,Evan,Patrick,Jacob","One I would love to own . Calm relaxing spiritual and full of love,41,360,20","I like the texture,12,340,20","Is simple in color and texture,11,100,20","I feel confused, am I looking at a painting or a close up picture of some sort of fly stone?,-19,140,20","It feels cold and hard,-40,280,20","Looks like a natural texture, reminds me of rocks.,0,340,20","Vincent","One I would love to own . Calm relaxing spiritual and full of love,41,360,20","Jacob","Looks like a natural texture, reminds me of rocks.,0,340,20","Jesus","Is simple in color and texture,11,100,20","6"
"28931","","survey-text","255","3249171","0.0-252.0-0.0","AIJIWIBFAT2DG","","","","{""Q0"":""Playful like in a child's museum""}","","","","","","","","","","","","","","","","","","","","","","",""
"3565.1999999284744","","image-slider-response","256","3252739","0.0-253.0","AIJIWIBFAT2DG","","","","","-19","","","","","","","","","","","","","","","","","","","","","",""
"null","","image-button-response","257","3257746","0.0-254.0","AIJIWIBFAT2DG","img_art/2.jpg","null","","","","","","","","","","","","","","","","","","","","","","","","",""
"4096","","image-button-response","258","3261845","0.0-255.0","AIJIWIBFAT2DG","img_art/2.jpg","0","","","","","","","","","","","","","","","","","","","","","","","","",""
"6204","","image-button-response","259","3268051","0.0-256.0-0.0","AIJIWIBFAT2DG","img_art/2.jpg","4","","","","","","","","","","","","","","","","","","","","","","","","",""
"1533","","image-button-response","260","3269587","0.0-257.0-0.0","AIJIWIBFAT2DG","img_art/2.jpg","3","","","","","","","","","","","","","","","","","","","","","","","","",""
"null","","html-keyboard-response","261","3270590","0.0-258.0","AIJIWIBFAT2DG","<p style=""font-size: 48px;"">+</p>","","","","","null","allTrialResponses","1000","1","30","img_art/2.jpg","-19","Playful like in a child's museum","Vincent,Austin,Jesus,Hunter,Richard,Jacob","This reminds me of a peaceful day out alone shopping and spending some me time,41,360,20","Good color pallette,12,240,20","Muted green is overpowering,-10,100,20","appealing colors,4,240,20","doctor's office art work, nice colors and not offensive,23,340,20","I don't get the meaning of this piece either.,-13,340,20","Vincent","This reminds me of a peaceful day out alone shopping and spending some me time,41,360,20","Richard","doctor's office art work, nice colors and not offensive,23,340,20","Hunter","appealing colors,4,240,20","6"
"27128","","image-button-response_instructions","262","3297726","0.0-259.0","AIJIWIBFAT2DG","","0","instructions","","","","","","","","","","","","","","","","","","","","","","","",""
"2107","","image-button-response","263","3299839","0.0-260.0","AIJIWIBFAT2DG","","0","","","","","","","","","","","","","","","","","","","","","","","","",""
