"rt","url","trial_type","trial_index","time_elapsed","internal_node_id","participant_id","stimulus","button_pressed","Name","responses","response","key_press","variableName","fixationTime","condition","trial","photo","subjectRating","subjectResponse","agentsNames","agent_1_Response","agent_2_Response","agent_3_Response","agent_4_Response","agent_5_Response","agent_6_Response","kept_1_name","kept_1_response","kept_2_name","kept_2_response","kept_3_name","kept_3_response","errorCounter"
"6196","external_page_harvard.html","external-html","0","6348","0.0-0.0","AIPHY5AUGR6CG","","","","","","","","","","","","","","","","","","","","","","","","","","",""
"1659","","image-button-response","1","8009","0.0-1.0","AIPHY5AUGR6CG","","0","","","","","","","","","","","","","","","","","","","","","","","","",""
"2792","","image-button-response","2","10809","0.0-2.0-0.0","AIPHY5AUGR6CG","","1","phone","","","","","","","","","","","","","","","","","","","","","","","",""
"6366","","survey-text","3","17177","0.0-3.0-0.0","AIPHY5AUGR6CG","","","","{""Q0"":""AIPHY5AUGR6CG""}","","","","","","","","","","","","","","","","","","","","","","",""
"6189","","image-button-response_instructions","4","23369","0.0-4.0","AIPHY5AUGR6CG","","0","instructions","","","","","","","","","","","","","","","","","","","","","","","",""
"14838","","image-button-response_instructions","5","38209","0.0-5.0","AIPHY5AUGR6CG","img_art/ins/popularity/ins1.png","0","instructions","","","","","","","","","","","","","","","","","","","","","","","",""
"8397","","image-button-response_instructions","6","46609","0.0-6.0","AIPHY5AUGR6CG","img_art/ins/popularity/ins2.png","0","instructions","","","","","","","","","","","","","","","","","","","","","","","",""
"5046","","image-button-response_instructions","7","51657","0.0-7.0","AIPHY5AUGR6CG","img_art/ins/popularity/ins2Extreme.png","0","instructions","","","","","","","","","","","","","","","","","","","","","","","",""
"11702","","image-button-response_instructions","8","63361","0.0-8.0","AIPHY5AUGR6CG","img_art/ins/popularity/ins3KEEPpop.PNG","0","instructions","","","","","","","","","","","","","","","","","","","","","","","",""
"3863","","image-button-response_instructions","9","67225","0.0-9.0","AIPHY5AUGR6CG","img_art/ins/popularity/ins3ANamepop.PNG","0","instructions","","","","","","","","","","","","","","","","","","","","","","","",""
"3607","","image-button-response_instructions","10","70833","0.0-10.0","AIPHY5AUGR6CG","img_art/ins/popularity/ins3ARatingpop.png","0","instructions","","","","","","","","","","","","","","","","","","","","","","","",""
"2494","","image-button-response_instructions","11","73329","0.0-11.0","AIPHY5AUGR6CG","img_art/ins/popularity/ins3ATextpop.png","0","instructions","","","","","","","","","","","","","","","","","","","","","","","",""
"5502","","image-button-response_instructions","12","78833","0.0-12.0","AIPHY5AUGR6CG","img_art/ins/popularity/ins3ALikespop.png","0","instructions","","","","","","","","","","","","","","","","","","","","","","","",""
"23910","","image-button-response_instructions","13","102745","0.0-13.0","AIPHY5AUGR6CG","img_art/ins/popularity/ins3KEEPpop.PNG","0","instructions","","","","","","","","","","","","","","","","","","","","","","","",""
"12918","","image-button-response_instructions","14","115665","0.0-14.0","AIPHY5AUGR6CG","img_art/ins/popularity/ins3_5RED.png","0","instructions","","","","","","","","","","","","","","","","","","","","","","","",""
"6437","","image-button-response_instructions","15","122105","0.0-15.0","AIPHY5AUGR6CG","img_art/ins/popularity/ins3KEEPpop.PNG","0","instructions","","","","","","","","","","","","","","","","","","","","","","","",""
"17686","","image-button-response_instructions","16","139793","0.0-16.0","AIPHY5AUGR6CG","img_art/ins/popularity/ins4KEEPpop.PNG","0","instructions","","","","","","","","","","","","","","","","","","","","","","","",""
"6527","","image-button-response_instructions","17","146321","0.0-17.0","AIPHY5AUGR6CG","img_art/ins/popularity/ins5KEEPpop.PNG","0","instructions","","","","","","","","","","","","","","","","","","","","","","","",""
"2015","","image-button-response_instructions","18","148337","0.0-18.0","AIPHY5AUGR6CG","","0","instructions","","","","","","","","","","","","","","","","","","","","","","","",""
"7123","","survey-text","19","155497","0.0-19.0-0.0","AIPHY5AUGR6CG","","","","{""Q0"":""but""}","","","","","","","","","","","","","","","","","","","","","","",""
"18693","","survey-text","20","174193","0.0-20.0-0.0","AIPHY5AUGR6CG","","","","{""Q0"":""That sure is a lot of colors happening all at once""}","","","","","","","","","","","","","","","","","","","","","","",""
"7052.699999988079","","image-slider-response","21","181249","0.0-21.0","AIPHY5AUGR6CG","","","","","2","","","","","","","","","","","","","","","","","","","","","",""
"null","","image-button-response","22","186254","0.0-22.0","AIPHY5AUGR6CG","img_art/ins/1.jpg","null","","","","","","","","","","","","","","","","","","","","","","","","",""
"6897","","image-button-response","23","193153","0.0-23.0","AIPHY5AUGR6CG","img_art/ins/1.jpg","1","","","","","","","","","","","","","","","","","","","","","","","","",""
"3749","","image-button-response","24","196905","0.0-24.0-0.0","AIPHY5AUGR6CG","img_art/ins/1.jpg","5","","","","","","","","","","","","","","","","","","","","","","","","",""
"8572","","image-button-response","25","205482","0.0-25.0-0.0","AIPHY5AUGR6CG","img_art/ins/1.jpg","3","","","","","","","","","","","","","","","","","","","","","","","","",""
"null","","html-keyboard-response","26","205989","0.0-26.0","AIPHY5AUGR6CG","<p style=""font-size: 48px;"">+</p>","","","","","null","allTrialResponses","500","1","-2","img_art/ins/1.jpg","2","That sure is a lot of colors happening all at once","Adam,Alex,Ben,Carl,Daniel,Jack","Seems like doodles,-20,20,20","very creative work.,36,40,20","This color reminds me of poo,-46,60,20","very calming artwork,42,80,20","It looks like a murder scene.,-48,100,20","I like the sophisticated brushwork,40,120,20","Alex","very creative work.,36,40,20","Jack","I like the sophisticated brushwork,40,120,20","Carl","very calming artwork,42,80,20","0"
"144974","","survey-text","27","350969","0.0-27.0-0.0","AIPHY5AUGR6CG","","","","{""Q0"":""OH, this is very bold. The desaturated colors framing the pool of highly saturated red is rather... evocative. ""}","","","","","","","","","","","","","","","","","","","","","","",""
"4548.699999988079","","image-slider-response","28","355521","0.0-28.0","AIPHY5AUGR6CG","","","","","1","","","","","","","","","","","","","","","","","","","","","",""
"null","","image-button-response","29","360524","0.0-29.0","AIPHY5AUGR6CG","img_art/ins/2.jpg","null","","","","","","","","","","","","","","","","","","","","","","","","",""
"1339","","image-button-response","30","361865","0.0-30.0","AIPHY5AUGR6CG","img_art/ins/2.jpg","4","","","","","","","","","","","","","","","","","","","","","","","","",""
"8021","","image-button-response","31","369889","0.0-31.0-0.0","AIPHY5AUGR6CG","img_art/ins/2.jpg","1","","","","","","","","","","","","","","","","","","","","","","","","",""
"4653","","image-button-response","32","374545","0.0-32.0-0.0","AIPHY5AUGR6CG","img_art/ins/2.jpg","3","","","","","","","","","","","","","","","","","","","","","","","","",""
"null","","html-keyboard-response","33","376057","0.0-33.0","AIPHY5AUGR6CG","<p style=""font-size: 48px;"">+</p>","","","","","null","allTrialResponses","1500","1","-1","img_art/ins/2.jpg","1","OH, this is very bold. The desaturated colors framing the pool of highly saturated red is rather... evocative. ","James,Alex,Kyle,Carl,John,Jack","looks too angry,-50,140,20","I like the blocks of color arrangements,30,40,20","Idk, it is just annoying,-32,180,20","I can feel the artist's passion in it,45,80,20","love the texture of paint,48,160,20","I would never be able to compose a sophisticated pallete like this,48,120,20","John","love the texture of paint,48,160,20","Alex","I like the blocks of color arrangements,30,40,20","Carl","I can feel the artist's passion in it,45,80,20","0"
"23247","","survey-text","34","399312","0.0-34.0-0.0","AIPHY5AUGR6CG","","","","{""Q0"":""THOSE ARE SOME GREAT BLUES! No lie I really dig this one, it's just neato.""}","","","","","","","","","","","","","","","","","","","","","","",""
"8101.899999976158","","image-slider-response","35","407417","0.0-35.0","AIPHY5AUGR6CG","","","","","45","","","","","","","","","","","","","","","","","","","","","",""
"null","","image-button-response","36","412422","0.0-36.0","AIPHY5AUGR6CG","img_art/ins/3.jpg","null","","","","","","","","","","","","","","","","","","","","","","","","",""
"10098","","image-button-response","37","422521","0.0-37.0","AIPHY5AUGR6CG","img_art/ins/3.jpg","0","","","","","","","","","","","","","","","","","","","","","","","","",""
"3285","","image-button-response","38","425810","0.0-38.0-0.0","AIPHY5AUGR6CG","img_art/ins/3.jpg","0","","","","","","","","","","","","","","","","","","","","","","","","",""
"2158","","image-button-response","39","432402","0.0-38.1-0.1","AIPHY5AUGR6CG","img_art/ins/3.jpg","4","","","","","","","","","","","","","","","","","","","","","","","","",""
"1285","","image-button-response","40","433690","0.0-39.0-0.0","AIPHY5AUGR6CG","img_art/ins/3.jpg","5","","","","","","","","","","","","","","","","","","","","","","","","",""
"null","","html-keyboard-response","41","434692","0.0-40.0","AIPHY5AUGR6CG","<p style=""font-size: 48px;"">+</p>","","","","","null","allTrialResponses","1000","1","0","img_art/ins/3.jpg","45","THOSE ARE SOME GREAT BLUES! No lie I really dig this one, it's just neato.","Mike,Alex,Ron,Carl,John,Sam","enjoy the different shades of blue,22,200,20","calming blue is very nice,36,40,20","It looks depressing,-26,220,20","It's an alright work,15,80,20","I like the overlapping of brushes,41,160,20","I can feel a rainy day from this painting,18,240,20","Mike","enjoy the different shades of blue,22,200,20","John","I like the overlapping of brushes,41,160,20","Sam","I can feel a rainy day from this painting,18,240,20","2"
"7784","","image-button-response_instructions","42","442481","0.0-41.0","AIPHY5AUGR6CG","","0","instructions","","","","","","","","","","","","","","","","","","","","","","","",""
"15174","","survey-likert","43","457658","0.0-42.0-0.0","AIPHY5AUGR6CG","","","","{""Q0"":"""",""Q1"":0,""Q2"":1}","","","","","","","","","","","","","","","","","","","","","","",""
"4344","","survey-text","44","462009","0.0-43.0-0.0","AIPHY5AUGR6CG","","","","{""Q0"":""rock""}","","","","","","","","","","","","","","","","","","","","","","",""
"130630","","survey-text","45","592641","0.0-44.0-0.0","AIPHY5AUGR6CG","","","","{""Q0"":""It's like a parade! Awesome use of minimal strokes in a single color against an elaborate rainbow of chaos to make something completely abstract that simultaneously feels like a close memory.""}","","","","","","","","","","","","","","","","","","","","","","",""
"2429.699999988079","","image-slider-response","46","595073","0.0-45.0","AIPHY5AUGR6CG","","","","","50","","","","","","","","","","","","","","","","","","","","","",""
"null","","image-button-response","47","600119","0.0-46.0","AIPHY5AUGR6CG","img_art/23.jpg","null","","","","","","","","","","","","","","","","","","","","","","","","",""
"15822","","image-button-response","48","615945","0.0-47.0","AIPHY5AUGR6CG","img_art/23.jpg","0","","","","","","","","","","","","","","","","","","","","","","","","",""
"3613","","image-button-response","49","619562","0.0-48.0-0.0","AIPHY5AUGR6CG","img_art/23.jpg","3","","","","","","","","","","","","","","","","","","","","","","","","",""
"5277","","image-button-response","50","624842","0.0-49.0-0.0","AIPHY5AUGR6CG","img_art/23.jpg","1","","","","","","","","","","","","","","","","","","","","","","","","",""
"null","","html-keyboard-response","51","625847","0.0-50.0","AIPHY5AUGR6CG","<p style=""font-size: 48px;"">+</p>","","","","","null","allTrialResponses","1000","1","1","img_art/23.jpg","50","It's like a parade! Awesome use of minimal strokes in a single color against an elaborate rainbow of chaos to make something completely abstract that simultaneously feels like a close memory.","Victor,Brett,Tyler,Sean,Richard,Jesus","I like the colors, the tiny dots, and the contrast between the white and background,28,340,20","Universal celebration,40,360,20","Looks celebratory and joyful! However, the photograph does not do the original work's colors justice.,27,320,20","so much detail .,31,40,20","it's OK, but just OK, kind of interesting but I wouldn't spend money on it,4,340,20","The usage of color is great, but not my style.,-15,100,20","Victor","I like the colors, the tiny dots, and the contrast between the white and background,28,340,20","Sean","so much detail .,31,40,20","Brett","Universal celebration,40,360,20","2"
"78297","","survey-text","52","704153","0.0-51.0-0.0","AIPHY5AUGR6CG","","","","{""Q0"":""Those are some great lines, great direction leading our eyes through what looks like rushing water in the wilderness.""}","","","","","","","","","","","","","","","","","","","","","","",""
"9725.900000035763","","image-slider-response","53","713881","0.0-52.0","AIPHY5AUGR6CG","","","","","20","","","","","","","","","","","","","","","","","","","","","",""
"4453","","image-button-response","54","718896","0.0-53.0","AIPHY5AUGR6CG","img_art/24.jpg","1","","","","","","","","","","","","","","","","","","","","","","","","",""
"1237","","image-button-response","55","720137","0.0-54.0","AIPHY5AUGR6CG","img_art/24.jpg","1","","","","","","","","","","","","","","","","","","","","","","","","",""
"2757","","image-button-response","56","722898","0.0-55.0-0.0","AIPHY5AUGR6CG","img_art/24.jpg","4","","","","","","","","","","","","","","","","","","","","","","","","",""
"4076","","image-button-response","57","726977","0.0-56.0-0.0","AIPHY5AUGR6CG","img_art/24.jpg","3","","","","","","","","","","","","","","","","","","","","","","","","",""
"null","","html-keyboard-response","58","727479","0.0-57.0","AIPHY5AUGR6CG","<p style=""font-size: 48px;"">+</p>","","","","","null","allTrialResponses","500","1","2","img_art/24.jpg","20","Those are some great lines, great direction leading our eyes through what looks like rushing water in the wilderness.","Victor,Brett,Kyle,Sean,Thomas,Cole","I don't even know. It's just kind of meh,1,340,20","Forest waterfall,40,360,20","This one is nice because it reminds me of nature,18,340,20","I like the waterfall,22,40,20","Beautiful colors and texture,20,220,20","Abstract waterfall landscape. Confusing,-13,200,20","Brett","Forest waterfall,40,360,20","Thomas","Beautiful colors and texture,20,220,20","Sean","I like the waterfall,22,40,20","2"
"19044","","survey-text","59","746529","0.0-58.0-0.0","AIPHY5AUGR6CG","","","","{""Q0"":""Haha paint brush go splat splat""}","","","","","","","","","","","","","","","","","","","","","","",""
"9333.599999964237","","image-slider-response","60","755865","0.0-59.0","AIPHY5AUGR6CG","","","","","2","","","","","","","","","","","","","","","","","","","","","",""
"null","","image-button-response","61","760868","0.0-60.0","AIPHY5AUGR6CG","img_art/13.jpg","null","","","","","","","","","","","","","","","","","","","","","","","","",""
"867","","image-button-response","62","761737","0.0-61.0","AIPHY5AUGR6CG","img_art/13.jpg","5","","","","","","","","","","","","","","","","","","","","","","","","",""
"2397","","image-button-response","63","764137","0.0-62.0-0.0","AIPHY5AUGR6CG","img_art/13.jpg","3","","","","","","","","","","","","","","","","","","","","","","","","",""
"4556","","image-button-response","64","768697","0.0-63.0-0.0","AIPHY5AUGR6CG","img_art/13.jpg","1","","","","","","","","","","","","","","","","","","","","","","","","",""
"null","","html-keyboard-response","65","770200","0.0-64.0","AIPHY5AUGR6CG","<p style=""font-size: 48px;"">+</p>","","","","","null","allTrialResponses","1500","1","3","img_art/13.jpg","2","Haha paint brush go splat splat","Ryan,Brett,Marcus,Sean,Thomas,Scott","Feels calm and could be placed in anyones house,43,380,20","Very abstract and soothing,40,360,20","It's okay. Feels like a blander take on a Jackson Pollack,11,60,20","I like the colors,7,40,20","Nothing about this stands out to me,-10,220,20","I like the transition to other colors,24,20,20","Scott","I like the transition to other colors,24,20,20","Sean","I like the colors,7,40,20","Brett","Very abstract and soothing,40,360,20","2"
"70268","","survey-text","66","840473","0.0-65.0-0.0","AIPHY5AUGR6CG","","","","{""Q0"":""This is my hand when it cramps up after drawing and I really appreciate someone took the time to paint that feeling.""}","","","","","","","","","","","","","","","","","","","","","","",""
"4788.800000011921","","image-slider-response","67","845265","0.0-66.0","AIPHY5AUGR6CG","","","","","1","","","","","","","","","","","","","","","","","","","","","",""
"4700","","image-button-response","68","850276","0.0-67.0","AIPHY5AUGR6CG","img_art/4.jpg","5","","","","","","","","","","","","","","","","","","","","","","","","",""
"1827","","image-button-response","69","852106","0.0-68.0","AIPHY5AUGR6CG","img_art/4.jpg","5","","","","","","","","","","","","","","","","","","","","","","","","",""
"2926","","image-button-response","70","855033","0.0-69.0-0.0","AIPHY5AUGR6CG","img_art/4.jpg","1","","","","","","","","","","","","","","","","","","","","","","","","",""
"2213","","image-button-response","71","857250","0.0-70.0-0.0","AIPHY5AUGR6CG","img_art/4.jpg","3","","","","","","","","","","","","","","","","","","","","","","","","",""
"null","","html-keyboard-response","72","858752","0.0-71.0","AIPHY5AUGR6CG","<p style=""font-size: 48px;"">+</p>","","","","","null","allTrialResponses","1500","1","4","img_art/4.jpg","1","This is my hand when it cramps up after drawing and I really appreciate someone took the time to paint that feeling.","Robert,Brett,Devon,Sean,Mason,Scott","It looks like a hand someone scribbled over,-30,360,20","I just have no clue,26,360,20","heart symbol - this tells a story of hidden love,30,400,20","dont know what im looking at,1,40,20","ordinary, bland. unmoving.,-6,100,20","feels free flowing and relaxed,21,20,20","Scott","feels free flowing and relaxed,21,20,20","Brett","I just have no clue,26,360,20","Sean","dont know what im looking at,1,40,20","2"
"56292","","survey-text","73","915049","0.0-72.0-0.0","AIPHY5AUGR6CG","","","","{""Q0"":""There is a lot happening here. Human effort is evident in this image that I am seeing.""}","","","","","","","","","","","","","","","","","","","","","","",""
"9421.800000011921","","image-slider-response","74","924473","0.0-73.0","AIPHY5AUGR6CG","","","","","1","","","","","","","","","","","","","","","","","","","","","",""
"null","","image-button-response","75","929477","0.0-74.0","AIPHY5AUGR6CG","img_art/29.jpg","null","","","","","","","","","","","","","","","","","","","","","","","","",""
"7355","","image-button-response","76","936834","0.0-75.0","AIPHY5AUGR6CG","img_art/29.jpg","3","","","","","","","","","","","","","","","","","","","","","","","","",""
"1989","","image-button-response","77","938826","0.0-76.0-0.0","AIPHY5AUGR6CG","img_art/29.jpg","2","","","","","","","","","","","","","","","","","","","","","","","","",""
"2412","","image-button-response","78","941242","0.0-77.0-0.0","AIPHY5AUGR6CG","img_art/29.jpg","1","","","","","","","","","","","","","","","","","","","","","","","","",""
"null","","html-keyboard-response","79","942745","0.0-78.0","AIPHY5AUGR6CG","<p style=""font-size: 48px;"">+</p>","","","","","null","allTrialResponses","1500","1","5","img_art/29.jpg","1","There is a lot happening here. Human effort is evident in this image that I am seeing.","Brendan,Brett,Dalton,Sean,Jeffrey,Scott","it looks like a prison,-33,340,20","Reminds me of graffitti gone wrong,15,360,20","i dont know how it makes me feel.,1,300,20","my response to the picture is that it looks so nice and cool and the details,34,40,20","Looks like an accident more than an art to me,-26,40,20","feels random and not thoughtout,-37,20,20","Sean","my response to the picture is that it looks so nice and cool and the details,34,40,20","Dalton","i dont know how it makes me feel.,1,300,20","Brett","Reminds me of graffitti gone wrong,15,360,20","2"
"3214","","survey-text","80","945969","0.0-79.0-0.0","AIPHY5AUGR6CG","","","","{""Q0"":""sky""}","","","","","","","","","","","","","","","","","","","","","","",""
"183966","","survey-text","81","1129936","0.0-80.0-0.0","AIPHY5AUGR6CG","","","","{""Q0"":""I love when artists create works that are just barely in the right configuration of shapes that, even though it's just squiggles and colors, your brain is able to fill it all in, and you really get the sense you understand what's happening as though it were a photograph.""}","","","","","","","","","","","","","","","","","","","","","","",""
"8861.799999952316","","image-slider-response","82","1138801","0.0-81.0","AIPHY5AUGR6CG","","","","","25","","","","","","","","","","","","","","","","","","","","","",""
"null","","image-button-response","83","1143804","0.0-82.0","AIPHY5AUGR6CG","img_art/25.jpg","null","","","","","","","","","","","","","","","","","","","","","","","","",""
"15610","","image-button-response","84","1159417","0.0-83.0","AIPHY5AUGR6CG","img_art/25.jpg","2","","","","","","","","","","","","","","","","","","","","","","","","",""
"4286","","image-button-response","85","1163706","0.0-84.0-0.0","AIPHY5AUGR6CG","img_art/25.jpg","0","","","","","","","","","","","","","","","","","","","","","","","","",""
"1484","","image-button-response","86","1165193","0.0-85.0-0.0","AIPHY5AUGR6CG","img_art/25.jpg","1","","","","","","","","","","","","","","","","","","","","","","","","",""
"null","","html-keyboard-response","87","1166696","0.0-86.0","AIPHY5AUGR6CG","<p style=""font-size: 48px;"">+</p>","","","","","null","allTrialResponses","1500","1","6","img_art/25.jpg","25","I love when artists create works that are just barely in the right configuration of shapes that, even though it's just squiggles and colors, your brain is able to fill it all in, and you really get the sense you understand what's happening as though it were a photograph.","James,Brett,Dalton,Sean,Alex,Garrett","This would definitely be hanging in my bedroom in my house,50,380,20","Egyptian heiroglyphics and painting,15,360,20","This reminds me of royalty and servants.,32,300,20","my response to the picture its weird,-9,40,20","I can get behind this but only because I like the green. it reminds me of a graveyard,11,100,20","I like the way the persons clothes look, there could be more color though.,10,180,20","Dalton","This reminds me of royalty and servants.,32,300,20","James","This would definitely be hanging in my bedroom in my house,50,380,20","Brett","Egyptian heiroglyphics and painting,15,360,20","2"
"147843","","survey-text","88","1314545","0.0-87.0-0.0","AIPHY5AUGR6CG","","","","{""Q0"":""Does anyone else immediately get the feeling that this is how the city looks reflected back through rainy puddles while you're driving over bridges?""}","","","","","","","","","","","","","","","","","","","","","","",""
"3460.600000023842","","image-slider-response","89","1318009","0.0-88.0","AIPHY5AUGR6CG","","","","","10","","","","","","","","","","","","","","","","","","","","","",""
"null","","image-button-response","90","1323014","0.0-89.0","AIPHY5AUGR6CG","img_art/11.jpg","null","","","","","","","","","","","","","","","","","","","","","","","","",""
"10881","","image-button-response","91","1333898","0.0-90.0","AIPHY5AUGR6CG","img_art/11.jpg","5","","","","","","","","","","","","","","","","","","","","","","","","",""
"1173","","image-button-response","92","1335074","0.0-91.0-0.0","AIPHY5AUGR6CG","img_art/11.jpg","2","","","","","","","","","","","","","","","","","","","","","","","","",""
"3293","","image-button-response","93","1338370","0.0-92.0-0.0","AIPHY5AUGR6CG","img_art/11.jpg","1","","","","","","","","","","","","","","","","","","","","","","","","",""
"null","","html-keyboard-response","94","1339887","0.0-93.0","AIPHY5AUGR6CG","<p style=""font-size: 48px;"">+</p>","","","","","null","allTrialResponses","1500","1","7","img_art/11.jpg","10","Does anyone else immediately get the feeling that this is how the city looks reflected back through rainy puddles while you're driving over bridges?","James,Brett,Dalton,Justin,Trevor,Isaiah","I like dark colors.,31,380,20","This looks like a busy highway system along a suburban background,40,360,20","looks like highways and homes and lives intertwining.,27,300,20","It reminds me of telephone wires.,1,280,20","I like how it looks like buildings but i'm not a fan of colors,20,280,20","I feel excited, like I'm in the middle of a bustling city.,26,300,20","Isaiah","I feel excited, like I'm in the middle of a bustling city.,26,300,20","Dalton","looks like highways and homes and lives intertwining.,27,300,20","Brett","This looks like a busy highway system along a suburban background,40,360,20","2"
"45227","","survey-text","95","1385121","0.0-94.0-0.0","AIPHY5AUGR6CG","","","","{""Q0"":""At first I saw a frog. Then I saw a person. I like to imagine this frog person has a cozy life around the pond.""}","","","","","","","","","","","","","","","","","","","","","","",""
"4389.699999988079","","image-slider-response","96","1389513","0.0-95.0","AIPHY5AUGR6CG","","","","","5","","","","","","","","","","","","","","","","","","","","","",""
"null","","image-button-response","97","1394529","0.0-96.0","AIPHY5AUGR6CG","img_art/9.jpg","null","","","","","","","","","","","","","","","","","","","","","","","","",""
"300","","image-button-response","98","1394834","0.0-97.0","AIPHY5AUGR6CG","img_art/9.jpg","0","","","","","","","","","","","","","","","","","","","","","","","","",""
"8758","","image-button-response","99","1403594","0.0-98.0-0.0","AIPHY5AUGR6CG","img_art/9.jpg","1","","","","","","","","","","","","","","","","","","","","","","","","",""
"9260","","image-button-response","100","1412858","0.0-99.0-0.0","AIPHY5AUGR6CG","img_art/9.jpg","5","","","","","","","","","","","","","","","","","","","","","","","","",""
"null","","html-keyboard-response","101","1414361","0.0-100.0","AIPHY5AUGR6CG","<p style=""font-size: 48px;"">+</p>","","","","","null","allTrialResponses","1500","1","8","img_art/9.jpg","5","At first I saw a frog. Then I saw a person. I like to imagine this frog person has a cozy life around the pond.","Luis,Brett,Dalton,John,Joshua,Isaiah","Calming and relaxing,42,400,20","Peaceful dreaming,40,360,20","a mother in bed surrounded by emotions,1,300,20","Unpleasant, alot of dark colors and strange lines,-26,120,20","Someone lying in bed?  Don't care for it.,-14,240,20","The piece of art makes me happy, it reminds me of a lively carnival.,15,300,20","Luis","Calming and relaxing,42,400,20","Brett","Peaceful dreaming,40,360,20","Isaiah","The piece of art makes me happy, it reminds me of a lively carnival.,15,300,20","2"
"24580","","survey-text","102","1438945","0.0-101.0-0.0","AIPHY5AUGR6CG","","","","{""Q0"":""Can we get a watering can out here?""}","","","","","","","","","","","","","","","","","","","","","","",""
"5533.699999988079","","image-slider-response","103","1444481","0.0-102.0","AIPHY5AUGR6CG","","","","","15","","","","","","","","","","","","","","","","","","","","","",""
"null","","image-button-response","104","1449485","0.0-103.0","AIPHY5AUGR6CG","img_art/6.jpg","null","","","","","","","","","","","","","","","","","","","","","","","","",""
"7786","","image-button-response","105","1457273","0.0-104.0","AIPHY5AUGR6CG","img_art/6.jpg","4","","","","","","","","","","","","","","","","","","","","","","","","",""
"1029","","image-button-response","106","1458305","0.0-105.0-0.0","AIPHY5AUGR6CG","img_art/6.jpg","5","","","","","","","","","","","","","","","","","","","","","","","","",""
"7453","","image-button-response","107","1465761","0.0-106.0-0.0","AIPHY5AUGR6CG","img_art/6.jpg","2","","","","","","","","","","","","","","","","","","","","","","","","",""
"null","","html-keyboard-response","108","1467264","0.0-107.0","AIPHY5AUGR6CG","<p style=""font-size: 48px;"">+</p>","","","","","null","allTrialResponses","1500","1","9","img_art/6.jpg","15","Can we get a watering can out here?","Luis,Brett,Bradley,Derek,Connor,Isaiah","I love the representation of death and life.,50,400,20","Reminds me of feeling incomplete,1,360,20","It's okay. It kind of looks like a bird with his head buried in his feathers.,2,300,20","Too basic for me,-20,360,20","Blackbird in the desert,27,240,20","The painting makes me happy. Like I'm looking at a little bird.,6,300,20","Connor","Blackbird in the desert,27,240,20","Isaiah","The painting makes me happy. Like I'm looking at a little bird.,6,300,20","Bradley","It's okay. It kind of looks like a bird with his head buried in his feathers.,2,300,20","2"
"30969","","survey-text","109","1498241","0.0-108.0-0.0","AIPHY5AUGR6CG","","","","{""Q0"":""There is a lot of image happening in this image. It's very image.""}","","","","","","","","","","","","","","","","","","","","","","",""
"3669.699999988079","","image-slider-response","110","1501913","0.0-109.0","AIPHY5AUGR6CG","","","","","2","","","","","","","","","","","","","","","","","","","","","",""
"4470","","image-button-response","111","1506930","0.0-110.0","AIPHY5AUGR6CG","img_art/26.jpg","1","","","","","","","","","","","","","","","","","","","","","","","","",""
"853","","image-button-response","112","1507786","0.0-111.0","AIPHY5AUGR6CG","img_art/26.jpg","1","","","","","","","","","","","","","","","","","","","","","","","","",""
"4198","","image-button-response","113","1511986","0.0-112.0-0.0","AIPHY5AUGR6CG","img_art/26.jpg","4","","","","","","","","","","","","","","","","","","","","","","","","",""
"4461","","image-button-response","114","1516450","0.0-113.0-0.0","AIPHY5AUGR6CG","img_art/26.jpg","5","","","","","","","","","","","","","","","","","","","","","","","","",""
"null","","html-keyboard-response","115","1517452","0.0-114.0","AIPHY5AUGR6CG","<p style=""font-size: 48px;"">+</p>","","","","","null","allTrialResponses","1000","1","10","img_art/26.jpg","2","There is a lot of image happening in this image. It's very image.","Lucas,Kenneth,Bradley,Jacob,Connor,Isaiah","Nothing to say.,0,380,20","Very subdued, but wouldn't give it a 2nd notice.,4,300,20","I like this. Looks like a city street and I can use my imagination to make it come alive.,15,300,20","It doesn't look so vibrant, I'm not sure what feelings they were trying to capture,-41,340,20","City scene in a park,23,240,20","It is very relaxing to look at, almost a relief.,21,300,20","Kenneth","Very subdued, but wouldn't give it a 2nd notice.,4,300,20","Connor","City scene in a park,23,240,20","Isaiah","It is very relaxing to look at, almost a relief.,21,300,20","2"
"3231","","survey-text","116","1520697","0.0-115.0-0.0","AIPHY5AUGR6CG","","","","{""Q0"":""our""}","","","","","","","","","","","","","","","","","","","","","","",""
"39510","","survey-text","117","1560209","0.0-116.0-0.0","AIPHY5AUGR6CG","","","","{""Q0"":""I admire the level of commitment evident in this work. It must have taken a long time to put it all together.""}","","","","","","","","","","","","","","","","","","","","","","",""
"2733.7999999523163","","image-slider-response","118","1562945","0.0-117.0","AIPHY5AUGR6CG","","","","","1","","","","","","","","","","","","","","","","","","","","","",""
"null","","image-button-response","119","1567955","0.0-118.0","AIPHY5AUGR6CG","img_art/8.jpg","null","","","","","","","","","","","","","","","","","","","","","","","","",""
"3381","","image-button-response","120","1571338","0.0-119.0","AIPHY5AUGR6CG","img_art/8.jpg","4","","","","","","","","","","","","","","","","","","","","","","","","",""
"7053","","image-button-response","121","1578394","0.0-120.0-0.0","AIPHY5AUGR6CG","img_art/8.jpg","1","","","","","","","","","","","","","","","","","","","","","","","","",""
"741","","image-button-response","122","1579138","0.0-121.0-0.0","AIPHY5AUGR6CG","img_art/8.jpg","3","","","","","","","","","","","","","","","","","","","","","","","","",""
"null","","html-keyboard-response","123","1580640","0.0-122.0","AIPHY5AUGR6CG","<p style=""font-size: 48px;"">+</p>","","","","","null","allTrialResponses","1500","1","11","img_art/8.jpg","1","I admire the level of commitment evident in this work. It must have taken a long time to put it all together.","Cameron,Kenneth,Jorge,Luke,Connor,Isaiah","what's going on here. looks like scary town.,-25,60,20","Interesting, i really like the face and the moon. Realy detailed and you see something new with each look.,11,300,20","New power in the community,22,180,20","It is very colorful with a deeper meaning,25,20,20","Lots of depth, faces, city, arch,3,240,20","It makes me feel nervous. I can't tell ifI'm looking at an apartment, or a hellscape.,-18,300,20","Connor","Lots of depth, faces, city, arch,3,240,20","Kenneth","Interesting, i really like the face and the moon. Realy detailed and you see something new with each look.,11,300,20","Luke","It is very colorful with a deeper meaning,25,20,20","2"
"21721","","survey-text","124","1602369","0.0-123.0-0.0","AIPHY5AUGR6CG","","","","{""Q0"":""Yes. These are colors.""}","","","","","","","","","","","","","","","","","","","","","","",""
"3261.5","","image-slider-response","125","1605633","0.0-124.0","AIPHY5AUGR6CG","","","","","1","","","","","","","","","","","","","","","","","","","","","",""
"null","","image-button-response","126","1610644","0.0-125.0","AIPHY5AUGR6CG","img_art/1.jpg","null","","","","","","","","","","","","","","","","","","","","","","","","",""
"13851","","image-button-response","127","1624497","0.0-126.0","AIPHY5AUGR6CG","img_art/1.jpg","0","","","","","","","","","","","","","","","","","","","","","","","","",""
"2813","","image-button-response","128","1627313","0.0-127.0-0.0","AIPHY5AUGR6CG","img_art/1.jpg","4","","","","","","","","","","","","","","","","","","","","","","","","",""
"1349","","image-button-response","129","1628665","0.0-128.0-0.0","AIPHY5AUGR6CG","img_art/1.jpg","3","","","","","","","","","","","","","","","","","","","","","","","","",""
"null","","html-keyboard-response","130","1629167","0.0-129.0","AIPHY5AUGR6CG","<p style=""font-size: 48px;"">+</p>","","","","","null","allTrialResponses","500","1","12","img_art/1.jpg","1","Yes. These are colors.","Shane,Kenneth,Taylor,Luke,Connor,Noah","Warmth of the sun,22,80,20","I love colorful photos and I like this one a lot.,25,300,20","Deja vu. Haven't I seen this one before? Not bad for those living in the backwoods.,10,200,20","it is very colorful and makes me happy,44,20,20","Love the coloration and abstract figures,18,240,20","the bright colours evoke the 90s, and not their best part,-10,260,20","Shane","Warmth of the sun,22,80,20","Connor","Love the coloration and abstract figures,18,240,20","Luke","it is very colorful and makes me happy,44,20,20","2"
"62117","","survey-text","131","1691289","0.0-130.0-0.0","AIPHY5AUGR6CG","","","","{""Q0"":""Ohh, those are some very intense combinations of color. Like the scene of a crash.""}","","","","","","","","","","","","","","","","","","","","","","",""
"5749.699999988079","","image-slider-response","132","1697041","0.0-131.0","AIPHY5AUGR6CG","","","","","2","","","","","","","","","","","","","","","","","","","","","",""
"null","","image-button-response","133","1702044","0.0-132.0","AIPHY5AUGR6CG","img_art/20.jpg","null","","","","","","","","","","","","","","","","","","","","","","","","",""
"3107","","image-button-response","134","1705155","0.0-133.0","AIPHY5AUGR6CG","img_art/20.jpg","2","","","","","","","","","","","","","","","","","","","","","","","","",""
"6077","","image-button-response","135","1711234","0.0-134.0-0.0","AIPHY5AUGR6CG","img_art/20.jpg","1","","","","","","","","","","","","","","","","","","","","","","","","",""
"13853","","image-button-response","136","1725090","0.0-135.0-0.0","AIPHY5AUGR6CG","img_art/20.jpg","4","","","","","","","","","","","","","","","","","","","","","","","","",""
"null","","html-keyboard-response","137","1725592","0.0-136.0","AIPHY5AUGR6CG","<p style=""font-size: 48px;"">+</p>","","","","","null","allTrialResponses","500","1","13","img_art/20.jpg","2","Ohh, those are some very intense combinations of color. Like the scene of a crash.","Shane,Vincent,Tristan,Luke,Connor,Chase","Feels like a town destroyed,-19,80,20","I love the colors and coukd spend alot of time with the picture,33,360,20","Elements that are more defined are incongruous to the soft and melting nature of this painting,5,300,20","it looks like a car crash which is depressing,-19,20,20","Dark frame overpowers the image,-6,240,20","Looks like a refinery dumping shit into the water.,-40,120,20","Tristan","Elements that are more defined are incongruous to the soft and melting nature of this painting,5,300,20","Vincent","I love the colors and coukd spend alot of time with the picture,33,360,20","Connor","Dark frame overpowers the image,-6,240,20","2"
"33819","","survey-text","138","1759418","0.0-137.0-0.0","AIPHY5AUGR6CG","","","","{""Q0"":""I like the splashy lines! Lots of momentum!""}","","","","","","","","","","","","","","","","","","","","","","",""
"4581.800000011921","","image-slider-response","139","1764002","0.0-138.0","AIPHY5AUGR6CG","","","","","10","","","","","","","","","","","","","","","","","","","","","",""
"null","","image-button-response","140","1769005","0.0-139.0","AIPHY5AUGR6CG","img_art/10.jpg","null","","","","","","","","","","","","","","","","","","","","","","","","",""
"819","","image-button-response","141","1769826","0.0-140.0","AIPHY5AUGR6CG","img_art/10.jpg","4","","","","","","","","","","","","","","","","","","","","","","","","",""
"5813","","image-button-response","142","1775642","0.0-141.0-0.0","AIPHY5AUGR6CG","img_art/10.jpg","1","","","","","","","","","","","","","","","","","","","","","","","","",""
"4701","","image-button-response","143","1780346","0.0-142.0-0.0","AIPHY5AUGR6CG","img_art/10.jpg","2","","","","","","","","","","","","","","","","","","","","","","","","",""
"null","","html-keyboard-response","144","1780848","0.0-143.0","AIPHY5AUGR6CG","<p style=""font-size: 48px;"">+</p>","","","","","null","allTrialResponses","500","1","14","img_art/10.jpg","10","I like the splashy lines! Lots of momentum!","Dakota,Vincent,Tristan,Shawn,Connor,Steven","I feel a state of readiness without anxiety.,24,280,20","A very conversational piece could be of many different ideas,38,360,20","Highly abstract and yet the shapes and colors provide an emotional accessibility for me.,20,300,20","Don't like the colorblock but the lines are nice,-20,100,20","Cello music instrument,11,240,20","I dont like it, there is too much going on,-19,160,20","Connor","Cello music instrument,11,240,20","Vincent","A very conversational piece could be of many different ideas,38,360,20","Tristan","Highly abstract and yet the shapes and colors provide an emotional accessibility for me.,20,300,20","2"
"45723","","survey-text","145","1826578","0.0-144.0-0.0","AIPHY5AUGR6CG","","","","{""Q0"":""This work reminds me of my refrigerator, and I appreciate that.""}","","","","","","","","","","","","","","","","","","","","","","",""
"2837.899999976158","","image-slider-response","146","1829418","0.0-145.0","AIPHY5AUGR6CG","","","","","2","","","","","","","","","","","","","","","","","","","","","",""
"null","","image-button-response","147","1834420","0.0-146.0","AIPHY5AUGR6CG","img_art/14.jpg","null","","","","","","","","","","","","","","","","","","","","","","","","",""
"2923","","image-button-response","148","1837346","0.0-147.0","AIPHY5AUGR6CG","img_art/14.jpg","2","","","","","","","","","","","","","","","","","","","","","","","","",""
"3334","","image-button-response","149","1840682","0.0-148.0-0.0","AIPHY5AUGR6CG","img_art/14.jpg","5","","","","","","","","","","","","","","","","","","","","","","","","",""
"1189","","image-button-response","150","1841874","0.0-149.0-0.0","AIPHY5AUGR6CG","img_art/14.jpg","1","","","","","","","","","","","","","","","","","","","","","","","","",""
"null","","html-keyboard-response","151","1842876","0.0-150.0","AIPHY5AUGR6CG","<p style=""font-size: 48px;"">+</p>","","","","","null","allTrialResponses","1000","1","15","img_art/14.jpg","2","This work reminds me of my refrigerator, and I appreciate that.","Adam,Vincent,Tristan,Jake,Connor,Patrick","Very abstract. Unsure of what I'm looking at. No emotions towards it.,-6,40,20","Reminds me of the old days with my family and my grandma,41,360,20","In others I might say the colors are garish. Here it works perfectly. The balance is wondrous and unlimiting.,25,300,20","This is poorly done and not aesthetically appealing.,-2,360,20","Looks childish and basic,-42,240,20","It uplifts my mood due to the color scheme,32,280,20","Tristan","In others I might say the colors are garish. Here it works perfectly. The balance is wondrous and unlimiting.,25,300,20","Patrick","It uplifts my mood due to the color scheme,32,280,20","Vincent","Reminds me of the old days with my family and my grandma,41,360,20","2"
"3514","","survey-text","152","1846402","0.0-151.0-0.0","AIPHY5AUGR6CG","","","","{""Q0"":""course""}","","","","","","","","","","","","","","","","","","","","","","",""
"14366","","survey-text","153","1860770","0.0-152.0-0.0","AIPHY5AUGR6CG","","","","{""Q0"":""YEAH FLOWY LINES!! LOOK AT EM GO!!""}","","","","","","","","","","","","","","","","","","","","","","",""
"4797.699999988079","","image-slider-response","154","1865569","0.0-153.0","AIPHY5AUGR6CG","","","","","13","","","","","","","","","","","","","","","","","","","","","",""
"null","","image-button-response","155","1870573","0.0-154.0","AIPHY5AUGR6CG","img_art/30.jpg","null","","","","","","","","","","","","","","","","","","","","","","","","",""
"2731","","image-button-response","156","1873306","0.0-155.0","AIPHY5AUGR6CG","img_art/30.jpg","3","","","","","","","","","","","","","","","","","","","","","","","","",""
"756","","image-button-response","157","1874066","0.0-156.0-0.0","AIPHY5AUGR6CG","img_art/30.jpg","1","","","","","","","","","","","","","","","","","","","","","","","","",""
"1734","","image-button-response","158","1875801","0.0-157.0-0.0","AIPHY5AUGR6CG","img_art/30.jpg","0","","","","","","","","","","","","","","","","","","","","","","","","",""
"null","","html-keyboard-response","159","1876816","0.0-158.0","AIPHY5AUGR6CG","<p style=""font-size: 48px;"">+</p>","","","","","null","allTrialResponses","1000","1","16","img_art/30.jpg","13","YEAH FLOWY LINES!! LOOK AT EM GO!!","Samuel,Vincent,Tristan,Dustin,Joseph,Patrick","perceiving greatness,20,400,20","Personal , calming conservative signature business ideal.,32,360,20","Too much abstraction for me, leaving my focus mainly on color. I like the texture.,-20,300,20","Soothing color palette, but doesn't look like anything. All I see are random brush strokes.,1,20,20","It's soothing- the page is full, but there aren't too many things happening.,23,220,20","I don't like the blended colors,-20,280,20","Dustin","Soothing color palette, but doesn't look like anything. All I see are random brush strokes.,1,20,20","Vincent","Personal , calming conservative signature business ideal.,32,360,20","Samuel","perceiving greatness,20,400,20","2"
"55520","","survey-text","160","1932345","0.0-159.0-0.0","AIPHY5AUGR6CG","","","","{""Q0"":""This could fool me into assuming it was a photograph. I love when abstract works simultaneously achieve realism. It's like the ground where I used to live.""}","","","","","","","","","","","","","","","","","","","","","","",""
"5085.700000047684","","image-slider-response","161","1937433","0.0-160.0","AIPHY5AUGR6CG","","","","","10","","","","","","","","","","","","","","","","","","","","","",""
"null","","image-button-response","162","1942443","0.0-161.0","AIPHY5AUGR6CG","img_art/7.jpg","null","","","","","","","","","","","","","","","","","","","","","","","","",""
"9037","","image-button-response","163","1951482","0.0-162.0","AIPHY5AUGR6CG","img_art/7.jpg","2","","","","","","","","","","","","","","","","","","","","","","","","",""
"3805","","image-button-response","164","1955291","0.0-163.0-0.0","AIPHY5AUGR6CG","img_art/7.jpg","4","","","","","","","","","","","","","","","","","","","","","","","","",""
"1844","","image-button-response","165","1957138","0.0-164.0-0.0","AIPHY5AUGR6CG","img_art/7.jpg","0","","","","","","","","","","","","","","","","","","","","","","","","",""
"null","","html-keyboard-response","166","1957647","0.0-165.0","AIPHY5AUGR6CG","<p style=""font-size: 48px;"">+</p>","","","","","null","allTrialResponses","500","1","17","img_art/7.jpg","10","This could fool me into assuming it was a photograph. I love when abstract works simultaneously achieve realism. It's like the ground where I used to live.","Samuel,Vincent,Mitchell,Dustin,Alexis,Alexander","looking down on earth,19,400,20","One I would love to own . Calm relaxing spiritual and full of love,41,360,20","Looking through a microscope at the ground at a beach.,20,180,20","I see dryness, which is sad. Dirt, sand, the dessert. Barren dry lifeless,-30,20,20","it looks like an ant farm,12,140,20","Dead bugs on an insect battleground.,-10,120,20","Mitchell","Looking through a microscope at the ground at a beach.,20,180,20","Alexis","it looks like an ant farm,12,140,20","Samuel","looking down on earth,19,400,20","2"
"21285","","survey-text","167","1978938","0.0-166.0-0.0","AIPHY5AUGR6CG","","","","{""Q0"":""Dots! Dots! Dots! I love the little sprites of blue! In the dots!""}","","","","","","","","","","","","","","","","","","","","","","",""
"4197.5","","image-slider-response","168","1983137","0.0-167.0","AIPHY5AUGR6CG","","","","","7","","","","","","","","","","","","","","","","","","","","","",""
"null","","image-button-response","169","1988140","0.0-168.0","AIPHY5AUGR6CG","img_art/15.jpg","null","","","","","","","","","","","","","","","","","","","","","","","","",""
"267","","image-button-response","170","1988410","0.0-169.0","AIPHY5AUGR6CG","img_art/15.jpg","3","","","","","","","","","","","","","","","","","","","","","","","","",""
"2934","","image-button-response","171","1991346","0.0-170.0-0.0","AIPHY5AUGR6CG","img_art/15.jpg","1","","","","","","","","","","","","","","","","","","","","","","","","",""
"2661","","image-button-response","172","1994010","0.0-171.0-0.0","AIPHY5AUGR6CG","img_art/15.jpg","5","","","","","","","","","","","","","","","","","","","","","","","","",""
"null","","html-keyboard-response","173","1995511","0.0-172.0","AIPHY5AUGR6CG","<p style=""font-size: 48px;"">+</p>","","","","","null","allTrialResponses","1500","1","18","img_art/15.jpg","7","Dots! Dots! Dots! I love the little sprites of blue! In the dots!","Samuel,Jordan,Mitchell,Logan,Alexis,Caleb","Black reminds me of darkness,-18,400,20","This also has nice contrast,34,160,20","ants on the ground playing with bubble gum. They may be thinking of how they can use it to build something,-30,180,20","I couldn't tell you why but I'm really into this,39,360,20","it is dark and gloomy,-9,140,20","Love the accent colors in this piece!,20,40,20","Logan","I couldn't tell you why but I'm really into this,39,360,20","Jordan","This also has nice contrast,34,160,20","Caleb","Love the accent colors in this piece!,20,40,20","2"
"36859","","survey-text","174","2032378","0.0-173.0-0.0","AIPHY5AUGR6CG","","","","{""Q0"":""Yes. This is technically artwork. Very indicative of art and also of work.""}","","","","","","","","","","","","","","","","","","","","","","",""
"3261.100000023842","","image-slider-response","175","2035642","0.0-174.0","AIPHY5AUGR6CG","","","","","1","","","","","","","","","","","","","","","","","","","","","",""
"4101","","image-button-response","176","2040644","0.0-175.0","AIPHY5AUGR6CG","img_art/28.jpg","2","","","","","","","","","","","","","","","","","","","","","","","","",""
"690","","image-button-response","177","2041338","0.0-176.0","AIPHY5AUGR6CG","img_art/28.jpg","2","","","","","","","","","","","","","","","","","","","","","","","","",""
"6052","","image-button-response","178","2047394","0.0-177.0-0.0","AIPHY5AUGR6CG","img_art/28.jpg","3","","","","","","","","","","","","","","","","","","","","","","","","",""
"3420","","image-button-response","179","2050817","0.0-178.0-0.0","AIPHY5AUGR6CG","img_art/28.jpg","4","","","","","","","","","","","","","","","","","","","","","","","","",""
"null","","html-keyboard-response","180","2051323","0.0-179.0","AIPHY5AUGR6CG","<p style=""font-size: 48px;"">+</p>","","","","","null","allTrialResponses","500","1","19","img_art/28.jpg","1","Yes. This is technically artwork. Very indicative of art and also of work.","Paul,Jordan,Corey,Logan,Evan,Caleb","The dark colors make it look dirty and the shapes make me uncomfortable,-50,300,20","A messy bed room,-7,160,20","i like the neutral color pallette but i dont know what i am looking at,26,260,20","I wish I knew why I liked it, maybes its the pinky tones,36,360,20","It feels very blah,-10,140,20","White and dark balance is way off- Seems dull.,-33,40,20","Corey","i like the neutral color pallette but i dont know what i am looking at,26,260,20","Logan","I wish I knew why I liked it, maybes its the pinky tones,36,360,20","Evan","It feels very blah,-10,140,20","2"
"68190","","survey-text","181","2119521","0.0-180.0-0.0","AIPHY5AUGR6CG","","","","{""Q0"":""It's always relaxing to just sit at a page and go ham with the color red. Then, it becomes uplifting to see everyone around asking \""a-are you... okay?\"" The answer is no! Yahoo!""}","","","","","","","","","","","","","","","","","","","","","","",""
"5781.800000011921","","image-slider-response","182","2125305","0.0-181.0","AIPHY5AUGR6CG","","","","","1","","","","","","","","","","","","","","","","","","","","","",""
"null","","image-button-response","183","2130322","0.0-182.0","AIPHY5AUGR6CG","img_art/3.jpg","null","","","","","","","","","","","","","","","","","","","","","","","","",""
"13901","","image-button-response","184","2144226","0.0-183.0","AIPHY5AUGR6CG","img_art/3.jpg","2","","","","","","","","","","","","","","","","","","","","","","","","",""
"2493","","image-button-response","185","2146722","0.0-184.0-0.0","AIPHY5AUGR6CG","img_art/3.jpg","1","","","","","","","","","","","","","","","","","","","","","","","","",""
"2109","","image-button-response","186","2148834","0.0-185.0-0.0","AIPHY5AUGR6CG","img_art/3.jpg","5","","","","","","","","","","","","","","","","","","","","","","","","",""
"null","","html-keyboard-response","187","2149336","0.0-186.0","AIPHY5AUGR6CG","<p style=""font-size: 48px;"">+</p>","","","","","null","allTrialResponses","500","1","20","img_art/3.jpg","1","It's always relaxing to just sit at a page and go ham with the color red. Then, it becomes uplifting to see everyone around asking ""a-are you... okay?"" The answer is no! Yahoo!","Brandon,David,Corey,Logan,Evan,Nathan","Just scribbles. Not a fan.,-40,320,20","No clue what I'm looking. This just looks a series of scribbles in a box.,-20,340,20","seems distressing. a blood scene,-3,260,20","im just getting more agitated and less appreciative of art. I have absolutely no scale to base on,-34,360,20","It feels like a half assed and failed imitation of Japanese signatures on old paintings,-22,140,20","Looks like it was painted with blood, which I'm aware is an art style, but it just looks messy.,-20,200,20","Corey","seems distressing. a blood scene,-3,260,20","David","No clue what I'm looking. This just looks a series of scribbles in a box.,-20,340,20","Nathan","Looks like it was painted with blood, which I'm aware is an art style, but it just looks messy.,-20,200,20","2"
"3213","","survey-text","188","2152561","0.0-187.0-0.0","AIPHY5AUGR6CG","","","","{""Q0"":""we""}","","","","","","","","","","","","","","","","","","","","","","",""
"63342","","survey-text","189","2215906","0.0-188.0-0.0","AIPHY5AUGR6CG","","","","{""Q0"":""This is a very intense combination of strokes. I feel like I'm seeing a rider on a horse clashing into something, being tailed by an ominous figure in the corner.""}","","","","","","","","","","","","","","","","","","","","","","",""
"2525.600000023842","","image-slider-response","190","2218434","0.0-189.0","AIPHY5AUGR6CG","","","","","2","","","","","","","","","","","","","","","","","","","","","",""
"null","","image-button-response","191","2223437","0.0-190.0","AIPHY5AUGR6CG","img_art/18.jpg","null","","","","","","","","","","","","","","","","","","","","","","","","",""
"6106","","image-button-response","192","2229546","0.0-191.0","AIPHY5AUGR6CG","img_art/18.jpg","1","","","","","","","","","","","","","","","","","","","","","","","","",""
"1125","","image-button-response","193","2230674","0.0-192.0-0.0","AIPHY5AUGR6CG","img_art/18.jpg","5","","","","","","","","","","","","","","","","","","","","","","","","",""
"1205","","image-button-response","194","2231882","0.0-193.0-0.0","AIPHY5AUGR6CG","img_art/18.jpg","4","","","","","","","","","","","","","","","","","","","","","","","","",""
"null","","html-keyboard-response","195","2233392","0.0-194.0","AIPHY5AUGR6CG","<p style=""font-size: 48px;"">+</p>","","","","","null","allTrialResponses","1500","1","21","img_art/18.jpg","2","This is a very intense combination of strokes. I feel like I'm seeing a rider on a horse clashing into something, being tailed by an ominous figure in the corner.","Jason,David,Corey,Spencer,Seth,Nathan","Umclear what is present in the picture,0,20,20","I like how the image gives off an impression of bravery.,25,340,20","reminds me of dying at sea in the 1700s,-8,260,20","I really like it, like hells drivers,43,120,20","This painting reminds me of the 4 horsemen of the apocalypse. It feels haunting.,31,60,20","Doesn't really speak to me well but I can appreciate it,10,200,20","David","I like how the image gives off an impression of bravery.,25,340,20","Nathan","Doesn't really speak to me well but I can appreciate it,10,200,20","Seth","This painting reminds me of the 4 horsemen of the apocalypse. It feels haunting.,31,60,20","2"
"16607","","survey-text","196","2250010","0.0-195.0-0.0","AIPHY5AUGR6CG","","","","{""Q0"":""Yes! These are shapes! Shapes in different colors! And that is art!""}","","","","","","","","","","","","","","","","","","","","","","",""
"3373.300000011921","","image-slider-response","197","2253385","0.0-196.0","AIPHY5AUGR6CG","","","","","1","","","","","","","","","","","","","","","","","","","","","",""
"null","","image-button-response","198","2258396","0.0-197.0","AIPHY5AUGR6CG","img_art/5.jpg","null","","","","","","","","","","","","","","","","","","","","","","","","",""
"1252","","image-button-response","199","2259650","0.0-198.0","AIPHY5AUGR6CG","img_art/5.jpg","2","","","","","","","","","","","","","","","","","","","","","","","","",""
"1598","","image-button-response","200","2261250","0.0-199.0-0.0","AIPHY5AUGR6CG","img_art/5.jpg","1","","","","","","","","","","","","","","","","","","","","","","","","",""
"7429","","image-button-response","201","2268682","0.0-200.0-0.0","AIPHY5AUGR6CG","img_art/5.jpg","0","","","","","","","","","","","","","","","","","","","","","","","","",""
"null","","html-keyboard-response","202","2270184","0.0-201.0","AIPHY5AUGR6CG","<p style=""font-size: 48px;"">+</p>","","","","","null","allTrialResponses","1500","1","22","img_art/5.jpg","1","Yes! These are shapes! Shapes in different colors! And that is art!","Benjamin,David,Jack,Blake,Seth,Nathan","Missing something,-5,260,20","I like the simplicity of the design, but I can't tell what the image is trying to depict.,10,340,20","it's okay. the colors are eye catching, but that's about it.,3,320,20","puke yellow with nothing but sadness,-35,280,20","I didn't care for this art piece. I wasn't sure about the color choice.,-15,60,20","Not a fan of the themes,-30,200,20","Jack","it's okay. the colors are eye catching, but that's about it.,3,320,20","David","I like the simplicity of the design, but I can't tell what the image is trying to depict.,10,340,20","Benjamin","Missing something,-5,260,20","2"
"72810","","survey-text","203","2343001","0.0-202.0-0.0","AIPHY5AUGR6CG","","","","{""Q0"":""Okay, I really dig this. It's like a pattern, but also every square is highly unique and specific. It'd be cool as a floor pattern, or a hoodie.""}","","","","","","","","","","","","","","","","","","","","","","",""
"7445.400000035763","","image-slider-response","204","2350450","0.0-203.0","AIPHY5AUGR6CG","","","","","30","","","","","","","","","","","","","","","","","","","","","",""
"null","","image-button-response","205","2355466","0.0-204.0","AIPHY5AUGR6CG","img_art/12.jpg","null","","","","","","","","","","","","","","","","","","","","","","","","",""
"9821","","image-button-response","206","2365290","0.0-205.0","AIPHY5AUGR6CG","img_art/12.jpg","0","","","","","","","","","","","","","","","","","","","","","","","","",""
"3317","","image-button-response","207","2368610","0.0-206.0-0.0","AIPHY5AUGR6CG","img_art/12.jpg","5","","","","","","","","","","","","","","","","","","","","","","","","",""
"1117","","image-button-response","208","2369731","0.0-207.0-0.0","AIPHY5AUGR6CG","img_art/12.jpg","4","","","","","","","","","","","","","","","","","","","","","","","","",""
"null","","html-keyboard-response","209","2370732","0.0-208.0","AIPHY5AUGR6CG","<p style=""font-size: 48px;"">+</p>","","","","","null","allTrialResponses","1000","1","23","img_art/12.jpg","30","Okay, I really dig this. It's like a pattern, but also every square is highly unique and specific. It'd be cool as a floor pattern, or a hoodie.","Benjamin,David,Jack,Brian,Travis,Grant","Like how all the colors seem to blend together.,15,260,20","This doesn't invoke anything. Just a mosaic of random images.,0,340,20","interesting, but feels like someone cut up a picture and pasted it together wrong. want to see the original,15,320,20","this is pretty, but I wouldn't hang it on my wall.,15,380,20","Neutral...just blocks.,3,260,20","This elicits no reaction in me.,0,200,20","Benjamin","Like how all the colors seem to blend together.,15,260,20","Grant","This elicits no reaction in me.,0,200,20","Travis","Neutral...just blocks.,3,260,20","2"
"19562","","survey-text","210","2390306","0.0-209.0-0.0","AIPHY5AUGR6CG","","","","{""Q0"":""I am seeing before my eyes something that is indeed an art.""}","","","","","","","","","","","","","","","","","","","","","","",""
"4397.800000011921","","image-slider-response","211","2394706","0.0-210.0","AIPHY5AUGR6CG","","","","","1","","","","","","","","","","","","","","","","","","","","","",""
"2853","","image-button-response","212","2399714","0.0-211.0","AIPHY5AUGR6CG","img_art/2.jpg","1","","","","","","","","","","","","","","","","","","","","","","","","",""
"1901","","image-button-response","213","2401618","0.0-212.0","AIPHY5AUGR6CG","img_art/2.jpg","1","","","","","","","","","","","","","","","","","","","","","","","","",""
"909","","image-button-response","214","2402531","0.0-213.0-0.0","AIPHY5AUGR6CG","img_art/2.jpg","3","","","","","","","","","","","","","","","","","","","","","","","","",""
"956","","image-button-response","215","2403490","0.0-214.0-0.0","AIPHY5AUGR6CG","img_art/2.jpg","0","","","","","","","","","","","","","","","","","","","","","","","","",""
"null","","html-keyboard-response","216","2403992","0.0-215.0","AIPHY5AUGR6CG","<p style=""font-size: 48px;"">+</p>","","","","","null","allTrialResponses","500","1","24","img_art/2.jpg","1","I am seeing before my eyes something that is indeed an art.","Benjamin,Tanner,Jonathan,Nicholas,Travis,Grant","bright and happy,20,260,20","smilely face, soulful,11,180,20","It's a cool piece but honestly these color choices are the worst thing in the world,-31,140,20","Cute and happy,22,240,20","I didn't like this it looked like a kindergardner painted it and the green was out of place.,-46,260,20","The colors are entirely unappealing and very unpleasant to look at.,-20,200,20","Tanner","smilely face, soulful,11,180,20","Nicholas","Cute and happy,22,240,20","Benjamin","bright and happy,20,260,20","2"
"31953","","survey-text","217","2435953","0.0-216.0-0.0","AIPHY5AUGR6CG","","","","{""Q0"":""I appreciate the amount of effort that went into making a scene out of such chaotic lines and strokes.""}","","","","","","","","","","","","","","","","","","","","","","",""
"2133.900000035763","","image-slider-response","218","2438089","0.0-217.0","AIPHY5AUGR6CG","","","","","2","","","","","","","","","","","","","","","","","","","","","",""
"null","","image-button-response","219","2443102","0.0-218.0","AIPHY5AUGR6CG","img_art/19.jpg","null","","","","","","","","","","","","","","","","","","","","","","","","",""
"762","","image-button-response","220","2443866","0.0-219.0","AIPHY5AUGR6CG","img_art/19.jpg","1","","","","","","","","","","","","","","","","","","","","","","","","",""
"974","","image-button-response","221","2444842","0.0-220.0-0.0","AIPHY5AUGR6CG","img_art/19.jpg","5","","","","","","","","","","","","","","","","","","","","","","","","",""
"2653","","image-button-response","222","2447498","0.0-221.0-0.0","AIPHY5AUGR6CG","img_art/19.jpg","2","","","","","","","","","","","","","","","","","","","","","","","","",""
"null","","html-keyboard-response","223","2448500","0.0-222.0","AIPHY5AUGR6CG","<p style=""font-size: 48px;"">+</p>","","","","","null","allTrialResponses","1000","1","25","img_art/19.jpg","2","I appreciate the amount of effort that went into making a scene out of such chaotic lines and strokes.","Benjamin,Tanner,Aaron,Nicholas,Dylan,Peter","Reminds me of a busy village.,16,260,20","city, stress of urbanism, slightly panicked,2,180,20","I like the shapes.,22,20,20","Intersting but not for me,21,240,20","This photo has too much going on.,-19,40,20","Looks like hustle and bustle ,,3,320,20","Tanner","city, stress of urbanism, slightly panicked,2,180,20","Peter","Looks like hustle and bustle ,,3,320,20","Aaron","I like the shapes.,22,20,20","2"
"3280","","survey-text","224","2451793","0.0-223.0-0.0","AIPHY5AUGR6CG","","","","{""Q0"":""table""}","","","","","","","","","","","","","","","","","","","","","","",""
"52574","","survey-text","225","2504370","0.0-224.0-0.0","AIPHY5AUGR6CG","","","","{""Q0"":""OH THIS IS REALLY PRETTY! Like the bottom is big windows and the light is coming in over the floor but then there's BIG TREES COMING IN TOO BECAUSE ART GETS TO BE COOL LIKE THAT!""}","","","","","","","","","","","","","","","","","","","","","","",""
"3069.800000011921","","image-slider-response","226","2507442","0.0-225.0","AIPHY5AUGR6CG","","","","","50","","","","","","","","","","","","","","","","","","","","","",""
"null","","image-button-response","227","2512459","0.0-226.0","AIPHY5AUGR6CG","img_art/17.jpg","null","","","","","","","","","","","","","","","","","","","","","","","","",""
"5077","","image-button-response","228","2517538","0.0-227.0","AIPHY5AUGR6CG","img_art/17.jpg","4","","","","","","","","","","","","","","","","","","","","","","","","",""
"2141","","image-button-response","229","2519683","0.0-228.0-0.0","AIPHY5AUGR6CG","img_art/17.jpg","3","","","","","","","","","","","","","","","","","","","","","","","","",""
"1924","","image-button-response","230","2521610","0.0-229.0-0.0","AIPHY5AUGR6CG","img_art/17.jpg","2","","","","","","","","","","","","","","","","","","","","","","","","",""
"null","","html-keyboard-response","231","2522625","0.0-230.0","AIPHY5AUGR6CG","<p style=""font-size: 48px;"">+</p>","","","","","null","allTrialResponses","1000","1","26","img_art/17.jpg","50","OH THIS IS REALLY PRETTY! Like the bottom is big windows and the light is coming in over the floor but then there's BIG TREES COMING IN TOO BECAUSE ART GETS TO BE COOL LIKE THAT!","Austin,Tanner,Aaron,Christian,Antonio,Peter","Has a unique vibe to it,50,240,20","calm, tranquil, happy,50,180,20","it brings a clear picture to my minds eye:,45,20,20","tree sprouting out of a box (house) the invasion of nature?,39,140,20","Beautiful colors. Made me feel soft and feminine,50,220,20","I feel okay , it's like a tree,28,320,20","Antonio","Beautiful colors. Made me feel soft and feminine,50,220,20","Christian","tree sprouting out of a box (house) the invasion of nature?,39,140,20","Aaron","it brings a clear picture to my minds eye:,45,20,20","2"
"21200","","survey-text","232","2543834","0.0-231.0-0.0","AIPHY5AUGR6CG","","","","{""Q0"":""This is very sunsety. Very colors.""}","","","","","","","","","","","","","","","","","","","","","","",""
"3005.7999999523163","","image-slider-response","233","2546842","0.0-232.0","AIPHY5AUGR6CG","","","","","6","","","","","","","","","","","","","","","","","","","","","",""
"null","","image-button-response","234","2551845","0.0-233.0","AIPHY5AUGR6CG","img_art/22.jpg","null","","","","","","","","","","","","","","","","","","","","","","","","",""
"5060","","image-button-response","235","2556907","0.0-234.0","AIPHY5AUGR6CG","img_art/22.jpg","5","","","","","","","","","","","","","","","","","","","","","","","","",""
"3924","","image-button-response","236","2560834","0.0-235.0-0.0","AIPHY5AUGR6CG","img_art/22.jpg","3","","","","","","","","","","","","","","","","","","","","","","","","",""
"1765","","image-button-response","237","2562602","0.0-236.0-0.0","AIPHY5AUGR6CG","img_art/22.jpg","1","","","","","","","","","","","","","","","","","","","","","","","","",""
"null","","html-keyboard-response","238","2563604","0.0-237.0","AIPHY5AUGR6CG","<p style=""font-size: 48px;"">+</p>","","","","","null","allTrialResponses","1000","1","27","img_art/22.jpg","6","This is very sunsety. Very colors.","Miguel,Mark,Aaron,Christian,Antonio,Jose","Same az the last one?,-49,160,20","I don't feel much of anything.,0,80,20","Boring, typical abstract art,-30,20,20","colorful water (in front of castle?),17,140,20","Felt blah. Bunch of nothingness,-42,220,20","Cool squares but what's the circle?,38,200,20","Jose","Cool squares but what's the circle?,38,200,20","Christian","colorful water (in front of castle?),17,140,20","Mark","I don't feel much of anything.,0,80,20","2"
"32700","","survey-text","239","2596314","0.0-238.0-0.0","AIPHY5AUGR6CG","","","","{""Q0"":""Yep, I am feeling the creep factor from this and that is something that is very useful to portray through art sometimes.""}","","","","","","","","","","","","","","","","","","","","","","",""
"4621.900000035763","","image-slider-response","240","2600938","0.0-239.0","AIPHY5AUGR6CG","","","","","1","","","","","","","","","","","","","","","","","","","","","",""
"null","","image-button-response","241","2605946","0.0-240.0","AIPHY5AUGR6CG","img_art/16.jpg","null","","","","","","","","","","","","","","","","","","","","","","","","",""
"1790","","image-button-response","242","2607738","0.0-241.0","AIPHY5AUGR6CG","img_art/16.jpg","1","","","","","","","","","","","","","","","","","","","","","","","","",""
"781","","image-button-response","243","2608523","0.0-242.0-0.0","AIPHY5AUGR6CG","img_art/16.jpg","5","","","","","","","","","","","","","","","","","","","","","","","","",""
"4461","","image-button-response","244","2612986","0.0-243.0-0.0","AIPHY5AUGR6CG","img_art/16.jpg","0","","","","","","","","","","","","","","","","","","","","","","","","",""
"null","","html-keyboard-response","245","2613489","0.0-244.0","AIPHY5AUGR6CG","<p style=""font-size: 48px;"">+</p>","","","","","null","allTrialResponses","500","1","28","img_art/16.jpg","1","Yep, I am feeling the creep factor from this and that is something that is very useful to portray through art sometimes.","Andrew,Mark,Christopher,Christian,Jared,Jose","It just makes me feel uncomfortable,-25,160,20","I think it's about child abuse. The teddy bear represents innocence and the dark shape is approaching it.,40,80,20","i don't like the collage aspect,-25,160,20","don't know how to feel, I mean I respect it but I honestly don't know about this,-12,140,20","it looks psychotic,-31,400,20","Super weird. Id like to know more about it,24,200,20","Mark","I think it's about child abuse. The teddy bear represents innocence and the dark shape is approaching it.,40,80,20","Jose","Super weird. Id like to know more about it,24,200,20","Andrew","It just makes me feel uncomfortable,-25,160,20","2"
"12336","","survey-text","246","2625834","0.0-245.0-0.0","AIPHY5AUGR6CG","","","","{""Q0"":""Colors are certainly present here.""}","","","","","","","","","","","","","","","","","","","","","","",""
"3437.600000023842","","image-slider-response","247","2629274","0.0-246.0","AIPHY5AUGR6CG","","","","","1","","","","","","","","","","","","","","","","","","","","","",""
"2149","","image-button-response","248","2634288","0.0-247.0","AIPHY5AUGR6CG","img_art/27.jpg","5","","","","","","","","","","","","","","","","","","","","","","","","",""
"1912","","image-button-response","249","2636203","0.0-248.0","AIPHY5AUGR6CG","img_art/27.jpg","5","","","","","","","","","","","","","","","","","","","","","","","","",""
"1869","","image-button-response","250","2638074","0.0-249.0-0.0","AIPHY5AUGR6CG","img_art/27.jpg","1","","","","","","","","","","","","","","","","","","","","","","","","",""
"9021","","image-button-response","251","2647097","0.0-250.0-0.0","AIPHY5AUGR6CG","img_art/27.jpg","0","","","","","","","","","","","","","","","","","","","","","","","","",""
"null","","html-keyboard-response","252","2647600","0.0-251.0","AIPHY5AUGR6CG","<p style=""font-size: 48px;"">+</p>","","","","","null","allTrialResponses","500","1","29","img_art/27.jpg","1","Colors are certainly present here.","Andrew,Mark,Adrian,Ian,Alejandro,Jose","Reminds me of a town on fire,-15,160,20","I see a cathedral through the woods.,12,80,20","Looks like my niece's doodles.,-50,60,20","I'm not a fan. It looks like something my nephews (1 and 2) would make,-8,260,20","Muddied and directionless. Like someone dragged a brush across the paper for the sake of doing something.,-50,80,20","it's like a weird version of heaven,16,200,20","Jose","it's like a weird version of heaven,16,200,20","Mark","I see a cathedral through the woods.,12,80,20","Andrew","Reminds me of a town on fire,-15,160,20","2"
"32968","","survey-text","253","2680577","0.0-252.0-0.0","AIPHY5AUGR6CG","","","","{""Q0"":""This is pretty neat, it almost looks like a scene, but maybe I'm not meant to be someone who sees that scene.""}","","","","","","","","","","","","","","","","","","","","","","",""
"2702.100000023842","","image-slider-response","254","2683281","0.0-253.0","AIPHY5AUGR6CG","","","","","1","","","","","","","","","","","","","","","","","","","","","",""
"null","","image-button-response","255","2688285","0.0-254.0","AIPHY5AUGR6CG","img_art/21.jpg","null","","","","","","","","","","","","","","","","","","","","","","","","",""
"1875","","image-button-response","256","2690162","0.0-255.0","AIPHY5AUGR6CG","img_art/21.jpg","0","","","","","","","","","","","","","","","","","","","","","","","","",""
"2566","","image-button-response","257","2692730","0.0-256.0-0.0","AIPHY5AUGR6CG","img_art/21.jpg","5","","","","","","","","","","","","","","","","","","","","","","","","",""
"2269","","image-button-response","258","2695002","0.0-257.0-0.0","AIPHY5AUGR6CG","img_art/21.jpg","4","","","","","","","","","","","","","","","","","","","","","","","","",""
"null","","html-keyboard-response","259","2696506","0.0-258.0","AIPHY5AUGR6CG","<p style=""font-size: 48px;"">+</p>","","","","","null","allTrialResponses","1500","1","30","img_art/21.jpg","1","This is pretty neat, it almost looks like a scene, but maybe I'm not meant to be someone who sees that scene.","Andrew,Mark,Angel,Michael,Timothy,Jose","I love the contrasting tones between the two sides,36,160,20","It feels like a day at sea but the pink is slightly jarring and holding my eye.,26,80,20","This feels chaotic, like a battle or a storm.,-20,180,20","What's the point?,-30,140,20","Very calming and soft, makes me feel good,31,240,20","I can't explain why this struck me as absolutely gorgeous. Like the clashing between 2 different worlds,43,200,20","Andrew","I love the contrasting tones between the two sides,36,160,20","Jose","I can't explain why this struck me as absolutely gorgeous. Like the clashing between 2 different worlds,43,200,20","Timothy","Very calming and soft, makes me feel good,31,240,20","2"
"3460","","image-button-response_instructions","260","2699977","0.0-259.0","AIPHY5AUGR6CG","","0","instructions","","","","","","","","","","","","","","","","","","","","","","","",""
"1479","","image-button-response","261","2701465","0.0-260.0","AIPHY5AUGR6CG","","0","","","","","","","","","","","","","","","","","","","","","","","","",""
