"rt","url","trial_type","trial_index","time_elapsed","internal_node_id","participant_id","stimulus","button_pressed","Name","responses","response","key_press","variableName","fixationTime","condition","trial","photo","subjectRating","subjectResponse","agentsNames","agent_1_Response","agent_2_Response","agent_3_Response","agent_4_Response","agent_5_Response","agent_6_Response","kept_1_name","kept_1_response","kept_2_name","kept_2_response","kept_3_name","kept_3_response","errorCounter"
"11620","external_page_harvard.html","external-html","0","11814","0.0-0.0","AIR4UQNPIMFCJ","","","","","","","","","","","","","","","","","","","","","","","","","","",""
"2127","","image-button-response","1","13948","0.0-1.0","AIR4UQNPIMFCJ","","1","","","","","","","","","","","","","","","","","","","","","","","","",""
"4008","","image-button-response","2","17983","0.0-2.0-0.0","AIR4UQNPIMFCJ","","1","phone","","","","","","","","","","","","","","","","","","","","","","","",""
"10139","","survey-text","3","28128","0.0-3.0-0.0","AIR4UQNPIMFCJ","","","","{""Q0"":""AIR4UQNPIMFCJ""}","","","","","","","","","","","","","","","","","","","","","","",""
"5627","","image-button-response_instructions","4","33761","0.0-4.0","AIR4UQNPIMFCJ","","0","instructions","","","","","","","","","","","","","","","","","","","","","","","",""
"19715","","image-button-response_instructions","5","53488","0.0-5.0","AIR4UQNPIMFCJ","img_art/ins/popularity/ins1.png","0","instructions","","","","","","","","","","","","","","","","","","","","","","","",""
"4326","","image-button-response_instructions","6","57827","0.0-6.0","AIR4UQNPIMFCJ","img_art/ins/popularity/ins2.png","0","instructions","","","","","","","","","","","","","","","","","","","","","","","",""
"5240","","image-button-response_instructions","7","63080","0.0-7.0","AIR4UQNPIMFCJ","img_art/ins/popularity/ins2Extreme.png","0","instructions","","","","","","","","","","","","","","","","","","","","","","","",""
"3991","","image-button-response_instructions","8","67084","0.0-8.0","AIR4UQNPIMFCJ","img_art/ins/popularity/ins3KEEPpop.PNG","0","instructions","","","","","","","","","","","","","","","","","","","","","","","",""
"5304","","image-button-response_instructions","9","72403","0.0-9.0","AIR4UQNPIMFCJ","img_art/ins/popularity/ins3ANamepop.PNG","0","instructions","","","","","","","","","","","","","","","","","","","","","","","",""
"8951","","image-button-response_instructions","10","81367","0.0-10.0","AIR4UQNPIMFCJ","img_art/ins/popularity/ins3ARatingpop.png","0","instructions","","","","","","","","","","","","","","","","","","","","","","","",""
"6360","","image-button-response_instructions","11","87739","0.0-11.0","AIR4UQNPIMFCJ","img_art/ins/popularity/ins3ATextpop.png","0","instructions","","","","","","","","","","","","","","","","","","","","","","","",""
"10078","","image-button-response_instructions","12","97830","0.0-12.0","AIR4UQNPIMFCJ","img_art/ins/popularity/ins3ALikespop.png","0","instructions","","","","","","","","","","","","","","","","","","","","","","","",""
"17303","","image-button-response_instructions","13","115145","0.0-13.0","AIR4UQNPIMFCJ","img_art/ins/popularity/ins3KEEPpop.PNG","0","instructions","","","","","","","","","","","","","","","","","","","","","","","",""
"6363","","image-button-response_instructions","14","121520","0.0-14.0","AIR4UQNPIMFCJ","img_art/ins/popularity/ins3_5RED.png","0","instructions","","","","","","","","","","","","","","","","","","","","","","","",""
"4773","","image-button-response_instructions","15","126297","0.0-15.0","AIR4UQNPIMFCJ","img_art/ins/popularity/ins3KEEPpop.PNG","0","instructions","","","","","","","","","","","","","","","","","","","","","","","",""
"17138","","image-button-response_instructions","16","143446","0.0-16.0","AIR4UQNPIMFCJ","img_art/ins/popularity/ins4KEEPpop.PNG","0","instructions","","","","","","","","","","","","","","","","","","","","","","","",""
"2929","","image-button-response_instructions","17","146387","0.0-17.0","AIR4UQNPIMFCJ","img_art/ins/popularity/ins5KEEPpop.PNG","0","instructions","","","","","","","","","","","","","","","","","","","","","","","",""
"1462","","image-button-response_instructions","18","147853","0.0-18.0","AIR4UQNPIMFCJ","","0","instructions","","","","","","","","","","","","","","","","","","","","","","","",""
"10072","","survey-text","19","157994","0.0-19.0-0.0","AIR4UQNPIMFCJ","","","","{""Q0"":""but""}","","","","","","","","","","","","","","","","","","","","","","",""
"15549","","survey-text","20","173548","0.0-20.0-0.0","AIR4UQNPIMFCJ","","","","{""Q0"":""It looks messy.""}","","","","","","","","","","","","","","","","","","","","","","",""
"6511","","image-slider-response","21","180068","0.0-21.0","AIR4UQNPIMFCJ","","","","","-8","","","","","","","","","","","","","","","","","","","","","",""
"null","","image-button-response","22","185078","0.0-22.0","AIR4UQNPIMFCJ","img_art/ins/1.jpg","null","","","","","","","","","","","","","","","","","","","","","","","","",""
"18784","","image-button-response","23","203865","0.0-23.0","AIR4UQNPIMFCJ","img_art/ins/1.jpg","3","","","","","","","","","","","","","","","","","","","","","","","","",""
"2753","","image-button-response","24","206722","0.0-24.0-0.0","AIR4UQNPIMFCJ","img_art/ins/1.jpg","1","","","","","","","","","","","","","","","","","","","","","","","","",""
"7074","","image-button-response","25","213802","0.0-25.0-0.0","AIR4UQNPIMFCJ","img_art/ins/1.jpg","5","","","","","","","","","","","","","","","","","","","","","","","","",""
"null","","html-keyboard-response","26","214315","0.0-26.0","AIR4UQNPIMFCJ","<p style=""font-size: 48px;"">+</p>","","","","","null","allTrialResponses","500","1","-2","img_art/ins/1.jpg","-8","It looks messy.","Allison,Ashley,Beth,Dora,Erika,Jen","looks like a lot of things going on in the mist,20,20,20","I just don't get why these type of art would be popular,-32,40,20","This color reminds me of poo,-46,60,20","looks like what my niece in 3rd grade did this afternoon,-50,80,20","I like the sophisticated brushwork,40,100,20","It reminds me of a candy land dream I had,36,120,20","Dora","looks like what my niece in 3rd grade did this afternoon,-50,80,20","Ashley","I just don't get why these type of art would be popular,-32,40,20","Jen","It reminds me of a candy land dream I had,36,120,20","0"
"19423","","survey-text","27","233762","0.0-27.0-0.0","AIR4UQNPIMFCJ","","","","{""Q0"":""It's very static.""}","","","","","","","","","","","","","","","","","","","","","","",""
"7317","","image-slider-response","28","241084","0.0-28.0","AIR4UQNPIMFCJ","","","","","-4","","","","","","","","","","","","","","","","","","","","","",""
"null","","image-button-response","29","246097","0.0-29.0","AIR4UQNPIMFCJ","img_art/ins/2.jpg","null","","","","","","","","","","","","","","","","","","","","","","","","",""
"4874","","image-button-response","30","250973","0.0-30.0","AIR4UQNPIMFCJ","img_art/ins/2.jpg","3","","","","","","","","","","","","","","","","","","","","","","","","",""
"9166","","image-button-response","31","260145","0.0-31.0-0.0","AIR4UQNPIMFCJ","img_art/ins/2.jpg","1","","","","","","","","","","","","","","","","","","","","","","","","",""
"4877","","image-button-response","32","265028","0.0-32.0-0.0","AIR4UQNPIMFCJ","img_art/ins/2.jpg","5","","","","","","","","","","","","","","","","","","","","","","","","",""
"null","","html-keyboard-response","33","266534","0.0-33.0","AIR4UQNPIMFCJ","<p style=""font-size: 48px;"">+</p>","","","","","null","allTrialResponses","1500","1","-1","img_art/ins/2.jpg","-4","It's very static.","Jenna,Ashley,Katie,Dora,Kara,Jen","One of my pet peevs,-48,140,20","Idk, it is just annoying,-32,40,20","too much color!,-28,180,20","looks too angry,-50,80,20","I like the blocks of color arrangements,30,160,20","It reminds me of a fireplace,36,120,20","Dora","looks too angry,-50,80,20","Ashley","Idk, it is just annoying,-32,40,20","Jen","It reminds me of a fireplace,36,120,20","0"
"17743","","survey-text","34","284284","0.0-34.0-0.0","AIR4UQNPIMFCJ","","","","{""Q0"":""It looks cold and icy.""}","","","","","","","","","","","","","","","","","","","","","","",""
"6160","","image-slider-response","35","290453","0.0-35.0","AIR4UQNPIMFCJ","","","","","-2","","","","","","","","","","","","","","","","","","","","","",""
"null","","image-button-response","36","295459","0.0-36.0","AIR4UQNPIMFCJ","img_art/ins/3.jpg","null","","","","","","","","","","","","","","","","","","","","","","","","",""
"2774","","image-button-response","37","298234","0.0-37.0","AIR4UQNPIMFCJ","img_art/ins/3.jpg","1","","","","","","","","","","","","","","","","","","","","","","","","",""
"2047","","image-button-response","38","300288","0.0-38.0-0.0","AIR4UQNPIMFCJ","img_art/ins/3.jpg","3","","","","","","","","","","","","","","","","","","","","","","","","",""
"2635","","image-button-response","39","302929","0.0-39.0-0.0","AIR4UQNPIMFCJ","img_art/ins/3.jpg","5","","","","","","","","","","","","","","","","","","","","","","","","",""
"null","","html-keyboard-response","40","303439","0.0-40.0","AIR4UQNPIMFCJ","<p style=""font-size: 48px;"">+</p>","","","","","null","allTrialResponses","500","1","0","img_art/ins/3.jpg","-2","It looks cold and icy.","Leslie,Ashley,Rose,Dora,Mary,Jen","It's an alright work,15,200,20","It looks like a playground for bats,-36,40,20","My daily routine, it's depressing,-20,240,20","My worst nightmare,-42,80,20","I like the overlapping of brushes,41,220,20","I can feel a rainy day from this painting,18,120,20","Ashley","It looks like a playground for bats,-36,40,20","Dora","My worst nightmare,-42,80,20","Jen","I can feel a rainy day from this painting,18,120,20","0"
"7605","","image-button-response_instructions","41","311052","0.0-41.0","AIR4UQNPIMFCJ","","0","instructions","","","","","","","","","","","","","","","","","","","","","","","",""
"39416","","survey-likert","42","350475","0.0-42.0-0.0","AIR4UQNPIMFCJ","","","","{""Q0"":"""",""Q1"":0,""Q2"":1}","","","","","","","","","","","","","","","","","","","","","","",""
"6062","","survey-text","43","356554","0.0-43.0-0.0","AIR4UQNPIMFCJ","","","","{""Q0"":""rock""}","","","","","","","","","","","","","","","","","","","","","","",""
"22312","","survey-text","44","378871","0.0-44.0-0.0","AIR4UQNPIMFCJ","","","","{""Q0"":""Looks like a skeletal Statue of Liberty""}","","","","","","","","","","","","","","","","","","","","","","",""
"4666","","image-slider-response","45","383543","0.0-45.0","AIR4UQNPIMFCJ","","","","","-10","","","","","","","","","","","","","","","","","","","","","",""
"null","","image-button-response","46","388577","0.0-46.0","AIR4UQNPIMFCJ","img_art/25.jpg","null","","","","","","","","","","","","","","","","","","","","","","","","",""
"14633","","image-button-response","47","403212","0.0-47.0","AIR4UQNPIMFCJ","img_art/25.jpg","5","","","","","","","","","","","","","","","","","","","","","","","","",""
"5363","","image-button-response","48","408581","0.0-48.0-0.0","AIR4UQNPIMFCJ","img_art/25.jpg","0","","","","","","","","","","","","","","","","","","","","","","","","",""
"3771","","image-button-response","49","412358","0.0-49.0-0.0","AIR4UQNPIMFCJ","img_art/25.jpg","3","","","","","","","","","","","","","","","","","","","","","","","","",""
"null","","html-keyboard-response","50","412868","0.0-50.0","AIR4UQNPIMFCJ","<p style=""font-size: 48px;"">+</p>","","","","","null","allTrialResponses","500","1","1","img_art/25.jpg","-10","Looks like a skeletal Statue of Liberty","Briana,Cynthia,Melissa,Alicia,Marissa,Chloe","Its scary. It looks like someone overlooking hell,-34,400,20","Somewhat feel protected by a messenger,33,320,20","do not like that color of green,-11,240,20","death. childish nightmare.,-29,120,20","I really like the green and the fact that it is tattered on the edges,23,160,20","Cheesy and unprofessional,-30,220,20","Chloe","Cheesy and unprofessional,-30,220,20","Briana","Its scary. It looks like someone overlooking hell,-34,400,20","Alicia","death. childish nightmare.,-29,120,20","0"
"16597","","survey-text","51","429481","0.0-51.0-0.0","AIR4UQNPIMFCJ","","","","{""Q0"":""Looks like a wrapped present.""}","","","","","","","","","","","","","","","","","","","","","","",""
"3781","","image-slider-response","52","433269","0.0-52.0","AIR4UQNPIMFCJ","","","","","3","","","","","","","","","","","","","","","","","","","","","",""
"null","","image-button-response","53","438285","0.0-53.0","AIR4UQNPIMFCJ","img_art/5.jpg","null","","","","","","","","","","","","","","","","","","","","","","","","",""
"5588","","image-button-response","54","443874","0.0-54.0","AIR4UQNPIMFCJ","img_art/5.jpg","3","","","","","","","","","","","","","","","","","","","","","","","","",""
"6385","","image-button-response","55","450267","0.0-55.0-0.0","AIR4UQNPIMFCJ","img_art/5.jpg","5","","","","","","","","","","","","","","","","","","","","","","","","",""
"6510","","image-button-response","56","456784","0.0-56.0-0.0","AIR4UQNPIMFCJ","img_art/5.jpg","0","","","","","","","","","","","","","","","","","","","","","","","","",""
"null","","html-keyboard-response","57","457789","0.0-57.0","AIR4UQNPIMFCJ","<p style=""font-size: 48px;"">+</p>","","","","","null","allTrialResponses","1000","1","2","img_art/5.jpg","3","Looks like a wrapped present.","Briana,Jamie,Maria,Alicia,Abigail,Chloe","It looks like a poorly drawn pear,17,400,20","Don't really see it and yellow/pink don't go well together,-35,320,20","this feels like something I should like, but I'm not feeling the execution,-10,120,20","pointless, ugly, not creative.,-50,120,20","Reminds me of a broken umbrella,-9,20,20","Black stripe looks violent,-31,220,20","Alicia","pointless, ugly, not creative.,-50,120,20","Chloe","Black stripe looks violent,-31,220,20","Briana","It looks like a poorly drawn pear,17,400,20","0"
"18589","","survey-text","58","476393","0.0-58.0-0.0","AIR4UQNPIMFCJ","","","","{""Q0"":""It's boring.""}","","","","","","","","","","","","","","","","","","","","","","",""
"3112","","image-slider-response","59","479512","0.0-59.0","AIR4UQNPIMFCJ","","","","","-11","","","","","","","","","","","","","","","","","","","","","",""
"2792","","image-button-response","60","484524","0.0-60.0","AIR4UQNPIMFCJ","img_art/30.jpg","0","","","","","","","","","","","","","","","","","","","","","","","","",""
"1818","","image-button-response","61","486344","0.0-61.0","AIR4UQNPIMFCJ","img_art/30.jpg","4","","","","","","","","","","","","","","","","","","","","","","","","",""
"920","","image-button-response","62","487270","0.0-62.0-0.0","AIR4UQNPIMFCJ","img_art/30.jpg","5","","","","","","","","","","","","","","","","","","","","","","","","",""
"4162","","image-button-response","63","491438","0.0-63.0-0.0","AIR4UQNPIMFCJ","img_art/30.jpg","0","","","","","","","","","","","","","","","","","","","","","","","","",""
"null","","html-keyboard-response","64","492459","0.0-64.0","AIR4UQNPIMFCJ","<p style=""font-size: 48px;"">+</p>","","","","","null","allTrialResponses","1000","1","3","img_art/30.jpg","-11","It's boring.","Briana,Molly,Crystal,Alicia,Julia,Chloe","Its ugly. Too simple,-23,400,20","I like the way the artist has painted his work.,40,340,20","An interesting design but don't like the colors. I value the time and effort put into it, but not a huge fan.,10,300,20","Neat, but simple, I could make this. not skilled.,9,120,20","this is probably part of a neat series, but the abstraction doesn't speak to me,-17,40,20","Muddy, sloppy, unprofessional,-44,220,20","Julia","this is probably part of a neat series, but the abstraction doesn't speak to me,-17,40,20","Chloe","Muddy, sloppy, unprofessional,-44,220,20","Briana","Its ugly. Too simple,-23,400,20","0"
"26521","","survey-text","65","518991","0.0-65.0-0.0","AIR4UQNPIMFCJ","","","","{""Q0"":""People grouped together surrounded by flowers.""}","","","","","","","","","","","","","","","","","","","","","","",""
"3157","","image-slider-response","66","522154","0.0-66.0","AIR4UQNPIMFCJ","","","","","4","","","","","","","","","","","","","","","","","","","","","",""
"3073","","image-button-response","67","527164","0.0-67.0","AIR4UQNPIMFCJ","img_art/23.jpg","1","","","","","","","","","","","","","","","","","","","","","","","","",""
"6123","","image-button-response","68","533291","0.0-68.0","AIR4UQNPIMFCJ","img_art/23.jpg","5","","","","","","","","","","","","","","","","","","","","","","","","",""
"1868","","image-button-response","69","535164","0.0-69.0-0.0","AIR4UQNPIMFCJ","img_art/23.jpg","1","","","","","","","","","","","","","","","","","","","","","","","","",""
"967","","image-button-response","70","536136","0.0-70.0-0.0","AIR4UQNPIMFCJ","img_art/23.jpg","2","","","","","","","","","","","","","","","","","","","","","","","","",""
"null","","html-keyboard-response","71","536647","0.0-71.0","AIR4UQNPIMFCJ","<p style=""font-size: 48px;"">+</p>","","","","","null","allTrialResponses","500","1","4","img_art/23.jpg","4","People grouped together surrounded by flowers.","Briana,Makayla,Courtney,Autumn,Julia,Chloe","White in the middle look like people dancing naked,19,400,20","Reminds me of disco/70's, not my favorite design,-12,80,20","Looks like fish fossils,12,280,20","Awesome abstraction love it.,30,340,20","this looks like a pop rock album cover,-10,40,20","Poster shop camp.,-40,220,20","Chloe","Poster shop camp.,-40,220,20","Makayla","Reminds me of disco/70's, not my favorite design,-12,80,20","Courtney","Looks like fish fossils,12,280,20","0"
"13000","","survey-text","72","549655","0.0-72.0-0.0","AIR4UQNPIMFCJ","","","","{""Q0"":""A lake during sunset,""}","","","","","","","","","","","","","","","","","","","","","","",""
"2874","","image-slider-response","73","552535","0.0-73.0","AIR4UQNPIMFCJ","","","","","12","","","","","","","","","","","","","","","","","","","","","",""
"null","","image-button-response","74","557543","0.0-74.0","AIR4UQNPIMFCJ","img_art/1.jpg","null","","","","","","","","","","","","","","","","","","","","","","","","",""
"13451","","image-button-response","75","570996","0.0-75.0","AIR4UQNPIMFCJ","img_art/1.jpg","0","","","","","","","","","","","","","","","","","","","","","","","","",""
"2246","","image-button-response","76","573248","0.0-76.0-0.0","AIR4UQNPIMFCJ","img_art/1.jpg","3","","","","","","","","","","","","","","","","","","","","","","","","",""
"811","","image-button-response","77","574065","0.0-77.0-0.0","AIR4UQNPIMFCJ","img_art/1.jpg","4","","","","","","","","","","","","","","","","","","","","","","","","",""
"null","","html-keyboard-response","78","575078","0.0-78.0","AIR4UQNPIMFCJ","<p style=""font-size: 48px;"">+</p>","","","","","null","allTrialResponses","1000","1","5","img_art/1.jpg","12","A lake during sunset,","Amber,Makayla,Courtney,Vanessa,Monica,Chloe","Really like all of the colors and how they mesh well.,27,200,20","Nothing whatsoever,2,80,20","I cant make anything of this one.,-7,280,20","I don't like how this one makes me feel.,-32,380,20","I like the yellow and purple but the large red spot reminds me of blood and isn't great,6,360,20","Powerful colors.,31,220,20","Amber","Really like all of the colors and how they mesh well.,27,200,20","Vanessa","I don't like how this one makes me feel.,-32,380,20","Monica","I like the yellow and purple but the large red spot reminds me of blood and isn't great,6,360,20","0"
"6226","","survey-text","79","581325","0.0-79.0-0.0","AIR4UQNPIMFCJ","","","","{""Q0"":""sky""}","","","","","","","","","","","","","","","","","","","","","","",""
"21960","","survey-text","80","603291","0.0-80.0-0.0","AIR4UQNPIMFCJ","","","","{""Q0"":""Interesting like a photo collage.""}","","","","","","","","","","","","","","","","","","","","","","",""
"3612","","image-slider-response","81","606909","0.0-81.0","AIR4UQNPIMFCJ","","","","","10","","","","","","","","","","","","","","","","","","","","","",""
"null","","image-button-response","82","611924","0.0-82.0","AIR4UQNPIMFCJ","img_art/12.jpg","null","","","","","","","","","","","","","","","","","","","","","","","","",""
"1378","","image-button-response","83","613304","0.0-83.0","AIR4UQNPIMFCJ","img_art/12.jpg","4","","","","","","","","","","","","","","","","","","","","","","","","",""
"2436","","image-button-response","84","615745","0.0-84.0-0.0","AIR4UQNPIMFCJ","img_art/12.jpg","5","","","","","","","","","","","","","","","","","","","","","","","","",""
"1614","","image-button-response","85","617366","0.0-85.0-0.0","AIR4UQNPIMFCJ","img_art/12.jpg","3","","","","","","","","","","","","","","","","","","","","","","","","",""
"null","","html-keyboard-response","86","618372","0.0-86.0","AIR4UQNPIMFCJ","<p style=""font-size: 48px;"">+</p>","","","","","null","allTrialResponses","1000","1","6","img_art/12.jpg","10","Interesting like a photo collage.","Amber,Kelsey,Jordan,Vanessa,Monica,Rachel","Like how all the colors seem to blend together.,15,200,20","dont like the squares,-16,240,20","not my kind of thing,1,20,20","This is too abstract and the colors are too worn out.,-23,380,20","Reminds me of collages we made in elementary school. I like the contrast of the colors from top to bottom,43,360,20","I like how it's split into tiny squares, but otherwise, not very intriguing.,-18,80,20","Monica","Reminds me of collages we made in elementary school. I like the contrast of the colors from top to bottom,43,360,20","Rachel","I like how it's split into tiny squares, but otherwise, not very intriguing.,-18,80,20","Vanessa","This is too abstract and the colors are too worn out.,-23,380,20","0"
"11306","","survey-text","87","629685","0.0-87.0-0.0","AIR4UQNPIMFCJ","","","","{""Q0"":""Looks like a port.""}","","","","","","","","","","","","","","","","","","","","","","",""
"3013","","image-slider-response","88","632703","0.0-88.0","AIR4UQNPIMFCJ","","","","","4","","","","","","","","","","","","","","","","","","","","","",""
"2858","","image-button-response","89","637711","0.0-89.0","AIR4UQNPIMFCJ","img_art/11.jpg","0","","","","","","","","","","","","","","","","","","","","","","","","",""
"3329","","image-button-response","90","641043","0.0-90.0","AIR4UQNPIMFCJ","img_art/11.jpg","2","","","","","","","","","","","","","","","","","","","","","","","","",""
"4299","","image-button-response","91","645347","0.0-91.0-0.0","AIR4UQNPIMFCJ","img_art/11.jpg","5","","","","","","","","","","","","","","","","","","","","","","","","",""
"7343","","image-button-response","92","652697","0.0-92.0-0.0","AIR4UQNPIMFCJ","img_art/11.jpg","2","","","","","","","","","","","","","","","","","","","","","","","","",""
"4078","","image-button-response","93","663223","0.0-92.1-0.1","AIR4UQNPIMFCJ","img_art/11.jpg","0","","","","","","","","","","","","","","","","","","","","","","","","",""
"null","","html-keyboard-response","94","663738","0.0-93.0","AIR4UQNPIMFCJ","<p style=""font-size: 48px;"">+</p>","","","","","null","allTrialResponses","500","1","7","img_art/11.jpg","4","Looks like a port.","Michaela,Mary,Erin,Vanessa,Monica,Rachel","Reminds me of a city and how chaotic it can be,22,260,20","I don't care for the color combo. The wavy lines give dimension though.,-13,180,20","Frank Lloyd Wright, music,24,120,20","It makes me think of a rainy day and I like the colors. Also like the wavy lines.,22,380,20","I like how it reminds me of music and at the same time it looks like colorful train tracks.,10,360,20","Makes me think of a futuristic scene of vehicles flying in the sky in a city.,36,80,20","Erin","Frank Lloyd Wright, music,24,120,20","Rachel","Makes me think of a futuristic scene of vehicles flying in the sky in a city.,36,80,20","Michaela","Reminds me of a city and how chaotic it can be,22,260,20","2"
"10596","","survey-text","95","674352","0.0-94.0-0.0","AIR4UQNPIMFCJ","","","","{""Q0"":""Cute bear.""}","","","","","","","","","","","","","","","","","","","","","","",""
"3182","","image-slider-response","96","677542","0.0-95.0","AIR4UQNPIMFCJ","","","","","7","","","","","","","","","","","","","","","","","","","","","",""
"null","","image-button-response","97","682551","0.0-96.0","AIR4UQNPIMFCJ","img_art/16.jpg","null","","","","","","","","","","","","","","","","","","","","","","","","",""
"13978","","image-button-response","98","696532","0.0-97.0","AIR4UQNPIMFCJ","img_art/16.jpg","3","","","","","","","","","","","","","","","","","","","","","","","","",""
"1696","","image-button-response","99","698233","0.0-98.0-0.0","AIR4UQNPIMFCJ","img_art/16.jpg","2","","","","","","","","","","","","","","","","","","","","","","","","",""
"2420","","image-button-response","100","700661","0.0-99.0-0.0","AIR4UQNPIMFCJ","img_art/16.jpg","1","","","","","","","","","","","","","","","","","","","","","","","","",""
"null","","html-keyboard-response","101","701172","0.0-100.0","AIR4UQNPIMFCJ","<p style=""font-size: 48px;"">+</p>","","","","","null","allTrialResponses","500","1","8","img_art/16.jpg","7","Cute bear.","Michaela,Chelsea,Erin,Hannah,Brooke,Rachel","It feels lazily done,-9,260,20","I wouldn't hang it up on my wall but I like the colors of the bear.,25,180,20","Not original. Bear is odd,-50,120,20","This is weird and a little creepy.,6,240,20","Don't like teddy bears in art. I could draw that house.,-20,60,20","Not pleasing to the eyes. I do like that the gun is broken though.,-28,80,20","Hannah","This is weird and a little creepy.,6,240,20","Erin","Not original. Bear is odd,-50,120,20","Chelsea","I wouldn't hang it up on my wall but I like the colors of the bear.,25,180,20","2"
"14595","","survey-text","102","715777","0.0-101.0-0.0","AIR4UQNPIMFCJ","","","","{""Q0"":""Looks like a musical instrument.""}","","","","","","","","","","","","","","","","","","","","","","",""
"2746","","image-slider-response","103","718531","0.0-102.0","AIR4UQNPIMFCJ","","","","","16","","","","","","","","","","","","","","","","","","","","","",""
"3301","","image-button-response","104","723544","0.0-103.0","AIR4UQNPIMFCJ","img_art/10.jpg","2","","","","","","","","","","","","","","","","","","","","","","","","",""
"738","","image-button-response","105","724286","0.0-104.0","AIR4UQNPIMFCJ","img_art/10.jpg","2","","","","","","","","","","","","","","","","","","","","","","","","",""
"10446","","image-button-response","106","734738","0.0-105.0-0.0","AIR4UQNPIMFCJ","img_art/10.jpg","0","","","","","","","","","","","","","","","","","","","","","","","","",""
"1060","","image-button-response","107","735803","0.0-106.0-0.0","AIR4UQNPIMFCJ","img_art/10.jpg","0","","","","","","","","","","","","","","","","","","","","","","","","",""
"2200","","image-button-response","108","741245","0.0-106.1-0.1","AIR4UQNPIMFCJ","img_art/10.jpg","0","","","","","","","","","","","","","","","","","","","","","","","","",""
"2299","","image-button-response","109","749381","0.0-106.2-0.2","AIR4UQNPIMFCJ","img_art/10.jpg","4","","","","","","","","","","","","","","","","","","","","","","","","",""
"null","","html-keyboard-response","110","749892","0.0-107.0","AIR4UQNPIMFCJ","<p style=""font-size: 48px;"">+</p>","","","","","null","allTrialResponses","500","1","9","img_art/10.jpg","16","Looks like a musical instrument.","Alexa,Chelsea,Erin,Hannah,Leslie,Katie","Cute and has a vintage feel to it,45,40,20","It looks intricate.,15,180,20","Cello music instrument,11,120,20","This one is interesting. I like it.,11,240,20","I love the chaotic feel of the brush strokes.,35,380,20","Dark and weird. Unidentifiable shape. I can't tell what it is, so I don't like it.,-50,160,20","Erin","Cello music instrument,11,120,20","Alexa","Cute and has a vintage feel to it,45,40,20","Leslie","I love the chaotic feel of the brush strokes.,35,380,20","6"
"15226","","survey-text","111","765135","0.0-108.0-0.0","AIR4UQNPIMFCJ","","","","{""Q0"":""Looks like a deserted town.""}","","","","","","","","","","","","","","","","","","","","","","",""
"3756","","image-slider-response","112","768898","0.0-109.0","AIR4UQNPIMFCJ","","","","","-12","","","","","","","","","","","","","","","","","","","","","",""
"2742","","image-button-response","113","773906","0.0-110.0","AIR4UQNPIMFCJ","img_art/20.jpg","1","","","","","","","","","","","","","","","","","","","","","","","","",""
"4368","","image-button-response","114","778277","0.0-111.0","AIR4UQNPIMFCJ","img_art/20.jpg","2","","","","","","","","","","","","","","","","","","","","","","","","",""
"2860","","image-button-response","115","781145","0.0-112.0-0.0","AIR4UQNPIMFCJ","img_art/20.jpg","3","","","","","","","","","","","","","","","","","","","","","","","","",""
"2912","","image-button-response","116","784063","0.0-113.0-0.0","AIR4UQNPIMFCJ","img_art/20.jpg","1","","","","","","","","","","","","","","","","","","","","","","","","",""
"null","","html-keyboard-response","117","785067","0.0-114.0","AIR4UQNPIMFCJ","<p style=""font-size: 48px;"">+</p>","","","","","null","allTrialResponses","1000","1","10","img_art/20.jpg","-12","Looks like a deserted town.","Alexa,Kathryn,Erin,Haley,Leslie,Anna","I like the calming mood of this painting,35,40,20","This looks like a ruin of what was once a thriving city.,-9,140,20","Dark frame overpowers the image,-6,120,20","I really enjoy the contrast of colors (blue/red/orange),30,220,20","This elicits no reaction in me.,0,380,20","I would like it more without the frame.,10,300,20","Erin","Dark frame overpowers the image,-6,120,20","Haley","I really enjoy the contrast of colors (blue/red/orange),30,220,20","Kathryn","This looks like a ruin of what was once a thriving city.,-9,140,20","6"
"5578","","survey-text","118","790661","0.0-115.0-0.0","AIR4UQNPIMFCJ","","","","{""Q0"":""our""}","","","","","","","","","","","","","","","","","","","","","","",""
"15705","","survey-text","119","806370","0.0-116.0-0.0","AIR4UQNPIMFCJ","","","","{""Q0"":""Looks muddy and ugly.""}","","","","","","","","","","","","","","","","","","","","","","",""
"4127","","image-slider-response","120","810503","0.0-117.0","AIR4UQNPIMFCJ","","","","","-18","","","","","","","","","","","","","","","","","","","","","",""
"3322","","image-button-response","121","815512","0.0-118.0","AIR4UQNPIMFCJ","img_art/29.jpg","1","","","","","","","","","","","","","","","","","","","","","","","","",""
"6622","","image-button-response","122","822136","0.0-119.0","AIR4UQNPIMFCJ","img_art/29.jpg","3","","","","","","","","","","","","","","","","","","","","","","","","",""
"2839","","image-button-response","123","824981","0.0-120.0-0.0","AIR4UQNPIMFCJ","img_art/29.jpg","4","","","","","","","","","","","","","","","","","","","","","","","","",""
"1962","","image-button-response","124","826950","0.0-121.0-0.0","AIR4UQNPIMFCJ","img_art/29.jpg","1","","","","","","","","","","","","","","","","","","","","","","","","",""
"null","","html-keyboard-response","125","827456","0.0-122.0","AIR4UQNPIMFCJ","<p style=""font-size: 48px;"">+</p>","","","","","null","allTrialResponses","500","1","11","img_art/29.jpg","-18","Looks muddy and ugly.","Sarah,Kathryn,Erin,Haley,Mackenzie,Meghan","it's interesting but not my style,9,180,20","This piece feels gross. Makes me think of pollution/litter strewn across a dirty street.,-20,140,20","Red X is scary, like the bricks,7,120,20","Looks messy, but not in appealing way,-20,220,20","The light source is confusing, but still interesting to look at,11,20,20","feels random and not thoughtout,-37,220,20","Haley","Looks messy, but not in appealing way,-20,220,20","Mackenzie","The light source is confusing, but still interesting to look at,11,20,20","Kathryn","This piece feels gross. Makes me think of pollution/litter strewn across a dirty street.,-20,140,20","6"
"11047","","survey-text","126","838520","0.0-123.0-0.0","AIR4UQNPIMFCJ","","","","{""Q0"":""Nice colors. Water colors.""}","","","","","","","","","","","","","","","","","","","","","","",""
"3080","","image-slider-response","127","841605","0.0-124.0","AIR4UQNPIMFCJ","","","","","12","","","","","","","","","","","","","","","","","","","","","",""
"null","","image-button-response","128","846613","0.0-125.0","AIR4UQNPIMFCJ","img_art/21.jpg","null","","","","","","","","","","","","","","","","","","","","","","","","",""
"808","","image-button-response","129","847422","0.0-126.0","AIR4UQNPIMFCJ","img_art/21.jpg","0","","","","","","","","","","","","","","","","","","","","","","","","",""
"6613","","image-button-response","130","854039","0.0-127.0-0.0","AIR4UQNPIMFCJ","img_art/21.jpg","4","","","","","","","","","","","","","","","","","","","","","","","","",""
"1226","","image-button-response","131","855271","0.0-128.0-0.0","AIR4UQNPIMFCJ","img_art/21.jpg","5","","","","","","","","","","","","","","","","","","","","","","","","",""
"null","","html-keyboard-response","132","855777","0.0-129.0","AIR4UQNPIMFCJ","<p style=""font-size: 48px;"">+</p>","","","","","null","allTrialResponses","500","1","12","img_art/21.jpg","12","Nice colors. Water colors.","Diana,Kathryn,Michelle,Haley,Mackenzie,Lauren","Makes me feel light and airy. Like I've gone back in time to 1700th century France.,43,380,20","This feels chaotic, like a battle or a storm.,-20,140,20","The colors are very nice. I like the dots because they remind me of pearls,5,280,20","Again, I love the use of color,50,220,20","The shapes and colors are very interesting to look at.,41,20,20","I like how the piece has the possibility of depicting some type of story.,30,340,20","Diana","Makes me feel light and airy. Like I've gone back in time to 1700th century France.,43,380,20","Mackenzie","The shapes and colors are very interesting to look at.,41,20,20","Lauren","I like how the piece has the possibility of depicting some type of story.,30,340,20","6"
"9455","","survey-text","133","865241","0.0-130.0-0.0","AIR4UQNPIMFCJ","","","","{""Q0"":""No thoughts.""}","","","","","","","","","","","","","","","","","","","","","","",""
"11860","","image-slider-response","134","877106","0.0-131.0","AIR4UQNPIMFCJ","","","","","0","","","","","","","","","","","","","","","","","","","","","",""
"3601","","image-button-response","135","882120","0.0-132.0","AIR4UQNPIMFCJ","img_art/22.jpg","0","","","","","","","","","","","","","","","","","","","","","","","","",""
"2012","","image-button-response","136","884135","0.0-133.0","AIR4UQNPIMFCJ","img_art/22.jpg","0","","","","","","","","","","","","","","","","","","","","","","","","",""
"4540","","image-button-response","137","888680","0.0-134.0-0.0","AIR4UQNPIMFCJ","img_art/22.jpg","4","","","","","","","","","","","","","","","","","","","","","","","","",""
"4304","","image-button-response","138","892991","0.0-135.0-0.0","AIR4UQNPIMFCJ","img_art/22.jpg","5","","","","","","","","","","","","","","","","","","","","","","","","",""
"null","","html-keyboard-response","139","894497","0.0-136.0","AIR4UQNPIMFCJ","<p style=""font-size: 48px;"">+</p>","","","","","null","allTrialResponses","1500","1","13","img_art/22.jpg","0","No thoughts.","Diana,Mikayla,Angela,Emma,Mackenzie,Lauren","I think the colors are beautiful they remind me of a sunset.,13,380,20","So colorful i love it!,22,300,20","Like the colors. I enjoy looking at this one.,15,260,20","Love the use of color,50,60,20","Different shapes within the image make it interesting to look at,20,20,20","This doesn't invoke anything, since I can't tell what the piece represents.,0,340,20","Diana","I think the colors are beautiful they remind me of a sunset.,13,380,20","Mackenzie","Different shapes within the image make it interesting to look at,20,20,20","Lauren","This doesn't invoke anything, since I can't tell what the piece represents.,0,340,20","6"
"12644","","survey-text","140","907153","0.0-137.0-0.0","AIR4UQNPIMFCJ","","","","{""Q0"":""Cute and engaging.""}","","","","","","","","","","","","","","","","","","","","","","",""
"2939","","image-slider-response","141","910101","0.0-138.0","AIR4UQNPIMFCJ","","","","","18","","","","","","","","","","","","","","","","","","","","","",""
"null","","image-button-response","142","915114","0.0-139.0","AIR4UQNPIMFCJ","img_art/19.jpg","null","","","","","","","","","","","","","","","","","","","","","","","","",""
"1996","","image-button-response","143","917113","0.0-140.0","AIR4UQNPIMFCJ","img_art/19.jpg","1","","","","","","","","","","","","","","","","","","","","","","","","",""
"5191","","image-button-response","144","922309","0.0-141.0-0.0","AIR4UQNPIMFCJ","img_art/19.jpg","0","","","","","","","","","","","","","","","","","","","","","","","","",""
"6304","","image-button-response","145","928619","0.0-142.0-0.0","AIR4UQNPIMFCJ","img_art/19.jpg","2","","","","","","","","","","","","","","","","","","","","","","","","",""
"null","","html-keyboard-response","146","929129","0.0-143.0","AIR4UQNPIMFCJ","<p style=""font-size: 48px;"">+</p>","","","","","null","allTrialResponses","500","1","14","img_art/19.jpg","18","Cute and engaging.","Diana,Miranda,Danielle,Samantha,Mackenzie,Lauren","I wasn't sure if I liked it or hated it. It oddly reminds me of a clothing store.,11,380,20","It looks cool but at the time looks like it was done by a talented 5 year old.,13,320,20","It looks like as if it were portraying a village that was polluted? I don't like the theme anyway,-21,340,20","Intersting but not for me,21,140,20","Shapes give it a feeling of being crowded,-18,20,20","The image doesn't really invoke any emotions strongly.,0,340,20","Miranda","It looks cool but at the time looks like it was done by a talented 5 year old.,13,320,20","Diana","I wasn't sure if I liked it or hated it. It oddly reminds me of a clothing store.,11,380,20","Danielle","It looks like as if it were portraying a village that was polluted? I don't like the theme anyway,-21,340,20","6"
"19313","","survey-text","147","948453","0.0-144.0-0.0","AIR4UQNPIMFCJ","","","","{""Q0"":""Looks like entering a gallery.""}","","","","","","","","","","","","","","","","","","","","","","",""
"3783","","image-slider-response","148","952242","0.0-145.0","AIR4UQNPIMFCJ","","","","","5","","","","","","","","","","","","","","","","","","","","","",""
"null","","image-button-response","149","957248","0.0-146.0","AIR4UQNPIMFCJ","img_art/17.jpg","null","","","","","","","","","","","","","","","","","","","","","","","","",""
"1541","","image-button-response","150","958790","0.0-147.0","AIR4UQNPIMFCJ","img_art/17.jpg","2","","","","","","","","","","","","","","","","","","","","","","","","",""
"5474","","image-button-response","151","964269","0.0-148.0-0.0","AIR4UQNPIMFCJ","img_art/17.jpg","4","","","","","","","","","","","","","","","","","","","","","","","","",""
"1941","","image-button-response","152","966216","0.0-149.0-0.0","AIR4UQNPIMFCJ","img_art/17.jpg","3","","","","","","","","","","","","","","","","","","","","","","","","",""
"null","","html-keyboard-response","153","967724","0.0-150.0","AIR4UQNPIMFCJ","<p style=""font-size: 48px;"">+</p>","","","","","null","allTrialResponses","1500","1","15","img_art/17.jpg","5","Looks like entering a gallery.","Diana,Miranda,Danielle,Sophia,Rebecca,Cassandra","I really enjoyed this piece, it's a play on bringing the outside indoors.,32,380,20","It seems a little dark but it is very beautiful,28,320,20","It's alright, nothing I particularly like but it's just fine,-10,340,20","It kind of pulls you in to float away with it.,9,280,20","tree sprouting out of a box (house) the invasion of nature?,39,100,20","Very pretty...the colors and good and flow well.,33,120,20","Danielle","It's alright, nothing I particularly like but it's just fine,-10,340,20","Rebecca","tree sprouting out of a box (house) the invasion of nature?,39,100,20","Sophia","It kind of pulls you in to float away with it.,9,280,20","6"
"4547","","survey-text","154","972305","0.0-151.0-0.0","AIR4UQNPIMFCJ","","","","{""Q0"":""course""}","","","","","","","","","","","","","","","","","","","","","","",""
"15769","","survey-text","155","988079","0.0-152.0-0.0","AIR4UQNPIMFCJ","","","","{""Q0"":""Lind of dumb-looking.""}","","","","","","","","","","","","","","","","","","","","","","",""
"3036","","image-slider-response","156","991121","0.0-153.0","AIR4UQNPIMFCJ","","","","","-7","","","","","","","","","","","","","","","","","","","","","",""
"null","","image-button-response","157","996131","0.0-154.0","AIR4UQNPIMFCJ","img_art/2.jpg","null","","","","","","","","","","","","","","","","","","","","","","","","",""
"2125","","image-button-response","158","998258","0.0-155.0","AIR4UQNPIMFCJ","img_art/2.jpg","4","","","","","","","","","","","","","","","","","","","","","","","","",""
"4287","","image-button-response","159","1002550","0.0-156.0-0.0","AIR4UQNPIMFCJ","img_art/2.jpg","5","","","","","","","","","","","","","","","","","","","","","","","","",""
"1756","","image-button-response","160","1004310","0.0-157.0-0.0","AIR4UQNPIMFCJ","img_art/2.jpg","2","","","","","","","","","","","","","","","","","","","","","","","","",""
"null","","html-keyboard-response","161","1005824","0.0-158.0","AIR4UQNPIMFCJ","<p style=""font-size: 48px;"">+</p>","","","","","null","allTrialResponses","1500","1","16","img_art/2.jpg","-7","Lind of dumb-looking.","Mariah,Andrea,Danielle,Sophia,Rebecca,Jessica","The colors are soothing, but the composition feels thoughtless.,-11,140,20","It feels like a party and Moulin Rouge.,20,240,20","Not a fan of this style,-30,340,20","I'm not fond of the colors in this one.,-33,280,20","do not understand,-21,100,20","I don't get the meaning of this piece either.,-13,400,20","Rebecca","do not understand,-21,100,20","Jessica","I don't get the meaning of this piece either.,-13,400,20","Danielle","Not a fan of this style,-30,340,20","6"
"10609","","survey-text","162","1016442","0.0-159.0-0.0","AIR4UQNPIMFCJ","","","","{""Q0"":""Smoky and hazy.""}","","","","","","","","","","","","","","","","","","","","","","",""
"3776","","image-slider-response","163","1020227","0.0-160.0","AIR4UQNPIMFCJ","","","","","-6","","","","","","","","","","","","","","","","","","","","","",""
"4937","","image-button-response","164","1025235","0.0-161.0","AIR4UQNPIMFCJ","img_art/27.jpg","0","","","","","","","","","","","","","","","","","","","","","","","","",""
"2503","","image-button-response","165","1027741","0.0-162.0","AIR4UQNPIMFCJ","img_art/27.jpg","0","","","","","","","","","","","","","","","","","","","","","","","","",""
"4781","","image-button-response","166","1032528","0.0-163.0-0.0","AIR4UQNPIMFCJ","img_art/27.jpg","5","","","","","","","","","","","","","","","","","","","","","","","","",""
"1868","","image-button-response","167","1034402","0.0-164.0-0.0","AIR4UQNPIMFCJ","img_art/27.jpg","4","","","","","","","","","","","","","","","","","","","","","","","","",""
"null","","html-keyboard-response","168","1034935","0.0-165.0","AIR4UQNPIMFCJ","<p style=""font-size: 48px;"">+</p>","","","","","null","allTrialResponses","500","1","17","img_art/27.jpg","-6","Smoky and hazy.","Cheyenne,Tiffany,Danielle,Natalie,Rebecca,Jessica","This one does nothing for me.,2,200,20","I feel peaceful and a little nervous at the same time.,11,360,20","Looks a bit like a child's project with unsatisfying colors,-31,340,20","also gives me anxiety,-21,400,20","don't understand, the green induces confusion,1,100,20","Don't get the point of this piece that much, but it doesn't bug me,1,400,20","Cheyenne","This one does nothing for me.,2,200,20","Jessica","Don't get the point of this piece that much, but it doesn't bug me,1,400,20","Rebecca","don't understand, the green induces confusion,1,100,20","6"
"11514","","survey-text","169","1046470","0.0-166.0-0.0","AIR4UQNPIMFCJ","","","","{""Q0"":""Mustard and ketchup.""}","","","","","","","","","","","","","","","","","","","","","","",""
"3187","","image-slider-response","170","1049664","0.0-167.0","AIR4UQNPIMFCJ","","","","","-5","","","","","","","","","","","","","","","","","","","","","",""
"3108","","image-button-response","171","1054673","0.0-168.0","AIR4UQNPIMFCJ","img_art/4.jpg","0","","","","","","","","","","","","","","","","","","","","","","","","",""
"913","","image-button-response","172","1055589","0.0-169.0","AIR4UQNPIMFCJ","img_art/4.jpg","0","","","","","","","","","","","","","","","","","","","","","","","","",""
"6762","","image-button-response","173","1062356","0.0-170.0-0.0","AIR4UQNPIMFCJ","img_art/4.jpg","3","","","","","","","","","","","","","","","","","","","","","","","","",""
"2558","","image-button-response","174","1064920","0.0-171.0-0.0","AIR4UQNPIMFCJ","img_art/4.jpg","5","","","","","","","","","","","","","","","","","","","","","","","","",""
"null","","html-keyboard-response","175","1066431","0.0-172.0","AIR4UQNPIMFCJ","<p style=""font-size: 48px;"">+</p>","","","","","null","allTrialResponses","1500","1","18","img_art/4.jpg","-5","Mustard and ketchup.","Cheyenne,Paige,Katelyn,Kelly,Rebecca,Jessica","Just doesn't look nice.,-40,200,20","the colors are calming,31,60,20","I like the warmth in the colors. Its reassuring.,9,100,20","The longer I stare at this the less I like it.,-19,220,20","no sorry i can't really understand,-18,100,20","Looks like they just smothered on some paint and called it a day.,-17,400,20","Cheyenne","Just doesn't look nice.,-40,200,20","Kelly","The longer I stare at this the less I like it.,-19,220,20","Jessica","Looks like they just smothered on some paint and called it a day.,-17,400,20","6"
"10475","","survey-text","176","1076926","0.0-173.0-0.0","AIR4UQNPIMFCJ","","","","{""Q0"":""A little small town street.""}","","","","","","","","","","","","","","","","","","","","","","",""
"3153","","image-slider-response","177","1080086","0.0-174.0","AIR4UQNPIMFCJ","","","","","14","","","","","","","","","","","","","","","","","","","","","",""
"3028","","image-button-response","178","1085099","0.0-175.0","AIR4UQNPIMFCJ","img_art/26.jpg","1","","","","","","","","","","","","","","","","","","","","","","","","",""
"585","","image-button-response","179","1085686","0.0-176.0","AIR4UQNPIMFCJ","img_art/26.jpg","1","","","","","","","","","","","","","","","","","","","","","","","","",""
"7948","","image-button-response","180","1093640","0.0-177.0-0.0","AIR4UQNPIMFCJ","img_art/26.jpg","5","","","","","","","","","","","","","","","","","","","","","","","","",""
"2938","","image-button-response","181","1096584","0.0-178.0-0.0","AIR4UQNPIMFCJ","img_art/26.jpg","0","","","","","","","","","","","","","","","","","","","","","","","","",""
"null","","html-keyboard-response","182","1097589","0.0-179.0","AIR4UQNPIMFCJ","<p style=""font-size: 48px;"">+</p>","","","","","null","allTrialResponses","1000","1","19","img_art/26.jpg","14","A little small town street.","Cheyenne,Dominique,Jacqueline,Kelly,Jennifer,Jessica","No strong reaction but the color scheme is nice,10,200,20","Small town and home feel on A nice day.,28,400,20","I don't really see the point in this painting.,-16,300,20","Very subdued, but wouldn't give it a 2nd notice.,4,220,20","This picture doesn't really stand out.,0,380,20","It doesn't look so vibrant, I'm not sure what feelings they were trying to capture,-41,400,20","Dominique","Small town and home feel on A nice day.,28,400,20","Jessica","It doesn't look so vibrant, I'm not sure what feelings they were trying to capture,-41,400,20","Cheyenne","No strong reaction but the color scheme is nice,10,200,20","6"
"22377","","survey-text","183","1119986","0.0-180.0-0.0","AIR4UQNPIMFCJ","","","","{""Q0"":""A field with something unrecognizable.""}","","","","","","","","","","","","","","","","","","","","","","",""
"3498","","image-slider-response","184","1123490","0.0-181.0","AIR4UQNPIMFCJ","","","","","-5","","","","","","","","","","","","","","","","","","","","","",""
"null","","image-button-response","185","1128501","0.0-182.0","AIR4UQNPIMFCJ","img_art/6.jpg","null","","","","","","","","","","","","","","","","","","","","","","","","",""
"2099","","image-button-response","186","1130604","0.0-183.0","AIR4UQNPIMFCJ","img_art/6.jpg","3","","","","","","","","","","","","","","","","","","","","","","","","",""
"3599","","image-button-response","187","1134209","0.0-184.0-0.0","AIR4UQNPIMFCJ","img_art/6.jpg","5","","","","","","","","","","","","","","","","","","","","","","","","",""
"1821","","image-button-response","188","1136036","0.0-185.0-0.0","AIR4UQNPIMFCJ","img_art/6.jpg","1","","","","","","","","","","","","","","","","","","","","","","","","",""
"null","","html-keyboard-response","189","1137045","0.0-186.0","AIR4UQNPIMFCJ","<p style=""font-size: 48px;"">+</p>","","","","","null","allTrialResponses","1000","1","20","img_art/6.jpg","-5","A field with something unrecognizable.","Cheyenne,Dominique,Alexandria,Laura,Ashley,Jessica","Good painting but too simple to care about it for very long.,-15,200,20","Calm and catching,30,400,20","i like it but it is very neutral,9,80,20","graceful and light,35,320,20","A lot of people will lvoe this, I do not.,1,320,20","Is this a leaf?,4,400,20","Laura","graceful and light,35,320,20","Jessica","Is this a leaf?,4,400,20","Dominique","Calm and catching,30,400,20","6"
"3736","","survey-text","190","1140815","0.0-187.0-0.0","AIR4UQNPIMFCJ","","","","{""Q0"":""we""}","","","","","","","","","","","","","","","","","","","","","","",""
"8671","","survey-text","191","1149492","0.0-188.0-0.0","AIR4UQNPIMFCJ","","","","{""Q0"":""Looks industrial.""}","","","","","","","","","","","","","","","","","","","","","","",""
"3321","","image-slider-response","192","1152820","0.0-189.0","AIR4UQNPIMFCJ","","","","","-8","","","","","","","","","","","","","","","","","","","","","",""
"3838","","image-button-response","193","1157825","0.0-190.0","AIR4UQNPIMFCJ","img_art/18.jpg","0","","","","","","","","","","","","","","","","","","","","","","","","",""
"727","","image-button-response","194","1158555","0.0-191.0","AIR4UQNPIMFCJ","img_art/18.jpg","0","","","","","","","","","","","","","","","","","","","","","","","","",""
"2305","","image-button-response","195","1160865","0.0-192.0-0.0","AIR4UQNPIMFCJ","img_art/18.jpg","2","","","","","","","","","","","","","","","","","","","","","","","","",""
"3158","","image-button-response","196","1164029","0.0-193.0-0.0","AIR4UQNPIMFCJ","img_art/18.jpg","1","","","","","","","","","","","","","","","","","","","","","","","","",""
"null","","html-keyboard-response","197","1165037","0.0-194.0","AIR4UQNPIMFCJ","<p style=""font-size: 48px;"">+</p>","","","","","null","allTrialResponses","1000","1","21","img_art/18.jpg","-8","Looks industrial.","Kristen,Dominique,Gabrielle,Laura,Sydney,Jessica","pegssus going into battle,25,280,20","Very conversational and can see many different looks and feels from this .,34,400,20","interesting piece, I like the horse and people inserted in spots,22,160,20","afraid and anxious,21,320,20","I like the colors being used, but I don't like the chaos in the middle of it.,20,320,20","I think this looks pretty cool, I can see what's kind of going on here.,22,400,20","Kristen","pegssus going into battle,25,280,20","Gabrielle","interesting piece, I like the horse and people inserted in spots,22,160,20","Dominique","Very conversational and can see many different looks and feels from this .,34,400,20","6"
"15728","","survey-text","198","1180786","0.0-195.0-0.0","AIR4UQNPIMFCJ","","","","{""Q0"":""A stream with rocks on the side.""}","","","","","","","","","","","","","","","","","","","","","","",""
"4489","","image-slider-response","199","1185282","0.0-196.0","AIR4UQNPIMFCJ","","","","","6","","","","","","","","","","","","","","","","","","","","","",""
"2224","","image-button-response","200","1190297","0.0-197.0","AIR4UQNPIMFCJ","img_art/24.jpg","1","","","","","","","","","","","","","","","","","","","","","","","","",""
"540","","image-button-response","201","1190840","0.0-198.0","AIR4UQNPIMFCJ","img_art/24.jpg","1","","","","","","","","","","","","","","","","","","","","","","","","",""
"4440","","image-button-response","202","1195285","0.0-199.0-0.0","AIR4UQNPIMFCJ","img_art/24.jpg","2","","","","","","","","","","","","","","","","","","","","","","","","",""
"2192","","image-button-response","203","1197484","0.0-200.0-0.0","AIR4UQNPIMFCJ","img_art/24.jpg","3","","","","","","","","","","","","","","","","","","","","","","","","",""
"null","","html-keyboard-response","204","1198498","0.0-201.0","AIR4UQNPIMFCJ","<p style=""font-size: 48px;"">+</p>","","","","","null","allTrialResponses","1000","1","22","img_art/24.jpg","6","A stream with rocks on the side.","Kristen,Dominique,Gabrielle,Grace,Gabriela,Kaitlin","calm, nature, safe, happy place,,50,280,20","Spending a day in nature,21,400,20","flowing water part is good, some of the rest is ok but dark,14,160,20","Abstract falls & nature.,41,180,20","I love how bold and vibrant the colors are,40,140,20","Aww. I love the peace brought by this picture.,40,60,20","Dominique","Spending a day in nature,21,400,20","Gabrielle","flowing water part is good, some of the rest is ok but dark,14,160,20","Grace","Abstract falls & nature.,41,180,20","6"
"21899","","survey-text","205","1220418","0.0-202.0-0.0","AIR4UQNPIMFCJ","","","","{""Q0"":""Vacant but nice-looking.""}","","","","","","","","","","","","","","","","","","","","","","",""
"2878","","image-slider-response","206","1223302","0.0-203.0","AIR4UQNPIMFCJ","","","","","2","","","","","","","","","","","","","","","","","","","","","",""
"null","","image-button-response","207","1228311","0.0-204.0","AIR4UQNPIMFCJ","img_art/8.jpg","null","","","","","","","","","","","","","","","","","","","","","","","","",""
"4009","","image-button-response","208","1232321","0.0-205.0","AIR4UQNPIMFCJ","img_art/8.jpg","2","","","","","","","","","","","","","","","","","","","","","","","","",""
"5404","","image-button-response","209","1237731","0.0-206.0-0.0","AIR4UQNPIMFCJ","img_art/8.jpg","4","","","","","","","","","","","","","","","","","","","","","","","","",""
"1763","","image-button-response","210","1239500","0.0-207.0-0.0","AIR4UQNPIMFCJ","img_art/8.jpg","5","","","","","","","","","","","","","","","","","","","","","","","","",""
"null","","html-keyboard-response","211","1241010","0.0-208.0","AIR4UQNPIMFCJ","<p style=""font-size: 48px;"">+</p>","","","","","null","allTrialResponses","1500","1","23","img_art/8.jpg","2","Vacant but nice-looking.","Jenna,Dominique,Gabrielle,Grace,Caitlin,Jasmine","beautiful colors & details. love the surrealism & strange angle. the faces are interesting.,50,360,20","This speaks volumes to me and is another favorite I'm sure by many,40,400,20","lots going on with great use of lots of color and geometry,24,160,20","Like the colors & the imagery - old city, native peoples maybe.,20,180,20","And I'll huff and I'll puff and I'll blow your town down!!,20,80,20","Not too bad despite the chaos.,16,340,20","Gabrielle","lots going on with great use of lots of color and geometry,24,160,20","Caitlin","And I'll huff and I'll puff and I'll blow your town down!!,20,80,20","Jasmine","Not too bad despite the chaos.,16,340,20","6"
"14290","","survey-text","212","1255318","0.0-209.0-0.0","AIR4UQNPIMFCJ","","","","{""Q0"":""Sand with hidden items.""}","","","","","","","","","","","","","","","","","","","","","","",""
"3375","","image-slider-response","213","1258698","0.0-210.0","AIR4UQNPIMFCJ","","","","","2","","","","","","","","","","","","","","","","","","","","","",""
"3240","","image-button-response","214","1263710","0.0-211.0","AIR4UQNPIMFCJ","img_art/7.jpg","0","","","","","","","","","","","","","","","","","","","","","","","","",""
"712","","image-button-response","215","1264422","0.0-212.0","AIR4UQNPIMFCJ","img_art/7.jpg","0","","","","","","","","","","","","","","","","","","","","","","","","",""
"2689","","image-button-response","216","1267116","0.0-213.0-0.0","AIR4UQNPIMFCJ","img_art/7.jpg","2","","","","","","","","","","","","","","","","","","","","","","","","",""
"4367","","image-button-response","217","1271489","0.0-214.0-0.0","AIR4UQNPIMFCJ","img_art/7.jpg","3","","","","","","","","","","","","","","","","","","","","","","","","",""
"null","","html-keyboard-response","218","1272993","0.0-215.0","AIR4UQNPIMFCJ","<p style=""font-size: 48px;"">+</p>","","","","","null","allTrialResponses","1500","1","24","img_art/7.jpg","2","Sand with hidden items.","Stephanie,Madeline,Gabrielle,Sierra,Caitlin,Jasmine","This looks muddy and stomped on. I think of destruction.,-50,300,20","Not very big on the sameness here,-20,40,20","looks like wallpaper,-6,160,20","it looks like a dog ran through some wet cement,-22,260,20","Looks like a photo taken from the moon.,-6,80,20","It just reminds me of dirt,-10,340,20","Stephanie","This looks muddy and stomped on. I think of destruction.,-50,300,20","Gabrielle","looks like wallpaper,-6,160,20","Sierra","it looks like a dog ran through some wet cement,-22,260,20","6"
"9233","","survey-text","219","1282238","0.0-216.0-0.0","AIR4UQNPIMFCJ","","","","{""Q0"":""A tunnel.""}","","","","","","","","","","","","","","","","","","","","","","",""
"5841","","image-slider-response","220","1288087","0.0-217.0","AIR4UQNPIMFCJ","","","","","5","","","","","","","","","","","","","","","","","","","","","",""
"3012","","image-button-response","221","1293100","0.0-218.0","AIR4UQNPIMFCJ","img_art/9.jpg","0","","","","","","","","","","","","","","","","","","","","","","","","",""
"1271","","image-button-response","222","1294373","0.0-219.0","AIR4UQNPIMFCJ","img_art/9.jpg","0","","","","","","","","","","","","","","","","","","","","","","","","",""
"1114","","image-button-response","223","1295494","0.0-220.0-0.0","AIR4UQNPIMFCJ","img_art/9.jpg","2","","","","","","","","","","","","","","","","","","","","","","","","",""
"6950","","image-button-response","224","1302451","0.0-221.0-0.0","AIR4UQNPIMFCJ","img_art/9.jpg","4","","","","","","","","","","","","","","","","","","","","","","","","",""
"null","","html-keyboard-response","225","1303959","0.0-222.0","AIR4UQNPIMFCJ","<p style=""font-size: 48px;"">+</p>","","","","","null","allTrialResponses","1500","1","25","img_art/9.jpg","5","A tunnel.","Stephanie,Megan,Gabrielle,Sierra,Morgan,Sara","Someone sleeping in a cave. Dont like the scribble look.,-30,300,20","A troubled painter was influenced by anger and mad at the woman in the middle, color not bad,-32,200,20","looks like an imitation of a real piece of art, reclining lady,-1,160,20","it looks like a lady resting. it is soothing.,4,260,20","The mouth of an ugly beast.,-25,380,20","Spiral patterns are not my thing,-30,160,20","Stephanie","Someone sleeping in a cave. Dont like the scribble look.,-30,300,20","Gabrielle","looks like an imitation of a real piece of art, reclining lady,-1,160,20","Morgan","The mouth of an ugly beast.,-25,380,20","6"
"4679","","survey-text","226","1308661","0.0-223.0-0.0","AIR4UQNPIMFCJ","","","","{""Q0"":""table""}","","","","","","","","","","","","","","","","","","","","","","",""
"10359","","survey-text","227","1319026","0.0-224.0-0.0","AIR4UQNPIMFCJ","","","","{""Q0"":""Dirty window.""}","","","","","","","","","","","","","","","","","","","","","","",""
"3877","","image-slider-response","228","1322910","0.0-225.0","AIR4UQNPIMFCJ","","","","","-7","","","","","","","","","","","","","","","","","","","","","",""
"2458","","image-button-response","229","1327920","0.0-226.0","AIR4UQNPIMFCJ","img_art/13.jpg","0","","","","","","","","","","","","","","","","","","","","","","","","",""
"4766","","image-button-response","230","1332691","0.0-227.0","AIR4UQNPIMFCJ","img_art/13.jpg","3","","","","","","","","","","","","","","","","","","","","","","","","",""
"1167","","image-button-response","231","1333864","0.0-228.0-0.0","AIR4UQNPIMFCJ","img_art/13.jpg","5","","","","","","","","","","","","","","","","","","","","","","","","",""
"5098","","image-button-response","232","1338969","0.0-229.0-0.0","AIR4UQNPIMFCJ","img_art/13.jpg","0","","","","","","","","","","","","","","","","","","","","","","","","",""
"null","","html-keyboard-response","233","1339483","0.0-230.0","AIR4UQNPIMFCJ","<p style=""font-size: 48px;"">+</p>","","","","","null","allTrialResponses","500","1","26","img_art/13.jpg","-7","Dirty window.","Stephanie,Savannah,Gabrielle,Bailey,Morgan,Heather","Raindrops splashing on the window.,50,300,20","Lots of depth and character.,30,200,20","kind of like the pattern and colors but don't love it,13,160,20","Looks like an upclose dried set of water droplets. Boring.,-25,360,20","Seeing the world through different lenses.,15,380,20","rain in blue black and white,1,260,20","Bailey","Looks like an upclose dried set of water droplets. Boring.,-25,360,20","Heather","rain in blue black and white,1,260,20","Stephanie","Raindrops splashing on the window.,50,300,20","6"
"13567","","survey-text","234","1353061","0.0-231.0-0.0","AIR4UQNPIMFCJ","","","","{""Q0"":""Scraggly and messy.""}","","","","","","","","","","","","","","","","","","","","","","",""
"3538","","image-slider-response","235","1356606","0.0-232.0","AIR4UQNPIMFCJ","","","","","-15","","","","","","","","","","","","","","","","","","","","","",""
"2327","","image-button-response","236","1361612","0.0-233.0","AIR4UQNPIMFCJ","img_art/3.jpg","1","","","","","","","","","","","","","","","","","","","","","","","","",""
"885","","image-button-response","237","1362501","0.0-234.0","AIR4UQNPIMFCJ","img_art/3.jpg","1","","","","","","","","","","","","","","","","","","","","","","","","",""
"3844","","image-button-response","238","1366349","0.0-235.0-0.0","AIR4UQNPIMFCJ","img_art/3.jpg","3","","","","","","","","","","","","","","","","","","","","","","","","",""
"1402","","image-button-response","239","1367756","0.0-236.0-0.0","AIR4UQNPIMFCJ","img_art/3.jpg","5","","","","","","","","","","","","","","","","","","","","","","","","",""
"null","","html-keyboard-response","240","1368263","0.0-237.0","AIR4UQNPIMFCJ","<p style=""font-size: 48px;"">+</p>","","","","","null","allTrialResponses","500","1","27","img_art/3.jpg","-15","Scraggly and messy.","Stephanie,Alyssa,Shannon,Bailey,Kaitlyn,Heather","I think of an angry child,-50,300,20","Looks like someone spilled ketchup and forgot to clean it up,-30,160,20","I can't tell what this image is supposed to be it looks extremely ugly and color variety is boring.,-50,220,20","Just scribbles. People buy that?,-47,360,20","Too much red; very bland,-26,80,20","Blood splatter and one black spot.,1,260,20","Alyssa","Looks like someone spilled ketchup and forgot to clean it up,-30,160,20","Bailey","Just scribbles. People buy that?,-47,360,20","Heather","Blood splatter and one black spot.,1,260,20","6"
"15326","","survey-text","241","1383612","0.0-238.0-0.0","AIR4UQNPIMFCJ","","","","{""Q0"":""Cute spots. Subtle.""}","","","","","","","","","","","","","","","","","","","","","","",""
"4293","","image-slider-response","242","1387911","0.0-239.0","AIR4UQNPIMFCJ","","","","","8","","","","","","","","","","","","","","","","","","","","","",""
"null","","image-button-response","243","1392918","0.0-240.0","AIR4UQNPIMFCJ","img_art/14.jpg","null","","","","","","","","","","","","","","","","","","","","","","","","",""
"2157","","image-button-response","244","1395078","0.0-241.0","AIR4UQNPIMFCJ","img_art/14.jpg","1","","","","","","","","","","","","","","","","","","","","","","","","",""
"7016","","image-button-response","245","1402099","0.0-242.0-0.0","AIR4UQNPIMFCJ","img_art/14.jpg","3","","","","","","","","","","","","","","","","","","","","","","","","",""
"2712","","image-button-response","246","1404817","0.0-243.0-0.0","AIR4UQNPIMFCJ","img_art/14.jpg","0","","","","","","","","","","","","","","","","","","","","","","","","",""
"null","","html-keyboard-response","247","1406326","0.0-244.0","AIR4UQNPIMFCJ","<p style=""font-size: 48px;"">+</p>","","","","","null","allTrialResponses","1500","1","28","img_art/14.jpg","8","Cute spots. Subtle.","Brianna,Alyssa,Breanna,Bailey,Lindsey,Heather","It uses interesting techniques on this picture, but I have no feelings for or against.,1,20,20","Beautiful tree,the use of water colors makes it soothing to look at,37,160,20","Makes me feel good,30,380,20","Not quite the style I'd like, but it does have a certain air of emptiness.,12,360,20","Warm, positive, growth.,8,400,20","nice simple art piece,2,260,20","Alyssa","Beautiful tree,the use of water colors makes it soothing to look at,37,160,20","Bailey","Not quite the style I'd like, but it does have a certain air of emptiness.,12,360,20","Brianna","It uses interesting techniques on this picture, but I have no feelings for or against.,1,20,20","6"
"12085","","survey-text","248","1418433","0.0-245.0-0.0","AIR4UQNPIMFCJ","","","","{""Q0"":""Something going on.""}","","","","","","","","","","","","","","","","","","","","","","",""
"3421","","image-slider-response","249","1421862","0.0-246.0","AIR4UQNPIMFCJ","","","","","3","","","","","","","","","","","","","","","","","","","","","",""
"3947","","image-button-response","250","1426869","0.0-247.0","AIR4UQNPIMFCJ","img_art/28.jpg","1","","","","","","","","","","","","","","","","","","","","","","","","",""
"2305","","image-button-response","251","1429179","0.0-248.0","AIR4UQNPIMFCJ","img_art/28.jpg","1","","","","","","","","","","","","","","","","","","","","","","","","",""
"2862","","image-button-response","252","1432046","0.0-249.0-0.0","AIR4UQNPIMFCJ","img_art/28.jpg","3","","","","","","","","","","","","","","","","","","","","","","","","",""
"2176","","image-button-response","253","1434229","0.0-250.0-0.0","AIR4UQNPIMFCJ","img_art/28.jpg","4","","","","","","","","","","","","","","","","","","","","","","","","",""
"null","","html-keyboard-response","254","1435238","0.0-251.0","AIR4UQNPIMFCJ","<p style=""font-size: 48px;"">+</p>","","","","","null","allTrialResponses","1000","1","29","img_art/28.jpg","3","Something going on.","Brianna,Alyssa,Isabella,Bailey,Angelica,Allison","My grandparents would like this, maybe my great grandparents. It's not my style.,-30,20,20","Not a fan of the bleak and dreary colors,-10,160,20","This is also something I would see in a serious but safe environment,14,280,20","Has an air of darkness to it, but no real substance besides the mouse-like thing.,-38,360,20","This is very ugly with poor colors.,-23,280,20","Dislike the colors.,-20,140,20","Alyssa","Not a fan of the bleak and dreary colors,-10,160,20","Bailey","Has an air of darkness to it, but no real substance besides the mouse-like thing.,-38,360,20","Angelica","This is very ugly with poor colors.,-23,280,20","6"
"16334","","survey-text","255","1451594","0.0-252.0-0.0","AIR4UQNPIMFCJ","","","","{""Q0"":""Creepy black spots.""}","","","","","","","","","","","","","","","","","","","","","","",""
"3221","","image-slider-response","256","1454822","0.0-253.0","AIR4UQNPIMFCJ","","","","","-9","","","","","","","","","","","","","","","","","","","","","",""
"null","","image-button-response","257","1459837","0.0-254.0","AIR4UQNPIMFCJ","img_art/15.jpg","null","","","","","","","","","","","","","","","","","","","","","","","","",""
"2086","","image-button-response","258","1461925","0.0-255.0","AIR4UQNPIMFCJ","img_art/15.jpg","2","","","","","","","","","","","","","","","","","","","","","","","","",""
"6209","","image-button-response","259","1468140","0.0-256.0-0.0","AIR4UQNPIMFCJ","img_art/15.jpg","4","","","","","","","","","","","","","","","","","","","","","","","","",""
"4465","","image-button-response","260","1472610","0.0-257.0-0.0","AIR4UQNPIMFCJ","img_art/15.jpg","1","","","","","","","","","","","","","","","","","","","","","","","","",""
"null","","html-keyboard-response","261","1473124","0.0-258.0","AIR4UQNPIMFCJ","<p style=""font-size: 48px;"">+</p>","","","","","null","allTrialResponses","500","1","30","img_art/15.jpg","-9","Creepy black spots.","Margaret,Alyssa,Catherine,Bailey,Angelica,Erika","i like the pop of blue within all the black,8,100,20","Uninteresting and too much black,-30,160,20","ants on the ground playing with bubble gum. They may be thinking of how they can use it to build something,-30,160,20","This is passable, but personally it just has nothing I'd like to see.,-14,360,20","This looks odd and was not well executed.,-3,280,20","I like the dense patterns and the splashes  of blue,38,100,20","Catherine","ants on the ground playing with bubble gum. They may be thinking of how they can use it to build something,-30,160,20","Angelica","This looks odd and was not well executed.,-3,280,20","Alyssa","Uninteresting and too much black,-30,160,20","6"
"5356","","image-button-response_instructions","262","1478500","0.0-259.0","AIR4UQNPIMFCJ","","0","instructions","","","","","","","","","","","","","","","","","","","","","","","",""
