"rt","url","trial_type","trial_index","time_elapsed","internal_node_id","participant_id","stimulus","button_pressed","Name","responses","response","key_press","variableName","fixationTime","condition","trial","photo","subjectRating","subjectResponse","agentsNames","agent_1_Response","agent_2_Response","agent_3_Response","agent_4_Response","agent_5_Response","agent_6_Response","kept_1_name","kept_1_response","kept_2_name","kept_2_response","kept_3_name","kept_3_response","errorCounter"
"7989","external_page_harvard.html","external-html","0","8149","0.0-0.0","AJQ71YIGY01HZ","","","","","","","","","","","","","","","","","","","","","","","","","","",""
"1344","","image-button-response","1","9495","0.0-1.0","AJQ71YIGY01HZ","","1","","","","","","","","","","","","","","","","","","","","","","","","",""
"1379","","image-button-response","2","10883","0.0-2.0-0.0","AJQ71YIGY01HZ","","1","phone","","","","","","","","","","","","","","","","","","","","","","","",""
"10295","","survey-text","3","21181","0.0-3.0-0.0","AJQ71YIGY01HZ","","","","{""Q0"":""AJQ71YIGY01HZ""}","","","","","","","","","","","","","","","","","","","","","","",""
"2327","","image-button-response_instructions","4","23511","0.0-4.0","AJQ71YIGY01HZ","","0","instructions","","","","","","","","","","","","","","","","","","","","","","","",""
"13628","","image-button-response_instructions","5","37143","0.0-5.0","AJQ71YIGY01HZ","img_art/ins/popularity/ins1.png","0","instructions","","","","","","","","","","","","","","","","","","","","","","","",""
"829","","image-button-response_instructions","6","37975","0.0-6.0","AJQ71YIGY01HZ","img_art/ins/popularity/ins2.png","0","instructions","","","","","","","","","","","","","","","","","","","","","","","",""
"553","","image-button-response_instructions","7","38530","0.0-7.0","AJQ71YIGY01HZ","img_art/ins/popularity/ins2Extreme.png","0","instructions","","","","","","","","","","","","","","","","","","","","","","","",""
"474","","image-button-response_instructions","8","39006","0.0-8.0","AJQ71YIGY01HZ","img_art/ins/popularity/ins3KEEPpop.PNG","0","instructions","","","","","","","","","","","","","","","","","","","","","","","",""
"871","","image-button-response_instructions","9","39879","0.0-9.0","AJQ71YIGY01HZ","img_art/ins/popularity/ins3ANamepop.PNG","0","instructions","","","","","","","","","","","","","","","","","","","","","","","",""
"741","","image-button-response_instructions","10","40622","0.0-10.0","AJQ71YIGY01HZ","img_art/ins/popularity/ins3ARatingpop.png","0","instructions","","","","","","","","","","","","","","","","","","","","","","","",""
"761","","image-button-response_instructions","11","41386","0.0-11.0","AJQ71YIGY01HZ","img_art/ins/popularity/ins3ATextpop.png","0","instructions","","","","","","","","","","","","","","","","","","","","","","","",""
"2735","","image-button-response_instructions","12","44123","0.0-12.0","AJQ71YIGY01HZ","img_art/ins/popularity/ins3ALikespop.png","0","instructions","","","","","","","","","","","","","","","","","","","","","","","",""
"603","","image-button-response_instructions","13","44728","0.0-13.0","AJQ71YIGY01HZ","img_art/ins/popularity/ins3KEEPpop.PNG","0","instructions","","","","","","","","","","","","","","","","","","","","","","","",""
"2050","","image-button-response_instructions","14","46780","0.0-14.0","AJQ71YIGY01HZ","img_art/ins/popularity/ins3_5RED.png","0","instructions","","","","","","","","","","","","","","","","","","","","","","","",""
"1099","","image-button-response_instructions","15","47882","0.0-15.0","AJQ71YIGY01HZ","img_art/ins/popularity/ins3KEEPpop.PNG","0","instructions","","","","","","","","","","","","","","","","","","","","","","","",""
"625","","image-button-response_instructions","16","48509","0.0-16.0","AJQ71YIGY01HZ","img_art/ins/popularity/ins4KEEPpop.PNG","0","instructions","","","","","","","","","","","","","","","","","","","","","","","",""
"990","","image-button-response_instructions","17","49501","0.0-17.0","AJQ71YIGY01HZ","img_art/ins/popularity/ins5KEEPpop.PNG","0","instructions","","","","","","","","","","","","","","","","","","","","","","","",""
"1108","","image-button-response_instructions","18","50612","0.0-18.0","AJQ71YIGY01HZ","","0","instructions","","","","","","","","","","","","","","","","","","","","","","","",""
"4504","","survey-text","19","55156","0.0-19.0-0.0","AJQ71YIGY01HZ","","","","{""Q0"":""but""}","","","","","","","","","","","","","","","","","","","","","","",""
"86214","","survey-text","20","141375","0.0-20.0-0.0","AJQ71YIGY01HZ","","","","{""Q0"":""I don't really care for the colors.""}","","","","","","","","","","","","","","","","","","","","","","",""
"19536.300000000047","","image-slider-response","21","160915","0.0-21.0","AJQ71YIGY01HZ","","","","","-2","","","","","","","","","","","","","","","","","","","","","",""
"null","","image-button-response","22","165921","0.0-22.0","AJQ71YIGY01HZ","img_art/ins/1.jpg","null","","","","","","","","","","","","","","","","","","","","","","","","",""
"21145","","image-button-response","23","187070","0.0-23.0","AJQ71YIGY01HZ","img_art/ins/1.jpg","5","","","","","","","","","","","","","","","","","","","","","","","","",""
"1825","","image-button-response","24","188900","0.0-24.0-0.0","AJQ71YIGY01HZ","img_art/ins/1.jpg","5","","","","","","","","","","","","","","","","","","","","","","","","",""
"9362","","image-button-response","25","202522","0.0-24.1-0.1","AJQ71YIGY01HZ","img_art/ins/1.jpg","1","","","","","","","","","","","","","","","","","","","","","","","","",""
"8455","","image-button-response","26","210985","0.0-25.0-0.0","AJQ71YIGY01HZ","img_art/ins/1.jpg","4","","","","","","","","","","","","","","","","","","","","","","","","",""
"null","","html-keyboard-response","27","211489","0.0-26.0","AJQ71YIGY01HZ","<p style=""font-size: 48px;"">+</p>","","","","","null","allTrialResponses","500","1","-2","img_art/ins/1.jpg","-2","I don't really care for the colors.","Allison,Ashley,Beth,Dora,Erika,Jen","looks like a lot of things going on in the mist,20,20,20","I just don't get why these type of art would be popular,-32,40,20","This color reminds me of poo,-46,60,20","looks like what my niece in 3rd grade did this afternoon,-50,80,20","I like the sophisticated brushwork,40,100,20","It reminds me of a candy land dream I had,36,120,20","Jen","It reminds me of a candy land dream I had,36,120,20","Ashley","I just don't get why these type of art would be popular,-32,40,20","Erika","I like the sophisticated brushwork,40,100,20","2"
"28071","","survey-text","28","239566","0.0-27.0-0.0","AJQ71YIGY01HZ","","","","{""Q0"":""It looks weird to me, like a crumpled up piece of trash.""}","","","","","","","","","","","","","","","","","","","","","","",""
"3111.3000000000466","","image-slider-response","29","242681","0.0-28.0","AJQ71YIGY01HZ","","","","","-26","","","","","","","","","","","","","","","","","","","","","",""
"null","","image-button-response","30","247686","0.0-29.0","AJQ71YIGY01HZ","img_art/ins/2.jpg","null","","","","","","","","","","","","","","","","","","","","","","","","",""
"4323","","image-button-response","31","252011","0.0-30.0","AJQ71YIGY01HZ","img_art/ins/2.jpg","4","","","","","","","","","","","","","","","","","","","","","","","","",""
"36166","","image-button-response","32","288180","0.0-31.0-0.0","AJQ71YIGY01HZ","img_art/ins/2.jpg","1","","","","","","","","","","","","","","","","","","","","","","","","",""
"5823","","image-button-response","33","294008","0.0-32.0-0.0","AJQ71YIGY01HZ","img_art/ins/2.jpg","3","","","","","","","","","","","","","","","","","","","","","","","","",""
"null","","html-keyboard-response","34","295512","0.0-33.0","AJQ71YIGY01HZ","<p style=""font-size: 48px;"">+</p>","","","","","null","allTrialResponses","1500","1","-1","img_art/ins/2.jpg","-26","It looks weird to me, like a crumpled up piece of trash.","Kara,Ashley,Katie,Jenna,Erika,Jen","I like the blocks of color arrangements,30,160,20","Idk, it is just annoying,-32,40,20","too much color!,-28,180,20","One of my pet peevs,-48,140,20","I would never be able to compose a sophisticated pallete like this,48,100,20","It reminds me of a fireplace,36,120,20","Erika","I would never be able to compose a sophisticated pallete like this,48,100,20","Ashley","Idk, it is just annoying,-32,40,20","Jenna","One of my pet peevs,-48,140,20","2"
"8860","","survey-text","35","304378","0.0-34.0-0.0","AJQ71YIGY01HZ","","","","{""Q0"":""It looks like ice, I kind of like this one.""}","","","","","","","","","","","","","","","","","","","","","","",""
"3915.600000000093","","image-slider-response","36","308298","0.0-35.0","AJQ71YIGY01HZ","","","","","33","","","","","","","","","","","","","","","","","","","","","",""
"2571","","image-button-response","37","313303","0.0-36.0","AJQ71YIGY01HZ","img_art/ins/3.jpg","0","","","","","","","","","","","","","","","","","","","","","","","","",""
"1219","","image-button-response","38","314526","0.0-37.0","AJQ71YIGY01HZ","img_art/ins/3.jpg","0","","","","","","","","","","","","","","","","","","","","","","","","",""
"1436","","image-button-response","39","315966","0.0-38.0-0.0","AJQ71YIGY01HZ","img_art/ins/3.jpg","0","","","","","","","","","","","","","","","","","","","","","","","","",""
"4116","","image-button-response","40","322684","0.0-38.1-0.1","AJQ71YIGY01HZ","img_art/ins/3.jpg","4","","","","","","","","","","","","","","","","","","","","","","","","",""
"3509","","image-button-response","41","326197","0.0-39.0-0.0","AJQ71YIGY01HZ","img_art/ins/3.jpg","2","","","","","","","","","","","","","","","","","","","","","","","","",""
"null","","html-keyboard-response","42","327200","0.0-40.0","AJQ71YIGY01HZ","<p style=""font-size: 48px;"">+</p>","","","","","null","allTrialResponses","1000","1","0","img_art/ins/3.jpg","33","It looks like ice, I kind of like this one.","Mary,Ashley,Leslie,Jenna,Erika,Rose","I like the overlapping of brushes,41,220,20","It looks like a playground for bats,-36,40,20","It's an alright work,15,200,20","looks like a murder room,-35,140,20","I feel connected to the artist,40,100,20","My daily routine, it's depressing,-20,240,20","Mary","I like the overlapping of brushes,41,220,20","Erika","I feel connected to the artist,40,100,20","Leslie","It's an alright work,15,200,20","4"
"4857","","image-button-response_instructions","43","332070","0.0-41.0","AJQ71YIGY01HZ","","0","instructions","","","","","","","","","","","","","","","","","","","","","","","",""
"31700","","survey-likert","44","363774","0.0-42.0-0.0","AJQ71YIGY01HZ","","","","{""Q0"":"""",""Q1"":0,""Q2"":1}","","","","","","","","","","","","","","","","","","","","","","",""
"5526","","survey-text","45","369309","0.0-43.0-0.0","AJQ71YIGY01HZ","","","","{""Q0"":""rock""}","","","","","","","","","","","","","","","","","","","","","","",""
"13296","","survey-text","46","382608","0.0-44.0-0.0","AJQ71YIGY01HZ","","","","{""Q0"":""It looks like a wheelchair, I hate it.""}","","","","","","","","","","","","","","","","","","","","","","",""
"5680.199999999953","","image-slider-response","47","388292","0.0-45.0","AJQ71YIGY01HZ","","","","","-24","","","","","","","","","","","","","","","","","","","","","",""
"null","","image-button-response","48","393328","0.0-46.0","AJQ71YIGY01HZ","img_art/28.jpg","null","","","","","","","","","","","","","","","","","","","","","","","","",""
"11695","","image-button-response","49","405027","0.0-47.0","AJQ71YIGY01HZ","img_art/28.jpg","0","","","","","","","","","","","","","","","","","","","","","","","","",""
"1529","","image-button-response","50","406562","0.0-48.0-0.0","AJQ71YIGY01HZ","img_art/28.jpg","1","","","","","","","","","","","","","","","","","","","","","","","","",""
"1891","","image-button-response","51","408462","0.0-49.0-0.0","AJQ71YIGY01HZ","img_art/28.jpg","4","","","","","","","","","","","","","","","","","","","","","","","","",""
"null","","html-keyboard-response","52","409965","0.0-50.0","AJQ71YIGY01HZ","<p style=""font-size: 48px;"">+</p>","","","","","null","allTrialResponses","1500","1","1","img_art/28.jpg","-24","It looks like a wheelchair, I hate it.","Katherine,Emma,Sophia,Angelica,Claire,Mikayla","Eh it's just kinda brown and muddy and not very nice looking,-18,120,20","Don't love the colors,-10,60,20","I think this may have to do with humpty dumpty?,-7,280,20","This is very ugly with poor colors.,-23,280,20","not a fan of the colors or strokes used,-27,260,20","It gives me weird vibes.,-25,300,20","Katherine","Eh it's just kinda brown and muddy and not very nice looking,-18,120,20","Emma","Don't love the colors,-10,60,20","Claire","not a fan of the colors or strokes used,-27,260,20","4"
"40664","","survey-text","53","450634","0.0-51.0-0.0","AJQ71YIGY01HZ","","","","{""Q0"":""It looks like a child glued some stuff together.""}","","","","","","","","","","","","","","","","","","","","","","",""
"4414.699999999953","","image-slider-response","54","455052","0.0-52.0","AJQ71YIGY01HZ","","","","","-8","","","","","","","","","","","","","","","","","","","","","",""
"null","","image-button-response","55","460056","0.0-53.0","AJQ71YIGY01HZ","img_art/16.jpg","null","","","","","","","","","","","","","","","","","","","","","","","","",""
"6242","","image-button-response","56","466301","0.0-54.0","AJQ71YIGY01HZ","img_art/16.jpg","2","","","","","","","","","","","","","","","","","","","","","","","","",""
"880","","image-button-response","57","467184","0.0-55.0-0.0","AJQ71YIGY01HZ","img_art/16.jpg","1","","","","","","","","","","","","","","","","","","","","","","","","",""
"781","","image-button-response","58","467969","0.0-56.0-0.0","AJQ71YIGY01HZ","img_art/16.jpg","0","","","","","","","","","","","","","","","","","","","","","","","","",""
"null","","html-keyboard-response","59","468471","0.0-57.0","AJQ71YIGY01HZ","<p style=""font-size: 48px;"">+</p>","","","","","null","allTrialResponses","500","1","2","img_art/16.jpg","-8","It looks like a child glued some stuff together.","Katherine,Emma,Jessica,Kelsey,Claire,Mackenzie","Super weird. Id like to know more about it,24,120,20","Kind of creepyyyyyy,-41,60,20","Cool but the bear creeps me out?,8,400,20","its disturbing! what the heck,-27,240,20","the materials used are interesting,30,260,20","I like the mixture of images,23,20,20","Jessica","Cool but the bear creeps me out?,8,400,20","Emma","Kind of creepyyyyyy,-41,60,20","Katherine","Super weird. Id like to know more about it,24,120,20","4"
"12714","","survey-text","60","481193","0.0-58.0-0.0","AJQ71YIGY01HZ","","","","{""Q0"":""Looks like raindrops on a window to me, nice.""}","","","","","","","","","","","","","","","","","","","","","","",""
"9354.600000000093","","image-slider-response","61","490551","0.0-59.0","AJQ71YIGY01HZ","","","","","39","","","","","","","","","","","","","","","","","","","","","",""
"null","","image-button-response","62","495556","0.0-60.0","AJQ71YIGY01HZ","img_art/13.jpg","null","","","","","","","","","","","","","","","","","","","","","","","","",""
"7108","","image-button-response","63","502668","0.0-61.0","AJQ71YIGY01HZ","img_art/13.jpg","5","","","","","","","","","","","","","","","","","","","","","","","","",""
"7795","","image-button-response","64","510471","0.0-62.0-0.0","AJQ71YIGY01HZ","img_art/13.jpg","1","","","","","","","","","","","","","","","","","","","","","","","","",""
"928","","image-button-response","65","511405","0.0-63.0-0.0","AJQ71YIGY01HZ","img_art/13.jpg","0","","","","","","","","","","","","","","","","","","","","","","","","",""
"null","","html-keyboard-response","66","512907","0.0-64.0","AJQ71YIGY01HZ","<p style=""font-size: 48px;"">+</p>","","","","","null","allTrialResponses","1500","1","3","img_art/13.jpg","39","Looks like raindrops on a window to me, nice.","Katherine,Emma,Jessica,Sierra,Madeline,Briana","Best color combo. i love this.,50,120,20","It's pretty ...........,41,60,20","The paint splatter idea is kind of overused but I like how it brings the piece together,16,400,20","the blues are soothing but the splatters are too much,-3,260,20","Really love the colors,11,40,20","The blue colors are very calming. Reminds me of water,33,400,20","Briana","The blue colors are very calming. Reminds me of water,33,400,20","Emma","It's pretty ...........,41,60,20","Katherine","Best color combo. i love this.,50,120,20","4"
"12112","","survey-text","67","525027","0.0-65.0-0.0","AJQ71YIGY01HZ","","","","{""Q0"":""Looks like a dust broom, it's awful.""}","","","","","","","","","","","","","","","","","","","","","","",""
"3663.100000000093","","image-slider-response","68","528693","0.0-66.0","AJQ71YIGY01HZ","","","","","-44","","","","","","","","","","","","","","","","","","","","","",""
"1266","","image-button-response","69","533699","0.0-67.0","AJQ71YIGY01HZ","img_art/5.jpg","1","","","","","","","","","","","","","","","","","","","","","","","","",""
"4183","","image-button-response","70","537887","0.0-68.0","AJQ71YIGY01HZ","img_art/5.jpg","4","","","","","","","","","","","","","","","","","","","","","","","","",""
"6289","","image-button-response","71","544180","0.0-69.0-0.0","AJQ71YIGY01HZ","img_art/5.jpg","2","","","","","","","","","","","","","","","","","","","","","","","","",""
"670","","image-button-response","72","544854","0.0-70.0-0.0","AJQ71YIGY01HZ","img_art/5.jpg","1","","","","","","","","","","","","","","","","","","","","","","","","",""
"null","","html-keyboard-response","73","545357","0.0-71.0","AJQ71YIGY01HZ","<p style=""font-size: 48px;"">+</p>","","","","","null","allTrialResponses","500","1","4","img_art/5.jpg","-44","Looks like a dust broom, it's awful.","Katherine,Emma,Abigail,Monica,Gabriela,Briana","Don't love don't hate,8,120,20","Kind of ugly ....,-21,60,20","Reminds me of a broken umbrella,-9,20,20","I like how simple it is and the pink brushstrokes are nice,27,360,20","I am confused as to what this is supposed to be,6,140,20","It looks like a poorly drawn pear,17,400,20","Gabriela","I am confused as to what this is supposed to be,6,140,20","Abigail","Reminds me of a broken umbrella,-9,20,20","Emma","Kind of ugly ....,-21,60,20","4"
"17990","","survey-text","74","563353","0.0-72.0-0.0","AJQ71YIGY01HZ","","","","{""Q0"":""This one is nice, reminds me of the city in the 1900s.""}","","","","","","","","","","","","","","","","","","","","","","",""
"4646.300000000047","","image-slider-response","75","568003","0.0-73.0","AJQ71YIGY01HZ","","","","","42","","","","","","","","","","","","","","","","","","","","","",""
"null","","image-button-response","76","573007","0.0-74.0","AJQ71YIGY01HZ","img_art/11.jpg","null","","","","","","","","","","","","","","","","","","","","","","","","",""
"4400","","image-button-response","77","577410","0.0-75.0","AJQ71YIGY01HZ","img_art/11.jpg","0","","","","","","","","","","","","","","","","","","","","","","","","",""
"18420","","image-button-response","78","595834","0.0-76.0-0.0","AJQ71YIGY01HZ","img_art/11.jpg","2","","","","","","","","","","","","","","","","","","","","","","","","",""
"3994","","image-button-response","79","599834","0.0-77.0-0.0","AJQ71YIGY01HZ","img_art/11.jpg","1","","","","","","","","","","","","","","","","","","","","","","","","",""
"null","","html-keyboard-response","80","600836","0.0-78.0","AJQ71YIGY01HZ","<p style=""font-size: 48px;"">+</p>","","","","","null","allTrialResponses","1000","1","5","img_art/11.jpg","42","This one is nice, reminds me of the city in the 1900s.","Jenna,Emma,Abigail,Alexandria,Gabriela,Marissa","makes me think of city highways & bridges on a rainy, foggy day. I like the melancholy it evokes.,43,360,20","Pretty, interesting, feels like a city, feels like home,50,60,20","Rainy highways in RI,20,20,20","it reminds me of music,43,80,20","This photo makes me feel bleak,-16,140,20","I dislike how dark this is,-21,160,20","Jenna","makes me think of city highways & bridges on a rainy, foggy day. I like the melancholy it evokes.,43,360,20","Abigail","Rainy highways in RI,20,20,20","Emma","Pretty, interesting, feels like a city, feels like home,50,60,20","4"
"2736","","survey-text","81","603585","0.0-79.0-0.0","AJQ71YIGY01HZ","","","","{""Q0"":""sky""}","","","","","","","","","","","","","","","","","","","","","","",""
"9917","","survey-text","82","613505","0.0-80.0-0.0","AJQ71YIGY01HZ","","","","{""Q0"":""Looks like a battlefield to me, it's ok.""}","","","","","","","","","","","","","","","","","","","","","","",""
"2854.5","","image-slider-response","83","616363","0.0-81.0","AJQ71YIGY01HZ","","","","","6","","","","","","","","","","","","","","","","","","","","","",""
"3082","","image-button-response","84","621367","0.0-82.0","AJQ71YIGY01HZ","img_art/21.jpg","1","","","","","","","","","","","","","","","","","","","","","","","","",""
"1311","","image-button-response","85","622683","0.0-83.0","AJQ71YIGY01HZ","img_art/21.jpg","2","","","","","","","","","","","","","","","","","","","","","","","","",""
"751","","image-button-response","86","623437","0.0-84.0-0.0","AJQ71YIGY01HZ","img_art/21.jpg","0","","","","","","","","","","","","","","","","","","","","","","","","",""
"4135","","image-button-response","87","627577","0.0-85.0-0.0","AJQ71YIGY01HZ","img_art/21.jpg","1","","","","","","","","","","","","","","","","","","","","","","","","",""
"null","","html-keyboard-response","88","629080","0.0-86.0","AJQ71YIGY01HZ","<p style=""font-size: 48px;"">+</p>","","","","","null","allTrialResponses","1500","1","6","img_art/21.jpg","6","Looks like a battlefield to me, it's ok.","Jenna,Emma,Abigail,Heather,Emily,Molly","beautiful. reminds me of a storm brewing over sea. i love the white dots.,45,360,20","Pretty, good colors,30,60,20","Beautiful colors, remind me of my yoga studio,50,20,20","The color spectrum is just beautiful.,32,260,20","What's the point?,-30,40,20","Looks like a war. Many things happening on the painting, really enjoy it.,30,340,20","Abigail","Beautiful colors, remind me of my yoga studio,50,20,20","Jenna","beautiful. reminds me of a storm brewing over sea. i love the white dots.,45,360,20","Emma","Pretty, good colors,30,60,20","4"
"11160","","survey-text","89","640245","0.0-87.0-0.0","AJQ71YIGY01HZ","","","","{""Q0"":""Reminds me of a quilt, very unique and comfortable.""}","","","","","","","","","","","","","","","","","","","","","","",""
"6388.800000000047","","image-slider-response","90","646637","0.0-88.0","AJQ71YIGY01HZ","","","","","24","","","","","","","","","","","","","","","","","","","","","",""
"null","","image-button-response","91","651641","0.0-89.0","AJQ71YIGY01HZ","img_art/12.jpg","null","","","","","","","","","","","","","","","","","","","","","","","","",""
"6384","","image-button-response","92","658028","0.0-90.0","AJQ71YIGY01HZ","img_art/12.jpg","5","","","","","","","","","","","","","","","","","","","","","","","","",""
"9263","","image-button-response","93","667295","0.0-91.0-0.0","AJQ71YIGY01HZ","img_art/12.jpg","1","","","","","","","","","","","","","","","","","","","","","","","","",""
"2130","","image-button-response","94","669428","0.0-92.0-0.0","AJQ71YIGY01HZ","img_art/12.jpg","0","","","","","","","","","","","","","","","","","","","","","","","","",""
"null","","html-keyboard-response","95","670931","0.0-93.0","AJQ71YIGY01HZ","<p style=""font-size: 48px;"">+</p>","","","","","null","allTrialResponses","1500","1","7","img_art/12.jpg","24","Reminds me of a quilt, very unique and comfortable.","Jenna,Emma,Abigail,Katelyn,Chloe,Crystal","interesting, but feels like someone cut up a picture and pasted it together wrong. want to see the original,15,360,20","Pretty but not a huge fan of the colors,20,60,20","Made me uncomfortable, reminded me of the 90s,-9,20,20","Just confuses me overall,-11,100,20","Nice hallway art for a hotel.,21,220,20","I like the sectioned nature of the squares and curves. Not my favorite but still a good one.,27,300,20","Crystal","I like the sectioned nature of the squares and curves. Not my favorite but still a good one.,27,300,20","Emma","Pretty but not a huge fan of the colors,20,60,20","Jenna","interesting, but feels like someone cut up a picture and pasted it together wrong. want to see the original,15,360,20","4"
"18568","","survey-text","96","689505","0.0-94.0-0.0","AJQ71YIGY01HZ","","","","{""Q0"":""Looks like someone did an oops and just said forget it.""}","","","","","","","","","","","","","","","","","","","","","","",""
"2279.6999999999534","","image-slider-response","97","691788","0.0-95.0","AJQ71YIGY01HZ","","","","","-27","","","","","","","","","","","","","","","","","","","","","",""
"3691","","image-button-response","98","696793","0.0-96.0","AJQ71YIGY01HZ","img_art/29.jpg","1","","","","","","","","","","","","","","","","","","","","","","","","",""
"2034","","image-button-response","99","698831","0.0-97.0","AJQ71YIGY01HZ","img_art/29.jpg","1","","","","","","","","","","","","","","","","","","","","","","","","",""
"3520","","image-button-response","100","702355","0.0-98.0-0.0","AJQ71YIGY01HZ","img_art/29.jpg","2","","","","","","","","","","","","","","","","","","","","","","","","",""
"2564","","image-button-response","101","704923","0.0-99.0-0.0","AJQ71YIGY01HZ","img_art/29.jpg","4","","","","","","","","","","","","","","","","","","","","","","","","",""
"null","","html-keyboard-response","102","705426","0.0-100.0","AJQ71YIGY01HZ","<p style=""font-size: 48px;"">+</p>","","","","","null","allTrialResponses","500","1","8","img_art/29.jpg","-27","Looks like someone did an oops and just said forget it.","Jenna,Emma,Erin,Dominique,Jennifer,Crystal","risks well taken. the brush is hilarious. feels like an artist's frustration, which is relatable.,50,360,20","Feels messy, stressful,-22,60,20","Red X is scary, like the bricks,7,120,20","Another great work of art and very conversational piece,33,400,20","Very interesting composition,41,380,20","Reminiscent of Jackson Pollock with a hint of abstract structure with the bordering.,32,300,20","Emma","Feels messy, stressful,-22,60,20","Erin","Red X is scary, like the bricks,7,120,20","Jennifer","Very interesting composition,41,380,20","4"
"11536","","survey-text","103","716973","0.0-101.0-0.0","AJQ71YIGY01HZ","","","","{""Q0"":""Very intersting. Reminds me of an ethereal zombie.""}","","","","","","","","","","","","","","","","","","","","","","",""
"3206","","image-slider-response","104","720183","0.0-102.0","AJQ71YIGY01HZ","","","","","32","","","","","","","","","","","","","","","","","","","","","",""
"1842","","image-button-response","105","725187","0.0-103.0","AJQ71YIGY01HZ","img_art/25.jpg","1","","","","","","","","","","","","","","","","","","","","","","","","",""
"1044","","image-button-response","106","726234","0.0-104.0","AJQ71YIGY01HZ","img_art/25.jpg","1","","","","","","","","","","","","","","","","","","","","","","","","",""
"2483","","image-button-response","107","728720","0.0-105.0-0.0","AJQ71YIGY01HZ","img_art/25.jpg","4","","","","","","","","","","","","","","","","","","","","","","","","",""
"2035","","image-button-response","108","730762","0.0-106.0-0.0","AJQ71YIGY01HZ","img_art/25.jpg","5","","","","","","","","","","","","","","","","","","","","","","","","",""
"null","","html-keyboard-response","109","731264","0.0-107.0","AJQ71YIGY01HZ","<p style=""font-size: 48px;"">+</p>","","","","","null","allTrialResponses","500","1","9","img_art/25.jpg","32","Very intersting. Reminds me of an ethereal zombie.","Jacqueline,Emma,Erin,Caitlin,Jennifer,Michelle","Not particularly interesting for me. The green color is strange mixed with this.,-11,300,20","Like the colors and the figure,30,60,20","Looks like glow in the dark halloween decoration,-38,120,20","Wish I was that thin.,-5,80,20","Spooky, but in a good way. I like the green and black color palette.,42,380,20","I can get behind this but only because I like the green. it reminds me of a graveyard,11,280,20","Emma","Like the colors and the figure,30,60,20","Jennifer","Spooky, but in a good way. I like the green and black color palette.,42,380,20","Michelle","I can get behind this but only because I like the green. it reminds me of a graveyard,11,280,20","4"
"13095","","survey-text","110","744367","0.0-108.0-0.0","AJQ71YIGY01HZ","","","","{""Q0"":""Looks like someone blowing down a city, it's nice.""}","","","","","","","","","","","","","","","","","","","","","","",""
"2406.899999999907","","image-slider-response","111","746777","0.0-109.0","AJQ71YIGY01HZ","","","","","14","","","","","","","","","","","","","","","","","","","","","",""
"null","","image-button-response","112","751780","0.0-110.0","AJQ71YIGY01HZ","img_art/8.jpg","null","","","","","","","","","","","","","","","","","","","","","","","","",""
"201","","image-button-response","113","751985","0.0-111.0","AJQ71YIGY01HZ","img_art/8.jpg","3","","","","","","","","","","","","","","","","","","","","","","","","",""
"3487","","image-button-response","114","755477","0.0-112.0-0.0","AJQ71YIGY01HZ","img_art/8.jpg","2","","","","","","","","","","","","","","","","","","","","","","","","",""
"4398","","image-button-response","115","759879","0.0-113.0-0.0","AJQ71YIGY01HZ","img_art/8.jpg","0","","","","","","","","","","","","","","","","","","","","","","","","",""
"null","","html-keyboard-response","116","760881","0.0-114.0","AJQ71YIGY01HZ","<p style=""font-size: 48px;"">+</p>","","","","","null","allTrialResponses","1000","1","10","img_art/8.jpg","14","Looks like someone blowing down a city, it's nice.","Sara,Emma,Shannon,Lindsey,Jennifer,Michelle","Very interesting use of blocks,21,160,20","Love the colors & block-style,50,60,20","I like that it looks like a city and the way the shapes and colors are put together,40,220,20","Pleasant colors, lots of interest. Not sure what's going on but I like it.,20,400,20","Not my favorite but has an interesting concept,32,380,20","I appreciate the complexity of this piece but it's too cubist for me,3,280,20","Lindsey","Pleasant colors, lots of interest. Not sure what's going on but I like it.,20,400,20","Shannon","I like that it looks like a city and the way the shapes and colors are put together,40,220,20","Sara","Very interesting use of blocks,21,160,20","4"
"3638","","survey-text","117","764534","0.0-115.0-0.0","AJQ71YIGY01HZ","","","","{""Q0"":""our""}","","","","","","","","","","","","","","","","","","","","","","",""
"41485","","survey-text","118","806022","0.0-116.0-0.0","AJQ71YIGY01HZ","","","","{""Q0"":""Looks like a normal walmart poster. ""}","","","","","","","","","","","","","","","","","","","","","","",""
"8704.199999999953","","image-slider-response","119","814729","0.0-117.0","AJQ71YIGY01HZ","","","","","-38","","","","","","","","","","","","","","","","","","","","","",""
"null","","image-button-response","120","820519","0.0-118.0","AJQ71YIGY01HZ","img_art/26.jpg","null","","","","","","","","","","","","","","","","","","","","","","","","",""
"101876","","image-button-response","121","922401","0.0-119.0","AJQ71YIGY01HZ","img_art/26.jpg","4","","","","","","","","","","","","","","","","","","","","","","","","",""
"1624","","image-button-response","122","924029","0.0-120.0-0.0","AJQ71YIGY01HZ","img_art/26.jpg","5","","","","","","","","","","","","","","","","","","","","","","","","",""
"1058","","image-button-response","123","925092","0.0-121.0-0.0","AJQ71YIGY01HZ","img_art/26.jpg","2","","","","","","","","","","","","","","","","","","","","","","","","",""
"null","","html-keyboard-response","124","925594","0.0-122.0","AJQ71YIGY01HZ","<p style=""font-size: 48px;"">+</p>","","","","","null","allTrialResponses","500","1","11","img_art/26.jpg","-38","Looks like a normal walmart poster. ","Sara,Shelby,Shannon,Lindsey,Madison,Amanda","I can somewhat city a city in this drawing,11,160,20","Very pleasent little scene,40,240,20","I like that it looks like an actual picture and isn't just random colors.,25,220,20","I see a suburban neighborhood with townhouses and trees. Not a fan of the colors or style.,-16,400,20","Colors look glum; photograph is not properly contrasted and does not reflect the appropriate amount of natural light.,-10,60,20","Pleasant to look at,28,180,20","Madison","Colors look glum; photograph is not properly contrasted and does not reflect the appropriate amount of natural light.,-10,60,20","Amanda","Pleasant to look at,28,180,20","Shannon","I like that it looks like an actual picture and isn't just random colors.,25,220,20","4"
"17780","","survey-text","125","943381","0.0-123.0-0.0","AJQ71YIGY01HZ","","","","{""Q0"":""Beautiful creek in a meadow during spring, I love it.""}","","","","","","","","","","","","","","","","","","","","","","",""
"2578.9000000003725","","image-slider-response","126","945963","0.0-124.0","AJQ71YIGY01HZ","","","","","45","","","","","","","","","","","","","","","","","","","","","",""
"4181","","image-button-response","127","950967","0.0-125.0","AJQ71YIGY01HZ","img_art/24.jpg","1","","","","","","","","","","","","","","","","","","","","","","","","",""
"580","","image-button-response","128","951551","0.0-126.0","AJQ71YIGY01HZ","img_art/24.jpg","3","","","","","","","","","","","","","","","","","","","","","","","","",""
"2724","","image-button-response","129","954279","0.0-127.0-0.0","AJQ71YIGY01HZ","img_art/24.jpg","5","","","","","","","","","","","","","","","","","","","","","","","","",""
"1486","","image-button-response","130","955774","0.0-128.0-0.0","AJQ71YIGY01HZ","img_art/24.jpg","1","","","","","","","","","","","","","","","","","","","","","","","","",""
"null","","html-keyboard-response","131","956278","0.0-129.0","AJQ71YIGY01HZ","<p style=""font-size: 48px;"">+</p>","","","","","null","allTrialResponses","500","1","12","img_art/24.jpg","45","Beautiful creek in a meadow during spring, I love it.","Vanessa,Katie,Shannon,Gabrielle,Madison,Amanda","I love the colors, but I wish the water was less abstract.,17,380,20","I see a waterfall, which is relaxing and peaceful!  I like the blue coloring,30,160,20","I like the way the colors are put together, and I can imagine this picture in real life.,40,220,20","flowing water part is good, some of the rest is ok but dark,14,160,20","Exceedingly garish,-19,60,20","Beautiful,  peaceful,50,180,20","Gabrielle","flowing water part is good, some of the rest is ok but dark,14,160,20","Amanda","Beautiful,  peaceful,50,180,20","Katie","I see a waterfall, which is relaxing and peaceful!  I like the blue coloring,30,160,20","4"
"15419","","survey-text","132","971707","0.0-130.0-0.0","AJQ71YIGY01HZ","","","","{""Q0"":""Looks like an old south town in the desert, it's nice.""}","","","","","","","","","","","","","","","","","","","","","","",""
"2660.8000000002794","","image-slider-response","133","974372","0.0-131.0","AJQ71YIGY01HZ","","","","","17","","","","","","","","","","","","","","","","","","","","","",""
"4069","","image-button-response","134","979377","0.0-132.0","AJQ71YIGY01HZ","img_art/20.jpg","0","","","","","","","","","","","","","","","","","","","","","","","","",""
"334","","image-button-response","135","979716","0.0-133.0","AJQ71YIGY01HZ","img_art/20.jpg","4","","","","","","","","","","","","","","","","","","","","","","","","",""
"6848","","image-button-response","136","986568","0.0-134.0-0.0","AJQ71YIGY01HZ","img_art/20.jpg","0","","","","","","","","","","","","","","","","","","","","","","","","",""
"6499","","image-button-response","137","993074","0.0-135.0-0.0","AJQ71YIGY01HZ","img_art/20.jpg","3","","","","","","","","","","","","","","","","","","","","","","","","",""
"null","","html-keyboard-response","138","994076","0.0-136.0","AJQ71YIGY01HZ","<p style=""font-size: 48px;"">+</p>","","","","","null","allTrialResponses","1000","1","13","img_art/20.jpg","17","Looks like an old south town in the desert, it's nice.","Laura,Katie,Melissa,Gabrielle,Elizabeth,Amanda","very fluid and mysterious,37,320,20","I don't like it. Dark sky and black figures. White objects remind me of bones.,-30,160,20","feels underdeveloped,-11,240,20","The white blob on the left seems out of place,-34,160,20","This painting would make a great display art,50,20,20","Too negative looks like a car and plane crash,-50,180,20","Elizabeth","This painting would make a great display art,50,20,20","Laura","very fluid and mysterious,37,320,20","Gabrielle","The white blob on the left seems out of place,-34,160,20","4"
"20872","","survey-text","139","1014958","0.0-137.0-0.0","AJQ71YIGY01HZ","","","","{""Q0"":""Looks like a bunch of blobs, I don't like it.""}","","","","","","","","","","","","","","","","","","","","","","",""
"9851.200000000186","","image-slider-response","140","1024813","0.0-138.0","AJQ71YIGY01HZ","","","","","-24","","","","","","","","","","","","","","","","","","","","","",""
"2912","","image-button-response","141","1029817","0.0-139.0","AJQ71YIGY01HZ","img_art/15.jpg","0","","","","","","","","","","","","","","","","","","","","","","","","",""
"2997","","image-button-response","142","1032818","0.0-140.0","AJQ71YIGY01HZ","img_art/15.jpg","1","","","","","","","","","","","","","","","","","","","","","","","","",""
"3336","","image-button-response","143","1036157","0.0-141.0-0.0","AJQ71YIGY01HZ","img_art/15.jpg","3","","","","","","","","","","","","","","","","","","","","","","","","",""
"1178","","image-button-response","144","1037340","0.0-142.0-0.0","AJQ71YIGY01HZ","img_art/15.jpg","0","","","","","","","","","","","","","","","","","","","","","","","","",""
"null","","html-keyboard-response","145","1038842","0.0-143.0","AJQ71YIGY01HZ","<p style=""font-size: 48px;"">+</p>","","","","","null","allTrialResponses","1500","1","14","img_art/15.jpg","-24","Looks like a bunch of blobs, I don't like it.","Laura,Sydney,Nicole,Gabrielle,Elizabeth,Anna","abrasive, rough, uneven,-31,320,20","This picture is too confusing for me. I wouldn't want to stare at it to figure it out.,-10,320,20","Very cool, i want it in my living room,50,20,20","dark and provoking,-50,160,20","Perfect Abstract painting,50,20,20","I like how it's simple but beautiful.,40,300,20","Sydney","This picture is too confusing for me. I wouldn't want to stare at it to figure it out.,-10,320,20","Gabrielle","dark and provoking,-50,160,20","Laura","abrasive, rough, uneven,-31,320,20","4"
"12187","","survey-text","146","1051038","0.0-144.0-0.0","AJQ71YIGY01HZ","","","","{""Q0"":""Nice little painting for a bedroom, spring feels.""}","","","","","","","","","","","","","","","","","","","","","","",""
"3406.3000000002794","","image-slider-response","147","1054448","0.0-145.0","AJQ71YIGY01HZ","","","","","22","","","","","","","","","","","","","","","","","","","","","",""
"3146","","image-button-response","148","1059451","0.0-146.0","AJQ71YIGY01HZ","img_art/14.jpg","1","","","","","","","","","","","","","","","","","","","","","","","","",""
"1272","","image-button-response","149","1060729","0.0-147.0","AJQ71YIGY01HZ","img_art/14.jpg","3","","","","","","","","","","","","","","","","","","","","","","","","",""
"2290","","image-button-response","150","1063023","0.0-148.0-0.0","AJQ71YIGY01HZ","img_art/14.jpg","4","","","","","","","","","","","","","","","","","","","","","","","","",""
"1814","","image-button-response","151","1064841","0.0-149.0-0.0","AJQ71YIGY01HZ","img_art/14.jpg","1","","","","","","","","","","","","","","","","","","","","","","","","",""
"null","","html-keyboard-response","152","1065844","0.0-150.0","AJQ71YIGY01HZ","<p style=""font-size: 48px;"">+</p>","","","","","null","allTrialResponses","1000","1","15","img_art/14.jpg","22","Nice little painting for a bedroom, spring feels.","Laura,Sydney,Danielle,Gabrielle,Alyssa,Kaylee","feels incomplete, poorly planned/executed,-34,320,20","I'm imagining a flower bouquet with pretty colors which I like.,35,320,20","Too much yellow in this image, i'm not a fan of art that is overly-saturated with yellow,-30,340,20","the colors are peaceful and nature colors, soft,37,160,20","Beautiful tree,the use of water colors makes it soothing to look at,37,160,20","it looks like a tree on desert,23,200,20","Gabrielle","the colors are peaceful and nature colors, soft,37,160,20","Alyssa","Beautiful tree,the use of water colors makes it soothing to look at,37,160,20","Sydney","I'm imagining a flower bouquet with pretty colors which I like.,35,320,20","4"
"18600","","survey-text","153","1084460","0.0-151.0-0.0","AJQ71YIGY01HZ","","","","{""Q0"":""course""}","","","","","","","","","","","","","","","","","","","","","","",""
"11811","","survey-text","154","1096274","0.0-152.0-0.0","AJQ71YIGY01HZ","","","","{""Q0"":""Looks like a smashed hand. ""}","","","","","","","","","","","","","","","","","","","","","","",""
"4879.200000000186","","image-slider-response","155","1101157","0.0-153.0","AJQ71YIGY01HZ","","","","","-46","","","","","","","","","","","","","","","","","","","","","",""
"4644","","image-button-response","156","1106161","0.0-154.0","AJQ71YIGY01HZ","img_art/4.jpg","3","","","","","","","","","","","","","","","","","","","","","","","","",""
"5292","","image-button-response","157","1111456","0.0-155.0","AJQ71YIGY01HZ","img_art/4.jpg","5","","","","","","","","","","","","","","","","","","","","","","","","",""
"1310","","image-button-response","158","1112769","0.0-156.0-0.0","AJQ71YIGY01HZ","img_art/4.jpg","3","","","","","","","","","","","","","","","","","","","","","","","","",""
"1348","","image-button-response","159","1114122","0.0-157.0-0.0","AJQ71YIGY01HZ","img_art/4.jpg","0","","","","","","","","","","","","","","","","","","","","","","","","",""
"null","","html-keyboard-response","160","1115624","0.0-158.0","AJQ71YIGY01HZ","<p style=""font-size: 48px;"">+</p>","","","","","null","allTrialResponses","1500","1","16","img_art/4.jpg","-46","Looks like a smashed hand. ","Kylie,Sydney,Sarah,Gabrielle,Alyssa,Erika","I just have no clue,26,300,20","This piece catches my eye, but it's strange to me.,10,320,20","too many red/yellow shades, its impact without a reason,-27,180,20","too childish, not really art in my world,-50,160,20","Extremely simple and like not alot of time was put into it,-20,160,20","Reminds me of late night frustrated paintings of my own made of coffee,12,100,20","Erika","Reminds me of late night frustrated paintings of my own made of coffee,12,100,20","Gabrielle","too childish, not really art in my world,-50,160,20","Kylie","I just have no clue,26,300,20","4"
"31647","","survey-text","161","1147280","0.0-159.0-0.0","AJQ71YIGY01HZ","","","","{""Q0"":""It looks like a kids painting.""}","","","","","","","","","","","","","","","","","","","","","","",""
"5342.600000000093","","image-slider-response","162","1152626","0.0-160.0","AJQ71YIGY01HZ","","","","","-24","","","","","","","","","","","","","","","","","","","","","",""
"1954","","image-button-response","163","1157630","0.0-161.0","AJQ71YIGY01HZ","img_art/27.jpg","1","","","","","","","","","","","","","","","","","","","","","","","","",""
"3564","","image-button-response","164","1161197","0.0-162.0","AJQ71YIGY01HZ","img_art/27.jpg","1","","","","","","","","","","","","","","","","","","","","","","","","",""
"4526","","image-button-response","165","1165729","0.0-163.0-0.0","AJQ71YIGY01HZ","img_art/27.jpg","4","","","","","","","","","","","","","","","","","","","","","","","","",""
"3475","","image-button-response","166","1169210","0.0-164.0-0.0","AJQ71YIGY01HZ","img_art/27.jpg","5","","","","","","","","","","","","","","","","","","","","","","","","",""
"null","","html-keyboard-response","167","1169712","0.0-165.0","AJQ71YIGY01HZ","<p style=""font-size: 48px;"">+</p>","","","","","null","allTrialResponses","500","1","17","img_art/27.jpg","-24","It looks like a kids painting.","Kylie,Kimberly,Isabella,Gabrielle,Jasmine,Erika","Soothing in the middle of some confusion,40,300,20","Nothing stands out,-23,260,20","Makes me feel warm inside,21,280,20","like the patterns and colors all but the orange blob on the right,32,160,20","I have no strong reactions to this,-1,340,20","Nice color, but too vague,-12,100,20","Kimberly","Nothing stands out,-23,260,20","Jasmine","I have no strong reactions to this,-1,340,20","Erika","Nice color, but too vague,-12,100,20","4"
"11894","","survey-text","168","1181614","0.0-166.0-0.0","AJQ71YIGY01HZ","","","","{""Q0"":""Looks like a kids painting, I don't like these types.""}","","","","","","","","","","","","","","","","","","","","","","",""
"2559.5","","image-slider-response","169","1184179","0.0-167.0","AJQ71YIGY01HZ","","","","","-44","","","","","","","","","","","","","","","","","","","","","",""
"3551","","image-button-response","170","1189183","0.0-168.0","AJQ71YIGY01HZ","img_art/2.jpg","0","","","","","","","","","","","","","","","","","","","","","","","","",""
"2662","","image-button-response","171","1191848","0.0-169.0","AJQ71YIGY01HZ","img_art/2.jpg","0","","","","","","","","","","","","","","","","","","","","","","","","",""
"2183","","image-button-response","172","1194038","0.0-170.0-0.0","AJQ71YIGY01HZ","img_art/2.jpg","2","","","","","","","","","","","","","","","","","","","","","","","","",""
"2386","","image-button-response","173","1196429","0.0-171.0-0.0","AJQ71YIGY01HZ","img_art/2.jpg","5","","","","","","","","","","","","","","","","","","","","","","","","",""
"null","","html-keyboard-response","174","1196931","0.0-172.0","AJQ71YIGY01HZ","<p style=""font-size: 48px;"">+</p>","","","","","null","allTrialResponses","500","1","18","img_art/2.jpg","-44","Looks like a kids painting, I don't like these types.","Brooke,Kimberly,Brianna,Catherine,Jasmine,Erika","Ugly version of that park painting.,-31,60,20","I like the green,13,260,20","The only parts I like is the light blue, red and black. The green color isn't very flattering.,11,20,20","Dependence. Things relying on each other. Caring,-4,160,20","Color picks are a bad mesh with each other,-17,340,20","Indistinct and too bright,-21,100,20","Brooke","Ugly version of that park painting.,-31,60,20","Brianna","The only parts I like is the light blue, red and black. The green color isn't very flattering.,11,20,20","Erika","Indistinct and too bright,-21,100,20","4"
"12415","","survey-text","175","1209358","0.0-173.0-0.0","AJQ71YIGY01HZ","","","","{""Q0"":""LOoks like a little town, it's nice.""}","","","","","","","","","","","","","","","","","","","","","","",""
"3018.2000000001863","","image-slider-response","176","1212379","0.0-174.0","AJQ71YIGY01HZ","","","","","25","","","","","","","","","","","","","","","","","","","","","",""
"null","","image-button-response","177","1217383","0.0-175.0","AJQ71YIGY01HZ","img_art/19.jpg","null","","","","","","","","","","","","","","","","","","","","","","","","",""
"4447","","image-button-response","178","1221834","0.0-176.0","AJQ71YIGY01HZ","img_art/19.jpg","3","","","","","","","","","","","","","","","","","","","","","","","","",""
"6500","","image-button-response","179","1228339","0.0-177.0-0.0","AJQ71YIGY01HZ","img_art/19.jpg","0","","","","","","","","","","","","","","","","","","","","","","","","",""
"2070","","image-button-response","180","1230414","0.0-178.0-0.0","AJQ71YIGY01HZ","img_art/19.jpg","1","","","","","","","","","","","","","","","","","","","","","","","","",""
"null","","html-keyboard-response","181","1231917","0.0-179.0","AJQ71YIGY01HZ","<p style=""font-size: 48px;"">+</p>","","","","","null","allTrialResponses","1500","1","19","img_art/19.jpg","25","LOoks like a little town, it's nice.","Brooke,Mary,Brianna,Courtney,Olivia,Erika","Snowy winter scene,25,60,20","I interpret an outdoor scene. It's good because it makes me want to look longer.,22,180,20","I don't know what's going on, and I realise that I don't like it,-21,20,20","Thats a lazy town,-8,280,20","city life energy,8,40,20","Very dreamlike,26,100,20","Courtney","Thats a lazy town,-8,280,20","Brooke","Snowy winter scene,25,60,20","Mary","I interpret an outdoor scene. It's good because it makes me want to look longer.,22,180,20","4"
"12147","","survey-text","182","1244075","0.0-180.0-0.0","AJQ71YIGY01HZ","","","","{""Q0"":""Looks like a bnch of brush strokes.""}","","","","","","","","","","","","","","","","","","","","","","",""
"3038","","image-slider-response","183","1247117","0.0-181.0","AJQ71YIGY01HZ","","","","","-34","","","","","","","","","","","","","","","","","","","","","",""
"3424","","image-button-response","184","1252121","0.0-182.0","AJQ71YIGY01HZ","img_art/30.jpg","1","","","","","","","","","","","","","","","","","","","","","","","","",""
"1662","","image-button-response","185","1253787","0.0-183.0","AJQ71YIGY01HZ","img_art/30.jpg","1","","","","","","","","","","","","","","","","","","","","","","","","",""
"2521","","image-button-response","186","1256312","0.0-184.0-0.0","AJQ71YIGY01HZ","img_art/30.jpg","2","","","","","","","","","","","","","","","","","","","","","","","","",""
"2379","","image-button-response","187","1258696","0.0-185.0-0.0","AJQ71YIGY01HZ","img_art/30.jpg","4","","","","","","","","","","","","","","","","","","","","","","","","",""
"null","","html-keyboard-response","188","1260207","0.0-186.0","AJQ71YIGY01HZ","<p style=""font-size: 48px;"">+</p>","","","","","null","allTrialResponses","1500","1","20","img_art/30.jpg","-34","Looks like a bnch of brush strokes.","Brooke,Mary,Breanna,Courtney,Samantha,Amy","Like the color and style,31,60,20","I hate this piece. It looks like a child created it. The colors are awful.,-46,180,20","Paint scribbled on canvas,-25,380,20","Some people dancing.,-7,280,20","Too much like childrens finger paint. I dont like the smear of blended colors,-50,140,20","Too much abstraction for me, leaving my focus mainly on color. I like the texture.,-20,220,20","Mary","I hate this piece. It looks like a child created it. The colors are awful.,-46,180,20","Breanna","Paint scribbled on canvas,-25,380,20","Samantha","Too much like childrens finger paint. I dont like the smear of blended colors,-50,140,20","4"
"1995","","survey-text","189","1262217","0.0-187.0-0.0","AJQ71YIGY01HZ","","","","{""Q0"":""we""}","","","","","","","","","","","","","","","","","","","","","","",""
"10791","","survey-text","190","1273012","0.0-188.0-0.0","AJQ71YIGY01HZ","","","","{""Q0"":""Reminds me of Christmas for some reason.""}","","","","","","","","","","","","","","","","","","","","","","",""
"2097","","image-slider-response","191","1275113","0.0-189.0","AJQ71YIGY01HZ","","","","","27","","","","","","","","","","","","","","","","","","","","","",""
"null","","image-button-response","192","1280117","0.0-190.0","AJQ71YIGY01HZ","img_art/18.jpg","null","","","","","","","","","","","","","","","","","","","","","","","","",""
"18601","","image-button-response","193","1298721","0.0-191.0","AJQ71YIGY01HZ","img_art/18.jpg","0","","","","","","","","","","","","","","","","","","","","","","","","",""
"4755","","image-button-response","194","1303479","0.0-192.0-0.0","AJQ71YIGY01HZ","img_art/18.jpg","1","","","","","","","","","","","","","","","","","","","","","","","","",""
"838","","image-button-response","195","1304324","0.0-193.0-0.0","AJQ71YIGY01HZ","img_art/18.jpg","5","","","","","","","","","","","","","","","","","","","","","","","","",""
"null","","html-keyboard-response","196","1305326","0.0-194.0","AJQ71YIGY01HZ","<p style=""font-size: 48px;"">+</p>","","","","","null","allTrialResponses","1000","1","21","img_art/18.jpg","27","Reminds me of Christmas for some reason.","Savannah,Mary,Breanna,Makayla,Samantha,Autumn","Accents make this piece.,21,200,20","I like the expression of this piece. The colors are very outdated though.,-5,180,20","Makes me feel confused,16,380,20","I'm not partial to the design, unsettling,2,80,20","Id love to see this piece closer. So much extra details hidden it it.,50,140,20","This looks amazing.,40,340,20","Savannah","Accents make this piece.,21,200,20","Mary","I like the expression of this piece. The colors are very outdated though.,-5,180,20","Autumn","This looks amazing.,40,340,20","4"
"8884","","survey-text","197","1314218","0.0-195.0-0.0","AJQ71YIGY01HZ","","","","{""Q0"":""Looks like a tiger to me.""}","","","","","","","","","","","","","","","","","","","","","","",""
"2290.899999999907","","image-slider-response","198","1316512","0.0-196.0","AJQ71YIGY01HZ","","","","","-5","","","","","","","","","","","","","","","","","","","","","",""
"2432","","image-button-response","199","1321518","0.0-197.0","AJQ71YIGY01HZ","img_art/1.jpg","0","","","","","","","","","","","","","","","","","","","","","","","","",""
"2542","","image-button-response","200","1324064","0.0-198.0","AJQ71YIGY01HZ","img_art/1.jpg","4","","","","","","","","","","","","","","","","","","","","","","","","",""
"811","","image-button-response","201","1324878","0.0-199.0-0.0","AJQ71YIGY01HZ","img_art/1.jpg","0","","","","","","","","","","","","","","","","","","","","","","","","",""
"1566","","image-button-response","202","1326448","0.0-200.0-0.0","AJQ71YIGY01HZ","img_art/1.jpg","5","","","","","","","","","","","","","","","","","","","","","","","","",""
"null","","html-keyboard-response","203","1326950","0.0-201.0","AJQ71YIGY01HZ","<p style=""font-size: 48px;"">+</p>","","","","","null","allTrialResponses","500","1","22","img_art/1.jpg","-5","Looks like a tiger to me.","Savannah,Mary,Kelly,Hannah,Bailey,Autumn","Its simply okay.,3,200,20","This piece feels soft and romantic to me. I do not care for so much orange though.,3,180,20","I love colorful photos and I like this one a lot.,25,220,20","Reminds me of fall.,7,240,20","A bit of a smokey mess, but it does have an air of mystery I like,7,360,20","Doesn't represent anything in particular.,-47,340,20","Bailey","A bit of a smokey mess, but it does have an air of mystery I like,7,360,20","Savannah","Its simply okay.,3,200,20","Autumn","Doesn't represent anything in particular.,-47,340,20","4"
"13733","","survey-text","204","1340692","0.0-202.0-0.0","AJQ71YIGY01HZ","","","","{""Q0"":""Reminds me of the railroad, nostalgia.""}","","","","","","","","","","","","","","","","","","","","","","",""
"2545.2999999998137","","image-slider-response","205","1343242","0.0-203.0","AJQ71YIGY01HZ","","","","","26","","","","","","","","","","","","","","","","","","","","","",""
"null","","image-button-response","206","1348246","0.0-204.0","AJQ71YIGY01HZ","img_art/10.jpg","null","","","","","","","","","","","","","","","","","","","","","","","","",""
"9434","","image-button-response","207","1357683","0.0-205.0","AJQ71YIGY01HZ","img_art/10.jpg","4","","","","","","","","","","","","","","","","","","","","","","","","",""
"1407","","image-button-response","208","1359095","0.0-206.0-0.0","AJQ71YIGY01HZ","img_art/10.jpg","1","","","","","","","","","","","","","","","","","","","","","","","","",""
"4825","","image-button-response","209","1363925","0.0-207.0-0.0","AJQ71YIGY01HZ","img_art/10.jpg","2","","","","","","","","","","","","","","","","","","","","","","","","",""
"null","","html-keyboard-response","210","1364929","0.0-208.0","AJQ71YIGY01HZ","<p style=""font-size: 48px;"">+</p>","","","","","null","allTrialResponses","1000","1","23","img_art/10.jpg","26","Reminds me of the railroad, nostalgia.","Savannah,Chelsea,Rebecca,Cynthia,Bailey,Autumn","This is a scribble of a mad man. Appears low effort.,-33,200,20","It looks intricate.,15,180,20","gives a sense of a roller coaster unit splashed in water. it's not but i love it nevertheless,44,100,20","cultural with a symphony,40,320,20","For black and white, this is pretty vibrant and cool. I like this.,39,360,20","It just looks like a dirty stain.,-38,340,20","Bailey","For black and white, this is pretty vibrant and cool. I like this.,39,360,20","Chelsea","It looks intricate.,15,180,20","Rebecca","gives a sense of a roller coaster unit splashed in water. it's not but i love it nevertheless,44,100,20","4"
"100298","","survey-text","211","1465235","0.0-209.0-0.0","AJQ71YIGY01HZ","","","","{""Q0"":""Looks like a band.""}","","","","","","","","","","","","","","","","","","","","","","",""
"1880.8000000002794","","image-slider-response","212","1467119","0.0-210.0","AJQ71YIGY01HZ","","","","","-22","","","","","","","","","","","","","","","","","","","","","",""
"4726","","image-button-response","213","1472123","0.0-211.0","AJQ71YIGY01HZ","img_art/23.jpg","5","","","","","","","","","","","","","","","","","","","","","","","","",""
"597","","image-button-response","214","1472725","0.0-212.0","AJQ71YIGY01HZ","img_art/23.jpg","5","","","","","","","","","","","","","","","","","","","","","","","","",""
"721","","image-button-response","215","1473450","0.0-213.0-0.0","AJQ71YIGY01HZ","img_art/23.jpg","3","","","","","","","","","","","","","","","","","","","","","","","","",""
"692","","image-button-response","216","1474146","0.0-214.0-0.0","AJQ71YIGY01HZ","img_art/23.jpg","4","","","","","","","","","","","","","","","","","","","","","","","","",""
"null","","html-keyboard-response","217","1474649","0.0-215.0","AJQ71YIGY01HZ","<p style=""font-size: 48px;"">+</p>","","","","","null","allTrialResponses","500","1","24","img_art/23.jpg","-22","Looks like a band.","Julia,Chelsea,Rebecca,Paige,Bailey,Andrea","this looks like a pop rock album cover,-10,40,20","I like the royal colors.,38,180,20","love the contrast (was this painted by a left-handed artist?),7,100,20","Does not incite any emotional response,1,60,20","Not a fan of these dot pieces. They hurt my eyes.,-25,360,20","I see souls in torment and that makes me feel uneasy.,-21,240,20","Andrea","I see souls in torment and that makes me feel uneasy.,-21,240,20","Paige","Does not incite any emotional response,1,60,20","Bailey","Not a fan of these dot pieces. They hurt my eyes.,-25,360,20","4"
"72163","","survey-text","218","1546820","0.0-216.0-0.0","AJQ71YIGY01HZ","","","","{""Q0"":""It looks like a bunch of paint run together.""}","","","","","","","","","","","","","","","","","","","","","","",""
"2083.9000000003725","","image-slider-response","219","1548908","0.0-217.0","AJQ71YIGY01HZ","","","","","-29","","","","","","","","","","","","","","","","","","","","","",""
"null","","image-button-response","220","1553912","0.0-218.0","AJQ71YIGY01HZ","img_art/22.jpg","null","","","","","","","","","","","","","","","","","","","","","","","","",""
"1505","","image-button-response","221","1555420","0.0-219.0","AJQ71YIGY01HZ","img_art/22.jpg","4","","","","","","","","","","","","","","","","","","","","","","","","",""
"1684","","image-button-response","222","1557108","0.0-220.0-0.0","AJQ71YIGY01HZ","img_art/22.jpg","5","","","","","","","","","","","","","","","","","","","","","","","","",""
"2371","","image-button-response","223","1559484","0.0-221.0-0.0","AJQ71YIGY01HZ","img_art/22.jpg","1","","","","","","","","","","","","","","","","","","","","","","","","",""
"null","","html-keyboard-response","224","1560486","0.0-222.0","AJQ71YIGY01HZ","<p style=""font-size: 48px;"">+</p>","","","","","null","allTrialResponses","1000","1","25","img_art/22.jpg","-29","It looks like a bunch of paint run together.","Cassidy,Maria,Mariah,Paige,Bailey,Andrea","I don't really know why, I just like looking at it,10,140,20","displeasure - not a fan of the colour or the shapes,-18,120,20","The colors are pleasant, the shapes are inviting.,21,140,20","Happy. I like to colors,33,60,20","Looks like a giant blob,-45,360,20","I don't feel much of anything.,0,240,20","Bailey","Looks like a giant blob,-45,360,20","Andrea","I don't feel much of anything.,0,240,20","Maria","displeasure - not a fan of the colour or the shapes,-18,120,20","4"
"2548","","survey-text","225","1563052","0.0-223.0-0.0","AJQ71YIGY01HZ","","","","{""Q0"":""table""}","","","","","","","","","","","","","","","","","","","","","","",""
"22437","","survey-text","226","1585492","0.0-224.0-0.0","AJQ71YIGY01HZ","","","","{""Q0"":""Looks like someone asleep. ""}","","","","","","","","","","","","","","","","","","","","","","",""
"2603.5","","image-slider-response","227","1588099","0.0-225.0","AJQ71YIGY01HZ","","","","","-36","","","","","","","","","","","","","","","","","","","","","",""
"2673","","image-button-response","228","1593103","0.0-226.0","AJQ71YIGY01HZ","img_art/9.jpg","1","","","","","","","","","","","","","","","","","","","","","","","","",""
"1088","","image-button-response","229","1594194","0.0-227.0","AJQ71YIGY01HZ","img_art/9.jpg","3","","","","","","","","","","","","","","","","","","","","","","","","",""
"990","","image-button-response","230","1595187","0.0-228.0-0.0","AJQ71YIGY01HZ","img_art/9.jpg","1","","","","","","","","","","","","","","","","","","","","","","","","",""
"1476","","image-button-response","231","1596668","0.0-229.0-0.0","AJQ71YIGY01HZ","img_art/9.jpg","5","","","","","","","","","","","","","","","","","","","","","","","","",""
"null","","html-keyboard-response","232","1597170","0.0-230.0","AJQ71YIGY01HZ","<p style=""font-size: 48px;"">+</p>","","","","","null","allTrialResponses","500","1","26","img_art/9.jpg","-36","Looks like someone asleep. ","Destiny,Maria,Victoria,Rachel,Bailey,Andrea","is that sleeping beauty,33,360,20","while I don't dispute the art, it feels childish,-20,120,20","reminds me of a story book,18,400,20","It looks like a lady taking a peaceful nap on a blanket in the grass.,41,80,20","Not very enticing. No real substance other than a lady laying down,-35,360,20","Sleeping woman in a cave. Makes me feel safe.,20,240,20","Rachel","It looks like a lady taking a peaceful nap on a blanket in the grass.,41,80,20","Maria","while I don't dispute the art, it feels childish,-20,120,20","Andrea","Sleeping woman in a cave. Makes me feel safe.,20,240,20","4"
"7063","","survey-text","233","1604242","0.0-231.0-0.0","AJQ71YIGY01HZ","","","","{""Q0"":""Looks like a shark murdered someone.""}","","","","","","","","","","","","","","","","","","","","","","",""
"2902.9000000003725","","image-slider-response","234","1607149","0.0-232.0","AJQ71YIGY01HZ","","","","","-33","","","","","","","","","","","","","","","","","","","","","",""
"3662","","image-button-response","235","1612152","0.0-233.0","AJQ71YIGY01HZ","img_art/3.jpg","0","","","","","","","","","","","","","","","","","","","","","","","","",""
"1360","","image-button-response","236","1613516","0.0-234.0","AJQ71YIGY01HZ","img_art/3.jpg","3","","","","","","","","","","","","","","","","","","","","","","","","",""
"1039","","image-button-response","237","1614559","0.0-235.0-0.0","AJQ71YIGY01HZ","img_art/3.jpg","1","","","","","","","","","","","","","","","","","","","","","","","","",""
"850","","image-button-response","238","1615413","0.0-236.0-0.0","AJQ71YIGY01HZ","img_art/3.jpg","0","","","","","","","","","","","","","","","","","","","","","","","","",""
"null","","html-keyboard-response","239","1615915","0.0-237.0","AJQ71YIGY01HZ","<p style=""font-size: 48px;"">+</p>","","","","","null","allTrialResponses","500","1","27","img_art/3.jpg","-33","Looks like a shark murdered someone.","Morgan,Maria,Megan,Rachel,Alexandra,Andrea","Somewhere between a child's art and a poorly drawn battle map.,8,380,20","I struggle to see the art,-20,120,20","5 min scribble by a 3 year old,-46,200,20","Too red and chaotic. Not calming.,-41,80,20","I could scribble on paper and mimic this,-48,60,20","I don't feel anything, it seems childish.,-25,240,20","Rachel","Too red and chaotic. Not calming.,-41,80,20","Maria","I struggle to see the art,-20,120,20","Morgan","Somewhere between a child's art and a poorly drawn battle map.,8,380,20","4"
"6463","","survey-text","240","1622389","0.0-238.0-0.0","AJQ71YIGY01HZ","","","","{""Q0"":""Looks like puke.""}","","","","","","","","","","","","","","","","","","","","","","",""
"1977.3000000002794","","image-slider-response","241","1624370","0.0-239.0","AJQ71YIGY01HZ","","","","","-39","","","","","","","","","","","","","","","","","","","","","",""
"3728","","image-button-response","242","1629375","0.0-240.0","AJQ71YIGY01HZ","img_art/7.jpg","0","","","","","","","","","","","","","","","","","","","","","","","","",""
"1376","","image-button-response","243","1630754","0.0-241.0","AJQ71YIGY01HZ","img_art/7.jpg","0","","","","","","","","","","","","","","","","","","","","","","","","",""
"830","","image-button-response","244","1631589","0.0-242.0-0.0","AJQ71YIGY01HZ","img_art/7.jpg","4","","","","","","","","","","","","","","","","","","","","","","","","",""
"2705","","image-button-response","245","1634300","0.0-243.0-0.0","AJQ71YIGY01HZ","img_art/7.jpg","5","","","","","","","","","","","","","","","","","","","","","","","","",""
"null","","html-keyboard-response","246","1634802","0.0-244.0","AJQ71YIGY01HZ","<p style=""font-size: 48px;"">+</p>","","","","","null","allTrialResponses","500","1","28","img_art/7.jpg","-39","Looks like puke.","Morgan,Maria,Kristen,Rachel,Brittany,Natalie","Dead bugs on an insect battleground.,-10,380,20","elicits no real response,0,120,20","sand, beach, tranquil,10,280,20","Looks like a desert or another planet. While the color choices are narrow, it's still interesting because it is very natural.,12,80,20","It looks like a wall, not really something I'd enjoy looking at.,-12,40,20","does not look good,-42,400,20","Morgan","Dead bugs on an insect battleground.,-10,380,20","Brittany","It looks like a wall, not really something I'd enjoy looking at.,-12,40,20","Natalie","does not look good,-42,400,20","4"
"20107","","survey-text","247","1654919","0.0-245.0-0.0","AJQ71YIGY01HZ","","","","{""Q0"":""Beautiful tree painting of a painting.""}","","","","","","","","","","","","","","","","","","","","","","",""
"4783.399999999907","","image-slider-response","248","1659705","0.0-246.0","AJQ71YIGY01HZ","","","","","-34","","","","","","","","","","","","","","","","","","","","","",""
"2290","","image-button-response","249","1664710","0.0-247.0","AJQ71YIGY01HZ","img_art/17.jpg","1","","","","","","","","","","","","","","","","","","","","","","","","",""
"5265","","image-button-response","250","1669977","0.0-248.0","AJQ71YIGY01HZ","img_art/17.jpg","2","","","","","","","","","","","","","","","","","","","","","","","","",""
"2330","","image-button-response","251","1672311","0.0-249.0-0.0","AJQ71YIGY01HZ","img_art/17.jpg","1","","","","","","","","","","","","","","","","","","","","","","","","",""
"910","","image-button-response","252","1673224","0.0-250.0-0.0","AJQ71YIGY01HZ","img_art/17.jpg","3","","","","","","","","","","","","","","","","","","","","","","","","",""
"null","","html-keyboard-response","253","1674227","0.0-251.0","AJQ71YIGY01HZ","<p style=""font-size: 48px;"">+</p>","","","","","null","allTrialResponses","1000","1","29","img_art/17.jpg","-34","Beautiful tree painting of a painting.","Morgan,Ashley,Cassandra,Cheyenne,Brittany,Natalie","Tree of knowledge in a quiet school.,17,380,20","taste the rainbow, feel the flavor.,23,320,20","Very pretty...the colors and good and flow well.,33,120,20","I like the colorfulness.,17,200,20","I like the colors and the design.,20,40,20","my response to the picture is that it looks beautiful,27,400,20","Cassandra","Very pretty...the colors and good and flow well.,33,120,20","Ashley","taste the rainbow, feel the flavor.,23,320,20","Cheyenne","I like the colorfulness.,17,200,20","4"
"6076","","survey-text","254","1680314","0.0-252.0-0.0","AJQ71YIGY01HZ","","","","{""Q0"":""A raven, always nice.""}","","","","","","","","","","","","","","","","","","","","","","",""
"3851.3000000002794","","image-slider-response","255","1684169","0.0-253.0","AJQ71YIGY01HZ","","","","","35","","","","","","","","","","","","","","","","","","","","","",""
"null","","image-button-response","256","1689174","0.0-254.0","AJQ71YIGY01HZ","img_art/6.jpg","null","","","","","","","","","","","","","","","","","","","","","","","","",""
"1385","","image-button-response","257","1690562","0.0-255.0","AJQ71YIGY01HZ","img_art/6.jpg","0","","","","","","","","","","","","","","","","","","","","","","","","",""
"3034","","image-button-response","258","1693600","0.0-256.0-0.0","AJQ71YIGY01HZ","img_art/6.jpg","5","","","","","","","","","","","","","","","","","","","","","","","","",""
"4801","","image-button-response","259","1698406","0.0-257.0-0.0","AJQ71YIGY01HZ","img_art/6.jpg","4","","","","","","","","","","","","","","","","","","","","","","","","",""
"null","","html-keyboard-response","260","1699409","0.0-258.0","AJQ71YIGY01HZ","<p style=""font-size: 48px;"">+</p>","","","","","null","allTrialResponses","1000","1","30","img_art/6.jpg","35","A raven, always nice.","Haley,Ashley,Cassandra,Cheyenne,Stephanie,Christina","I like the color and the gradient,10,220,20","A lot of people will lvoe this, I do not.,1,320,20","No feeling...just left me feeling kind of blah,1,120,20","Good painting but too simple to care about it for very long.,-15,200,20","Nevermore!  A black raven sitting on a pumpkin. Halloween,-35,300,20","i like the simplicity of the tree and the colors,50,240,20","Haley","I like the color and the gradient,10,220,20","Christina","i like the simplicity of the tree and the colors,50,240,20","Stephanie","Nevermore!  A black raven sitting on a pumpkin. Halloween,-35,300,20","4"
"2563","","image-button-response_instructions","261","1701986","0.0-259.0","AJQ71YIGY01HZ","","0","instructions","","","","","","","","","","","","","","","","","","","","","","","",""
"1030","","image-button-response","262","1703027","0.0-260.0","AJQ71YIGY01HZ","","0","","","","","","","","","","","","","","","","","","","","","","","","",""
