"rt","url","trial_type","trial_index","time_elapsed","internal_node_id","participant_id","stimulus","button_pressed","Name","responses","response","key_press","variableName","fixationTime","condition","trial","photo","subjectRating","subjectResponse","agentsNames","agent_1_Response","agent_2_Response","agent_3_Response","agent_4_Response","agent_5_Response","agent_6_Response","kept_1_name","kept_1_response","kept_2_name","kept_2_response","kept_3_name","kept_3_response","errorCounter"
"4514","external_page_harvard.html","external-html","0","4634","0.0-0.0","AJZWOT3T73M92","","","","","","","","","","","","","","","","","","","","","","","","","","",""
"1181","","image-button-response","1","5817","0.0-1.0","AJZWOT3T73M92","","1","","","","","","","","","","","","","","","","","","","","","","","","",""
"1720","","image-button-response","2","7541","0.0-2.0-0.0","AJZWOT3T73M92","","1","phone","","","","","","","","","","","","","","","","","","","","","","","",""
"5871","","survey-text","3","13413","0.0-3.0-0.0","AJZWOT3T73M92","","","","{""Q0"":""AJZWOT3T73M92""}","","","","","","","","","","","","","","","","","","","","","","",""
"12002","","image-button-response_instructions","4","25417","0.0-4.0","AJZWOT3T73M92","","0","instructions","","","","","","","","","","","","","","","","","","","","","","","",""
"11215","","image-button-response_instructions","5","36633","0.0-5.0","AJZWOT3T73M92","img_art/ins/popularity/ins1.png","0","instructions","","","","","","","","","","","","","","","","","","","","","","","",""
"4431","","image-button-response_instructions","6","41064","0.0-6.0","AJZWOT3T73M92","img_art/ins/popularity/ins2.png","0","instructions","","","","","","","","","","","","","","","","","","","","","","","",""
"7235","","image-button-response_instructions","7","48301","0.0-7.0","AJZWOT3T73M92","img_art/ins/popularity/ins2Extreme.png","0","instructions","","","","","","","","","","","","","","","","","","","","","","","",""
"8343","","image-button-response_instructions","8","56644","0.0-8.0","AJZWOT3T73M92","img_art/ins/popularity/ins3KEEPpop.PNG","0","instructions","","","","","","","","","","","","","","","","","","","","","","","",""
"3323","","image-button-response_instructions","9","59968","0.0-9.0","AJZWOT3T73M92","img_art/ins/popularity/ins3ANamepop.PNG","0","instructions","","","","","","","","","","","","","","","","","","","","","","","",""
"2959","","image-button-response_instructions","10","62928","0.0-10.0","AJZWOT3T73M92","img_art/ins/popularity/ins3ARatingpop.png","0","instructions","","","","","","","","","","","","","","","","","","","","","","","",""
"991","","image-button-response_instructions","11","63920","0.0-11.0","AJZWOT3T73M92","img_art/ins/popularity/ins3ATextpop.png","0","instructions","","","","","","","","","","","","","","","","","","","","","","","",""
"4351","","image-button-response_instructions","12","68272","0.0-12.0","AJZWOT3T73M92","img_art/ins/popularity/ins3ALikespop.png","0","instructions","","","","","","","","","","","","","","","","","","","","","","","",""
"8203","","image-button-response_instructions","13","76476","0.0-13.0","AJZWOT3T73M92","img_art/ins/popularity/ins3KEEPpop.PNG","0","instructions","","","","","","","","","","","","","","","","","","","","","","","",""
"9919","","image-button-response_instructions","14","86396","0.0-14.0","AJZWOT3T73M92","img_art/ins/popularity/ins3_5RED.png","0","instructions","","","","","","","","","","","","","","","","","","","","","","","",""
"3747","","image-button-response_instructions","15","90144","0.0-15.0","AJZWOT3T73M92","img_art/ins/popularity/ins3KEEPpop.PNG","0","instructions","","","","","","","","","","","","","","","","","","","","","","","",""
"6835","","image-button-response_instructions","16","96980","0.0-16.0","AJZWOT3T73M92","img_art/ins/popularity/ins4KEEPpop.PNG","0","instructions","","","","","","","","","","","","","","","","","","","","","","","",""
"207","","image-button-response_instructions","17","97188","0.0-17.0","AJZWOT3T73M92","img_art/ins/popularity/ins5KEEPpop.PNG","0","instructions","","","","","","","","","","","","","","","","","","","","","","","",""
"1799","","image-button-response_instructions","18","98988","0.0-18.0","AJZWOT3T73M92","","0","instructions","","","","","","","","","","","","","","","","","","","","","","","",""
"4838","","survey-text","19","103844","0.0-19.0-0.0","AJZWOT3T73M92","","","","{""Q0"":""but""}","","","","","","","","","","","","","","","","","","","","","","",""
"11279","","survey-text","20","115124","0.0-20.0-0.0","AJZWOT3T73M92","","","","{""Q0"":""I like the soft brush strokes.""}","","","","","","","","","","","","","","","","","","","","","","",""
"3214","","image-slider-response","21","118340","0.0-21.0","AJZWOT3T73M92","","","","","17","","","","","","","","","","","","","","","","","","","","","",""
"null","","image-button-response","22","123343","0.0-22.0","AJZWOT3T73M92","img_art/ins/1.jpg","null","","","","","","","","","","","","","","","","","","","","","","","","",""
"6644","","image-button-response","23","129989","0.0-23.0","AJZWOT3T73M92","img_art/ins/1.jpg","5","","","","","","","","","","","","","","","","","","","","","","","","",""
"646","","image-button-response","24","130637","0.0-24.0-0.0","AJZWOT3T73M92","img_art/ins/1.jpg","4","","","","","","","","","","","","","","","","","","","","","","","","",""
"750","","image-button-response","25","131389","0.0-25.0-0.0","AJZWOT3T73M92","img_art/ins/1.jpg","0","","","","","","","","","","","","","","","","","","","","","","","","",""
"null","","html-keyboard-response","26","132390","0.0-26.0","AJZWOT3T73M92","<p style=""font-size: 48px;"">+</p>","","","","","null","allTrialResponses","1000","1","-2","img_art/ins/1.jpg","17","I like the soft brush strokes.","Allison,Ashley,Beth,Dora,Erika,Jen","looks like a lot of things going on in the mist,20,20,20","I just don't get why these type of art would be popular,-32,40,20","This color reminds me of poo,-46,60,20","looks like what my niece in 3rd grade did this afternoon,-50,80,20","I like the sophisticated brushwork,40,100,20","It reminds me of a candy land dream I had,36,120,20","Jen","It reminds me of a candy land dream I had,36,120,20","Erika","I like the sophisticated brushwork,40,100,20","Allison","looks like a lot of things going on in the mist,20,20,20","0"
"9247","","survey-text","27","141640","0.0-27.0-0.0","AJZWOT3T73M92","","","","{""Q0"":""I enjoy the rustic look""}","","","","","","","","","","","","","","","","","","","","","","",""
"2626.2999999970198","","image-slider-response","28","144268","0.0-28.0","AJZWOT3T73M92","","","","","24","","","","","","","","","","","","","","","","","","","","","",""
"null","","image-button-response","29","149271","0.0-29.0","AJZWOT3T73M92","img_art/ins/2.jpg","null","","","","","","","","","","","","","","","","","","","","","","","","",""
"1412","","image-button-response","30","150685","0.0-30.0","AJZWOT3T73M92","img_art/ins/2.jpg","1","","","","","","","","","","","","","","","","","","","","","","","","",""
"1730","","image-button-response","31","152417","0.0-31.0-0.0","AJZWOT3T73M92","img_art/ins/2.jpg","5","","","","","","","","","","","","","","","","","","","","","","","","",""
"1850","","image-button-response","32","154269","0.0-32.0-0.0","AJZWOT3T73M92","img_art/ins/2.jpg","0","","","","","","","","","","","","","","","","","","","","","","","","",""
"null","","html-keyboard-response","33","154770","0.0-33.0","AJZWOT3T73M92","<p style=""font-size: 48px;"">+</p>","","","","","null","allTrialResponses","500","1","-1","img_art/ins/2.jpg","24","I enjoy the rustic look","Allison,Kara,Katie,Jenna,Erika,Jen","I don't have strong feelings about this,10,20,20","I like the blocks of color arrangements,30,160,20","too much color!,-28,180,20","One of my pet peevs,-48,140,20","I would never be able to compose a sophisticated pallete like this,48,100,20","It reminds me of a fireplace,36,120,20","Kara","I like the blocks of color arrangements,30,160,20","Jen","It reminds me of a fireplace,36,120,20","Allison","I don't have strong feelings about this,10,20,20","0"
"8544","","survey-text","34","163316","0.0-34.0-0.0","AJZWOT3T73M92","","","","{""Q0"":""This reminds me of winter""}","","","","","","","","","","","","","","","","","","","","","","",""
"2818.5999999940395","","image-slider-response","35","166136","0.0-35.0","AJZWOT3T73M92","","","","","35","","","","","","","","","","","","","","","","","","","","","",""
"null","","image-button-response","36","171138","0.0-36.0","AJZWOT3T73M92","img_art/ins/3.jpg","null","","","","","","","","","","","","","","","","","","","","","","","","",""
"2709","","image-button-response","37","173848","0.0-37.0","AJZWOT3T73M92","img_art/ins/3.jpg","2","","","","","","","","","","","","","","","","","","","","","","","","",""
"1983","","image-button-response","38","175833","0.0-38.0-0.0","AJZWOT3T73M92","img_art/ins/3.jpg","4","","","","","","","","","","","","","","","","","","","","","","","","",""
"1914","","image-button-response","39","177749","0.0-39.0-0.0","AJZWOT3T73M92","img_art/ins/3.jpg","5","","","","","","","","","","","","","","","","","","","","","","","","",""
"null","","html-keyboard-response","40","178750","0.0-40.0","AJZWOT3T73M92","<p style=""font-size: 48px;"">+</p>","","","","","null","allTrialResponses","1000","1","0","img_art/ins/3.jpg","35","This reminds me of winter","Allison,Kara,Rose,Leslie,Mary,Jen","enjoy the different shades of blue,22,20,20","calming blue is very nice,36,160,20","My daily routine, it's depressing,-20,240,20","It's an alright work,15,200,20","I like the overlapping of brushes,41,220,20","I can feel a rainy day from this painting,18,120,20","Rose","My daily routine, it's depressing,-20,240,20","Mary","I like the overlapping of brushes,41,220,20","Jen","I can feel a rainy day from this painting,18,120,20","0"
"4631","","image-button-response_instructions","41","183384","0.0-41.0","AJZWOT3T73M92","","0","instructions","","","","","","","","","","","","","","","","","","","","","","","",""
"12619","","survey-likert","42","196005","0.0-42.0-0.0","AJZWOT3T73M92","","","","{""Q0"":"""",""Q1"":0,""Q2"":1}","","","","","","","","","","","","","","","","","","","","","","",""
"3661","","survey-text","43","199672","0.0-43.0-0.0","AJZWOT3T73M92","","","","{""Q0"":""rock""}","","","","","","","","","","","","","","","","","","","","","","",""
"9787","","survey-text","44","209460","0.0-44.0-0.0","AJZWOT3T73M92","","","","{""Q0"":""It reminds me of a bird's nest""}","","","","","","","","","","","","","","","","","","","","","","",""
"2074.5","","image-slider-response","45","211536","0.0-45.0","AJZWOT3T73M92","","","","","14","","","","","","","","","","","","","","","","","","","","","",""
"null","","image-button-response","46","216560","0.0-46.0","AJZWOT3T73M92","img_art/18.jpg","null","","","","","","","","","","","","","","","","","","","","","","","","",""
"863","","image-button-response","47","217424","0.0-47.0","AJZWOT3T73M92","img_art/18.jpg","0","","","","","","","","","","","","","","","","","","","","","","","","",""
"2387","","image-button-response","48","219813","0.0-48.0-0.0","AJZWOT3T73M92","img_art/18.jpg","2","","","","","","","","","","","","","","","","","","","","","","","","",""
"1330","","image-button-response","49","221144","0.0-49.0-0.0","AJZWOT3T73M92","img_art/18.jpg","0","","","","","","","","","","","","","","","","","","","","","","","","",""
"3619","","image-button-response","50","228256","0.0-49.1-0.1","AJZWOT3T73M92","img_art/18.jpg","3","","","","","","","","","","","","","","","","","","","","","","","","",""
"null","","html-keyboard-response","51","229258","0.0-50.0","AJZWOT3T73M92","<p style=""font-size: 48px;"">+</p>","","","","","null","allTrialResponses","1000","1","1","img_art/18.jpg","14","It reminds me of a bird's nest","Nicole,Lauren,Anna,Alexandria,Erica,Jenna","There's danger in this painting and it's awesome,40,20,20","I like how the image gives off an impression of bravery.,25,340,20","I could spend a long time looking at it and see different things in the shapes.,21,300,20","the harsh lines with the smooth lines makes me think of wild animals,20,80,20","Makes me to look at it and investigate what it is about and what is going on,17,80,20","hauntingly beautiful. more things revealed the longer you look. love the spirit-like figure in the top left.,47,360,20","Nicole","There's danger in this painting and it's awesome,40,20,20","Anna","I could spend a long time looking at it and see different things in the shapes.,21,300,20","Alexandria","the harsh lines with the smooth lines makes me think of wild animals,20,80,20","2"
"13347","","survey-text","52","242608","0.0-51.0-0.0","AJZWOT3T73M92","","","","{""Q0"":""The soft blending makes it look very blurry""}","","","","","","","","","","","","","","","","","","","","","","",""
"1866.2000000029802","","image-slider-response","53","244476","0.0-52.0","AJZWOT3T73M92","","","","","-9","","","","","","","","","","","","","","","","","","","","","",""
"null","","image-button-response","54","249482","0.0-53.0","AJZWOT3T73M92","img_art/1.jpg","null","","","","","","","","","","","","","","","","","","","","","","","","",""
"9349","","image-button-response","55","258833","0.0-54.0","AJZWOT3T73M92","img_art/1.jpg","5","","","","","","","","","","","","","","","","","","","","","","","","",""
"1039","","image-button-response","56","259873","0.0-55.0-0.0","AJZWOT3T73M92","img_art/1.jpg","0","","","","","","","","","","","","","","","","","","","","","","","","",""
"1126","","image-button-response","57","261001","0.0-56.0-0.0","AJZWOT3T73M92","img_art/1.jpg","1","","","","","","","","","","","","","","","","","","","","","","","","",""
"null","","html-keyboard-response","58","261507","0.0-57.0","AJZWOT3T73M92","<p style=""font-size: 48px;"">+</p>","","","","","null","allTrialResponses","500","1","2","img_art/1.jpg","-9","The soft blending makes it look very blurry","Nicole,Sophia,Anna,Alexandria,Haley,Kayla","I love the colors but it's too intense sometimes,22,20,20","This is a great piece that has a lot more going on the longer you look at it. I like it!,30,280,20","The colors are nice but that's all it is,21,300,20","it is very colorful and makes me happy,44,80,20","Pleasant, but a tad too monochromatic in some areas for my taste,7,220,20","Happy! Reminds me of hiking in tennesee.,18,180,20","Kayla","Happy! Reminds me of hiking in tennesee.,18,180,20","Nicole","I love the colors but it's too intense sometimes,22,20,20","Sophia","This is a great piece that has a lot more going on the longer you look at it. I like it!,30,280,20","2"
"11686","","survey-text","59","273196","0.0-58.0-0.0","AJZWOT3T73M92","","","","{""Q0"":""This makes me think of the show Dexter""}","","","","","","","","","","","","","","","","","","","","","","",""
"3346.6000000089407","","image-slider-response","60","276544","0.0-59.0","AJZWOT3T73M92","","","","","26","","","","","","","","","","","","","","","","","","","","","",""
"null","","image-button-response","61","281552","0.0-60.0","AJZWOT3T73M92","img_art/3.jpg","null","","","","","","","","","","","","","","","","","","","","","","","","",""
"8291","","image-button-response","62","289844","0.0-61.0","AJZWOT3T73M92","img_art/3.jpg","0","","","","","","","","","","","","","","","","","","","","","","","","",""
"3639","","image-button-response","63","293485","0.0-62.0-0.0","AJZWOT3T73M92","img_art/3.jpg","1","","","","","","","","","","","","","","","","","","","","","","","","",""
"3194","","image-button-response","64","296681","0.0-63.0-0.0","AJZWOT3T73M92","img_art/3.jpg","5","","","","","","","","","","","","","","","","","","","","","","","","",""
"null","","html-keyboard-response","65","297682","0.0-64.0","AJZWOT3T73M92","<p style=""font-size: 48px;"">+</p>","","","","","null","allTrialResponses","1000","1","3","img_art/3.jpg","26","This makes me think of the show Dexter","Nicole,Sophia,Michelle,Cassidy,Morgan,Kayla","Something I'd paint when I'm mad. I feel that,20,20,20","Marker gone wild?  Not sure what's going on here.,-21,280,20","Ok, just a bunch of red lines and a grey smudge. Would pass this right by in a gallery,-12,280,20","Again, looks like a child's work. I don't get these types of pieces. Too simple,-47,140,20","Somewhere between a child's art and a poorly drawn battle map.,8,380,20","Really have no idea what I'm looking at.,1,180,20","Nicole","Something I'd paint when I'm mad. I feel that,20,20,20","Sophia","Marker gone wild?  Not sure what's going on here.,-21,280,20","Kayla","Really have no idea what I'm looking at.,1,180,20","2"
"7432","","survey-text","66","305116","0.0-65.0-0.0","AJZWOT3T73M92","","","","{""Q0"":""I think this is very bland""}","","","","","","","","","","","","","","","","","","","","","","",""
"2834.5","","image-slider-response","67","307952","0.0-66.0","AJZWOT3T73M92","","","","","-44","","","","","","","","","","","","","","","","","","","","","",""
"null","","image-button-response","68","312963","0.0-67.0","AJZWOT3T73M92","img_art/30.jpg","null","","","","","","","","","","","","","","","","","","","","","","","","",""
"6840","","image-button-response","69","319804","0.0-68.0","AJZWOT3T73M92","img_art/30.jpg","3","","","","","","","","","","","","","","","","","","","","","","","","",""
"2298","","image-button-response","70","322104","0.0-69.0-0.0","AJZWOT3T73M92","img_art/30.jpg","0","","","","","","","","","","","","","","","","","","","","","","","","",""
"1822","","image-button-response","71","323928","0.0-70.0-0.0","AJZWOT3T73M92","img_art/30.jpg","2","","","","","","","","","","","","","","","","","","","","","","","","",""
"null","","html-keyboard-response","72","324935","0.0-71.0","AJZWOT3T73M92","<p style=""font-size: 48px;"">+</p>","","","","","null","allTrialResponses","1000","1","4","img_art/30.jpg","-44","I think this is very bland","Nicole,Sophia,Mariah,Jennifer,Vanessa,Kayla","I like the softness of this but it doesn't make me feel that nice,5,20,20","Hmmm. I think the artist is trying to direct me to a spreadsheet?  (s/s),-10,280,20","It just feels hasty and not well composed. Has an angsty teen feel,-31,140,20","The color scheme used in this piece is very ugly.,-50,380,20","I like the red against the blue, but otherwise, it's not really my taste,4,380,20","It's soothing- the page is full, but there aren't too many things happening.,23,180,20","Jennifer","The color scheme used in this piece is very ugly.,-50,380,20","Nicole","I like the softness of this but it doesn't make me feel that nice,5,20,20","Mariah","It just feels hasty and not well composed. Has an angsty teen feel,-31,140,20","2"
"13277","","survey-text","73","338216","0.0-72.0-0.0","AJZWOT3T73M92","","","","{""Q0"":""I don't know why this makes me think of flowers""}","","","","","","","","","","","","","","","","","","","","","","",""
"2362.8999999910593","","image-slider-response","74","340580","0.0-73.0","AJZWOT3T73M92","","","","","-22","","","","","","","","","","","","","","","","","","","","","",""
"null","","image-button-response","75","345583","0.0-74.0","AJZWOT3T73M92","img_art/5.jpg","null","","","","","","","","","","","","","","","","","","","","","","","","",""
"6201","","image-button-response","76","351784","0.0-75.0","AJZWOT3T73M92","img_art/5.jpg","4","","","","","","","","","","","","","","","","","","","","","","","","",""
"962","","image-button-response","77","352748","0.0-76.0-0.0","AJZWOT3T73M92","img_art/5.jpg","3","","","","","","","","","","","","","","","","","","","","","","","","",""
"734","","image-button-response","78","353484","0.0-77.0-0.0","AJZWOT3T73M92","img_art/5.jpg","2","","","","","","","","","","","","","","","","","","","","","","","","",""
"null","","html-keyboard-response","79","355000","0.0-78.0","AJZWOT3T73M92","<p style=""font-size: 48px;"">+</p>","","","","","null","allTrialResponses","1500","1","5","img_art/5.jpg","-22","I don't know why this makes me think of flowers","Nicole,Leah,Mariah,Jennifer,Mackenzie,Emily","I hate the shapes,-30,20,20","Boring, no flow except the pink feathery band,-42,360,20","It feels very strong and open.,31,140,20","This piece doesn't really stand out.,0,380,20","Overpowering colors.,-26,20,20","Complete garbage. Looks like a kid drew it.,-50,40,20","Mackenzie","Overpowering colors.,-26,20,20","Jennifer","This piece doesn't really stand out.,0,380,20","Mariah","It feels very strong and open.,31,140,20","2"
"3383","","survey-text","80","358389","0.0-79.0-0.0","AJZWOT3T73M92","","","","{""Q0"":""sky""}","","","","","","","","","","","","","","","","","","","","","","",""
"9787","","survey-text","81","368176","0.0-80.0-0.0","AJZWOT3T73M92","","","","{""Q0"":""I really enjoy this piece""}","","","","","","","","","","","","","","","","","","","","","","",""
"4598.5","","image-slider-response","82","372777","0.0-81.0","AJZWOT3T73M92","","","","","46","","","","","","","","","","","","","","","","","","","","","",""
"null","","image-button-response","83","377793","0.0-82.0","AJZWOT3T73M92","img_art/25.jpg","null","","","","","","","","","","","","","","","","","","","","","","","","",""
"3230","","image-button-response","84","381025","0.0-83.0","AJZWOT3T73M92","img_art/25.jpg","3","","","","","","","","","","","","","","","","","","","","","","","","",""
"765","","image-button-response","85","381793","0.0-84.0-0.0","AJZWOT3T73M92","img_art/25.jpg","4","","","","","","","","","","","","","","","","","","","","","","","","",""
"830","","image-button-response","86","382625","0.0-85.0-0.0","AJZWOT3T73M92","img_art/25.jpg","0","","","","","","","","","","","","","","","","","","","","","","","","",""
"null","","html-keyboard-response","87","383627","0.0-86.0","AJZWOT3T73M92","<p style=""font-size: 48px;"">+</p>","","","","","null","allTrialResponses","1000","1","6","img_art/25.jpg","46","I really enjoy this piece","Kimberly,Alexa,Mariah,Jennifer,Mackenzie,Makayla","Cult-like, which to me makes it kind of creepy,-21,260,20","It's really neat and cool looking,20,40,20","The proportions are unpleasant.,-30,140,20","Spooky, but in a good way. I like the green and black color palette.,42,380,20","Very nice color contrast and design.,40,20,20","It's very mystical.,5,80,20","Jennifer","Spooky, but in a good way. I like the green and black color palette.,42,380,20","Mackenzie","Very nice color contrast and design.,40,20,20","Kimberly","Cult-like, which to me makes it kind of creepy,-21,260,20","2"
"20095","","survey-text","88","403725","0.0-87.0-0.0","AJZWOT3T73M92","","","","{""Q0"":""Looks like a bunch of small pictures trying to make a bigger picture but failed""}","","","","","","","","","","","","","","","","","","","","","","",""
"3778.5","","image-slider-response","89","407505","0.0-88.0","AJZWOT3T73M92","","","","","-5","","","","","","","","","","","","","","","","","","","","","",""
"null","","image-button-response","90","412509","0.0-89.0","AJZWOT3T73M92","img_art/12.jpg","null","","","","","","","","","","","","","","","","","","","","","","","","",""
"2770","","image-button-response","91","415281","0.0-90.0","AJZWOT3T73M92","img_art/12.jpg","2","","","","","","","","","","","","","","","","","","","","","","","","",""
"2362","","image-button-response","92","417644","0.0-91.0-0.0","AJZWOT3T73M92","img_art/12.jpg","5","","","","","","","","","","","","","","","","","","","","","","","","",""
"1690","","image-button-response","93","419336","0.0-92.0-0.0","AJZWOT3T73M92","img_art/12.jpg","3","","","","","","","","","","","","","","","","","","","","","","","","",""
"null","","html-keyboard-response","94","420342","0.0-93.0","AJZWOT3T73M92","<p style=""font-size: 48px;"">+</p>","","","","","null","allTrialResponses","1000","1","7","img_art/12.jpg","-5","Looks like a bunch of small pictures trying to make a bigger picture but failed","Kimberly,Leslie,Michaela,Jennifer,Mackenzie,Mary","Just not a fan, I can't figure out why,-17,260,20","This elicits no reaction in me.,0,380,20","It looks like old lady upholstery,12,260,20","This piece doesn't provoke any kind of reaction,0,380,20","I like the color scheme.,10,20,20","The colors are ok. The piece reminds me of the 90s era, so I kinda like it!,-4,180,20","Michaela","It looks like old lady upholstery,12,260,20","Mary","The colors are ok. The piece reminds me of the 90s era, so I kinda like it!,-4,180,20","Jennifer","This piece doesn't provoke any kind of reaction,0,380,20","2"
"12428","","survey-text","95","432772","0.0-94.0-0.0","AJZWOT3T73M92","","","","{""Q0"":""This looks like a burning violin""}","","","","","","","","","","","","","","","","","","","","","","",""
"2122.5999999940395","","image-slider-response","96","434896","0.0-95.0","AJZWOT3T73M92","","","","","14","","","","","","","","","","","","","","","","","","","","","",""
"null","","image-button-response","97","439907","0.0-96.0","AJZWOT3T73M92","img_art/10.jpg","null","","","","","","","","","","","","","","","","","","","","","","","","",""
"1896","","image-button-response","98","441804","0.0-97.0","AJZWOT3T73M92","img_art/10.jpg","2","","","","","","","","","","","","","","","","","","","","","","","","",""
"4630","","image-button-response","99","446436","0.0-98.0-0.0","AJZWOT3T73M92","img_art/10.jpg","4","","","","","","","","","","","","","","","","","","","","","","","","",""
"1086","","image-button-response","100","447524","0.0-99.0-0.0","AJZWOT3T73M92","img_art/10.jpg","1","","","","","","","","","","","","","","","","","","","","","","","","",""
"null","","html-keyboard-response","101","448031","0.0-100.0","AJZWOT3T73M92","<p style=""font-size: 48px;"">+</p>","","","","","null","allTrialResponses","500","1","8","img_art/10.jpg","14","This looks like a burning violin","Mikayla,Alicia,Michaela,Jennifer,Kaylee,Mary","Kinda creepy not my favorite,-26,300,20","It's art. (for some),7,120,20","It looks like it's sinking but it could also be a view from above,40,260,20","I am neutral towards the artwork,1,380,20","a blue whale on the sea,12,200,20","The flow of lines is off. There are curvy and straight angry lines. It's not flattering at all.,-27,180,20","Michaela","It looks like it's sinking but it could also be a view from above,40,260,20","Kaylee","a blue whale on the sea,12,200,20","Alicia","It's art. (for some),7,120,20","2"
"17041","","survey-text","102","465076","0.0-101.0-0.0","AJZWOT3T73M92","","","","{""Q0"":""I like the impressionism ""}","","","","","","","","","","","","","","","","","","","","","","",""
"2314.7999999970198","","image-slider-response","103","467392","0.0-102.0","AJZWOT3T73M92","","","","","8","","","","","","","","","","","","","","","","","","","","","",""
"null","","image-button-response","104","472395","0.0-103.0","AJZWOT3T73M92","img_art/26.jpg","null","","","","","","","","","","","","","","","","","","","","","","","","",""
"1567","","image-button-response","105","473964","0.0-104.0","AJZWOT3T73M92","img_art/26.jpg","2","","","","","","","","","","","","","","","","","","","","","","","","",""
"6682","","image-button-response","106","480648","0.0-105.0-0.0","AJZWOT3T73M92","img_art/26.jpg","0","","","","","","","","","","","","","","","","","","","","","","","","",""
"414","","image-button-response","107","481064","0.0-106.0-0.0","AJZWOT3T73M92","img_art/26.jpg","1","","","","","","","","","","","","","","","","","","","","","","","","",""
"null","","html-keyboard-response","108","482065","0.0-107.0","AJZWOT3T73M92","<p style=""font-size: 48px;"">+</p>","","","","","null","allTrialResponses","1000","1","9","img_art/26.jpg","8","I like the impressionism ","Kathryn,Alicia,Michaela,Destiny,Kaylee,Chelsea","This piece feels pretty chill like it's just a normal day in the city.,10,140,20","I like the simple watercolor colors, makes my mind work, thumbs up.,27,120,20","Elevator art but the watercolors are good,29,260,20","I really love pastels and they're just being dimmed down too much here,-3,360,20","cool cozy town vibes,50,200,20","I wish it were more pastel but I think it is relaxing to look at.,30,180,20","Michaela","Elevator art but the watercolors are good,29,260,20","Kathryn","This piece feels pretty chill like it's just a normal day in the city.,10,140,20","Alicia","I like the simple watercolor colors, makes my mind work, thumbs up.,27,120,20","2"
"12023","","survey-text","109","494092","0.0-108.0-0.0","AJZWOT3T73M92","","","","{""Q0"":""This makes me want to go on a hike""}","","","","","","","","","","","","","","","","","","","","","","",""
"2370.300000011921","","image-slider-response","110","496464","0.0-109.0","AJZWOT3T73M92","","","","","43","","","","","","","","","","","","","","","","","","","","","",""
"null","","image-button-response","111","501466","0.0-110.0","AJZWOT3T73M92","img_art/24.jpg","null","","","","","","","","","","","","","","","","","","","","","","","","",""
"1808","","image-button-response","112","503276","0.0-111.0","AJZWOT3T73M92","img_art/24.jpg","0","","","","","","","","","","","","","","","","","","","","","","","","",""
"2546","","image-button-response","113","505824","0.0-112.0-0.0","AJZWOT3T73M92","img_art/24.jpg","4","","","","","","","","","","","","","","","","","","","","","","","","",""
"3774","","image-button-response","114","509600","0.0-113.0-0.0","AJZWOT3T73M92","img_art/24.jpg","3","","","","","","","","","","","","","","","","","","","","","","","","",""
"null","","html-keyboard-response","115","510102","0.0-114.0","AJZWOT3T73M92","<p style=""font-size: 48px;"">+</p>","","","","","null","allTrialResponses","500","1","10","img_art/24.jpg","43","This makes me want to go on a hike","Kathryn,Alicia,Michaela,Courtney,Katherine,Molly","This is clear and healthy. It makes me think of unspoiled nature.,20,140,20","Nature, abstract, I'd hang this in my house.,37,120,20","Very pretty and soft,37,260,20","What a nice refreshing waterfall.,39,280,20","The combination of nature / realism with abstract colors is unique.,39,120,20","Extraordinary and unusual.,30,340,20","Kathryn","This is clear and healthy. It makes me think of unspoiled nature.,20,140,20","Katherine","The combination of nature / realism with abstract colors is unique.,39,120,20","Courtney","What a nice refreshing waterfall.,39,280,20","2"
"6535","","survey-text","116","516643","0.0-115.0-0.0","AJZWOT3T73M92","","","","{""Q0"":""our""}","","","","","","","","","","","","","","","","","","","","","","",""
"18195","","survey-text","117","534840","0.0-116.0-0.0","AJZWOT3T73M92","","","","{""Q0"":""The colors are very soothing despite the messiness of the splatter""}","","","","","","","","","","","","","","","","","","","","","","",""
"2378.5","","image-slider-response","118","537220","0.0-117.0","AJZWOT3T73M92","","","","","36","","","","","","","","","","","","","","","","","","","","","",""
"null","","image-button-response","119","542222","0.0-118.0","AJZWOT3T73M92","img_art/13.jpg","null","","","","","","","","","","","","","","","","","","","","","","","","",""
"3045","","image-button-response","120","545268","0.0-119.0","AJZWOT3T73M92","img_art/13.jpg","2","","","","","","","","","","","","","","","","","","","","","","","","",""
"3403","","image-button-response","121","548672","0.0-120.0-0.0","AJZWOT3T73M92","img_art/13.jpg","1","","","","","","","","","","","","","","","","","","","","","","","","",""
"339","","image-button-response","122","549012","0.0-121.0-0.0","AJZWOT3T73M92","img_art/13.jpg","0","","","","","","","","","","","","","","","","","","","","","","","","",""
"null","","html-keyboard-response","123","550519","0.0-122.0","AJZWOT3T73M92","<p style=""font-size: 48px;"">+</p>","","","","","null","allTrialResponses","1500","1","11","img_art/13.jpg","36","The colors are very soothing despite the messiness of the splatter","Kathryn,Jasmine,Christina,Courtney,Katherine,Hannah","Reminds me of depression anxiety, but negativity is dampened by motion. It's trying to release itself through expression.,-10,140,20","I like the colors together,17,340,20","i like the colors but it looks like something that would hang in a hotel,18,240,20","Debree on top of a calm pond.,18,280,20","Best color combo. i love this.,50,120,20","Like this a lot and would hang in my house.,27,240,20","Christina","i like the colors but it looks like something that would hang in a hotel,18,240,20","Jasmine","I like the colors together,17,340,20","Kathryn","Reminds me of depression anxiety, but negativity is dampened by motion. It's trying to release itself through expression.,-10,140,20","2"
"10833","","survey-text","124","561356","0.0-123.0-0.0","AJZWOT3T73M92","","","","{""Q0"":""This painting really moves me""}","","","","","","","","","","","","","","","","","","","","","","",""
"1762.5","","image-slider-response","125","563120","0.0-124.0","AJZWOT3T73M92","","","","","50","","","","","","","","","","","","","","","","","","","","","",""
"null","","image-button-response","126","568135","0.0-125.0","AJZWOT3T73M92","img_art/17.jpg","null","","","","","","","","","","","","","","","","","","","","","","","","",""
"7316","","image-button-response","127","575452","0.0-126.0","AJZWOT3T73M92","img_art/17.jpg","1","","","","","","","","","","","","","","","","","","","","","","","","",""
"430","","image-button-response","128","575884","0.0-127.0-0.0","AJZWOT3T73M92","img_art/17.jpg","0","","","","","","","","","","","","","","","","","","","","","","","","",""
"638","","image-button-response","129","576524","0.0-128.0-0.0","AJZWOT3T73M92","img_art/17.jpg","2","","","","","","","","","","","","","","","","","","","","","","","","",""
"null","","html-keyboard-response","130","578037","0.0-129.0","AJZWOT3T73M92","<p style=""font-size: 48px;"">+</p>","","","","","null","allTrialResponses","1500","1","12","img_art/17.jpg","50","This painting really moves me","Kathryn,Jasmine,Christina,Amanda,Margaret,Gabrielle","Reminds me of the modern art museum in Rome. I didn't ""get"" many pieces, but had a positive cultural experience overall.,20,140,20","I like the use of color in this and how you can actually see shapes form. Seems thoughtful,22,340,20","I like how it looks like a tree. The colors are too muted though,12,240,20","Feels supernatural and scary,-16,180,20","gentle watercolor vibes,12,100,20","nice composition and colors, fairy land,28,160,20","Jasmine","I like the use of color in this and how you can actually see shapes form. Seems thoughtful,22,340,20","Kathryn","Reminds me of the modern art museum in Rome. I didn't ""get"" many pieces, but had a positive cultural experience overall.,20,140,20","Christina","I like how it looks like a tree. The colors are too muted though,12,240,20","2"
"18940","","survey-text","131","596980","0.0-130.0-0.0","AJZWOT3T73M92","","","","{""Q0"":""I like the colors but otherwise it's a bit dull""}","","","","","","","","","","","","","","","","","","","","","","",""
"2254.5","","image-slider-response","132","599235","0.0-131.0","AJZWOT3T73M92","","","","","-27","","","","","","","","","","","","","","","","","","","","","",""
"null","","image-button-response","133","604240","0.0-132.0","AJZWOT3T73M92","img_art/21.jpg","null","","","","","","","","","","","","","","","","","","","","","","","","",""
"1158","","image-button-response","134","605400","0.0-133.0","AJZWOT3T73M92","img_art/21.jpg","0","","","","","","","","","","","","","","","","","","","","","","","","",""
"686","","image-button-response","135","606088","0.0-134.0-0.0","AJZWOT3T73M92","img_art/21.jpg","1","","","","","","","","","","","","","","","","","","","","","","","","",""
"6130","","image-button-response","136","612220","0.0-135.0-0.0","AJZWOT3T73M92","img_art/21.jpg","4","","","","","","","","","","","","","","","","","","","","","","","","",""
"null","","html-keyboard-response","137","613225","0.0-136.0","AJZWOT3T73M92","<p style=""font-size: 48px;"">+</p>","","","","","null","allTrialResponses","1000","1","13","img_art/21.jpg","-27","I like the colors but otherwise it's a bit dull","Kathryn,Jasmine,Christina,Briana,Taylor,Caitlin","This feels chaotic, like a battle or a storm.,-20,140,20","The blues make me feel sadder as my mood is already not the best right now,-10,340,20","it has a lot of happy colors and it's very classic looking,35,240,20","Unfinished. Confusing to look at,-12,400,20","I love the contrasting tones between the two sides,36,340,20","Remove the rocks(?) on the lower right.,5,80,20","Kathryn","This feels chaotic, like a battle or a storm.,-20,140,20","Jasmine","The blues make me feel sadder as my mood is already not the best right now,-10,340,20","Taylor","I love the contrasting tones between the two sides,36,340,20","2"
"18346","","survey-text","138","631575","0.0-137.0-0.0","AJZWOT3T73M92","","","","{""Q0"":""I enjoy the multimedia and monochromic color choice""}","","","","","","","","","","","","","","","","","","","","","","",""
"2291","","image-slider-response","139","633868","0.0-138.0","AJZWOT3T73M92","","","","","50","","","","","","","","","","","","","","","","","","","","","",""
"null","","image-button-response","140","638869","0.0-139.0","AJZWOT3T73M92","img_art/16.jpg","null","","","","","","","","","","","","","","","","","","","","","","","","",""
"3661","","image-button-response","141","642532","0.0-140.0","AJZWOT3T73M92","img_art/16.jpg","0","","","","","","","","","","","","","","","","","","","","","","","","",""
"1530","","image-button-response","142","644064","0.0-141.0-0.0","AJZWOT3T73M92","img_art/16.jpg","2","","","","","","","","","","","","","","","","","","","","","","","","",""
"798","","image-button-response","143","644864","0.0-142.0-0.0","AJZWOT3T73M92","img_art/16.jpg","4","","","","","","","","","","","","","","","","","","","","","","","","",""
"null","","html-keyboard-response","144","645366","0.0-143.0","AJZWOT3T73M92","<p style=""font-size: 48px;"">+</p>","","","","","null","allTrialResponses","500","1","14","img_art/16.jpg","50","I enjoy the multimedia and monochromic color choice","Kathryn,Jasmine,Claire,Ashley,Taylor,Cynthia","I see something that is supposed to be comforting but it's been discarded and lost.,-20,140,20","I like it because it's quite different from the rest,23,340,20","the materials used are interesting,30,260,20","A lot fo these could abstract or childrens work.,23,320,20","It just makes me feel uncomfortable,-25,340,20","Dreamy and chaotic,-9,320,20","Kathryn","I see something that is supposed to be comforting but it's been discarded and lost.,-20,140,20","Claire","the materials used are interesting,30,260,20","Taylor","It just makes me feel uncomfortable,-25,340,20","2"
"11021","","survey-text","145","656391","0.0-144.0-0.0","AJZWOT3T73M92","","","","{""Q0"":""Am I looking at rocks?""}","","","","","","","","","","","","","","","","","","","","","","",""
"3434.6000000089407","","image-slider-response","146","659828","0.0-145.0","AJZWOT3T73M92","","","","","-30","","","","","","","","","","","","","","","","","","","","","",""
"null","","image-button-response","147","664830","0.0-146.0","AJZWOT3T73M92","img_art/7.jpg","null","","","","","","","","","","","","","","","","","","","","","","","","",""
"1813","","image-button-response","148","666644","0.0-147.0","AJZWOT3T73M92","img_art/7.jpg","0","","","","","","","","","","","","","","","","","","","","","","","","",""
"3599","","image-button-response","149","670245","0.0-148.0-0.0","AJZWOT3T73M92","img_art/7.jpg","3","","","","","","","","","","","","","","","","","","","","","","","","",""
"2362","","image-button-response","150","672609","0.0-149.0-0.0","AJZWOT3T73M92","img_art/7.jpg","4","","","","","","","","","","","","","","","","","","","","","","","","",""
"null","","html-keyboard-response","151","673111","0.0-150.0","AJZWOT3T73M92","<p style=""font-size: 48px;"">+</p>","","","","","null","allTrialResponses","500","1","15","img_art/7.jpg","-30","Am I looking at rocks?","Kathryn,Dominique,Claire,Katie,Taylor,Maria","It's off-putting because it reminds me of walking over rough sand/rocks or having scabs on my skin.,-10,140,20","One I would love to own . Calm relaxing spiritual and full of love,41,400,20","reminds me of a cave wall,-21,260,20","I see dryness, which is sad. Dirt, sand, the dessert. Barren dry lifeless,-30,160,20","It makes me think of new archaeology discoveries,15,340,20","elicits no real response,0,120,20","Kathryn","It's off-putting because it reminds me of walking over rough sand/rocks or having scabs on my skin.,-10,140,20","Katie","I see dryness, which is sad. Dirt, sand, the dessert. Barren dry lifeless,-30,160,20","Taylor","It makes me think of new archaeology discoveries,15,340,20","2"
"3103","","survey-text","152","676220","0.0-151.0-0.0","AJZWOT3T73M92","","","","{""Q0"":""course""}","","","","","","","","","","","","","","","","","","","","","","",""
"9795","","survey-text","153","686016","0.0-152.0-0.0","AJZWOT3T73M92","","","","{""Q0"":""I don't like the colors but this is cute""}","","","","","","","","","","","","","","","","","","","","","","",""
"1986.5","","image-slider-response","154","688004","0.0-153.0","AJZWOT3T73M92","","","","","7","","","","","","","","","","","","","","","","","","","","","",""
"null","","image-button-response","155","693006","0.0-154.0","AJZWOT3T73M92","img_art/2.jpg","null","","","","","","","","","","","","","","","","","","","","","","","","",""
"8241","","image-button-response","156","701248","0.0-155.0","AJZWOT3T73M92","img_art/2.jpg","5","","","","","","","","","","","","","","","","","","","","","","","","",""
"831","","image-button-response","157","702080","0.0-156.0-0.0","AJZWOT3T73M92","img_art/2.jpg","0","","","","","","","","","","","","","","","","","","","","","","","","",""
"1602","","image-button-response","158","703684","0.0-157.0-0.0","AJZWOT3T73M92","img_art/2.jpg","1","","","","","","","","","","","","","","","","","","","","","","","","",""
"null","","html-keyboard-response","159","704694","0.0-158.0","AJZWOT3T73M92","<p style=""font-size: 48px;"">+</p>","","","","","null","allTrialResponses","1000","1","16","img_art/2.jpg","7","I don't like the colors but this is cute","Kathryn,Diana,Kaitlyn,Katie,Taylor,Kelly","I think I'm put off by the clashing colors here. It feels discombobulated and sick.,-10,140,20","I think I see people sitting in lawn chairs in a circle watching an event. Not really sure so I rated it lower.,-35,380,20","Too jumbled and disorienting,-13,80,20","Doesn't look like anything. Just a blob of colors.,1,160,20","Doesn't give me a reaction,10,340,20","I cant tell whats happening here and that shade of green is just not my thing.,-17,220,20","Kelly","I cant tell whats happening here and that shade of green is just not my thing.,-17,220,20","Kathryn","I think I'm put off by the clashing colors here. It feels discombobulated and sick.,-10,140,20","Diana","I think I see people sitting in lawn chairs in a circle watching an event. Not really sure so I rated it lower.,-35,380,20","2"
"17136","","survey-text","160","721833","0.0-159.0-0.0","AJZWOT3T73M92","","","","{""Q0"":""Looks like a sad tree which makes me feel lonely""}","","","","","","","","","","","","","","","","","","","","","","",""
"2461.7999999970198","","image-slider-response","161","724296","0.0-160.0","AJZWOT3T73M92","","","","","5","","","","","","","","","","","","","","","","","","","","","",""
"null","","image-button-response","162","729304","0.0-161.0","AJZWOT3T73M92","img_art/6.jpg","null","","","","","","","","","","","","","","","","","","","","","","","","",""
"1011","","image-button-response","163","730316","0.0-162.0","AJZWOT3T73M92","img_art/6.jpg","0","","","","","","","","","","","","","","","","","","","","","","","","",""
"2227","","image-button-response","164","732544","0.0-163.0-0.0","AJZWOT3T73M92","img_art/6.jpg","2","","","","","","","","","","","","","","","","","","","","","","","","",""
"1558","","image-button-response","165","734104","0.0-164.0-0.0","AJZWOT3T73M92","img_art/6.jpg","3","","","","","","","","","","","","","","","","","","","","","","","","",""
"null","","html-keyboard-response","166","735605","0.0-165.0","AJZWOT3T73M92","<p style=""font-size: 48px;"">+</p>","","","","","null","allTrialResponses","1500","1","17","img_art/6.jpg","5","Looks like a sad tree which makes me feel lonely","Kathryn,Diana,Tiffany,Cassandra,Brianna,Kelly","This piece feels hopeful, like an oasis in the desert.,20,140,20","I love it. It reminds me of a bird sitting on a wall.,26,380,20","The painting makes me happy. Like I'm looking at a little bird.,6,360,20","No feeling...just left me feeling kind of blah,1,120,20","Nice desert scene,10,20,20","Simple and pretty.,18,220,20","Kathryn","This piece feels hopeful, like an oasis in the desert.,20,140,20","Tiffany","The painting makes me happy. Like I'm looking at a little bird.,6,360,20","Cassandra","No feeling...just left me feeling kind of blah,1,120,20","2"
"13399","","survey-text","167","749008","0.0-166.0-0.0","AJZWOT3T73M92","","","","{""Q0"":""Dystopian freeway, very gritty vibes""}","","","","","","","","","","","","","","","","","","","","","","",""
"1842.5","","image-slider-response","168","750852","0.0-167.0","AJZWOT3T73M92","","","","","10","","","","","","","","","","","","","","","","","","","","","",""
"null","","image-button-response","169","755860","0.0-168.0","AJZWOT3T73M92","img_art/11.jpg","null","","","","","","","","","","","","","","","","","","","","","","","","",""
"2315","","image-button-response","170","758176","0.0-169.0","AJZWOT3T73M92","img_art/11.jpg","1","","","","","","","","","","","","","","","","","","","","","","","","",""
"734","","image-button-response","171","758912","0.0-170.0-0.0","AJZWOT3T73M92","img_art/11.jpg","3","","","","","","","","","","","","","","","","","","","","","","","","",""
"4454","","image-button-response","172","763368","0.0-171.0-0.0","AJZWOT3T73M92","img_art/11.jpg","2","","","","","","","","","","","","","","","","","","","","","","","","",""
"null","","html-keyboard-response","173","764370","0.0-172.0","AJZWOT3T73M92","<p style=""font-size: 48px;"">+</p>","","","","","null","allTrialResponses","1000","1","18","img_art/11.jpg","10","Dystopian freeway, very gritty vibes","Kathryn,Amy,Tiffany,Cassandra,Crystal,Sierra","This is disorienting, like motion sickness.,-20,140,20","Simple and complex. Hopeful yet dark. I love this,35,220,20","I feel excited, like I'm in the middle of a bustling city.,26,360,20","I liked it it looked like an roller coasters at an amusment park.,16,120,20","Enjoyed the lines representing different paths that encompass different entities,20,300,20","i like the colors and patters and waves,5,260,20","Amy","Simple and complex. Hopeful yet dark. I love this,35,220,20","Cassandra","I liked it it looked like an roller coasters at an amusment park.,16,120,20","Tiffany","I feel excited, like I'm in the middle of a bustling city.,26,360,20","2"
"18702","","survey-text","174","783076","0.0-173.0-0.0","AJZWOT3T73M92","","","","{""Q0"":""Looks like a hand with long fingernails and I do not like it""}","","","","","","","","","","","","","","","","","","","","","","",""
"4718.5","","image-slider-response","175","787796","0.0-174.0","AJZWOT3T73M92","","","","","-29","","","","","","","","","","","","","","","","","","","","","",""
"null","","image-button-response","176","792804","0.0-175.0","AJZWOT3T73M92","img_art/4.jpg","null","","","","","","","","","","","","","","","","","","","","","","","","",""
"766","","image-button-response","177","793572","0.0-176.0","AJZWOT3T73M92","img_art/4.jpg","2","","","","","","","","","","","","","","","","","","","","","","","","",""
"4014","","image-button-response","178","797588","0.0-177.0-0.0","AJZWOT3T73M92","img_art/4.jpg","5","","","","","","","","","","","","","","","","","","","","","","","","",""
"882","","image-button-response","179","798472","0.0-178.0-0.0","AJZWOT3T73M92","img_art/4.jpg","1","","","","","","","","","","","","","","","","","","","","","","","","",""
"null","","html-keyboard-response","180","799474","0.0-179.0","AJZWOT3T73M92","<p style=""font-size: 48px;"">+</p>","","","","","null","allTrialResponses","1000","1","19","img_art/4.jpg","-29","Looks like a hand with long fingernails and I do not like it","Bailey,Amy,Tiffany,Cassandra,Sara,Isabella","Boring and tasteless. Almost reminds me of when an art gallery called a banana 'art',-42,360,20","disturbing and uncomfortable.,10,220,20","The sickly looking colors make me feel very uncomfortable.,-35,360,20","I don't like this...a mustardy scibble.,-47,120,20","Random swirls again,-30,160,20","Looks like a creative hand,45,280,20","Tiffany","The sickly looking colors make me feel very uncomfortable.,-35,360,20","Isabella","Looks like a creative hand,45,280,20","Amy","disturbing and uncomfortable.,10,220,20","2"
"18566","","survey-text","181","818044","0.0-180.0-0.0","AJZWOT3T73M92","","","","{""Q0"":""I think I see a mouse. I really like the tone of this painting.""}","","","","","","","","","","","","","","","","","","","","","","",""
"2130.7999999970198","","image-slider-response","182","820176","0.0-181.0","AJZWOT3T73M92","","","","","36","","","","","","","","","","","","","","","","","","","","","",""
"null","","image-button-response","183","825178","0.0-182.0","AJZWOT3T73M92","img_art/28.jpg","null","","","","","","","","","","","","","","","","","","","","","","","","",""
"748","","image-button-response","184","825928","0.0-183.0","AJZWOT3T73M92","img_art/28.jpg","1","","","","","","","","","","","","","","","","","","","","","","","","",""
"1614","","image-button-response","185","827544","0.0-184.0-0.0","AJZWOT3T73M92","img_art/28.jpg","3","","","","","","","","","","","","","","","","","","","","","","","","",""
"4055","","image-button-response","186","831600","0.0-185.0-0.0","AJZWOT3T73M92","img_art/28.jpg","4","","","","","","","","","","","","","","","","","","","","","","","","",""
"null","","html-keyboard-response","187","833114","0.0-186.0","AJZWOT3T73M92","<p style=""font-size: 48px;"">+</p>","","","","","null","allTrialResponses","1500","1","20","img_art/28.jpg","36","I think I see a mouse. I really like the tone of this painting.","Amber,Amy,Tiffany,Samantha,Monica,Isabella","Colors are too dull.,-30,200,20","Contemplative and a little dark. The muted colors and subject create a sense of mystery.,15,220,20","It makes me feel happy, and a little anxious.,50,360,20","Interesting and weird. Perfect conversational piece,33,140,20","The dark colors make it look dirty and the shapes make me uncomfortable,-50,360,20","This is also something I would see in a serious but safe environment,14,280,20","Amy","Contemplative and a little dark. The muted colors and subject create a sense of mystery.,15,220,20","Samantha","Interesting and weird. Perfect conversational piece,33,140,20","Monica","The dark colors make it look dirty and the shapes make me uncomfortable,-50,360,20","2"
"2700","","survey-text","188","835820","0.0-187.0-0.0","AJZWOT3T73M92","","","","{""Q0"":""we""}","","","","","","","","","","","","","","","","","","","","","","",""
"15924","","survey-text","189","851744","0.0-188.0-0.0","AJZWOT3T73M92","","","","{""Q0"":""I love the abstractness and chunky patterns""}","","","","","","","","","","","","","","","","","","","","","","",""
"2346.6000000089407","","image-slider-response","190","854092","0.0-189.0","AJZWOT3T73M92","","","","","49","","","","","","","","","","","","","","","","","","","","","",""
"null","","image-button-response","191","859106","0.0-190.0","AJZWOT3T73M92","img_art/8.jpg","null","","","","","","","","","","","","","","","","","","","","","","","","",""
"1061","","image-button-response","192","860168","0.0-191.0","AJZWOT3T73M92","img_art/8.jpg","1","","","","","","","","","","","","","","","","","","","","","","","","",""
"3399","","image-button-response","193","863569","0.0-192.0-0.0","AJZWOT3T73M92","img_art/8.jpg","4","","","","","","","","","","","","","","","","","","","","","","","","",""
"7038","","image-button-response","194","870609","0.0-193.0-0.0","AJZWOT3T73M92","img_art/8.jpg","5","","","","","","","","","","","","","","","","","","","","","","","","",""
"null","","html-keyboard-response","195","872110","0.0-194.0","AJZWOT3T73M92","<p style=""font-size: 48px;"">+</p>","","","","","null","allTrialResponses","1500","1","21","img_art/8.jpg","49","I love the abstractness and chunky patterns","Erin,Amy,Shannon,Samantha,Monica,Marissa","Lots of depth, faces, city, arch,3,120,20","The definition and the colors give make this painting accessible and thought provoking.,30,220,20","I like that it looks like a city and the way the shapes and colors are put together,40,220,20","The face bothers me,-25,140,20","The faces in the upper left show agony and contrast with the geometric shapes too much,-31,360,20","I can't tell if this is supposed to portray just city life or a town crumbling,-5,160,20","Amy","The definition and the colors give make this painting accessible and thought provoking.,30,220,20","Monica","The faces in the upper left show agony and contrast with the geometric shapes too much,-31,360,20","Marissa","I can't tell if this is supposed to portray just city life or a town crumbling,-5,160,20","2"
"16757","","survey-text","196","888872","0.0-195.0-0.0","AJZWOT3T73M92","","","","{""Q0"":""I find this one to be a little dull and has too much chunky white""}","","","","","","","","","","","","","","","","","","","","","","",""
"2210.5","","image-slider-response","197","891084","0.0-196.0","AJZWOT3T73M92","","","","","-49","","","","","","","","","","","","","","","","","","","","","",""
"null","","image-button-response","198","896092","0.0-197.0","AJZWOT3T73M92","img_art/20.jpg","null","","","","","","","","","","","","","","","","","","","","","","","","",""
"1779","","image-button-response","199","897872","0.0-198.0","AJZWOT3T73M92","img_art/20.jpg","0","","","","","","","","","","","","","","","","","","","","","","","","",""
"3226","","image-button-response","200","901100","0.0-199.0-0.0","AJZWOT3T73M92","img_art/20.jpg","2","","","","","","","","","","","","","","","","","","","","","","","","",""
"642","","image-button-response","201","901744","0.0-200.0-0.0","AJZWOT3T73M92","img_art/20.jpg","1","","","","","","","","","","","","","","","","","","","","","","","","",""
"null","","html-keyboard-response","202","903245","0.0-201.0","AJZWOT3T73M92","<p style=""font-size: 48px;"">+</p>","","","","","null","allTrialResponses","1500","1","22","img_art/20.jpg","-49","I find this one to be a little dull and has too much chunky white","Alexandra,Amy,Gabriela,Rebecca,Monica,Marissa","The white blob looks like a face and it's creepy,-30,60,20","Elements that are more defined are incongruous to the soft and melting nature of this painting,5,220,20","it is a bit disturbing, like a monster or ghost floating away from a bleak building,-8,140,20","reminds me of georgia o'keeffe's skull,22,100,20","It looks like a junkyard and isn't appealing,-22,360,20","I feel intrigued and impressed,34,160,20","Alexandra","The white blob looks like a face and it's creepy,-30,60,20","Gabriela","it is a bit disturbing, like a monster or ghost floating away from a bleak building,-8,140,20","Amy","Elements that are more defined are incongruous to the soft and melting nature of this painting,5,220,20","2"
"10358","","survey-text","203","913607","0.0-202.0-0.0","AJZWOT3T73M92","","","","{""Q0"":""I'm not sure what is going on here and I am not a fan""}","","","","","","","","","","","","","","","","","","","","","","",""
"2023.199999988079","","image-slider-response","204","915632","0.0-203.0","AJZWOT3T73M92","","","","","-20","","","","","","","","","","","","","","","","","","","","","",""
"null","","image-button-response","205","920633","0.0-204.0","AJZWOT3T73M92","img_art/15.jpg","null","","","","","","","","","","","","","","","","","","","","","","","","",""
"3213","","image-button-response","206","923848","0.0-205.0","AJZWOT3T73M92","img_art/15.jpg","3","","","","","","","","","","","","","","","","","","","","","","","","",""
"1022","","image-button-response","207","924872","0.0-206.0-0.0","AJZWOT3T73M92","img_art/15.jpg","4","","","","","","","","","","","","","","","","","","","","","","","","",""
"1898","","image-button-response","208","926772","0.0-207.0-0.0","AJZWOT3T73M92","img_art/15.jpg","5","","","","","","","","","","","","","","","","","","","","","","","","",""
"null","","html-keyboard-response","209","927785","0.0-208.0","AJZWOT3T73M92","<p style=""font-size: 48px;"">+</p>","","","","","null","allTrialResponses","1000","1","23","img_art/15.jpg","-20","I'm not sure what is going on here and I am not a fan","Alexandra,Amy,Gabriela,Jacqueline,Danielle,Megan","This is sort of ugly, but I do like the design.,10,60,20","basic colors and pleasing shapes providing a calming effect,15,220,20","it is dark and gloomy,-9,140,20","I don't like how the black dots are aligned.,-20,300,20","This is pretty nice, reminds me of dark peacock feathers, or perhaps a bush with berries in it?,15,340,20","Dark, drab asymmetrical floral piece,-26,200,20","Jacqueline","I don't like how the black dots are aligned.,-20,300,20","Danielle","This is pretty nice, reminds me of dark peacock feathers, or perhaps a bush with berries in it?,15,340,20","Megan","Dark, drab asymmetrical floral piece,-26,200,20","2"
"20014","","survey-text","210","947804","0.0-209.0-0.0","AJZWOT3T73M92","","","","{""Q0"":""I'm seeing a volcano surrounded by jungle""}","","","","","","","","","","","","","","","","","","","","","","",""
"1490.5","","image-slider-response","211","949296","0.0-210.0","AJZWOT3T73M92","","","","","10","","","","","","","","","","","","","","","","","","","","","",""
"null","","image-button-response","212","954313","0.0-211.0","AJZWOT3T73M92","img_art/9.jpg","null","","","","","","","","","","","","","","","","","","","","","","","","",""
"1114","","image-button-response","213","955428","0.0-212.0","AJZWOT3T73M92","img_art/9.jpg","2","","","","","","","","","","","","","","","","","","","","","","","","",""
"1054","","image-button-response","214","956484","0.0-213.0-0.0","AJZWOT3T73M92","img_art/9.jpg","3","","","","","","","","","","","","","","","","","","","","","","","","",""
"7870","","image-button-response","215","964356","0.0-214.0-0.0","AJZWOT3T73M92","img_art/9.jpg","5","","","","","","","","","","","","","","","","","","","","","","","","",""
"null","","html-keyboard-response","216","964858","0.0-215.0","AJZWOT3T73M92","<p style=""font-size: 48px;"">+</p>","","","","","null","allTrialResponses","500","1","24","img_art/9.jpg","10","I'm seeing a volcano surrounded by jungle","Miranda,Natalie,Cheyenne,Jacqueline,Danielle,Megan","It looks like someone gave a kid a coloring book page but the colors are soothing and look put together and elegant,27,320,20","Gives me anxiety,-23,400,20","Too much going on, don't know what the focus is,-11,200,20","Looks like a sloppy iguana.,-11,300,20","Looks like a child's drawing,-40,340,20","A troubled painter was influenced by anger and mad at the woman in the middle, color not bad,-32,200,20","Cheyenne","Too much going on, don't know what the focus is,-11,200,20","Jacqueline","Looks like a sloppy iguana.,-11,300,20","Megan","A troubled painter was influenced by anger and mad at the woman in the middle, color not bad,-32,200,20","2"
"27285","","survey-text","217","992147","0.0-216.0-0.0","AJZWOT3T73M92","","","","{""Q0"":""Very soothing browns and tans, nice simple watercolor""}","","","","","","","","","","","","","","","","","","","","","","",""
"3250.699999988079","","image-slider-response","218","995400","0.0-217.0","AJZWOT3T73M92","","","","","3","","","","","","","","","","","","","","","","","","","","","",""
"null","","image-button-response","219","1000406","0.0-218.0","AJZWOT3T73M92","img_art/19.jpg","null","","","","","","","","","","","","","","","","","","","","","","","","",""
"2969","","image-button-response","220","1003376","0.0-219.0","AJZWOT3T73M92","img_art/19.jpg","2","","","","","","","","","","","","","","","","","","","","","","","","",""
"2899","","image-button-response","221","1006276","0.0-220.0-0.0","AJZWOT3T73M92","img_art/19.jpg","5","","","","","","","","","","","","","","","","","","","","","","","","",""
"2658","","image-button-response","222","1008936","0.0-221.0-0.0","AJZWOT3T73M92","img_art/19.jpg","1","","","","","","","","","","","","","","","","","","","","","","","","",""
"null","","html-keyboard-response","223","1010450","0.0-222.0","AJZWOT3T73M92","<p style=""font-size: 48px;"">+</p>","","","","","null","allTrialResponses","1500","1","25","img_art/19.jpg","3","Very soothing browns and tans, nice simple watercolor","Alexis,Brittany,Cheyenne,Jacqueline,Paige,Megan","Not a fan of the blobbiness,-22,100,20","It looks too much of a rough sketch. Don't really enjoy looking at it.,-9,40,20","Solid use of colors but wished it looked more realistic.,12,200,20","This is just a mess.,-30,300,20","it's too busy for me. Makes me feel stressed.,1,60,20","Simple, scratchy lack of negative space.,-10,200,20","Cheyenne","Solid use of colors but wished it looked more realistic.,12,200,20","Megan","Simple, scratchy lack of negative space.,-10,200,20","Brittany","It looks too much of a rough sketch. Don't really enjoy looking at it.,-9,40,20","2"
"3276","","survey-text","224","1013735","0.0-223.0-0.0","AJZWOT3T73M92","","","","{""Q0"":""table""}","","","","","","","","","","","","","","","","","","","","","","",""
"9859","","survey-text","225","1023595","0.0-224.0-0.0","AJZWOT3T73M92","","","","{""Q0"":""The softness and colors remind me of a peach""}","","","","","","","","","","","","","","","","","","","","","","",""
"3410.9000000059605","","image-slider-response","226","1027007","0.0-225.0","AJZWOT3T73M92","","","","","27","","","","","","","","","","","","","","","","","","","","","",""
"null","","image-button-response","227","1032009","0.0-226.0","AJZWOT3T73M92","img_art/22.jpg","null","","","","","","","","","","","","","","","","","","","","","","","","",""
"1625","","image-button-response","228","1033635","0.0-227.0","AJZWOT3T73M92","img_art/22.jpg","0","","","","","","","","","","","","","","","","","","","","","","","","",""
"319","","image-button-response","229","1033955","0.0-228.0-0.0","AJZWOT3T73M92","img_art/22.jpg","1","","","","","","","","","","","","","","","","","","","","","","","","",""
"1411","","image-button-response","230","1035368","0.0-229.0-0.0","AJZWOT3T73M92","img_art/22.jpg","4","","","","","","","","","","","","","","","","","","","","","","","","",""
"null","","html-keyboard-response","231","1035869","0.0-230.0","AJZWOT3T73M92","<p style=""font-size: 48px;"">+</p>","","","","","null","allTrialResponses","500","1","26","img_art/22.jpg","27","The softness and colors remind me of a peach","Jamie,Brittany,Cheyenne,Heather,Brooke,Megan","Like the mix of warm and cool colors,15,320,20","It reminds me of sunsets and dusks.,22,40,20","Didn't illicit any reaction,1,200,20","i think its pretty but im not sure what i see,1,260,20","Like this one, like a sunset,30,60,20","Organic sun spot on a flexible grid,18,200,20","Jamie","Like the mix of warm and cool colors,15,320,20","Brittany","It reminds me of sunsets and dusks.,22,40,20","Brooke","Like this one, like a sunset,30,60,20","2"
"10081","","survey-text","232","1045955","0.0-231.0-0.0","AJZWOT3T73M92","","","","{""Q0"":""Looks like the painter has had enough""}","","","","","","","","","","","","","","","","","","","","","","",""
"1978.5","","image-slider-response","233","1047935","0.0-232.0","AJZWOT3T73M92","","","","","-31","","","","","","","","","","","","","","","","","","","","","",""
"null","","image-button-response","234","1052937","0.0-233.0","AJZWOT3T73M92","img_art/29.jpg","null","","","","","","","","","","","","","","","","","","","","","","","","",""
"621","","image-button-response","235","1053559","0.0-234.0","AJZWOT3T73M92","img_art/29.jpg","1","","","","","","","","","","","","","","","","","","","","","","","","",""
"2203","","image-button-response","236","1055764","0.0-235.0-0.0","AJZWOT3T73M92","img_art/29.jpg","4","","","","","","","","","","","","","","","","","","","","","","","","",""
"1169","","image-button-response","237","1056936","0.0-236.0-0.0","AJZWOT3T73M92","img_art/29.jpg","5","","","","","","","","","","","","","","","","","","","","","","","","",""
"null","","html-keyboard-response","238","1057437","0.0-237.0","AJZWOT3T73M92","<p style=""font-size: 48px;"">+</p>","","","","","null","allTrialResponses","500","1","27","img_art/29.jpg","-31","Looks like the painter has had enough","Jamie,Brittany,Katelyn,Kelsey,Brooke,Caroline","3D looks is really cool,30,320,20","It looks likes there's a lot going on, but they don't fit together.,2,40,20","Grabs interest but then confuses me,6,100,20","dont like this one,-20,240,20","Lines and light are clean but subject doesn't interest me,0,60,20","Depressing and with that big red x on it just makes me not like it.,-33,100,20","Brittany","It looks likes there's a lot going on, but they don't fit together.,2,40,20","Brooke","Lines and light are clean but subject doesn't interest me,0,60,20","Caroline","Depressing and with that big red x on it just makes me not like it.,-33,100,20","2"
"16606","","survey-text","239","1074047","0.0-238.0-0.0","AJZWOT3T73M92","","","","{""Q0"":""Reminds me of a psychedelic death metal band""}","","","","","","","","","","","","","","","","","","","","","","",""
"2318.5","","image-slider-response","240","1076367","0.0-239.0","AJZWOT3T73M92","","","","","50","","","","","","","","","","","","","","","","","","","","","",""
"null","","image-button-response","241","1081370","0.0-240.0","AJZWOT3T73M92","img_art/23.jpg","null","","","","","","","","","","","","","","","","","","","","","","","","",""
"1048","","image-button-response","242","1082420","0.0-241.0","AJZWOT3T73M92","img_art/23.jpg","1","","","","","","","","","","","","","","","","","","","","","","","","",""
"1110","","image-button-response","243","1083532","0.0-242.0-0.0","AJZWOT3T73M92","img_art/23.jpg","5","","","","","","","","","","","","","","","","","","","","","","","","",""
"702","","image-button-response","244","1084236","0.0-243.0-0.0","AJZWOT3T73M92","img_art/23.jpg","2","","","","","","","","","","","","","","","","","","","","","","","","",""
"null","","html-keyboard-response","245","1085237","0.0-244.0","AJZWOT3T73M92","<p style=""font-size: 48px;"">+</p>","","","","","null","allTrialResponses","1000","1","28","img_art/23.jpg","50","Reminds me of a psychedelic death metal band","Abigail,Brittany,Savannah,Sabrina,Brooke,Caroline","I like the contrast,29,20,20","The white paint through the middle really draws the eye.,30,40,20","Very colorful. Nice contrasts.,26,200,20","I dont like the chaos of this,-20,120,20","looks like those paper chain things.,0,60,20","Like the colors and made me feel happy,23,100,20","Brittany","The white paint through the middle really draws the eye.,30,40,20","Caroline","Like the colors and made me feel happy,23,100,20","Savannah","Very colorful. Nice contrasts.,26,200,20","2"
"8445","","survey-text","246","1093687","0.0-245.0-0.0","AJZWOT3T73M92","","","","{""Q0"":""I think this one is boring""}","","","","","","","","","","","","","","","","","","","","","","",""
"1771","","image-slider-response","247","1095460","0.0-246.0","AJZWOT3T73M92","","","","","-50","","","","","","","","","","","","","","","","","","","","","",""
"null","","image-button-response","248","1100461","0.0-247.0","AJZWOT3T73M92","img_art/27.jpg","null","","","","","","","","","","","","","","","","","","","","","","","","",""
"769","","image-button-response","249","1101232","0.0-248.0","AJZWOT3T73M92","img_art/27.jpg","3","","","","","","","","","","","","","","","","","","","","","","","","",""
"1662","","image-button-response","250","1102896","0.0-249.0-0.0","AJZWOT3T73M92","img_art/27.jpg","5","","","","","","","","","","","","","","","","","","","","","","","","",""
"2994","","image-button-response","251","1105892","0.0-250.0-0.0","AJZWOT3T73M92","img_art/27.jpg","1","","","","","","","","","","","","","","","","","","","","","","","","",""
"null","","html-keyboard-response","252","1106893","0.0-251.0","AJZWOT3T73M92","<p style=""font-size: 48px;"">+</p>","","","","","null","allTrialResponses","1000","1","29","img_art/27.jpg","-50","I think this one is boring","Olivia,Brittany,Savannah,Hailey,Alyssa,Caroline","city at sunset brings happyness,10,40,20","The colors are put together in an interesting way.,-9,40,20","An abstract piece with such lifeless colors.,-26,200,20","fruity and sweet. warm and juicy,10,200,20","Looks as if a toddler painted it,-20,160,20","Didnt actually make me feel anything, sort of bland,3,100,20","Hailey","fruity and sweet. warm and juicy,10,200,20","Caroline","Didnt actually make me feel anything, sort of bland,3,100,20","Brittany","The colors are put together in an interesting way.,-9,40,20","2"
"19712","","survey-text","253","1126611","0.0-252.0-0.0","AJZWOT3T73M92","","","","{""Q0"":""Looks like a tree with a skull underneath is but is otherwise boring""}","","","","","","","","","","","","","","","","","","","","","","",""
"2914.7999999970198","","image-slider-response","254","1129528","0.0-253.0","AJZWOT3T73M92","","","","","-35","","","","","","","","","","","","","","","","","","","","","",""
"null","","image-button-response","255","1134529","0.0-254.0","AJZWOT3T73M92","img_art/14.jpg","null","","","","","","","","","","","","","","","","","","","","","","","","",""
"789","","image-button-response","256","1135320","0.0-255.0","AJZWOT3T73M92","img_art/14.jpg","0","","","","","","","","","","","","","","","","","","","","","","","","",""
"2130","","image-button-response","257","1137451","0.0-256.0-0.0","AJZWOT3T73M92","img_art/14.jpg","5","","","","","","","","","","","","","","","","","","","","","","","","",""
"511","","image-button-response","258","1137964","0.0-257.0-0.0","AJZWOT3T73M92","img_art/14.jpg","3","","","","","","","","","","","","","","","","","","","","","","","","",""
"null","","html-keyboard-response","259","1139465","0.0-258.0","AJZWOT3T73M92","<p style=""font-size: 48px;"">+</p>","","","","","null","allTrialResponses","1500","1","30","img_art/14.jpg","-35","Looks like a tree with a skull underneath is but is otherwise boring","Madison,Brittany,Elizabeth,Hailey,Lindsey,Caroline","No strong feelings either direction.,-4,60,20","The colors are good and the design is intriguing.,15,40,20","Love the abstractness of this painting,39,20,20","fuzzy and confused. ok then well,16,200,20","Warm, positive, growth.,8,400,20","Makes me think of trees and spring. A good feeling,26,100,20","Madison","No strong feelings either direction.,-4,60,20","Caroline","Makes me think of trees and spring. A good feeling,26,100,20","Hailey","fuzzy and confused. ok then well,16,200,20","2"
"2788","","image-button-response_instructions","260","1142260","0.0-259.0","AJZWOT3T73M92","","0","instructions","","","","","","","","","","","","","","","","","","","","","","","",""
"1195","","image-button-response","261","1143460","0.0-260.0","AJZWOT3T73M92","","0","","","","","","","","","","","","","","","","","","","","","","","","",""
