"rt","url","trial_type","trial_index","time_elapsed","internal_node_id","participant_id","stimulus","button_pressed","Name","responses","response","key_press","variableName","fixationTime","condition","trial","photo","subjectRating","subjectResponse","agentsNames","agent_1_Response","agent_2_Response","agent_3_Response","agent_4_Response","agent_5_Response","agent_6_Response","kept_1_name","kept_1_response","kept_2_name","kept_2_response","kept_3_name","kept_3_response","errorCounter"
"48830","external_page_harvard.html","external-html","0","48935","0.0-0.0","AL5MR5NR0VYFI","","","","","","","","","","","","","","","","","","","","","","","","","","",""
"1532","","image-button-response","1","50472","0.0-1.0","AL5MR5NR0VYFI","","0","","","","","","","","","","","","","","","","","","","","","","","","",""
"2052","","image-button-response","2","52529","0.0-2.0-0.0","AL5MR5NR0VYFI","","1","phone","","","","","","","","","","","","","","","","","","","","","","","",""
"5800","","survey-text","3","58331","0.0-3.0-0.0","AL5MR5NR0VYFI","","","","{""Q0"":""AL5MR5NR0VYFI""}","","","","","","","","","","","","","","","","","","","","","","",""
"72198","","image-button-response_instructions","4","130532","0.0-4.0","AL5MR5NR0VYFI","","0","instructions","","","","","","","","","","","","","","","","","","","","","","","",""
"467315","","image-button-response_instructions","5","597849","0.0-5.0","AL5MR5NR0VYFI","img_art/ins/popularity/ins1.png","0","instructions","","","","","","","","","","","","","","","","","","","","","","","",""
"47724","","image-button-response_instructions","6","645577","0.0-6.0","AL5MR5NR0VYFI","img_art/ins/popularity/ins2.png","0","instructions","","","","","","","","","","","","","","","","","","","","","","","",""
"3511","","image-button-response_instructions","7","649090","0.0-7.0","AL5MR5NR0VYFI","img_art/ins/popularity/ins2Extreme.png","0","instructions","","","","","","","","","","","","","","","","","","","","","","","",""
"6878","","image-button-response_instructions","8","655969","0.0-8.0","AL5MR5NR0VYFI","img_art/ins/popularity/ins3KEEPpop.PNG","0","instructions","","","","","","","","","","","","","","","","","","","","","","","",""
"1535","","image-button-response_instructions","9","657506","0.0-9.0","AL5MR5NR0VYFI","img_art/ins/popularity/ins3ANamepop.PNG","0","instructions","","","","","","","","","","","","","","","","","","","","","","","",""
"1920","","image-button-response_instructions","10","659428","0.0-10.0","AL5MR5NR0VYFI","img_art/ins/popularity/ins3ARatingpop.png","0","instructions","","","","","","","","","","","","","","","","","","","","","","","",""
"2036","","image-button-response_instructions","11","661466","0.0-11.0","AL5MR5NR0VYFI","img_art/ins/popularity/ins3ATextpop.png","0","instructions","","","","","","","","","","","","","","","","","","","","","","","",""
"1871","","image-button-response_instructions","12","663339","0.0-12.0","AL5MR5NR0VYFI","img_art/ins/popularity/ins3ALikespop.png","0","instructions","","","","","","","","","","","","","","","","","","","","","","","",""
"143705","","image-button-response_instructions","13","807046","0.0-13.0","AL5MR5NR0VYFI","img_art/ins/popularity/ins3KEEPpop.PNG","0","instructions","","","","","","","","","","","","","","","","","","","","","","","",""
"3959","","image-button-response_instructions","14","811008","0.0-14.0","AL5MR5NR0VYFI","img_art/ins/popularity/ins3_5RED.png","0","instructions","","","","","","","","","","","","","","","","","","","","","","","",""
"2587","","image-button-response_instructions","15","813597","0.0-15.0","AL5MR5NR0VYFI","img_art/ins/popularity/ins3KEEPpop.PNG","0","instructions","","","","","","","","","","","","","","","","","","","","","","","",""
"3107","","image-button-response_instructions","16","816707","0.0-16.0","AL5MR5NR0VYFI","img_art/ins/popularity/ins4KEEPpop.PNG","0","instructions","","","","","","","","","","","","","","","","","","","","","","","",""
"2428","","image-button-response_instructions","17","819138","0.0-17.0","AL5MR5NR0VYFI","img_art/ins/popularity/ins5KEEPpop.PNG","0","instructions","","","","","","","","","","","","","","","","","","","","","","","",""
"1322","","image-button-response_instructions","18","820462","0.0-18.0","AL5MR5NR0VYFI","","0","instructions","","","","","","","","","","","","","","","","","","","","","","","",""
"4955","","survey-text","19","825446","0.0-19.0-0.0","AL5MR5NR0VYFI","","","","{""Q0"":""but""}","","","","","","","","","","","","","","","","","","","","","","",""
"17542","","survey-text","20","842991","0.0-20.0-0.0","AL5MR5NR0VYFI","","","","{""Q0"":""It looks like a kid drew it""}","","","","","","","","","","","","","","","","","","","","","","",""
"3593","","image-slider-response","21","846589","0.0-21.0","AL5MR5NR0VYFI","","","","","-10","","","","","","","","","","","","","","","","","","","","","",""
"null","","image-button-response","22","851594","0.0-22.0","AL5MR5NR0VYFI","img_art/ins/1.jpg","null","","","","","","","","","","","","","","","","","","","","","","","","",""
"1911","","image-button-response","23","853509","0.0-23.0","AL5MR5NR0VYFI","img_art/ins/1.jpg","0","","","","","","","","","","","","","","","","","","","","","","","","",""
"3203","","image-button-response","24","856716","0.0-24.0-0.0","AL5MR5NR0VYFI","img_art/ins/1.jpg","3","","","","","","","","","","","","","","","","","","","","","","","","",""
"7725","","image-button-response","25","864447","0.0-25.0-0.0","AL5MR5NR0VYFI","img_art/ins/1.jpg","5","","","","","","","","","","","","","","","","","","","","","","","","",""
"null","","html-keyboard-response","26","865951","0.0-26.0","AL5MR5NR0VYFI","<p style=""font-size: 48px;"">+</p>","","","","","null","allTrialResponses","1500","1","-2","img_art/ins/1.jpg","-10","It looks like a kid drew it","Adam,Alex,Ben,Carl,Daniel,Jack","Seems like doodles,-20,20,20","very creative work.,36,40,20","This color reminds me of poo,-46,60,20","very calming artwork,42,80,20","It looks like a murder scene.,-48,100,20","I like the sophisticated brushwork,40,120,20","Adam","Seems like doodles,-20,20,20","Carl","very calming artwork,42,80,20","Jack","I like the sophisticated brushwork,40,120,20","0"
"19670","","survey-text","27","885629","0.0-27.0-0.0","AL5MR5NR0VYFI","","","","{""Q0"":""I've seen stuff like this in 60s tv shows""}","","","","","","","","","","","","","","","","","","","","","","",""
"2545","","image-slider-response","28","888177","0.0-28.0","AL5MR5NR0VYFI","","","","","14","","","","","","","","","","","","","","","","","","","","","",""
"null","","image-button-response","29","893180","0.0-29.0","AL5MR5NR0VYFI","img_art/ins/2.jpg","null","","","","","","","","","","","","","","","","","","","","","","","","",""
"1279","","image-button-response","30","894462","0.0-30.0","AL5MR5NR0VYFI","img_art/ins/2.jpg","2","","","","","","","","","","","","","","","","","","","","","","","","",""
"3208","","image-button-response","31","897673","0.0-31.0-0.0","AL5MR5NR0VYFI","img_art/ins/2.jpg","4","","","","","","","","","","","","","","","","","","","","","","","","",""
"1746","","image-button-response","32","899422","0.0-32.0-0.0","AL5MR5NR0VYFI","img_art/ins/2.jpg","0","","","","","","","","","","","","","","","","","","","","","","","","",""
"null","","html-keyboard-response","33","900924","0.0-33.0","AL5MR5NR0VYFI","<p style=""font-size: 48px;"">+</p>","","","","","null","allTrialResponses","1500","1","-1","img_art/ins/2.jpg","14","I've seen stuff like this in 60s tv shows","Adam,James,Kyle,Carl,John,Jack","too much color,-18,20,20","looks too angry,-50,140,20","Idk, it is just annoying,-32,180,20","I can feel the artist's passion in it,45,80,20","love the texture of paint,48,160,20","I would never be able to compose a sophisticated pallete like this,48,120,20","Kyle","Idk, it is just annoying,-32,180,20","John","love the texture of paint,48,160,20","Adam","too much color,-18,20,20","0"
"16876","","survey-text","34","917807","0.0-34.0-0.0","AL5MR5NR0VYFI","","","","{""Q0"":""student art project methinks""}","","","","","","","","","","","","","","","","","","","","","","",""
"7582","","image-slider-response","35","925390","0.0-35.0","AL5MR5NR0VYFI","","","","","11","","","","","","","","","","","","","","","","","","","","","",""
"2559","","image-button-response","36","930393","0.0-36.0","AL5MR5NR0VYFI","img_art/ins/3.jpg","4","","","","","","","","","","","","","","","","","","","","","","","","",""
"1130","","image-button-response","37","931526","0.0-37.0","AL5MR5NR0VYFI","img_art/ins/3.jpg","5","","","","","","","","","","","","","","","","","","","","","","","","",""
"1165","","image-button-response","38","932694","0.0-38.0-0.0","AL5MR5NR0VYFI","img_art/ins/3.jpg","1","","","","","","","","","","","","","","","","","","","","","","","","",""
"1686","","image-button-response","39","934383","0.0-39.0-0.0","AL5MR5NR0VYFI","img_art/ins/3.jpg","0","","","","","","","","","","","","","","","","","","","","","","","","",""
"null","","html-keyboard-response","40","935386","0.0-40.0","AL5MR5NR0VYFI","<p style=""font-size: 48px;"">+</p>","","","","","null","allTrialResponses","1000","1","0","img_art/ins/3.jpg","11","student art project methinks","Adam,Ron,Kyle,Mike,John,Sam","My daily routine, it's depressing,-20,20,20","It looks depressing,-26,220,20","It looks like a playground for bats,-36,180,20","enjoy the different shades of blue,22,200,20","I like the overlapping of brushes,41,160,20","I can feel a rainy day from this painting,18,240,20","Sam","I can feel a rainy day from this painting,18,240,20","Ron","It looks depressing,-26,220,20","Adam","My daily routine, it's depressing,-20,20,20","0"
"48317","","image-button-response_instructions","41","983713","0.0-41.0","AL5MR5NR0VYFI","","0","instructions","","","","","","","","","","","","","","","","","","","","","","","",""
"12767","","survey-likert","42","996484","0.0-42.0-0.0","AL5MR5NR0VYFI","","","","{""Q0"":"""",""Q1"":0,""Q2"":0}","","","","","","","","","","","","","","","","","","","","","","",""
"1882","","survey-likert","43","999966","0.0-42.1-0.1","AL5MR5NR0VYFI","","","","{""Q0"":"""",""Q1"":"""",""Q2"":1}","","","","","","","","","","","","","","","","","","","","","","",""
"3321","","survey-text","44","1003293","0.0-43.0-0.0","AL5MR5NR0VYFI","","","","{""Q0"":""rock""}","","","","","","","","","","","","","","","","","","","","","","",""
"13505","","survey-text","45","1016800","0.0-44.0-0.0","AL5MR5NR0VYFI","","","","{""Q0"":""interesting yet depressing""}","","","","","","","","","","","","","","","","","","","","","","",""
"5194.000000000116","","image-slider-response","46","1021997","0.0-45.0","AL5MR5NR0VYFI","","","","","19","","","","","","","","","","","","","","","","","","","","","",""
"4607","","image-button-response","47","1027024","0.0-46.0","AL5MR5NR0VYFI","img_art/28.jpg","1","","","","","","","","","","","","","","","","","","","","","","","","",""
"3121","","image-button-response","48","1030148","0.0-47.0","AL5MR5NR0VYFI","img_art/28.jpg","4","","","","","","","","","","","","","","","","","","","","","","","","",""
"1139","","image-button-response","49","1031289","0.0-48.0-0.0","AL5MR5NR0VYFI","img_art/28.jpg","1","","","","","","","","","","","","","","","","","","","","","","","","",""
"3713","","image-button-response","50","1035006","0.0-49.0-0.0","AL5MR5NR0VYFI","img_art/28.jpg","3","","","","","","","","","","","","","","","","","","","","","","","","",""
"null","","html-keyboard-response","51","1036509","0.0-50.0","AL5MR5NR0VYFI","<p style=""font-size: 48px;"">+</p>","","","","","null","allTrialResponses","1500","1","1","img_art/28.jpg","19","interesting yet depressing","Adam,Malik,Ian,Joshua,Thomas,Elijah","Dislike the colors.,-20,40,20","Invokes curiosity, I want to know it's story.,15,40,20","This one looks very dark and seems like it has a lot of depth to it.,31,260,20","The colors are drab and a little depressing.,-20,240,20","I can't explain why, but I really love this one,50,220,20","The colors are depressing,-5,80,20","Thomas","I can't explain why, but I really love this one,50,220,20","Malik","Invokes curiosity, I want to know it's story.,15,40,20","Joshua","The colors are drab and a little depressing.,-20,240,20","1"
"14189","","survey-text","52","1050703","0.0-51.0-0.0","AL5MR5NR0VYFI","","","","{""Q0"":""Don't go chasing waterfalls....""}","","","","","","","","","","","","","","","","","","","","","","",""
"5140","","image-slider-response","53","1055845","0.0-52.0","AL5MR5NR0VYFI","","","","","7","","","","","","","","","","","","","","","","","","","","","",""
"4613","","image-button-response","54","1060849","0.0-53.0","AL5MR5NR0VYFI","img_art/24.jpg","2","","","","","","","","","","","","","","","","","","","","","","","","",""
"301","","image-button-response","55","1061153","0.0-54.0","AL5MR5NR0VYFI","img_art/24.jpg","2","","","","","","","","","","","","","","","","","","","","","","","","",""
"1167","","image-button-response","56","1062323","0.0-55.0-0.0","AL5MR5NR0VYFI","img_art/24.jpg","0","","","","","","","","","","","","","","","","","","","","","","","","",""
"960","","image-button-response","57","1063286","0.0-56.0-0.0","AL5MR5NR0VYFI","img_art/24.jpg","4","","","","","","","","","","","","","","","","","","","","","","","","",""
"null","","html-keyboard-response","58","1063789","0.0-57.0","AL5MR5NR0VYFI","<p style=""font-size: 48px;"">+</p>","","","","","null","allTrialResponses","500","1","2","img_art/24.jpg","7","Don't go chasing waterfalls....","Jose,Malik,Mitchell,Joshua,Thomas,Noah","The combination of nature / realism with abstract colors is unique.,39,200,20","Very nice textures and subject,38,40,20","Nature, Peace, connected.,50,180,20","It's okay but don't love it.,7,240,20","Beautiful colors and texture,20,220,20","this evokes a gutural reaction - it displeases me how similar it is to art I saw growing up,-30,260,20","Mitchell","Nature, Peace, connected.,50,180,20","Jose","The combination of nature / realism with abstract colors is unique.,39,200,20","Thomas","Beautiful colors and texture,20,220,20","1"
"8841","","survey-text","59","1072640","0.0-58.0-0.0","AL5MR5NR0VYFI","","","","{""Q0"":""Ghostly landscape.  Nice""}","","","","","","","","","","","","","","","","","","","","","","",""
"4056","","image-slider-response","60","1076697","0.0-59.0","AL5MR5NR0VYFI","","","","","20","","","","","","","","","","","","","","","","","","","","","",""
"4734","","image-button-response","61","1081700","0.0-60.0","AL5MR5NR0VYFI","img_art/17.jpg","0","","","","","","","","","","","","","","","","","","","","","","","","",""
"2044","","image-button-response","62","1083746","0.0-61.0","AL5MR5NR0VYFI","img_art/17.jpg","1","","","","","","","","","","","","","","","","","","","","","","","","",""
"1084","","image-button-response","63","1084833","0.0-62.0-0.0","AL5MR5NR0VYFI","img_art/17.jpg","2","","","","","","","","","","","","","","","","","","","","","","","","",""
"1204","","image-button-response","64","1086040","0.0-63.0-0.0","AL5MR5NR0VYFI","img_art/17.jpg","5","","","","","","","","","","","","","","","","","","","","","","","","",""
"null","","html-keyboard-response","65","1086543","0.0-64.0","AL5MR5NR0VYFI","<p style=""font-size: 48px;"">+</p>","","","","","null","allTrialResponses","500","1","3","img_art/17.jpg","20","Ghostly landscape.  Nice","Jose,John,Mitchell,Eric,Thomas,Hunter","Looks like a weird blurry heaven again! I dig,32,200,20","It gorgeous and i love how the tree is almost 3 dimensional.So many elements to it.,50,120,20","Nature coming to the inside of your space that you are locked into.,50,180,20","This picture is calming to me, and I love the colors.,45,100,20","Colors and composition are beautiful. I would hang this in my home.,50,220,20","impressive attention to subtleties,15,240,20","John","It gorgeous and i love how the tree is almost 3 dimensional.So many elements to it.,50,120,20","Mitchell","Nature coming to the inside of your space that you are locked into.,50,180,20","Hunter","impressive attention to subtleties,15,240,20","1"
"10542","","survey-text","66","1097091","0.0-65.0-0.0","AL5MR5NR0VYFI","","","","{""Q0"":""Not sure what this is""}","","","","","","","","","","","","","","","","","","","","","","",""
"2505","","image-slider-response","67","1099599","0.0-66.0","AL5MR5NR0VYFI","","","","","-16","","","","","","","","","","","","","","","","","","","","","",""
"1218","","image-button-response","68","1104604","0.0-67.0","AL5MR5NR0VYFI","img_art/7.jpg","2","","","","","","","","","","","","","","","","","","","","","","","","",""
"859","","image-button-response","69","1105466","0.0-68.0","AL5MR5NR0VYFI","img_art/7.jpg","2","","","","","","","","","","","","","","","","","","","","","","","","",""
"1180","","image-button-response","70","1106649","0.0-69.0-0.0","AL5MR5NR0VYFI","img_art/7.jpg","5","","","","","","","","","","","","","","","","","","","","","","","","",""
"2485","","image-button-response","71","1109137","0.0-70.0-0.0","AL5MR5NR0VYFI","img_art/7.jpg","3","","","","","","","","","","","","","","","","","","","","","","","","",""
"null","","html-keyboard-response","72","1110141","0.0-71.0","AL5MR5NR0VYFI","<p style=""font-size: 48px;"">+</p>","","","","","null","allTrialResponses","1000","1","4","img_art/7.jpg","-16","Not sure what this is","Caleb,John,Mitchell,Joseph,Blake,Hunter","More saturated color, even more interpretations to have.,44,40,20","It looks like someone took a picture of a muddy ground and called it art.,-41,120,20","Looking through a microscope at the ground at a beach.,20,180,20","Dinosaur bones. Death.,-14,220,20","hot desert with big rocks.,-19,280,20","textures are engaging,8,240,20","Mitchell","Looking through a microscope at the ground at a beach.,20,180,20","Hunter","textures are engaging,8,240,20","Joseph","Dinosaur bones. Death.,-14,220,20","1"
"7677","","survey-text","73","1117828","0.0-72.0-0.0","AL5MR5NR0VYFI","","","","{""Q0"":""mutant french fries""}","","","","","","","","","","","","","","","","","","","","","","",""
"3913","","image-slider-response","74","1121743","0.0-73.0","AL5MR5NR0VYFI","","","","","11","","","","","","","","","","","","","","","","","","","","","",""
"4136","","image-button-response","75","1126746","0.0-74.0","AL5MR5NR0VYFI","img_art/4.jpg","1","","","","","","","","","","","","","","","","","","","","","","","","",""
"981","","image-button-response","76","1127729","0.0-75.0","AL5MR5NR0VYFI","img_art/4.jpg","4","","","","","","","","","","","","","","","","","","","","","","","","",""
"837","","image-button-response","77","1128569","0.0-76.0-0.0","AL5MR5NR0VYFI","img_art/4.jpg","3","","","","","","","","","","","","","","","","","","","","","","","","",""
"921","","image-button-response","78","1129493","0.0-77.0-0.0","AL5MR5NR0VYFI","img_art/4.jpg","5","","","","","","","","","","","","","","","","","","","","","","","","",""
"null","","html-keyboard-response","79","1129996","0.0-78.0","AL5MR5NR0VYFI","<p style=""font-size: 48px;"">+</p>","","","","","null","allTrialResponses","500","1","5","img_art/4.jpg","11","mutant french fries","Justin,Nathan,Mitchell,Joseph,Jake,Hunter","Rather boring design and colors.,-21,280,20","Not my preference when it comes to art styles or subjects,-10,200,20","Hearts, family connected. They are standing on a narrow base and could fall to pieces at anytime.,40,180,20","It's okay, I guess. Nothing much either way.,5,220,20","This is ugly in color and in terms of the shape on it.,-32,360,20","appealing warm palette,6,240,20","Jake","This is ugly in color and in terms of the shape on it.,-32,360,20","Joseph","It's okay, I guess. Nothing much either way.,5,220,20","Hunter","appealing warm palette,6,240,20","1"
"2608","","survey-text","80","1132615","0.0-79.0-0.0","AL5MR5NR0VYFI","","","","{""Q0"":""sky""}","","","","","","","","","","","","","","","","","","","","","","",""
"7822","","survey-text","81","1140439","0.0-80.0-0.0","AL5MR5NR0VYFI","","","","{""Q0"":""its my stomach after lunch""}","","","","","","","","","","","","","","","","","","","","","","",""
"2944","","image-slider-response","82","1143385","0.0-81.0","AL5MR5NR0VYFI","","","","","-22","","","","","","","","","","","","","","","","","","","","","",""
"4723","","image-button-response","83","1148388","0.0-82.0","AL5MR5NR0VYFI","img_art/9.jpg","4","","","","","","","","","","","","","","","","","","","","","","","","",""
"301","","image-button-response","84","1148692","0.0-83.0","AL5MR5NR0VYFI","img_art/9.jpg","5","","","","","","","","","","","","","","","","","","","","","","","","",""
"1186","","image-button-response","85","1149881","0.0-84.0-0.0","AL5MR5NR0VYFI","img_art/9.jpg","2","","","","","","","","","","","","","","","","","","","","","","","","",""
"725","","image-button-response","86","1150609","0.0-85.0-0.0","AL5MR5NR0VYFI","img_art/9.jpg","1","","","","","","","","","","","","","","","","","","","","","","","","",""
"null","","html-keyboard-response","87","1151112","0.0-86.0","AL5MR5NR0VYFI","<p style=""font-size: 48px;"">+</p>","","","","","null","allTrialResponses","500","1","6","img_art/9.jpg","-22","its my stomach after lunch","Andrew,Nathaniel,Zachary,Joseph,Jake,Hunter","The peacock theme gives me negative connotations of my ex-sister-in-law,-10,160,20","Not very enticing. No real substance other than a lady laying down,-35,220,20","It looks like a lady taking a peaceful nap on a blanket in the grass.,41,400,20","It's nice. Peaceful. Calming.,11,220,20","The colors and image is ugly.,-7,360,20","strong focal point, appealing use of selective line,11,240,20","Hunter","strong focal point, appealing use of selective line,11,240,20","Zachary","It looks like a lady taking a peaceful nap on a blanket in the grass.,41,400,20","Nathaniel","Not very enticing. No real substance other than a lady laying down,-35,220,20","1"
"11446","","survey-text","88","1162566","0.0-87.0-0.0","AL5MR5NR0VYFI","","","","{""Q0"":""Neat yet terrifying""}","","","","","","","","","","","","","","","","","","","","","","",""
"2361.999999999767","","image-slider-response","89","1164931","0.0-88.0","AL5MR5NR0VYFI","","","","","22","","","","","","","","","","","","","","","","","","","","","",""
"4725","","image-button-response","90","1169934","0.0-89.0","AL5MR5NR0VYFI","img_art/8.jpg","1","","","","","","","","","","","","","","","","","","","","","","","","",""
"692","","image-button-response","91","1170629","0.0-90.0","AL5MR5NR0VYFI","img_art/8.jpg","0","","","","","","","","","","","","","","","","","","","","","","","","",""
"564","","image-button-response","92","1171196","0.0-91.0-0.0","AL5MR5NR0VYFI","img_art/8.jpg","1","","","","","","","","","","","","","","","","","","","","","","","","",""
"1257","","image-button-response","93","1172456","0.0-92.0-0.0","AL5MR5NR0VYFI","img_art/8.jpg","4","","","","","","","","","","","","","","","","","","","","","","","","",""
"null","","html-keyboard-response","94","1173960","0.0-93.0","AL5MR5NR0VYFI","<p style=""font-size: 48px;"">+</p>","","","","","null","allTrialResponses","1500","1","7","img_art/8.jpg","22","Neat yet terrifying","Stephen,Nathaniel,Zachary,Scott,David,Hunter","Has nice depth to it.,12,140,20","Not a fan of abstract looking pieces with too many focal points. The tunnel and face, for example,-31,220,20","I like all of the faces that can be found in this piece. Interesting.,35,400,20","the face is creepy,-49,20,20","I like how the piece is showcasing emotion in relation to something.,25,340,20","crisp shapes, find more things the longer you look,17,240,20","Stephen","Has nice depth to it.,12,140,20","Nathaniel","Not a fan of abstract looking pieces with too many focal points. The tunnel and face, for example,-31,220,20","David","I like how the piece is showcasing emotion in relation to something.,25,340,20","1"
"7572","","survey-text","95","1181542","0.0-94.0-0.0","AL5MR5NR0VYFI","","","","{""Q0"":""I see dead people""}","","","","","","","","","","","","","","","","","","","","","","",""
"4468","","image-slider-response","96","1186012","0.0-95.0","AL5MR5NR0VYFI","","","","","-13","","","","","","","","","","","","","","","","","","","","","",""
"null","","image-button-response","97","1191015","0.0-96.0","AL5MR5NR0VYFI","img_art/25.jpg","null","","","","","","","","","","","","","","","","","","","","","","","","",""
"19073","","image-button-response","98","1210091","0.0-97.0","AL5MR5NR0VYFI","img_art/25.jpg","1","","","","","","","","","","","","","","","","","","","","","","","","",""
"1702","","image-button-response","99","1211795","0.0-98.0-0.0","AL5MR5NR0VYFI","img_art/25.jpg","4","","","","","","","","","","","","","","","","","","","","","","","","",""
"593","","image-button-response","100","1212392","0.0-99.0-0.0","AL5MR5NR0VYFI","img_art/25.jpg","5","","","","","","","","","","","","","","","","","","","","","","","","",""
"null","","html-keyboard-response","101","1213895","0.0-100.0","AL5MR5NR0VYFI","<p style=""font-size: 48px;"">+</p>","","","","","null","allTrialResponses","1500","1","8","img_art/25.jpg","-13","I see dead people","Stephen,Nathaniel,Brandon,Logan,David,Robert","It's nice but nothing special.,7,140,20","I love the background color and it's creepy...but cool.,30,220,20","Reminds me of cave drawings,21,320,20","creeeeeppyyyyyyy but mad cool,-26,360,20","Depicts something negative, such as ritual. I'm not a fan.,-10,340,20","It made me think of healing.,22,360,20","Nathaniel","I love the background color and it's creepy...but cool.,30,220,20","David","Depicts something negative, such as ritual. I'm not a fan.,-10,340,20","Robert","It made me think of healing.,22,360,20","1"
"10982","","survey-text","102","1224887","0.0-101.0-0.0","AL5MR5NR0VYFI","","","","{""Q0"":""Welcome back Miami Vice""}","","","","","","","","","","","","","","","","","","","","","","",""
"4401","","image-slider-response","103","1229290","0.0-102.0","AL5MR5NR0VYFI","","","","","12","","","","","","","","","","","","","","","","","","","","","",""
"3972","","image-button-response","104","1234294","0.0-103.0","AL5MR5NR0VYFI","img_art/13.jpg","1","","","","","","","","","","","","","","","","","","","","","","","","",""
"1628","","image-button-response","105","1235925","0.0-104.0","AL5MR5NR0VYFI","img_art/13.jpg","1","","","","","","","","","","","","","","","","","","","","","","","","",""
"872","","image-button-response","106","1236800","0.0-105.0-0.0","AL5MR5NR0VYFI","img_art/13.jpg","3","","","","","","","","","","","","","","","","","","","","","","","","",""
"661","","image-button-response","107","1237468","0.0-106.0-0.0","AL5MR5NR0VYFI","img_art/13.jpg","4","","","","","","","","","","","","","","","","","","","","","","","","",""
"null","","html-keyboard-response","108","1238472","0.0-107.0","AL5MR5NR0VYFI","<p style=""font-size: 48px;"">+</p>","","","","","null","allTrialResponses","1000","1","9","img_art/13.jpg","12","Welcome back Miami Vice","Bryce,Nathaniel,Brendan,Jeremy,David,Robert","My favorite!,47,20,20","Looks like an upclose dried set of water droplets. Boring.,-25,220,20","its crazy to the point that i cant get it,-28,340,20","Pleased. I like to combination of colors,17,60,20","I like the color coordination between the foreground and background.,10,340,20","Raindrops splashing on the window.,50,360,20","Nathaniel","Looks like an upclose dried set of water droplets. Boring.,-25,220,20","Jeremy","Pleased. I like to combination of colors,17,60,20","David","I like the color coordination between the foreground and background.,10,340,20","1"
"15000","","survey-text","109","1253483","0.0-108.0-0.0","AL5MR5NR0VYFI","","","","{""Q0"":""Abstract art, very disturbing yet cute""}","","","","","","","","","","","","","","","","","","","","","","",""
"4136","","image-slider-response","110","1257621","0.0-109.0","AL5MR5NR0VYFI","","","","","10","","","","","","","","","","","","","","","","","","","","","",""
"4534","","image-button-response","111","1262625","0.0-110.0","AL5MR5NR0VYFI","img_art/16.jpg","5","","","","","","","","","","","","","","","","","","","","","","","","",""
"608","","image-button-response","112","1263235","0.0-111.0","AL5MR5NR0VYFI","img_art/16.jpg","5","","","","","","","","","","","","","","","","","","","","","","","","",""
"983","","image-button-response","113","1264221","0.0-112.0-0.0","AL5MR5NR0VYFI","img_art/16.jpg","1","","","","","","","","","","","","","","","","","","","","","","","","",""
"694","","image-button-response","114","1264918","0.0-113.0-0.0","AL5MR5NR0VYFI","img_art/16.jpg","2","","","","","","","","","","","","","","","","","","","","","","","","",""
"null","","html-keyboard-response","115","1265922","0.0-114.0","AL5MR5NR0VYFI","<p style=""font-size: 48px;"">+</p>","","","","","null","allTrialResponses","1000","1","10","img_art/16.jpg","10","Abstract art, very disturbing yet cute","Timothy,Nathaniel,Devin,Jeremy,David,Aaron","This feels like images of a painful childhood,-50,240,20","Creeps me out. Like..really creeps me out.,-48,220,20","That bear looks unfitting!,-8,380,20","very disturbed seening a gun in the same picture as a teddy bear,-50,60,20","The colored teddy bear clashes with the color scheme.,-20,340,20","It's edgy but cool,10,20,20","Aaron","It's edgy but cool,10,20,20","Nathaniel","Creeps me out. Like..really creeps me out.,-48,220,20","Devin","That bear looks unfitting!,-8,380,20","1"
"2590","","survey-text","116","1268519","0.0-115.0-0.0","AL5MR5NR0VYFI","","","","{""Q0"":""our""}","","","","","","","","","","","","","","","","","","","","","","",""
"16711","","survey-text","117","1285232","0.0-116.0-0.0","AL5MR5NR0VYFI","","","","{""Q0"":""blurred lines, no focus""}","","","","","","","","","","","","","","","","","","","","","","",""
"2730","","image-slider-response","118","1287964","0.0-117.0","AL5MR5NR0VYFI","","","","","-17","","","","","","","","","","","","","","","","","","","","","",""
"null","","image-button-response","119","1292968","0.0-118.0","AL5MR5NR0VYFI","img_art/1.jpg","null","","","","","","","","","","","","","","","","","","","","","","","","",""
"22064","","image-button-response","120","1315033","0.0-119.0","AL5MR5NR0VYFI","img_art/1.jpg","4","","","","","","","","","","","","","","","","","","","","","","","","",""
"587","","image-button-response","121","1315622","0.0-120.0-0.0","AL5MR5NR0VYFI","img_art/1.jpg","5","","","","","","","","","","","","","","","","","","","","","","","","",""
"854","","image-button-response","122","1316479","0.0-121.0-0.0","AL5MR5NR0VYFI","img_art/1.jpg","1","","","","","","","","","","","","","","","","","","","","","","","","",""
"null","","html-keyboard-response","123","1317982","0.0-122.0","AL5MR5NR0VYFI","<p style=""font-size: 48px;"">+</p>","","","","","null","allTrialResponses","1500","1","11","img_art/1.jpg","-17","blurred lines, no focus","Juan,Nathaniel,Devin,Shane,Cameron,Aaron","I don't like how this one makes me feel.,-32,260,20","A bit of a smokey mess, but it does have an air of mystery I like,7,220,20","Quite messy looking,-22,380,20","Warmth of the sun,22,80,20","It's okay, colors remind me of autumn.,10,60,20","The colors are nice but that's all it is,21,20,20","Cameron","It's okay, colors remind me of autumn.,10,60,20","Aaron","The colors are nice but that's all it is,21,20,20","Nathaniel","A bit of a smokey mess, but it does have an air of mystery I like,7,220,20","1"
"10562","","survey-text","124","1328555","0.0-123.0-0.0","AL5MR5NR0VYFI","","","","{""Q0"":""It can be many things.""}","","","","","","","","","","","","","","","","","","","","","","",""
"2162","","image-slider-response","125","1330720","0.0-124.0","AL5MR5NR0VYFI","","","","","7","","","","","","","","","","","","","","","","","","","","","",""
"2287","","image-button-response","126","1335724","0.0-125.0","AL5MR5NR0VYFI","img_art/10.jpg","2","","","","","","","","","","","","","","","","","","","","","","","","",""
"1568","","image-button-response","127","1337295","0.0-126.0","AL5MR5NR0VYFI","img_art/10.jpg","3","","","","","","","","","","","","","","","","","","","","","","","","",""
"1234","","image-button-response","128","1338531","0.0-127.0-0.0","AL5MR5NR0VYFI","img_art/10.jpg","4","","","","","","","","","","","","","","","","","","","","","","","","",""
"1090","","image-button-response","129","1339625","0.0-128.0-0.0","AL5MR5NR0VYFI","img_art/10.jpg","2","","","","","","","","","","","","","","","","","","","","","","","","",""
"null","","html-keyboard-response","130","1340628","0.0-129.0","AL5MR5NR0VYFI","<p style=""font-size: 48px;"">+</p>","","","","","null","allTrialResponses","1000","1","12","img_art/10.jpg","7","It can be many things.","Isaac,Nathaniel,Mark,Brian,Cameron,Aaron","It looks intricate.,15,280,20","For black and white, this is pretty vibrant and cool. I like this.,39,220,20","Kraken, and I love it.,39,80,20","this is a good painting, but feels musical in a way that I don't connect with.,-14,380,20","artistic cello piece?,30,60,20","I like how simple but intricate it is.,30,20,20","Brian","this is a good painting, but feels musical in a way that I don't connect with.,-14,380,20","Cameron","artistic cello piece?,30,60,20","Mark","Kraken, and I love it.,39,80,20","1"
"19229","","survey-text","131","1359868","0.0-130.0-0.0","AL5MR5NR0VYFI","","","","{""Q0"":""My teeth and and candy.  Or musicians""}","","","","","","","","","","","","","","","","","","","","","","",""
"2114.000000000233","","image-slider-response","132","1361984","0.0-131.0","AL5MR5NR0VYFI","","","","","7","","","","","","","","","","","","","","","","","","","","","",""
"2843","","image-button-response","133","1366988","0.0-132.0","AL5MR5NR0VYFI","img_art/23.jpg","5","","","","","","","","","","","","","","","","","","","","","","","","",""
"828","","image-button-response","134","1367820","0.0-133.0","AL5MR5NR0VYFI","img_art/23.jpg","2","","","","","","","","","","","","","","","","","","","","","","","","",""
"1038","","image-button-response","135","1368862","0.0-134.0-0.0","AL5MR5NR0VYFI","img_art/23.jpg","4","","","","","","","","","","","","","","","","","","","","","","","","",""
"749","","image-button-response","136","1369614","0.0-135.0-0.0","AL5MR5NR0VYFI","img_art/23.jpg","3","","","","","","","","","","","","","","","","","","","","","","","","",""
"null","","html-keyboard-response","137","1371116","0.0-136.0","AL5MR5NR0VYFI","<p style=""font-size: 48px;"">+</p>","","","","","null","allTrialResponses","1500","1","13","img_art/23.jpg","7","My teeth and and candy.  Or musicians","Luke,Samuel,Mark,Brian,Cameron,Angel","makes me happy and want to dance,43,20,20","happiness in the universe,28,400,20","I see souls in torment and that makes me feel uneasy.,-21,80,20","this looks like a pop rock album cover,-10,380,20","looks like those paper chain things.,0,60,20","I feel positive community and comfort. Singing along at a concert, united with a bunch of strangers through shared joy.,20,180,20","Mark","I see souls in torment and that makes me feel uneasy.,-21,80,20","Cameron","looks like those paper chain things.,0,60,20","Brian","this looks like a pop rock album cover,-10,380,20","1"
"82138","","survey-text","138","1453259","0.0-137.0-0.0","AL5MR5NR0VYFI","","","","{""Q0"":""looks like a peach on fire""}","","","","","","","","","","","","","","","","","","","","","","",""
"2515","","image-slider-response","139","1455778","0.0-138.0","AL5MR5NR0VYFI","","","","","12","","","","","","","","","","","","","","","","","","","","","",""
"2310","","image-button-response","140","1460782","0.0-139.0","AL5MR5NR0VYFI","img_art/22.jpg","2","","","","","","","","","","","","","","","","","","","","","","","","",""
"977","","image-button-response","141","1461762","0.0-140.0","AL5MR5NR0VYFI","img_art/22.jpg","2","","","","","","","","","","","","","","","","","","","","","","","","",""
"946","","image-button-response","142","1462711","0.0-141.0-0.0","AL5MR5NR0VYFI","img_art/22.jpg","4","","","","","","","","","","","","","","","","","","","","","","","","",""
"655","","image-button-response","143","1463368","0.0-142.0-0.0","AL5MR5NR0VYFI","img_art/22.jpg","3","","","","","","","","","","","","","","","","","","","","","","","","",""
"null","","html-keyboard-response","144","1464871","0.0-143.0","AL5MR5NR0VYFI","<p style=""font-size: 48px;"">+</p>","","","","","null","allTrialResponses","1500","1","14","img_art/22.jpg","12","looks like a peach on fire","Sean,Devon,Mark,Brian,Cameron,Taylor","my reaction is that the picture is confusion,-9,40,20","This represents the hopes in my life.,21,400,20","I don't feel much of anything.,0,80,20","this is too generic,-27,380,20","Like this one, like a sunset,30,60,20","Looks like the kind of art I would see at the doctor's office.,-5,200,20","Mark","I don't feel much of anything.,0,80,20","Cameron","Like this one, like a sunset,30,60,20","Brian","this is too generic,-27,380,20","1"
"9448","","survey-text","145","1474333","0.0-144.0-0.0","AL5MR5NR0VYFI","","","","{""Q0"":""storm approaching the shore""}","","","","","","","","","","","","","","","","","","","","","","",""
"2758","","image-slider-response","146","1477094","0.0-145.0","AL5MR5NR0VYFI","","","","","16","","","","","","","","","","","","","","","","","","","","","",""
"3850","","image-button-response","147","1482099","0.0-146.0","AL5MR5NR0VYFI","img_art/21.jpg","1","","","","","","","","","","","","","","","","","","","","","","","","",""
"1157","","image-button-response","148","1483259","0.0-147.0","AL5MR5NR0VYFI","img_art/21.jpg","4","","","","","","","","","","","","","","","","","","","","","","","","",""
"1273","","image-button-response","149","1484535","0.0-148.0-0.0","AL5MR5NR0VYFI","img_art/21.jpg","1","","","","","","","","","","","","","","","","","","","","","","","","",""
"886","","image-button-response","150","1485424","0.0-149.0-0.0","AL5MR5NR0VYFI","img_art/21.jpg","2","","","","","","","","","","","","","","","","","","","","","","","","",""
"null","","html-keyboard-response","151","1485928","0.0-150.0","AL5MR5NR0VYFI","<p style=""font-size: 48px;"">+</p>","","","","","null","allTrialResponses","500","1","15","img_art/21.jpg","16","storm approaching the shore","Luis,Peter,Mark,Brian,Cameron,Garrett","I like the representation of love and hate in this,43,400,20","I like the two sides meeting, like a movie scene,15,320,20","It feels like a day at sea but the pink is slightly jarring and holding my eye.,26,80,20","there's not enough fine detail in this one,-27,380,20","Like the colors. Don't like the white dots on the right side of the painting though.,15,60,20","I like the sky a little bit the way the colors look for the sky, the cliff side looks a little weird though.,10,180,20","Cameron","Like the colors. Don't like the white dots on the right side of the painting though.,15,60,20","Peter","I like the two sides meeting, like a movie scene,15,320,20","Mark","It feels like a day at sea but the pink is slightly jarring and holding my eye.,26,80,20","1"
"3399","","survey-text","152","1489342","0.0-151.0-0.0","AL5MR5NR0VYFI","","","","{""Q0"":""course""}","","","","","","","","","","","","","","","","","","","","","","",""
"9792","","survey-text","153","1499136","0.0-152.0-0.0","AL5MR5NR0VYFI","","","","{""Q0"":""death on the highway""}","","","","","","","","","","","","","","","","","","","","","","",""
"6123","","image-slider-response","154","1505261","0.0-153.0","AL5MR5NR0VYFI","","","","","22","","","","","","","","","","","","","","","","","","","","","",""
"null","","image-button-response","155","1510264","0.0-154.0","AL5MR5NR0VYFI","img_art/20.jpg","null","","","","","","","","","","","","","","","","","","","","","","","","",""
"18784","","image-button-response","156","1529050","0.0-155.0","AL5MR5NR0VYFI","img_art/20.jpg","4","","","","","","","","","","","","","","","","","","","","","","","","",""
"2017","","image-button-response","157","1531070","0.0-156.0-0.0","AL5MR5NR0VYFI","img_art/20.jpg","2","","","","","","","","","","","","","","","","","","","","","","","","",""
"992","","image-button-response","158","1532065","0.0-157.0-0.0","AL5MR5NR0VYFI","img_art/20.jpg","1","","","","","","","","","","","","","","","","","","","","","","","","",""
"null","","html-keyboard-response","159","1533068","0.0-158.0","AL5MR5NR0VYFI","<p style=""font-size: 48px;"">+</p>","","","","","null","allTrialResponses","1000","1","16","img_art/20.jpg","22","death on the highway","Charles,Peter,Mark,Evan,Cameron,Jordan","Something bad has happened TO reality,-23,100,20","Little picturesque town that I would like to visit,19,320,20","Reminds me of persistance of time (a favorite of mine).,30,80,20","I feel intrigued and impressed,34,140,20","Dinosaur skill and some dark shadow above,-30,60,20","A mountain vacation,46,160,20","Cameron","Dinosaur skill and some dark shadow above,-30,60,20","Mark","Reminds me of persistance of time (a favorite of mine).,30,80,20","Peter","Little picturesque town that I would like to visit,19,320,20","1"
"14335","","survey-text","160","1547415","0.0-159.0-0.0","AL5MR5NR0VYFI","","","","{""Q0"":""kindergarten art on display or intestines""}","","","","","","","","","","","","","","","","","","","","","","",""
"4158","","image-slider-response","161","1551576","0.0-160.0","AL5MR5NR0VYFI","","","","","-24","","","","","","","","","","","","","","","","","","","","","",""
"3774","","image-button-response","162","1556580","0.0-161.0","AL5MR5NR0VYFI","img_art/3.jpg","4","","","","","","","","","","","","","","","","","","","","","","","","",""
"110","","image-button-response","163","1556692","0.0-162.0","AL5MR5NR0VYFI","img_art/3.jpg","4","","","","","","","","","","","","","","","","","","","","","","","","",""
"774","","image-button-response","164","1557469","0.0-163.0-0.0","AL5MR5NR0VYFI","img_art/3.jpg","3","","","","","","","","","","","","","","","","","","","","","","","","",""
"1258","","image-button-response","165","1558731","0.0-164.0-0.0","AL5MR5NR0VYFI","img_art/3.jpg","1","","","","","","","","","","","","","","","","","","","","","","","","",""
"null","","html-keyboard-response","166","1559735","0.0-165.0","AL5MR5NR0VYFI","<p style=""font-size: 48px;"">+</p>","","","","","null","allTrialResponses","1000","1","17","img_art/3.jpg","-24","kindergarten art on display or intestines","Jacob,Peter,Mark,Jeffrey,Cameron,Austin","Don't get the scribbles.,-13,340,20","Looks like blood scribbled on walls,-20,320,20","I don't feel anything, it seems childish.,-25,80,20","Associates with blood and crime scene,-12,40,20","kid scribbled on the wall again,-35,60,20","It doesn't invoke any excitement,-21,240,20","Cameron","kid scribbled on the wall again,-35,60,20","Jeffrey","Associates with blood and crime scene,-12,40,20","Peter","Looks like blood scribbled on walls,-20,320,20","1"
"9776","","survey-text","167","1569522","0.0-166.0-0.0","AL5MR5NR0VYFI","","","","{""Q0"":""would make a good area rug""}","","","","","","","","","","","","","","","","","","","","","","",""
"5332.999999999767","","image-slider-response","168","1574858","0.0-167.0","AL5MR5NR0VYFI","","","","","-12","","","","","","","","","","","","","","","","","","","","","",""
"3796","","image-button-response","169","1579864","0.0-168.0","AL5MR5NR0VYFI","img_art/2.jpg","4","","","","","","","","","","","","","","","","","","","","","","","","",""
"1730","","image-button-response","170","1581597","0.0-169.0","AL5MR5NR0VYFI","img_art/2.jpg","1","","","","","","","","","","","","","","","","","","","","","","","","",""
"1150","","image-button-response","171","1582750","0.0-170.0-0.0","AL5MR5NR0VYFI","img_art/2.jpg","0","","","","","","","","","","","","","","","","","","","","","","","","",""
"990","","image-button-response","172","1583744","0.0-171.0-0.0","AL5MR5NR0VYFI","img_art/2.jpg","4","","","","","","","","","","","","","","","","","","","","","","","","",""
"null","","html-keyboard-response","173","1585250","0.0-172.0","AL5MR5NR0VYFI","<p style=""font-size: 48px;"">+</p>","","","","","null","allTrialResponses","1500","1","18","img_art/2.jpg","-12","would make a good area rug","Corey,Peter,Jorge,Jeffrey,Cameron,Isaiah","doesn't do anything for me,-7,260,20","I don't feel indifferent,4,320,20","Confused and disoriented,-33,180,20","positive, seems like someone really happy and colourful is looking at me,22,40,20","Ugly version of that park painting.,-31,60,20","I feel claustrophobic. I'm looking at a busy shop, but the simple shapes and continuous colors make it hectic.,-8,300,20","Peter","I don't feel indifferent,4,320,20","Corey","doesn't do anything for me,-7,260,20","Cameron","Ugly version of that park painting.,-31,60,20","1"
"16506","","survey-text","174","1601769","0.0-173.0-0.0","AL5MR5NR0VYFI","","","","{""Q0"":""people, notes, music?""}","","","","","","","","","","","","","","","","","","","","","","",""
"2969","","image-slider-response","175","1604741","0.0-174.0","AL5MR5NR0VYFI","","","","","21","","","","","","","","","","","","","","","","","","","","","",""
"null","","image-button-response","176","1609748","0.0-175.0","AL5MR5NR0VYFI","img_art/11.jpg","null","","","","","","","","","","","","","","","","","","","","","","","","",""
"626","","image-button-response","177","1610377","0.0-176.0","AL5MR5NR0VYFI","img_art/11.jpg","4","","","","","","","","","","","","","","","","","","","","","","","","",""
"687","","image-button-response","178","1611068","0.0-177.0-0.0","AL5MR5NR0VYFI","img_art/11.jpg","5","","","","","","","","","","","","","","","","","","","","","","","","",""
"1456","","image-button-response","179","1612528","0.0-178.0-0.0","AL5MR5NR0VYFI","img_art/11.jpg","2","","","","","","","","","","","","","","","","","","","","","","","","",""
"null","","html-keyboard-response","180","1613531","0.0-179.0","AL5MR5NR0VYFI","<p style=""font-size: 48px;"">+</p>","","","","","null","allTrialResponses","1000","1","19","img_art/11.jpg","21","people, notes, music?","Corey,Peter,Brett,Paul,Cameron,Colton","dont like the colors. Its a gloomy day in london and this is the transit system,-26,260,20","Smoggy, oily, industrial. Don't like,1,320,20","This looks like a busy highway system along a suburban background,40,360,20","I like how it reminds me of music and at the same time it looks like colorful train tracks.,10,300,20","futuristic arching railways,25,60,20","the wavy lines are nice and pleasing,13,220,20","Cameron","futuristic arching railways,25,60,20","Colton","the wavy lines are nice and pleasing,13,220,20","Brett","This looks like a busy highway system along a suburban background,40,360,20","1"
"11869","","survey-text","181","1625413","0.0-180.0-0.0","AL5MR5NR0VYFI","","","","{""Q0"":""my leftovers from the fancy place""}","","","","","","","","","","","","","","","","","","","","","","",""
"5541.000000000233","","image-slider-response","182","1630958","0.0-181.0","AL5MR5NR0VYFI","","","","","13","","","","","","","","","","","","","","","","","","","","","",""
"null","","image-button-response","183","1635963","0.0-182.0","AL5MR5NR0VYFI","img_art/5.jpg","null","","","","","","","","","","","","","","","","","","","","","","","","",""
"3055","","image-button-response","184","1639020","0.0-183.0","AL5MR5NR0VYFI","img_art/5.jpg","2","","","","","","","","","","","","","","","","","","","","","","","","",""
"655","","image-button-response","185","1639677","0.0-184.0-0.0","AL5MR5NR0VYFI","img_art/5.jpg","1","","","","","","","","","","","","","","","","","","","","","","","","",""
"801","","image-button-response","186","1640483","0.0-185.0-0.0","AL5MR5NR0VYFI","img_art/5.jpg","4","","","","","","","","","","","","","","","","","","","","","","","","",""
"null","","html-keyboard-response","187","1641987","0.0-186.0","AL5MR5NR0VYFI","<p style=""font-size: 48px;"">+</p>","","","","","null","allTrialResponses","1500","1","20","img_art/5.jpg","13","my leftovers from the fancy place","Alexis,Alexander,Brett,Benjamin,Cameron,Colton","I am confused as to what this is supposed to be,6,140,20","Dull pyramid that says nothing.,7,120,20","It reminds me of a piece of lemon candy, which is one of my favorite flavors,20,360,20","Missing something,-5,260,20","No. What even is this? A mop?,-35,60,20","I like the strokes and colors used,20,220,20","Brett","It reminds me of a piece of lemon candy, which is one of my favorite flavors,20,360,20","Alexander","Dull pyramid that says nothing.,7,120,20","Cameron","No. What even is this? A mop?,-35,60,20","1"
"2530","","survey-text","188","1644536","0.0-187.0-0.0","AL5MR5NR0VYFI","","","","{""Q0"":""we""}","","","","","","","","","","","","","","","","","","","","","","",""
"15795","","survey-text","189","1660333","0.0-188.0-0.0","AL5MR5NR0VYFI","","","","{""Q0"":""nice try, kid.  B+""}","","","","","","","","","","","","","","","","","","","","","","",""
"4187","","image-slider-response","190","1664522","0.0-189.0","AL5MR5NR0VYFI","","","","","15","","","","","","","","","","","","","","","","","","","","","",""
"3617","","image-button-response","191","1669526","0.0-190.0","AL5MR5NR0VYFI","img_art/6.jpg","1","","","","","","","","","","","","","","","","","","","","","","","","",""
"703","","image-button-response","192","1670232","0.0-191.0","AL5MR5NR0VYFI","img_art/6.jpg","1","","","","","","","","","","","","","","","","","","","","","","","","",""
"897","","image-button-response","193","1671132","0.0-192.0-0.0","AL5MR5NR0VYFI","img_art/6.jpg","4","","","","","","","","","","","","","","","","","","","","","","","","",""
"733","","image-button-response","194","1671868","0.0-193.0-0.0","AL5MR5NR0VYFI","img_art/6.jpg","5","","","","","","","","","","","","","","","","","","","","","","","","",""
"null","","html-keyboard-response","195","1672871","0.0-194.0","AL5MR5NR0VYFI","<p style=""font-size: 48px;"">+</p>","","","","","null","allTrialResponses","1000","1","21","img_art/6.jpg","15","nice try, kid.  B+","Tanner,Alexander,Brett,Daniel,Cameron,Antonio","loneliness, fragile, forever alone, a girl who's been there for eternity, only think tracking time is the length of her hair,9,180,20","Desert that's too simple.,-15,120,20","Reminds me of feeling incomplete,1,360,20","Odd desert, nice sand color with headless bird,11,320,20","Kind of neat, but then that's a weird looking bird. too weird.,0,60,20","Lonely and kinda sad,-25,220,20","Alexander","Desert that's too simple.,-15,120,20","Cameron","Kind of neat, but then that's a weird looking bird. too weird.,0,60,20","Antonio","Lonely and kinda sad,-25,220,20","1"
"10635","","survey-text","196","1683518","0.0-195.0-0.0","AL5MR5NR0VYFI","","","","{""Q0"":""very geometric but hate the colors""}","","","","","","","","","","","","","","","","","","","","","","",""
"4326","","image-slider-response","197","1687847","0.0-196.0","AL5MR5NR0VYFI","","","","","-19","","","","","","","","","","","","","","","","","","","","","",""
"null","","image-button-response","198","1692850","0.0-197.0","AL5MR5NR0VYFI","img_art/12.jpg","null","","","","","","","","","","","","","","","","","","","","","","","","",""
"2883","","image-button-response","199","1695735","0.0-198.0","AL5MR5NR0VYFI","img_art/12.jpg","4","","","","","","","","","","","","","","","","","","","","","","","","",""
"820","","image-button-response","200","1696558","0.0-199.0-0.0","AL5MR5NR0VYFI","img_art/12.jpg","2","","","","","","","","","","","","","","","","","","","","","","","","",""
"694","","image-button-response","201","1697256","0.0-200.0-0.0","AL5MR5NR0VYFI","img_art/12.jpg","1","","","","","","","","","","","","","","","","","","","","","","","","",""
"null","","html-keyboard-response","202","1697759","0.0-201.0","AL5MR5NR0VYFI","<p style=""font-size: 48px;"">+</p>","","","","","null","allTrialResponses","500","1","22","img_art/12.jpg","-19","very geometric but hate the colors","Patrick,Alexander,Connor,William,Cameron,Antonio","I don't like the blocking,-20,280,20","Ugly color combinations, no focus.,-25,120,20","City scape but palette is odd,4,240,20","to contemporary for me,3,380,20","Dislike the style, the sharp rectangular pattern very jarring.,-20,60,20","I like the colors in both sections, brights compared to neutrals. Each block has a different view. I think of the future,11,220,20","Cameron","Dislike the style, the sharp rectangular pattern very jarring.,-20,60,20","Connor","City scape but palette is odd,4,240,20","Alexander","Ugly color combinations, no focus.,-25,120,20","1"
"10886","","survey-text","203","1708656","0.0-202.0-0.0","AL5MR5NR0VYFI","","","","{""Q0"":""a nice day in the park""}","","","","","","","","","","","","","","","","","","","","","","",""
"2529.999999999767","","image-slider-response","204","1711189","0.0-203.0","AL5MR5NR0VYFI","","","","","21","","","","","","","","","","","","","","","","","","","","","",""
"4596","","image-button-response","205","1716194","0.0-204.0","AL5MR5NR0VYFI","img_art/26.jpg","2","","","","","","","","","","","","","","","","","","","","","","","","",""
"697","","image-button-response","206","1716894","0.0-205.0","AL5MR5NR0VYFI","img_art/26.jpg","2","","","","","","","","","","","","","","","","","","","","","","","","",""
"701","","image-button-response","207","1717598","0.0-206.0-0.0","AL5MR5NR0VYFI","img_art/26.jpg","1","","","","","","","","","","","","","","","","","","","","","","","","",""
"936","","image-button-response","208","1718537","0.0-207.0-0.0","AL5MR5NR0VYFI","img_art/26.jpg","4","","","","","","","","","","","","","","","","","","","","","","","","",""
"null","","html-keyboard-response","209","1719540","0.0-208.0","AL5MR5NR0VYFI","<p style=""font-size: 48px;"">+</p>","","","","","null","allTrialResponses","1000","1","23","img_art/26.jpg","21","a nice day in the park","Jonathan,Alexander,Connor,Jared,Cameron,Christian","It's relaxing to look at but I wish it was just a little more defined,20,140,20","Confusing park picture.,8,120,20","City scene in a park,23,240,20","soothing and subtle,1,400,20","street scene is okay?,15,60,20","love the ""lowkey"" vibrant colors that are colorful but at the same time greyscale,12,140,20","Connor","City scene in a park,23,240,20","Alexander","Confusing park picture.,8,120,20","Cameron","street scene is okay?,15,60,20","1"
"11223","","survey-text","210","1730775","0.0-209.0-0.0","AL5MR5NR0VYFI","","","","{""Q0"":""What I see when on drugs""}","","","","","","","","","","","","","","","","","","","","","","",""
"2186","","image-slider-response","211","1732964","0.0-210.0","AL5MR5NR0VYFI","","","","","15","","","","","","","","","","","","","","","","","","","","","",""
"null","","image-button-response","212","1737968","0.0-211.0","AL5MR5NR0VYFI","img_art/19.jpg","null","","","","","","","","","","","","","","","","","","","","","","","","",""
"4881","","image-button-response","213","1742850","0.0-212.0","AL5MR5NR0VYFI","img_art/19.jpg","4","","","","","","","","","","","","","","","","","","","","","","","","",""
"690","","image-button-response","214","1743548","0.0-213.0-0.0","AL5MR5NR0VYFI","img_art/19.jpg","5","","","","","","","","","","","","","","","","","","","","","","","","",""
"1048","","image-button-response","215","1744599","0.0-214.0-0.0","AL5MR5NR0VYFI","img_art/19.jpg","1","","","","","","","","","","","","","","","","","","","","","","","","",""
"null","","html-keyboard-response","216","1745602","0.0-215.0","AL5MR5NR0VYFI","<p style=""font-size: 48px;"">+</p>","","","","","null","allTrialResponses","1000","1","24","img_art/19.jpg","15","What I see when on drugs","Travis,Alexander,Connor,Jack,Cameron,Cole","Nuetral...can't think of anything to say,4,260,20","Messy pantry full of food.,5,120,20","Childish music hall,-20,240,20","love the muted colors and added sketchy lines. calming without being boring.,50,320,20","Snowy winter scene,25,60,20","Its simple and the colors i like. It reminds me of chagall,34,200,20","Cameron","Snowy winter scene,25,60,20","Cole","Its simple and the colors i like. It reminds me of chagall,34,200,20","Alexander","Messy pantry full of food.,5,120,20","1"
"12938","","survey-text","217","1758552","0.0-216.0-0.0","AL5MR5NR0VYFI","","","","{""Q0"":""Car crash in nature. ""}","","","","","","","","","","","","","","","","","","","","","","",""
"2309","","image-slider-response","218","1760864","0.0-217.0","AL5MR5NR0VYFI","","","","","11","","","","","","","","","","","","","","","","","","","","","",""
"null","","image-button-response","219","1765868","0.0-218.0","AL5MR5NR0VYFI","img_art/14.jpg","null","","","","","","","","","","","","","","","","","","","","","","","","",""
"12959","","image-button-response","220","1778831","0.0-219.0","AL5MR5NR0VYFI","img_art/14.jpg","4","","","","","","","","","","","","","","","","","","","","","","","","",""
"584","","image-button-response","221","1779419","0.0-220.0-0.0","AL5MR5NR0VYFI","img_art/14.jpg","5","","","","","","","","","","","","","","","","","","","","","","","","",""
"751","","image-button-response","222","1780173","0.0-221.0-0.0","AL5MR5NR0VYFI","img_art/14.jpg","1","","","","","","","","","","","","","","","","","","","","","","","","",""
"null","","html-keyboard-response","223","1780677","0.0-222.0","AL5MR5NR0VYFI","<p style=""font-size: 48px;"">+</p>","","","","","null","allTrialResponses","500","1","25","img_art/14.jpg","11","Car crash in nature. ","Adrian,Alexander,Ryan,Grant,Cameron,Cole","Warm, positive, growth.,8,60,20","Angled, colored, boxy.,10,120,20","Gorgeous use of water color,50,380,20","This elicits no reaction in me.,0,200,20","cotton candy skies. pretty.,35,60,20","Simplistic. Looks like a child did it,14,200,20","Cameron","cotton candy skies. pretty.,35,60,20","Cole","Simplistic. Looks like a child did it,14,200,20","Alexander","Angled, colored, boxy.,10,120,20","1"
"2880","","survey-text","224","1783573","0.0-223.0-0.0","AL5MR5NR0VYFI","","","","{""Q0"":""table""}","","","","","","","","","","","","","","","","","","","","","","",""
"12390","","survey-text","225","1795965","0.0-224.0-0.0","AL5MR5NR0VYFI","","","","{""Q0"":""interesting colors over the scribbles""}","","","","","","","","","","","","","","","","","","","","","","",""
"2640.000000000233","","image-slider-response","226","1798608","0.0-225.0","AL5MR5NR0VYFI","","","","","-19","","","","","","","","","","","","","","","","","","","","","",""
"null","","image-button-response","227","1803612","0.0-226.0","AL5MR5NR0VYFI","img_art/27.jpg","null","","","","","","","","","","","","","","","","","","","","","","","","",""
"5772","","image-button-response","228","1809387","0.0-227.0","AL5MR5NR0VYFI","img_art/27.jpg","2","","","","","","","","","","","","","","","","","","","","","","","","",""
"1085","","image-button-response","229","1810474","0.0-228.0-0.0","AL5MR5NR0VYFI","img_art/27.jpg","1","","","","","","","","","","","","","","","","","","","","","","","","",""
"1733","","image-button-response","230","1812209","0.0-229.0-0.0","AL5MR5NR0VYFI","img_art/27.jpg","5","","","","","","","","","","","","","","","","","","","","","","","","",""
"null","","html-keyboard-response","231","1813713","0.0-230.0","AL5MR5NR0VYFI","<p style=""font-size: 48px;"">+</p>","","","","","null","allTrialResponses","1500","1","26","img_art/27.jpg","-19","interesting colors over the scribbles","Tyler,Alexander,Dylan,Jesse,Cameron,Cole","The photographing is horribly distracting. I would feel more favorable toward the original colors/ brightness,1,320,20","Messy field of various plants.,-5,120,20","This is ugly and looks like a child did this,-36,40,20","Doesnt look like anything to me. Doesnt capture my attention.,-25,80,20","Like it, autumn colors, trees and foliage scene.,25,60,20","Unfinished something?,-30,200,20","Dylan","This is ugly and looks like a child did this,-36,40,20","Alexander","Messy field of various plants.,-5,120,20","Cole","Unfinished something?,-30,200,20","1"
"17530","","survey-text","232","1831254","0.0-231.0-0.0","AL5MR5NR0VYFI","","","","{""Q0"":""someone take away the black paint please""}","","","","","","","","","","","","","","","","","","","","","","",""
"2735.000000000233","","image-slider-response","233","1833991","0.0-232.0","AL5MR5NR0VYFI","","","","","-18","","","","","","","","","","","","","","","","","","","","","",""
"null","","image-button-response","234","1838995","0.0-233.0","AL5MR5NR0VYFI","img_art/15.jpg","null","","","","","","","","","","","","","","","","","","","","","","","","",""
"8875","","image-button-response","235","1847871","0.0-234.0","AL5MR5NR0VYFI","img_art/15.jpg","4","","","","","","","","","","","","","","","","","","","","","","","","",""
"1299","","image-button-response","236","1849178","0.0-235.0-0.0","AL5MR5NR0VYFI","img_art/15.jpg","3","","","","","","","","","","","","","","","","","","","","","","","","",""
"911","","image-button-response","237","1850090","0.0-236.0-0.0","AL5MR5NR0VYFI","img_art/15.jpg","2","","","","","","","","","","","","","","","","","","","","","","","","",""
"null","","html-keyboard-response","238","1851094","0.0-237.0","AL5MR5NR0VYFI","<p style=""font-size: 48px;"">+</p>","","","","","null","allTrialResponses","1000","1","27","img_art/15.jpg","-18","someone take away the black paint please","Ethan,Alexander,Dylan,James,Alejandro,Cole","This piece gave me no emotion. It's ugly to me.,-38,120,20","Leafs spread on the ground.,27,120,20","This is sort of ugly, but I do like the design.,10,40,20","No opinion truthfully,1,380,20","The blotted black spots create a nice contrast between the brush strokes within the center and sides. I like it.,41,80,20","It reminds me of when you look up into a tree,21,200,20","Alejandro","The blotted black spots create a nice contrast between the brush strokes within the center and sides. I like it.,41,80,20","James","No opinion truthfully,1,380,20","Dylan","This is sort of ugly, but I do like the design.,10,40,20","1"
"15009","","survey-text","239","1866117","0.0-238.0-0.0","AL5MR5NR0VYFI","","","","{""Q0"":""Very creepy deleted scene from Lord of the Rings""}","","","","","","","","","","","","","","","","","","","","","","",""
"2885","","image-slider-response","240","1869006","0.0-239.0","AL5MR5NR0VYFI","","","","","9","","","","","","","","","","","","","","","","","","","","","",""
"null","","image-button-response","241","1874010","0.0-240.0","AL5MR5NR0VYFI","img_art/18.jpg","null","","","","","","","","","","","","","","","","","","","","","","","","",""
"533","","image-button-response","242","1874546","0.0-241.0","AL5MR5NR0VYFI","img_art/18.jpg","0","","","","","","","","","","","","","","","","","","","","","","","","",""
"804","","image-button-response","243","1875353","0.0-242.0-0.0","AL5MR5NR0VYFI","img_art/18.jpg","1","","","","","","","","","","","","","","","","","","","","","","","","",""
"1001","","image-button-response","244","1876357","0.0-243.0-0.0","AL5MR5NR0VYFI","img_art/18.jpg","4","","","","","","","","","","","","","","","","","","","","","","","","",""
"null","","html-keyboard-response","245","1877360","0.0-244.0","AL5MR5NR0VYFI","<p style=""font-size: 48px;"">+</p>","","","","","null","allTrialResponses","1000","1","28","img_art/18.jpg","9","Very creepy deleted scene from Lord of the Rings","Cody,Bradley,Dylan,James,Alejandro,Kenneth","Vaguely creepy ........,-20,180,20","This one is very dark and apocalyptic indeed!,-30,300,20","Ugly, too much is going on,-40,40,20","Very eerie and it's spooky,11,380,20","I love this because abstractly depicts the apocalypse. The white horse and its rider as Death, described in religious texts and pop culture. ""He rode a pale horse and his name was death."",50,80,20","It's interesting. I'm not sure how I feel about it, but i enjoy the ghostly apparitions.,10,300,20","Cody","Vaguely creepy ........,-20,180,20","Bradley","This one is very dark and apocalyptic indeed!,-30,300,20","Alejandro","I love this because abstractly depicts the apocalypse. The white horse and its rider as Death, described in religious texts and pop culture. ""He rode a pale horse and his name was death."",50,80,20","1"
"15509","","survey-text","246","1892882","0.0-245.0-0.0","AL5MR5NR0VYFI","","","","{""Q0"":""Cleanup on aisle three.  ""}","","","","","","","","","","","","","","","","","","","","","","",""
"2295.999999999767","","image-slider-response","247","1895180","0.0-246.0","AL5MR5NR0VYFI","","","","","-28","","","","","","","","","","","","","","","","","","","","","",""
"null","","image-button-response","248","1900183","0.0-247.0","AL5MR5NR0VYFI","img_art/29.jpg","null","","","","","","","","","","","","","","","","","","","","","","","","",""
"5256","","image-button-response","249","1905442","0.0-248.0","AL5MR5NR0VYFI","img_art/29.jpg","4","","","","","","","","","","","","","","","","","","","","","","","","",""
"962","","image-button-response","250","1906406","0.0-249.0-0.0","AL5MR5NR0VYFI","img_art/29.jpg","5","","","","","","","","","","","","","","","","","","","","","","","","",""
"887","","image-button-response","251","1907296","0.0-250.0-0.0","AL5MR5NR0VYFI","img_art/29.jpg","2","","","","","","","","","","","","","","","","","","","","","","","","",""
"null","","html-keyboard-response","252","1908798","0.0-251.0","AL5MR5NR0VYFI","<p style=""font-size: 48px;"">+</p>","","","","","null","allTrialResponses","1500","1","29","img_art/29.jpg","-28","Cleanup on aisle three.  ","Cody,Bradley,Miguel,Victor,Alejandro,Lucas","Feels messy, stressful,-22,180,20","It's creative. It's just not my thing.,-32,300,20","It's too messy.,-25,160,20","I like the colors but it looks very amateur,1,340,20","Reminiscent of Jackson Pollock with a hint of abstract structure with the bordering.,32,80,20","Looks kinda scary.,25,380,20","Alejandro","Reminiscent of Jackson Pollock with a hint of abstract structure with the bordering.,32,80,20","Lucas","Looks kinda scary.,25,380,20","Miguel","It's too messy.,-25,160,20","1"
"13387","","survey-text","253","1922196","0.0-252.0-0.0","AL5MR5NR0VYFI","","","","{""Q0"":""who stole my finger-paint art""}","","","","","","","","","","","","","","","","","","","","","","",""
"5454.000000000233","","image-slider-response","254","1927653","0.0-253.0","AL5MR5NR0VYFI","","","","","-18","","","","","","","","","","","","","","","","","","","","","",""
"3815","","image-button-response","255","1932657","0.0-254.0","AL5MR5NR0VYFI","img_art/30.jpg","0","","","","","","","","","","","","","","","","","","","","","","","","",""
"882","","image-button-response","256","1933542","0.0-255.0","AL5MR5NR0VYFI","img_art/30.jpg","0","","","","","","","","","","","","","","","","","","","","","","","","",""
"803","","image-button-response","257","1934348","0.0-256.0-0.0","AL5MR5NR0VYFI","img_art/30.jpg","2","","","","","","","","","","","","","","","","","","","","","","","","",""
"718","","image-button-response","258","1935070","0.0-257.0-0.0","AL5MR5NR0VYFI","img_art/30.jpg","3","","","","","","","","","","","","","","","","","","","","","","","","",""
"null","","html-keyboard-response","259","1936074","0.0-258.0","AL5MR5NR0VYFI","<p style=""font-size: 48px;"">+</p>","","","","","null","allTrialResponses","1000","1","30","img_art/30.jpg","-18","who stole my finger-paint art","Richard,Alex,Miguel,Dalton,Alejandro,Lucas","looks very childish, like your kid did it,-33,340,20","Don't like it at all, looks like a someone smeared paint with their fingers,-25,100,20","Absolutely messy,-31,160,20","beautiful paint brush strokes,1,300,20","An interesting design but don't like the colors. I value the time and effort put into it, but not a huge fan.,10,80,20","I like the way the artist has painted his work.,40,380,20","Richard","looks very childish, like your kid did it,-33,340,20","Miguel","Absolutely messy,-31,160,20","Dalton","beautiful paint brush strokes,1,300,20","1"
"3403","","image-button-response_instructions","260","1939491","0.0-259.0","AL5MR5NR0VYFI","","0","instructions","","","","","","","","","","","","","","","","","","","","","","","",""
"1356","","image-button-response","261","1940856","0.0-260.0","AL5MR5NR0VYFI","","0","","","","","","","","","","","","","","","","","","","","","","","","",""
