"rt","url","trial_type","trial_index","time_elapsed","internal_node_id","participant_id","stimulus","button_pressed","Name","responses","response","key_press","variableName","fixationTime","condition","trial","photo","subjectRating","subjectResponse","agentsNames","agent_1_Response","agent_2_Response","agent_3_Response","agent_4_Response","agent_5_Response","agent_6_Response","kept_1_name","kept_1_response","kept_2_name","kept_2_response","kept_3_name","kept_3_response","errorCounter"
"38826","external_page_harvard.html","external-html","0","38903","0.0-0.0","AM6LBRUS3YR0L","","","","","","","","","","","","","","","","","","","","","","","","","","",""
"2351","","image-button-response","1","41256","0.0-1.0","AM6LBRUS3YR0L","","1","","","","","","","","","","","","","","","","","","","","","","","","",""
"2968","","image-button-response","2","44229","0.0-2.0-0.0","AM6LBRUS3YR0L","","1","phone","","","","","","","","","","","","","","","","","","","","","","","",""
"14077","","survey-text","3","58307","0.0-3.0-0.0","AM6LBRUS3YR0L","","","","{""Q0"":""AM6LBRUS3YR0L""}","","","","","","","","","","","","","","","","","","","","","","",""
"16692","","image-button-response_instructions","4","75001","0.0-4.0","AM6LBRUS3YR0L","","0","instructions","","","","","","","","","","","","","","","","","","","","","","","",""
"20185","","image-button-response_instructions","5","95187","0.0-5.0","AM6LBRUS3YR0L","img_art/ins/popularity/ins1.png","0","instructions","","","","","","","","","","","","","","","","","","","","","","","",""
"17160","","image-button-response_instructions","6","112349","0.0-6.0","AM6LBRUS3YR0L","img_art/ins/popularity/ins2.png","0","instructions","","","","","","","","","","","","","","","","","","","","","","","",""
"12972","","image-button-response_instructions","7","125322","0.0-7.0","AM6LBRUS3YR0L","img_art/ins/popularity/ins2Extreme.png","0","instructions","","","","","","","","","","","","","","","","","","","","","","","",""
"32006","","image-button-response_instructions","8","157329","0.0-8.0","AM6LBRUS3YR0L","img_art/ins/popularity/ins3KEEPpop.PNG","0","instructions","","","","","","","","","","","","","","","","","","","","","","","",""
"4748","","image-button-response_instructions","9","162077","0.0-9.0","AM6LBRUS3YR0L","img_art/ins/popularity/ins3ANamepop.PNG","0","instructions","","","","","","","","","","","","","","","","","","","","","","","",""
"4653","","image-button-response_instructions","10","166731","0.0-10.0","AM6LBRUS3YR0L","img_art/ins/popularity/ins3ARatingpop.png","0","instructions","","","","","","","","","","","","","","","","","","","","","","","",""
"4222","","image-button-response_instructions","11","170955","0.0-11.0","AM6LBRUS3YR0L","img_art/ins/popularity/ins3ATextpop.png","0","instructions","","","","","","","","","","","","","","","","","","","","","","","",""
"10101","","image-button-response_instructions","12","181056","0.0-12.0","AM6LBRUS3YR0L","img_art/ins/popularity/ins3ALikespop.png","0","instructions","","","","","","","","","","","","","","","","","","","","","","","",""
"55421","","image-button-response_instructions","13","236478","0.0-13.0","AM6LBRUS3YR0L","img_art/ins/popularity/ins3KEEPpop.PNG","0","instructions","","","","","","","","","","","","","","","","","","","","","","","",""
"9237","","image-button-response_instructions","14","245717","0.0-14.0","AM6LBRUS3YR0L","img_art/ins/popularity/ins3_5RED.png","0","instructions","","","","","","","","","","","","","","","","","","","","","","","",""
"23657","","image-button-response_instructions","15","269374","0.0-15.0","AM6LBRUS3YR0L","img_art/ins/popularity/ins3KEEPpop.PNG","0","instructions","","","","","","","","","","","","","","","","","","","","","","","",""
"9222","","image-button-response_instructions","16","278598","0.0-16.0","AM6LBRUS3YR0L","img_art/ins/popularity/ins4KEEPpop.PNG","0","instructions","","","","","","","","","","","","","","","","","","","","","","","",""
"5475","","image-button-response_instructions","17","284074","0.0-17.0","AM6LBRUS3YR0L","img_art/ins/popularity/ins5KEEPpop.PNG","0","instructions","","","","","","","","","","","","","","","","","","","","","","","",""
"2205","","image-button-response_instructions","18","286280","0.0-18.0","AM6LBRUS3YR0L","","0","instructions","","","","","","","","","","","","","","","","","","","","","","","",""
"11616","","survey-text","19","297917","0.0-19.0-0.0","AM6LBRUS3YR0L","","","","{""Q0"":""but""}","","","","","","","","","","","","","","","","","","","","","","",""
"62022","","survey-text","20","359941","0.0-20.0-0.0","AM6LBRUS3YR0L","","","","{""Q0"":""I find this picture agitating and unsettling.""}","","","","","","","","","","","","","","","","","","","","","","",""
"9833.600000023842","","image-slider-response","21","369777","0.0-21.0","AM6LBRUS3YR0L","","","","","-23","","","","","","","","","","","","","","","","","","","","","",""
"null","","image-button-response","22","374782","0.0-22.0","AM6LBRUS3YR0L","img_art/ins/1.jpg","null","","","","","","","","","","","","","","","","","","","","","","","","",""
"10456","","image-button-response","23","385240","0.0-23.0","AM6LBRUS3YR0L","img_art/ins/1.jpg","3","","","","","","","","","","","","","","","","","","","","","","","","",""
"2263","","image-button-response","24","387506","0.0-24.0-0.0","AM6LBRUS3YR0L","img_art/ins/1.jpg","4","","","","","","","","","","","","","","","","","","","","","","","","",""
"1290","","image-button-response","25","388799","0.0-25.0-0.0","AM6LBRUS3YR0L","img_art/ins/1.jpg","5","","","","","","","","","","","","","","","","","","","","","","","","",""
"null","","html-keyboard-response","26","389307","0.0-26.0","AM6LBRUS3YR0L","<p style=""font-size: 48px;"">+</p>","","","","","null","allTrialResponses","500","1","-2","img_art/ins/1.jpg","-23","I find this picture agitating and unsettling.","Allison,Ashley,Beth,Dora,Erika,Jen","looks like a lot of things going on in the mist,20,20,20","I just don't get why these type of art would be popular,-32,40,20","This color reminds me of poo,-46,60,20","looks like what my niece in 3rd grade did this afternoon,-50,80,20","I like the sophisticated brushwork,40,100,20","It reminds me of a candy land dream I had,36,120,20","Dora","looks like what my niece in 3rd grade did this afternoon,-50,80,20","Erika","I like the sophisticated brushwork,40,100,20","Jen","It reminds me of a candy land dream I had,36,120,20","0"
"57203","","survey-text","27","446515","0.0-27.0-0.0","AM6LBRUS3YR0L","","","","{""Q0"":""This is comforting, and reminds me of a quilt I once had.""}","","","","","","","","","","","","","","","","","","","","","","",""
"9192.099999964237","","image-slider-response","28","455709","0.0-28.0","AM6LBRUS3YR0L","","","","","38","","","","","","","","","","","","","","","","","","","","","",""
"null","","image-button-response","29","460723","0.0-29.0","AM6LBRUS3YR0L","img_art/ins/2.jpg","null","","","","","","","","","","","","","","","","","","","","","","","","",""
"354","","image-button-response","30","461079","0.0-30.0","AM6LBRUS3YR0L","img_art/ins/2.jpg","1","","","","","","","","","","","","","","","","","","","","","","","","",""
"2922","","image-button-response","31","464003","0.0-31.0-0.0","AM6LBRUS3YR0L","img_art/ins/2.jpg","4","","","","","","","","","","","","","","","","","","","","","","","","",""
"1581","","image-button-response","32","465587","0.0-32.0-0.0","AM6LBRUS3YR0L","img_art/ins/2.jpg","5","","","","","","","","","","","","","","","","","","","","","","","","",""
"null","","html-keyboard-response","33","467107","0.0-33.0","AM6LBRUS3YR0L","<p style=""font-size: 48px;"">+</p>","","","","","null","allTrialResponses","1500","1","-1","img_art/ins/2.jpg","38","This is comforting, and reminds me of a quilt I once had.","Jenna,Kara,Katie,Dora,Erika,Jen","One of my pet peevs,-48,140,20","I like the blocks of color arrangements,30,160,20","too much color!,-28,180,20","looks too angry,-50,80,20","I would never be able to compose a sophisticated pallete like this,48,100,20","It reminds me of a fireplace,36,120,20","Kara","I like the blocks of color arrangements,30,160,20","Erika","I would never be able to compose a sophisticated pallete like this,48,100,20","Jen","It reminds me of a fireplace,36,120,20","0"
"44508","","survey-text","34","511619","0.0-34.0-0.0","AM6LBRUS3YR0L","","","","{""Q0"":""Calming; doves in a snowy field.""}","","","","","","","","","","","","","","","","","","","","","","",""
"8469.699999988079","","image-slider-response","35","520091","0.0-35.0","AM6LBRUS3YR0L","","","","","47","","","","","","","","","","","","","","","","","","","","","",""
"null","","image-button-response","36","525107","0.0-36.0","AM6LBRUS3YR0L","img_art/ins/3.jpg","null","","","","","","","","","","","","","","","","","","","","","","","","",""
"306","","image-button-response","37","525416","0.0-37.0","AM6LBRUS3YR0L","img_art/ins/3.jpg","4","","","","","","","","","","","","","","","","","","","","","","","","",""
"3443","","image-button-response","38","528861","0.0-38.0-0.0","AM6LBRUS3YR0L","img_art/ins/3.jpg","0","","","","","","","","","","","","","","","","","","","","","","","","",""
"2601","","image-button-response","39","531464","0.0-39.0-0.0","AM6LBRUS3YR0L","img_art/ins/3.jpg","5","","","","","","","","","","","","","","","","","","","","","","","","",""
"null","","html-keyboard-response","40","532472","0.0-40.0","AM6LBRUS3YR0L","<p style=""font-size: 48px;"">+</p>","","","","","null","allTrialResponses","1000","1","0","img_art/ins/3.jpg","47","Calming; doves in a snowy field.","Mary,Kara,Rose,Leslie,Erika,Jen","I like the overlapping of brushes,41,220,20","calming blue is very nice,36,160,20","My daily routine, it's depressing,-20,240,20","It's an alright work,15,200,20","I feel connected to the artist,40,100,20","I can feel a rainy day from this painting,18,120,20","Erika","I feel connected to the artist,40,100,20","Mary","I like the overlapping of brushes,41,220,20","Jen","I can feel a rainy day from this painting,18,120,20","0"
"6324","","image-button-response_instructions","41","538801","0.0-41.0","AM6LBRUS3YR0L","","0","instructions","","","","","","","","","","","","","","","","","","","","","","","",""
"21850","","survey-likert","42","560652","0.0-42.0-0.0","AM6LBRUS3YR0L","","","","{""Q0"":"""",""Q1"":"""",""Q2"":""""}","","","","","","","","","","","","","","","","","","","","","","",""
"13656","","survey-likert","43","578873","0.0-42.1-0.1","AM6LBRUS3YR0L","","","","{""Q0"":"""",""Q1"":0,""Q2"":1}","","","","","","","","","","","","","","","","","","","","","","",""
"8490","","survey-text","44","587369","0.0-43.0-0.0","AM6LBRUS3YR0L","","","","{""Q0"":""rock""}","","","","","","","","","","","","","","","","","","","","","","",""
"31537","","survey-text","45","618908","0.0-44.0-0.0","AM6LBRUS3YR0L","","","","{""Q0"":""Confusion; too indistinct.""}","","","","","","","","","","","","","","","","","","","","","","",""
"7794.199999988079","","image-slider-response","46","626704","0.0-45.0","AM6LBRUS3YR0L","","","","","-30","","","","","","","","","","","","","","","","","","","","","",""
"null","","image-button-response","47","631736","0.0-46.0","AM6LBRUS3YR0L","img_art/19.jpg","null","","","","","","","","","","","","","","","","","","","","","","","","",""
"3088","","image-button-response","48","634827","0.0-47.0","AM6LBRUS3YR0L","img_art/19.jpg","0","","","","","","","","","","","","","","","","","","","","","","","","",""
"17244","","image-button-response","49","652073","0.0-48.0-0.0","AM6LBRUS3YR0L","img_art/19.jpg","4","","","","","","","","","","","","","","","","","","","","","","","","",""
"2171","","image-button-response","50","654247","0.0-49.0-0.0","AM6LBRUS3YR0L","img_art/19.jpg","0","","","","","","","","","","","","","","","","","","","","","","","","",""
"10137","","image-button-response","51","669502","0.0-49.1-0.1","AM6LBRUS3YR0L","img_art/19.jpg","1","","","","","","","","","","","","","","","","","","","","","","","","",""
"null","","html-keyboard-response","52","670016","0.0-50.0","AM6LBRUS3YR0L","<p style=""font-size: 48px;"">+</p>","","","","","null","allTrialResponses","500","1","1","img_art/19.jpg","-30","Confusion; too indistinct.","Brianna,Kaitlyn,Autumn,Jessica,Alexis,Katherine","I don't know what's going on, and I realise that I don't like it,-21,20,20","The picture contains a lot of brown and weird drips,-4,80,20","Messy and kid like.,-36,340,20","Vibrant and colorful,13,400,20","Not a fan of the blobbiness,-22,100,20","I dig the not being able to tell what anything is but knowing everything is supposed to be something,46,120,20","Brianna","I don't know what's going on, and I realise that I don't like it,-21,20,20","Alexis","Not a fan of the blobbiness,-22,100,20","Kaitlyn","The picture contains a lot of brown and weird drips,-4,80,20","3"
"71142","","survey-text","53","741161","0.0-51.0-0.0","AM6LBRUS3YR0L","","","","{""Q0"":""It's intriguing. It makes me think.""}","","","","","","","","","","","","","","","","","","","","","","",""
"9558","","image-slider-response","54","750721","0.0-52.0","AM6LBRUS3YR0L","","","","","22","","","","","","","","","","","","","","","","","","","","","",""
"null","","image-button-response","55","755736","0.0-53.0","AM6LBRUS3YR0L","img_art/17.jpg","null","","","","","","","","","","","","","","","","","","","","","","","","",""
"2840","","image-button-response","56","758578","0.0-54.0","AM6LBRUS3YR0L","img_art/17.jpg","5","","","","","","","","","","","","","","","","","","","","","","","","",""
"6868","","image-button-response","57","765448","0.0-55.0-0.0","AM6LBRUS3YR0L","img_art/17.jpg","2","","","","","","","","","","","","","","","","","","","","","","","","",""
"5004","","image-button-response","58","770454","0.0-56.0-0.0","AM6LBRUS3YR0L","img_art/17.jpg","3","","","","","","","","","","","","","","","","","","","","","","","","",""
"null","","html-keyboard-response","59","770975","0.0-57.0","AM6LBRUS3YR0L","<p style=""font-size: 48px;"">+</p>","","","","","null","allTrialResponses","500","1","2","img_art/17.jpg","22","It's intriguing. It makes me think.","Brianna,Kaitlyn,Haley,Danielle,Alexis,Margaret","It's nice and realistic looking.,12,20,20","Very beautiful,19,80,20","Colors and composition are beautiful. I would hang this in my home.,50,220,20","It's alright, nothing I particularly like but it's just fine,-10,340,20","Love the color and nature motif,36,100,20","gentle watercolor vibes,12,100,20","Margaret","gentle watercolor vibes,12,100,20","Haley","Colors and composition are beautiful. I would hang this in my home.,50,220,20","Danielle","It's alright, nothing I particularly like but it's just fine,-10,340,20","3"
"94554","","survey-text","60","865533","0.0-58.0-0.0","AM6LBRUS3YR0L","","","","{""Q0"":""I love all the activity in this one.  It gives me energy.""}","","","","","","","","","","","","","","","","","","","","","","",""
"9535.899999976158","","image-slider-response","61","875071","0.0-59.0","AM6LBRUS3YR0L","","","","","36","","","","","","","","","","","","","","","","","","","","","",""
"null","","image-button-response","62","880075","0.0-60.0","AM6LBRUS3YR0L","img_art/30.jpg","null","","","","","","","","","","","","","","","","","","","","","","","","",""
"4004","","image-button-response","63","884081","0.0-61.0","AM6LBRUS3YR0L","img_art/30.jpg","0","","","","","","","","","","","","","","","","","","","","","","","","",""
"7020","","image-button-response","64","891103","0.0-62.0-0.0","AM6LBRUS3YR0L","img_art/30.jpg","4","","","","","","","","","","","","","","","","","","","","","","","","",""
"4931","","image-button-response","65","896037","0.0-63.0-0.0","AM6LBRUS3YR0L","img_art/30.jpg","2","","","","","","","","","","","","","","","","","","","","","","","","",""
"null","","html-keyboard-response","66","897555","0.0-64.0","AM6LBRUS3YR0L","<p style=""font-size: 48px;"">+</p>","","","","","null","allTrialResponses","1500","1","3","img_art/30.jpg","36","I love all the activity in this one.  It gives me energy.","Kristen,Allison,Haley,Danielle,Paige,Margaret","makes me think of a tunnel filled with graffiti,19,280,20","Dislike the contrast here.,-5,140,20","I like the colors,18,220,20","It's okay. It should either have stuck to the grey-blue, or added more red. Seems unorganized (maybe that's the point?),-9,340,20","Happy. Makes me think of childhood finger painting,49,60,20","I dont like the colors whatsoever,-15,100,20","Kristen","makes me think of a tunnel filled with graffiti,19,280,20","Paige","Happy. Makes me think of childhood finger painting,49,60,20","Haley","I like the colors,18,220,20","3"
"73366","","survey-text","67","970925","0.0-65.0-0.0","AM6LBRUS3YR0L","","","","{""Q0"":""It's interesting, but I don't like it. It makes me feel angry.""}","","","","","","","","","","","","","","","","","","","","","","",""
"6573.600000023842","","image-slider-response","68","977501","0.0-66.0","AM6LBRUS3YR0L","","","","","-27","","","","","","","","","","","","","","","","","","","","","",""
"null","","image-button-response","69","982504","0.0-67.0","AM6LBRUS3YR0L","img_art/28.jpg","null","","","","","","","","","","","","","","","","","","","","","","","","",""
"3260","","image-button-response","70","985766","0.0-68.0","AM6LBRUS3YR0L","img_art/28.jpg","0","","","","","","","","","","","","","","","","","","","","","","","","",""
"5217","","image-button-response","71","990985","0.0-69.0-0.0","AM6LBRUS3YR0L","img_art/28.jpg","4","","","","","","","","","","","","","","","","","","","","","","","","",""
"2297","","image-button-response","72","993284","0.0-70.0-0.0","AM6LBRUS3YR0L","img_art/28.jpg","5","","","","","","","","","","","","","","","","","","","","","","","","",""
"null","","html-keyboard-response","73","993804","0.0-71.0","AM6LBRUS3YR0L","<p style=""font-size: 48px;"">+</p>","","","","","null","allTrialResponses","500","1","4","img_art/28.jpg","-27","It's interesting, but I don't like it. It makes me feel angry.","Kristen,Dominique,Haley,Laura,Paige,Maria","almost reminds me of thomas becket getting his head cut off,21,280,20","This is one of my favorites. It says to me to take time for people,37,400,20","I can't explain why, but I really love this one,50,220,20","musical, animated and happy with somber undertones,7,320,20","I just don't like it. It makes no sense to me,1,60,20","I want to like it, but I'm not really sure what to make of it,2,120,20","Kristen","almost reminds me of thomas becket getting his head cut off,21,280,20","Paige","I just don't like it. It makes no sense to me,1,60,20","Maria","I want to like it, but I'm not really sure what to make of it,2,120,20","3"
"25937","","survey-text","74","1019745","0.0-72.0-0.0","AM6LBRUS3YR0L","","","","{""Q0"":""I love all the activity. It makes me happy.""}","","","","","","","","","","","","","","","","","","","","","","",""
"8888.200000047684","","image-slider-response","75","1028635","0.0-73.0","AM6LBRUS3YR0L","","","","","36","","","","","","","","","","","","","","","","","","","","","",""
"null","","image-button-response","76","1033653","0.0-74.0","AM6LBRUS3YR0L","img_art/11.jpg","null","","","","","","","","","","","","","","","","","","","","","","","","",""
"2538","","image-button-response","77","1036194","0.0-75.0","AM6LBRUS3YR0L","img_art/11.jpg","3","","","","","","","","","","","","","","","","","","","","","","","","",""
"7620","","image-button-response","78","1043815","0.0-76.0-0.0","AM6LBRUS3YR0L","img_art/11.jpg","0","","","","","","","","","","","","","","","","","","","","","","","","",""
"1395","","image-button-response","79","1045212","0.0-77.0-0.0","AM6LBRUS3YR0L","img_art/11.jpg","1","","","","","","","","","","","","","","","","","","","","","","","","",""
"null","","html-keyboard-response","80","1046224","0.0-78.0","AM6LBRUS3YR0L","<p style=""font-size: 48px;"">+</p>","","","","","null","allTrialResponses","1000","1","5","img_art/11.jpg","36","I love all the activity. It makes me happy.","Kristen,Ashley,Morgan,Mariah,Paige,Maria","small town, friendly. calm,35,280,20","Dark but bright, city but ocean, musical scales.,50,320,20","Waves of signs.,15,380,20","The colors are lovely. February getting ready to yield to March.,41,140,20","gave me a sense of gloom,-21,60,20","I enjoy the kandinsky-like general vibe, but the grey brings me down a bit,27,120,20","Mariah","The colors are lovely. February getting ready to yield to March.,41,140,20","Kristen","small town, friendly. calm,35,280,20","Ashley","Dark but bright, city but ocean, musical scales.,50,320,20","3"
"9547","","survey-text","81","1055777","0.0-79.0-0.0","AM6LBRUS3YR0L","","","","{""Q0"":""sky""}","","","","","","","","","","","","","","","","","","","","","","",""
"36626","","survey-text","82","1092405","0.0-80.0-0.0","AM6LBRUS3YR0L","","","","{""Q0"":""Beautiful.  Calm and intriguing.""}","","","","","","","","","","","","","","","","","","","","","","",""
"8754.600000023842","","image-slider-response","83","1101162","0.0-81.0","AM6LBRUS3YR0L","","","","","50","","","","","","","","","","","","","","","","","","","","","",""
"null","","image-button-response","84","1106183","0.0-82.0","AM6LBRUS3YR0L","img_art/20.jpg","null","","","","","","","","","","","","","","","","","","","","","","","","",""
"7275","","image-button-response","85","1113460","0.0-83.0","AM6LBRUS3YR0L","img_art/20.jpg","1","","","","","","","","","","","","","","","","","","","","","","","","",""
"18482","","image-button-response","86","1131945","0.0-84.0-0.0","AM6LBRUS3YR0L","img_art/20.jpg","5","","","","","","","","","","","","","","","","","","","","","","","","",""
"6997","","image-button-response","87","1138945","0.0-85.0-0.0","AM6LBRUS3YR0L","img_art/20.jpg","2","","","","","","","","","","","","","","","","","","","","","","","","",""
"null","","html-keyboard-response","88","1140454","0.0-86.0","AM6LBRUS3YR0L","<p style=""font-size: 48px;"">+</p>","","","","","null","allTrialResponses","1500","1","6","img_art/20.jpg","50","Beautiful.  Calm and intriguing.","Kristen,Ashley,Breanna,Mariah,Erin,Amy","danger, car crash, stressful,-12,280,20","Painting within a painting, abstract.,32,320,20","Makes me feel impressed,9,380,20","It feels like it ""almost"" several things.,-10,140,20","Dark frame overpowers the image,-6,120,20","Elements that are more defined are incongruous to the soft and melting nature of this painting,5,220,20","Ashley","Painting within a painting, abstract.,32,320,20","Amy","Elements that are more defined are incongruous to the soft and melting nature of this painting,5,220,20","Breanna","Makes me feel impressed,9,380,20","3"
"119948","","survey-text","89","1260406","0.0-87.0-0.0","AM6LBRUS3YR0L","","","","{""Q0"":""This brings visions of Mardi Gras.  It makes me happy.""}","","","","","","","","","","","","","","","","","","","","","","",""
"7206.300000011921","","image-slider-response","90","1267614","0.0-88.0","AM6LBRUS3YR0L","","","","","37","","","","","","","","","","","","","","","","","","","","","",""
"null","","image-button-response","91","1272633","0.0-89.0","AM6LBRUS3YR0L","img_art/23.jpg","null","","","","","","","","","","","","","","","","","","","","","","","","",""
"3602","","image-button-response","92","1276237","0.0-90.0","AM6LBRUS3YR0L","img_art/23.jpg","4","","","","","","","","","","","","","","","","","","","","","","","","",""
"1792","","image-button-response","93","1278031","0.0-91.0-0.0","AM6LBRUS3YR0L","img_art/23.jpg","5","","","","","","","","","","","","","","","","","","","","","","","","",""
"7751","","image-button-response","94","1285783","0.0-92.0-0.0","AM6LBRUS3YR0L","img_art/23.jpg","3","","","","","","","","","","","","","","","","","","","","","","","","",""
"null","","html-keyboard-response","95","1286802","0.0-93.0","AM6LBRUS3YR0L","<p style=""font-size: 48px;"">+</p>","","","","","null","allTrialResponses","1000","1","7","img_art/23.jpg","37","This brings visions of Mardi Gras.  It makes me happy.","Mackenzie,Ashley,Breanna,Michelle,Erica,Amy","The usage of color is great, but not my style.,-15,20,20","A line dance, it's really strinkingly beautiful.,50,320,20","Makes me worried,10,380,20","This is nice, the colorful background is fun and the white looks like dancing figures,5,280,20","Very energetic, seems like it is pulling me in,24,80,20","So exciting and full of the night.,20,220,20","Erica","Very energetic, seems like it is pulling me in,24,80,20","Amy","So exciting and full of the night.,20,220,20","Michelle","This is nice, the colorful background is fun and the white looks like dancing figures,5,280,20","3"
"53106","","survey-text","96","1339912","0.0-94.0-0.0","AM6LBRUS3YR0L","","","","{""Q0"":""This is a fantasy. It's very pleasant.""}","","","","","","","","","","","","","","","","","","","","","","",""
"6325.100000023842","","image-slider-response","97","1346239","0.0-95.0","AM6LBRUS3YR0L","","","","","44","","","","","","","","","","","","","","","","","","","","","",""
"null","","image-button-response","98","1351252","0.0-96.0","AM6LBRUS3YR0L","img_art/24.jpg","null","","","","","","","","","","","","","","","","","","","","","","","","",""
"4513","","image-button-response","99","1355766","0.0-97.0","AM6LBRUS3YR0L","img_art/24.jpg","0","","","","","","","","","","","","","","","","","","","","","","","","",""
"3286","","image-button-response","100","1359055","0.0-98.0-0.0","AM6LBRUS3YR0L","img_art/24.jpg","2","","","","","","","","","","","","","","","","","","","","","","","","",""
"5698","","image-button-response","101","1364754","0.0-99.0-0.0","AM6LBRUS3YR0L","img_art/24.jpg","1","","","","","","","","","","","","","","","","","","","","","","","","",""
"null","","html-keyboard-response","102","1366272","0.0-100.0","AM6LBRUS3YR0L","<p style=""font-size: 48px;"">+</p>","","","","","null","allTrialResponses","1500","1","8","img_art/24.jpg","44","This is a fantasy. It's very pleasant.","Jacqueline,Miranda,Amanda,Michelle,Erica,Amy","This one isn't that abstract. It clearly looks like a waterfall.,31,300,20","I find the colors work really well. It's very pretty but I have no idea as what it is.,34,320,20","Beautiful,  peaceful,50,180,20","Looks like a waterfall or a brook, the colors are very nice,15,280,20","Very refreshing and vigorous,19,80,20","The contorted angles of the flowing water upset the harmony,-20,220,20","Jacqueline","This one isn't that abstract. It clearly looks like a waterfall.,31,300,20","Amanda","Beautiful,  peaceful,50,180,20","Miranda","I find the colors work really well. It's very pretty but I have no idea as what it is.,34,320,20","3"
"42153","","survey-text","103","1408429","0.0-101.0-0.0","AM6LBRUS3YR0L","","","","{""Q0"":""This is simplistic and boring. It looks like a child created it.""}","","","","","","","","","","","","","","","","","","","","","","",""
"7143.099999964237","","image-slider-response","104","1415574","0.0-102.0","AM6LBRUS3YR0L","","","","","-12","","","","","","","","","","","","","","","","","","","","","",""
"null","","image-button-response","105","1420578","0.0-103.0","AM6LBRUS3YR0L","img_art/2.jpg","null","","","","","","","","","","","","","","","","","","","","","","","","",""
"4494","","image-button-response","106","1425073","0.0-104.0","AM6LBRUS3YR0L","img_art/2.jpg","3","","","","","","","","","","","","","","","","","","","","","","","","",""
"4985","","image-button-response","107","1430060","0.0-105.0-0.0","AM6LBRUS3YR0L","img_art/2.jpg","4","","","","","","","","","","","","","","","","","","","","","","","","",""
"3677","","image-button-response","108","1433738","0.0-106.0-0.0","AM6LBRUS3YR0L","img_art/2.jpg","1","","","","","","","","","","","","","","","","","","","","","","","","",""
"null","","html-keyboard-response","109","1434741","0.0-107.0","AM6LBRUS3YR0L","<p style=""font-size: 48px;"">+</p>","","","","","null","allTrialResponses","1000","1","9","img_art/2.jpg","-12","This is simplistic and boring. It looks like a child created it.","Jacqueline,Miranda,Amanda,Shelby,Crystal,Molly","A bit ugly with the greens.,-20,300,20","I don't really like this but at the same time it's cute. It looks like a little monster kid.,-9,320,20","Very simple and childish,40,180,20","The contrasting colors are a bit harsh,-10,240,20","Looks contrived and like someone tried to hard to make it abstract,-31,300,20","Colorful, curious.,20,340,20","Shelby","The contrasting colors are a bit harsh,-10,240,20","Crystal","Looks contrived and like someone tried to hard to make it abstract,-31,300,20","Miranda","I don't really like this but at the same time it's cute. It looks like a little monster kid.,-9,320,20","3"
"60194","","survey-text","110","1494940","0.0-108.0-0.0","AM6LBRUS3YR0L","","","","{""Q0"":""This is confusing. I don't like the colors.""}","","","","","","","","","","","","","","","","","","","","","","",""
"6495.899999976158","","image-slider-response","111","1501438","0.0-109.0","AM6LBRUS3YR0L","","","","","-22","","","","","","","","","","","","","","","","","","","","","",""
"null","","image-button-response","112","1506451","0.0-110.0","AM6LBRUS3YR0L","img_art/12.jpg","null","","","","","","","","","","","","","","","","","","","","","","","","",""
"5726","","image-button-response","113","1512180","0.0-111.0","AM6LBRUS3YR0L","img_art/12.jpg","0","","","","","","","","","","","","","","","","","","","","","","","","",""
"2583","","image-button-response","114","1514765","0.0-112.0-0.0","AM6LBRUS3YR0L","img_art/12.jpg","1","","","","","","","","","","","","","","","","","","","","","","","","",""
"2042","","image-button-response","115","1516810","0.0-113.0-0.0","AM6LBRUS3YR0L","img_art/12.jpg","3","","","","","","","","","","","","","","","","","","","","","","","","",""
"null","","html-keyboard-response","116","1518331","0.0-114.0","AM6LBRUS3YR0L","<p style=""font-size: 48px;"">+</p>","","","","","null","allTrialResponses","1500","1","10","img_art/12.jpg","-22","This is confusing. I don't like the colors.","Rachel,Miranda,Briana,Shelby,Crystal,Sophia","I like how it's split into tiny squares, but otherwise, not very intriguing.,-18,80,20","This is like going to a really old mcdoanlds in a tiny town and it's never been renovated so it's breaking down,-31,320,20","Interesting colors. I really dont like modern art though,24,400,20","The shapes make me feel a bit uncomfortable,-10,240,20","I like the sectioned nature of the squares and curves. Not my favorite but still a good one.,27,300,20","Good technique. It's just not my thing.,2,280,20","Rachel","I like how it's split into tiny squares, but otherwise, not very intriguing.,-18,80,20","Miranda","This is like going to a really old mcdoanlds in a tiny town and it's never been renovated so it's breaking down,-31,320,20","Shelby","The shapes make me feel a bit uncomfortable,-10,240,20","3"
"7475","","survey-text","117","1525812","0.0-115.0-0.0","AM6LBRUS3YR0L","","","","{""Q0"":""our""}","","","","","","","","","","","","","","","","","","","","","","",""
"48152","","survey-text","118","1573966","0.0-116.0-0.0","AM6LBRUS3YR0L","","","","{""Q0"":""This one is difficult to interpret, but it is oddly attractive.""}","","","","","","","","","","","","","","","","","","","","","","",""
"17463.5","","image-slider-response","119","1591431","0.0-117.0","AM6LBRUS3YR0L","","","","","36","","","","","","","","","","","","","","","","","","","","","",""
"4354","","image-button-response","120","1596446","0.0-118.0","AM6LBRUS3YR0L","img_art/13.jpg","0","","","","","","","","","","","","","","","","","","","","","","","","",""
"6401","","image-button-response","121","1602850","0.0-119.0","AM6LBRUS3YR0L","img_art/13.jpg","5","","","","","","","","","","","","","","","","","","","","","","","","",""
"3946","","image-button-response","122","1606798","0.0-120.0-0.0","AM6LBRUS3YR0L","img_art/13.jpg","4","","","","","","","","","","","","","","","","","","","","","","","","",""
"4945","","image-button-response","123","1611746","0.0-121.0-0.0","AM6LBRUS3YR0L","img_art/13.jpg","0","","","","","","","","","","","","","","","","","","","","","","","","",""
"null","","html-keyboard-response","124","1613261","0.0-122.0","AM6LBRUS3YR0L","<p style=""font-size: 48px;"">+</p>","","","","","null","allTrialResponses","1500","1","11","img_art/13.jpg","36","This one is difficult to interpret, but it is oddly attractive.","Rachel,Miranda,Emma,Shelby,Christina,Jenna","Peaceful colors.,20,80,20","This looks like something that could be made off of windows paint, not a huge fan.,-30,320,20","It's pretty ...........,41,60,20","Doesnt really provoke an emotional responce,0,240,20","i like the colors but it looks like something that would hang in a hotel,18,240,20","exciting & chaotic. love the colors.,50,360,20","Jenna","exciting & chaotic. love the colors.,50,360,20","Christina","i like the colors but it looks like something that would hang in a hotel,18,240,20","Rachel","Peaceful colors.,20,80,20","3"
"41087","","survey-text","125","1654352","0.0-123.0-0.0","AM6LBRUS3YR0L","","","","{""Q0"":""I hate this. It looks like a bathroom accident.""}","","","","","","","","","","","","","","","","","","","","","","",""
"7677.199999988079","","image-slider-response","126","1662031","0.0-124.0","AM6LBRUS3YR0L","","","","","-50","","","","","","","","","","","","","","","","","","","","","",""
"null","","image-button-response","127","1667035","0.0-125.0","AM6LBRUS3YR0L","img_art/4.jpg","null","","","","","","","","","","","","","","","","","","","","","","","","",""
"2652","","image-button-response","128","1669689","0.0-126.0","AM6LBRUS3YR0L","img_art/4.jpg","3","","","","","","","","","","","","","","","","","","","","","","","","",""
"7760","","image-button-response","129","1677451","0.0-127.0-0.0","AM6LBRUS3YR0L","img_art/4.jpg","1","","","","","","","","","","","","","","","","","","","","","","","","",""
"6703","","image-button-response","130","1684157","0.0-128.0-0.0","AM6LBRUS3YR0L","img_art/4.jpg","2","","","","","","","","","","","","","","","","","","","","","","","","",""
"null","","html-keyboard-response","131","1684670","0.0-129.0","AM6LBRUS3YR0L","<p style=""font-size: 48px;"">+</p>","","","","","null","allTrialResponses","500","1","12","img_art/4.jpg","-50","I hate this. It looks like a bathroom accident.","Rachel,Emily,Chelsea,Shannon,Christina,Jenna","Not a huge fan of the color story, but it reminds me of a child finger-painting.,12,80,20","Looks like a child did it.,-42,40,20","The colors remind me of McDonalds.,-41,180,20","I think that this picture is too boring in terms of color and it looks ugly.,-41,220,20","not enough color and too yellow for me. Not my favorite colors,-10,240,20","creepy, looks like a deformed hand, but the background is pretty,5,360,20","Shannon","I think that this picture is too boring in terms of color and it looks ugly.,-41,220,20","Emily","Looks like a child did it.,-42,40,20","Chelsea","The colors remind me of McDonalds.,-41,180,20","3"
"30166","","survey-text","132","1714840","0.0-130.0-0.0","AM6LBRUS3YR0L","","","","{""Q0"":""Intriguing, and a bit spooky.""}","","","","","","","","","","","","","","","","","","","","","","",""
"6322.899999976158","","image-slider-response","133","1721165","0.0-131.0","AM6LBRUS3YR0L","","","","","11","","","","","","","","","","","","","","","","","","","","","",""
"null","","image-button-response","134","1726168","0.0-132.0","AM6LBRUS3YR0L","img_art/6.jpg","null","","","","","","","","","","","","","","","","","","","","","","","","",""
"1650","","image-button-response","135","1727820","0.0-133.0","AM6LBRUS3YR0L","img_art/6.jpg","0","","","","","","","","","","","","","","","","","","","","","","","","",""
"4443","","image-button-response","136","1732265","0.0-134.0-0.0","AM6LBRUS3YR0L","img_art/6.jpg","4","","","","","","","","","","","","","","","","","","","","","","","","",""
"15206","","image-button-response","137","1747473","0.0-135.0-0.0","AM6LBRUS3YR0L","img_art/6.jpg","2","","","","","","","","","","","","","","","","","","","","","","","","",""
"null","","html-keyboard-response","138","1748486","0.0-136.0","AM6LBRUS3YR0L","<p style=""font-size: 48px;"">+</p>","","","","","null","allTrialResponses","1000","1","13","img_art/6.jpg","11","Intriguing, and a bit spooky.","Lauren,Emily,Chelsea,Shannon,Megan,Kelsey","I like the simplicity of the piece.,10,340,20","Looks like a kid created it.,-50,40,20","It looks like one tall ugly bird.,-43,180,20","I can't tell what this image is, but it's boring because of lack of color variety and nothing in it,-41,220,20","Odd desert, nice sand color with headless bird,11,200,20","its like a jalapeno,-28,240,20","Lauren","I like the simplicity of the piece.,10,340,20","Megan","Odd desert, nice sand color with headless bird,11,200,20","Chelsea","It looks like one tall ugly bird.,-43,180,20","3"
"40430","","survey-text","139","1788922","0.0-137.0-0.0","AM6LBRUS3YR0L","","","","{""Q0"":""It's a depiction of a nightmare. It's unsettling.""}","","","","","","","","","","","","","","","","","","","","","","",""
"4448.599999964237","","image-slider-response","140","1793372","0.0-138.0","AM6LBRUS3YR0L","","","","","20","","","","","","","","","","","","","","","","","","","","","",""
"null","","image-button-response","141","1798389","0.0-139.0","AM6LBRUS3YR0L","img_art/9.jpg","null","","","","","","","","","","","","","","","","","","","","","","","","",""
"8717","","image-button-response","142","1807110","0.0-140.0","AM6LBRUS3YR0L","img_art/9.jpg","3","","","","","","","","","","","","","","","","","","","","","","","","",""
"18089","","image-button-response","143","1825204","0.0-141.0-0.0","AM6LBRUS3YR0L","img_art/9.jpg","1","","","","","","","","","","","","","","","","","","","","","","","","",""
"1417","","image-button-response","144","1826624","0.0-142.0-0.0","AM6LBRUS3YR0L","img_art/9.jpg","0","","","","","","","","","","","","","","","","","","","","","","","","",""
"null","","html-keyboard-response","145","1828142","0.0-143.0","AM6LBRUS3YR0L","<p style=""font-size: 48px;"">+</p>","","","","","null","allTrialResponses","1500","1","14","img_art/9.jpg","20","It's a depiction of a nightmare. It's unsettling.","Lauren,Madison,Chelsea,Brittany,Megan,Taylor","I like how design can be interpreted differently, I see a person sleeping or a mountainous region.,10,340,20","No cohesive form whatsoever. Hard pass.,-31,60,20","I don't like the obvious lines of colored pencil on the border.,-24,180,20","It reminds me of an illustration for a fairy tale.,19,40,20","A troubled painter was influenced by anger and mad at the woman in the middle, color not bad,-32,200,20","The peacock theme gives me negative connotations of my ex-sister-in-law,-10,340,20","Brittany","It reminds me of an illustration for a fairy tale.,19,40,20","Madison","No cohesive form whatsoever. Hard pass.,-31,60,20","Lauren","I like how design can be interpreted differently, I see a person sleeping or a mountainous region.,10,340,20","3"
"52377","","survey-text","146","1880523","0.0-144.0-0.0","AM6LBRUS3YR0L","","","","{""Q0"":""Intriguing. I like the color palette.""}","","","","","","","","","","","","","","","","","","","","","","",""
"7881","","image-slider-response","147","1888406","0.0-145.0","AM6LBRUS3YR0L","","","","","32","","","","","","","","","","","","","","","","","","","","","",""
"null","","image-button-response","148","1893413","0.0-146.0","AM6LBRUS3YR0L","img_art/14.jpg","null","","","","","","","","","","","","","","","","","","","","","","","","",""
"2823","","image-button-response","149","1896238","0.0-147.0","AM6LBRUS3YR0L","img_art/14.jpg","3","","","","","","","","","","","","","","","","","","","","","","","","",""
"5166","","image-button-response","150","1901407","0.0-148.0-0.0","AM6LBRUS3YR0L","img_art/14.jpg","4","","","","","","","","","","","","","","","","","","","","","","","","",""
"1405","","image-button-response","151","1902814","0.0-149.0-0.0","AM6LBRUS3YR0L","img_art/14.jpg","0","","","","","","","","","","","","","","","","","","","","","","","","",""
"null","","html-keyboard-response","152","1903316","0.0-150.0","AM6LBRUS3YR0L","<p style=""font-size: 48px;"">+</p>","","","","","null","allTrialResponses","500","1","15","img_art/14.jpg","32","Intriguing. I like the color palette.","Lauren,Madison,Andrea,Brittany,Sara,Kylie","I like how balanced the piece is with its symmetrical design.,20,340,20","No strong feelings either direction.,-4,60,20","Cute little plant.,15,240,20","The colors are good and the design is intriguing.,15,40,20","It uplifts my mood due to the color scheme,32,160,20","Confusion or an explosion,40,300,20","Brittany","The colors are good and the design is intriguing.,15,40,20","Sara","It uplifts my mood due to the color scheme,32,160,20","Lauren","I like how balanced the piece is with its symmetrical design.,20,340,20","3"
"9004","","survey-text","153","1912328","0.0-151.0-0.0","AM6LBRUS3YR0L","","","","{""Q0"":""course""}","","","","","","","","","","","","","","","","","","","","","","",""
"156811","","survey-text","154","2069140","0.0-152.0-0.0","AM6LBRUS3YR0L","","","","{""Q0"":""Interesting, but unappealing.  No emotional response.""}","","","","","","","","","","","","","","","","","","","","","","",""
"20371.5","","image-slider-response","155","2089514","0.0-153.0","AM6LBRUS3YR0L","","","","","0","","","","","","","","","","","","","","","","","","","","","",""
"null","","image-button-response","156","2094516","0.0-154.0","AM6LBRUS3YR0L","img_art/5.jpg","null","","","","","","","","","","","","","","","","","","","","","","","","",""
"1539","","image-button-response","157","2096057","0.0-155.0","AM6LBRUS3YR0L","img_art/5.jpg","5","","","","","","","","","","","","","","","","","","","","","","","","",""
"11075","","image-button-response","158","2107134","0.0-156.0-0.0","AM6LBRUS3YR0L","img_art/5.jpg","1","","","","","","","","","","","","","","","","","","","","","","","","",""
"1350","","image-button-response","159","2108487","0.0-157.0-0.0","AM6LBRUS3YR0L","img_art/5.jpg","0","","","","","","","","","","","","","","","","","","","","","","","","",""
"null","","html-keyboard-response","160","2108990","0.0-158.0","AM6LBRUS3YR0L","<p style=""font-size: 48px;"">+</p>","","","","","null","allTrialResponses","500","1","16","img_art/5.jpg","0","Interesting, but unappealing.  No emotional response.","Lauren,Stephanie,Kayla,Brittany,Sara,Jasmine","I like the simplicity of the design, but I can't tell what the image is trying to depict.,10,340,20","This did not do a thing for me.,-50,300,20","I like that the pyramid is putting off a beacon of light.,11,180,20","Although it's very simple, there's something about the colors that really draws the eye.,11,40,20","It looks random,-10,160,20","Not sure what to say about this piece honestly. It's okay I guess.,0,340,20","Jasmine","Not sure what to say about this piece honestly. It's okay I guess.,0,340,20","Stephanie","This did not do a thing for me.,-50,300,20","Lauren","I like the simplicity of the design, but I can't tell what the image is trying to depict.,10,340,20","3"
"57984","","survey-text","161","2166980","0.0-159.0-0.0","AM6LBRUS3YR0L","","","","{""Q0"":""Too confusing. It makes me unsettled.""}","","","","","","","","","","","","","","","","","","","","","","",""
"7394.399999976158","","image-slider-response","162","2174376","0.0-160.0","AM6LBRUS3YR0L","","","","","-10","","","","","","","","","","","","","","","","","","","","","",""
"null","","image-button-response","163","2179379","0.0-161.0","AM6LBRUS3YR0L","img_art/18.jpg","null","","","","","","","","","","","","","","","","","","","","","","","","",""
"2808","","image-button-response","164","2182188","0.0-162.0","AM6LBRUS3YR0L","img_art/18.jpg","3","","","","","","","","","","","","","","","","","","","","","","","","",""
"11634","","image-button-response","165","2193824","0.0-163.0-0.0","AM6LBRUS3YR0L","img_art/18.jpg","1","","","","","","","","","","","","","","","","","","","","","","","","",""
"6604","","image-button-response","166","2200431","0.0-164.0-0.0","AM6LBRUS3YR0L","img_art/18.jpg","2","","","","","","","","","","","","","","","","","","","","","","","","",""
"null","","html-keyboard-response","167","2201933","0.0-165.0","AM6LBRUS3YR0L","<p style=""font-size: 48px;"">+</p>","","","","","null","allTrialResponses","1500","1","17","img_art/18.jpg","-10","Too confusing. It makes me unsettled.","Lauren,Stephanie,Angela,Bailey,Gabrielle,Jasmine","I like how the image gives off an impression of bravery.,25,340,20","It made me think of a car crash,-39,300,20","like the grays and contrast of the yellow. This piece feels a bit angry,10,260,20","Looks like a jumbled mess. I prefer a clearer picture,-18,360,20","interesting piece, I like the horse and people inserted in spots,22,160,20","I feel indifferent about this one,0,340,20","Bailey","Looks like a jumbled mess. I prefer a clearer picture,-18,360,20","Stephanie","It made me think of a car crash,-39,300,20","Angela","like the grays and contrast of the yellow. This piece feels a bit angry,10,260,20","3"
"67156","","survey-text","168","2269099","0.0-166.0-0.0","AM6LBRUS3YR0L","","","","{""Q0"":""This makes me sad. The colors are OK.""}","","","","","","","","","","","","","","","","","","","","","","",""
"6102.300000011921","","image-slider-response","169","2275203","0.0-167.0","AM6LBRUS3YR0L","","","","","6","","","","","","","","","","","","","","","","","","","","","",""
"null","","image-button-response","170","2280210","0.0-168.0","AM6LBRUS3YR0L","img_art/27.jpg","null","","","","","","","","","","","","","","","","","","","","","","","","",""
"4171","","image-button-response","171","2284384","0.0-169.0","AM6LBRUS3YR0L","img_art/27.jpg","0","","","","","","","","","","","","","","","","","","","","","","","","",""
"3180","","image-button-response","172","2287565","0.0-170.0-0.0","AM6LBRUS3YR0L","img_art/27.jpg","3","","","","","","","","","","","","","","","","","","","","","","","","",""
"4398","","image-button-response","173","2291965","0.0-171.0-0.0","AM6LBRUS3YR0L","img_art/27.jpg","2","","","","","","","","","","","","","","","","","","","","","","","","",""
"null","","html-keyboard-response","174","2292470","0.0-172.0","AM6LBRUS3YR0L","<p style=""font-size: 48px;"">+</p>","","","","","null","allTrialResponses","500","1","18","img_art/27.jpg","6","This makes me sad. The colors are OK.","Natalie,Stephanie,Angela,Bailey,Monica,Brooke","also gives me anxiety,-21,400,20","The black sketchy over the colors doesn't fit.,-4,300,20","It's okay. Not really interesting to me.,-10,260,20","Looks like a splash of different colors and designs without purpose,-44,360,20","It tries to remind me of the autumn season but it's grey and looks dirty,-5,360,20","Like it, autumn colors, trees and foliage scene.,25,60,20","Natalie","also gives me anxiety,-21,400,20","Bailey","Looks like a splash of different colors and designs without purpose,-44,360,20","Angela","It's okay. Not really interesting to me.,-10,260,20","3"
"22433","","survey-text","175","2314913","0.0-173.0-0.0","AM6LBRUS3YR0L","","","","{""Q0"":""This one's fun! It makes me happy.""}","","","","","","","","","","","","","","","","","","","","","","",""
"7489.400000035763","","image-slider-response","176","2322405","0.0-174.0","AM6LBRUS3YR0L","","","","","42","","","","","","","","","","","","","","","","","","","","","",""
"4631","","image-button-response","177","2327420","0.0-175.0","AM6LBRUS3YR0L","img_art/16.jpg","5","","","","","","","","","","","","","","","","","","","","","","","","",""
"29395","","image-button-response","178","2356819","0.0-176.0","AM6LBRUS3YR0L","img_art/16.jpg","0","","","","","","","","","","","","","","","","","","","","","","","","",""
"5685","","image-button-response","179","2362509","0.0-177.0-0.0","AM6LBRUS3YR0L","img_art/16.jpg","2","","","","","","","","","","","","","","","","","","","","","","","","",""
"8668","","image-button-response","180","2371181","0.0-178.0-0.0","AM6LBRUS3YR0L","img_art/16.jpg","5","","","","","","","","","","","","","","","","","","","","","","","","",""
"null","","html-keyboard-response","181","2372683","0.0-179.0","AM6LBRUS3YR0L","<p style=""font-size: 48px;"">+</p>","","","","","null","allTrialResponses","1500","1","19","img_art/16.jpg","42","This one's fun! It makes me happy.","Natalie,Grace,Angela,Bailey,Alexandra,Alexandria","my reaction is that the picture is creepy,-19,400,20","Something terrible happened. Either the figure on the right is the victim or another shredded toy.,-49,180,20","Hate this, especially the jarring contrast of the super realistic teddybear face.,-50,260,20","Creeps me out. Like..really creeps me out.,-48,360,20","This is weird and creepy.,-40,60,20","while simple, it seems to have a deeper meaning on childhood,33,80,20","Natalie","my reaction is that the picture is creepy,-19,400,20","Angela","Hate this, especially the jarring contrast of the super realistic teddybear face.,-50,260,20","Alexandria","while simple, it seems to have a deeper meaning on childhood,33,80,20","3"
"31282","","survey-text","182","2403970","0.0-180.0-0.0","AM6LBRUS3YR0L","","","","{""Q0"":""This is elegant, and makes me feel calm.""}","","","","","","","","","","","","","","","","","","","","","","",""
"6778.800000011921","","image-slider-response","183","2410751","0.0-181.0","AM6LBRUS3YR0L","","","","","21","","","","","","","","","","","","","","","","","","","","","",""
"3758","","image-button-response","184","2415759","0.0-182.0","AM6LBRUS3YR0L","img_art/25.jpg","1","","","","","","","","","","","","","","","","","","","","","","","","",""
"3542","","image-button-response","185","2419303","0.0-183.0","AM6LBRUS3YR0L","img_art/25.jpg","4","","","","","","","","","","","","","","","","","","","","","","","","",""
"1630","","image-button-response","186","2420935","0.0-184.0-0.0","AM6LBRUS3YR0L","img_art/25.jpg","5","","","","","","","","","","","","","","","","","","","","","","","","",""
"4415","","image-button-response","187","2425353","0.0-185.0-0.0","AM6LBRUS3YR0L","img_art/25.jpg","1","","","","","","","","","","","","","","","","","","","","","","","","",""
"null","","html-keyboard-response","188","2425860","0.0-186.0","AM6LBRUS3YR0L","<p style=""font-size: 48px;"">+</p>","","","","","null","allTrialResponses","500","1","20","img_art/25.jpg","21","This is elegant, and makes me feel calm.","Natalie,Savannah,Angela,Courtney,Sarah,Alexandria","my response to the picture its weird,-9,400,20","Very cool color, very clear message!,50,200,20","Ugly green color and don't like it at all,-30,260,20","That on i find a bit creapy.,-19,280,20","green is really cool, and the pieces in black fit together and are interesting,20,180,20","the contrasting colors are very interesting,24,80,20","Sarah","green is really cool, and the pieces in black fit together and are interesting,20,180,20","Alexandria","the contrasting colors are very interesting,24,80,20","Savannah","Very cool color, very clear message!,50,200,20","3"
"6116","","survey-text","189","2431991","0.0-187.0-0.0","AM6LBRUS3YR0L","","","","{""Q0"":""we""}","","","","","","","","","","","","","","","","","","","","","","",""
"58271","","survey-text","190","2490268","0.0-188.0-0.0","AM6LBRUS3YR0L","","","","{""Q0"":""This is disturbing. It looks like a bad child's drawing.""}","","","","","","","","","","","","","","","","","","","","","","",""
"6139.800000011921","","image-slider-response","191","2496410","0.0-189.0","AM6LBRUS3YR0L","","","","","-34","","","","","","","","","","","","","","","","","","","","","",""
"4472","","image-button-response","192","2501429","0.0-190.0","AM6LBRUS3YR0L","img_art/3.jpg","3","","","","","","","","","","","","","","","","","","","","","","","","",""
"4620","","image-button-response","193","2506051","0.0-191.0","AM6LBRUS3YR0L","img_art/3.jpg","4","","","","","","","","","","","","","","","","","","","","","","","","",""
"1709","","image-button-response","194","2507762","0.0-192.0-0.0","AM6LBRUS3YR0L","img_art/3.jpg","2","","","","","","","","","","","","","","","","","","","","","","","","",""
"2546","","image-button-response","195","2510310","0.0-193.0-0.0","AM6LBRUS3YR0L","img_art/3.jpg","1","","","","","","","","","","","","","","","","","","","","","","","","",""
"null","","html-keyboard-response","196","2511819","0.0-194.0","AM6LBRUS3YR0L","<p style=""font-size: 48px;"">+</p>","","","","","null","allTrialResponses","1500","1","21","img_art/3.jpg","-34","This is disturbing. It looks like a bad child's drawing.","Chloe,Savannah,Angelica,Hailey,Sarah,Alexandria","Powerful lines but seems incomplete,-10,220,20","Completely incomprehensible.,-33,200,20","This is angry and childish looking.,-49,280,20","painted by a 2 year old. cold and boring,-30,200,20","the red is impactful but the work overall doesn't say anything to me,-8,180,20","it makes me feel really angry,-20,80,20","Sarah","the red is impactful but the work overall doesn't say anything to me,-8,180,20","Angelica","This is angry and childish looking.,-49,280,20","Savannah","Completely incomprehensible.,-33,200,20","3"
"34779","","survey-text","197","2546604","0.0-195.0-0.0","AM6LBRUS3YR0L","","","","{""Q0"":""The misty atmosphere of this painting calms me.""}","","","","","","","","","","","","","","","","","","","","","","",""
"6724.600000023842","","image-slider-response","198","2553332","0.0-196.0","AM6LBRUS3YR0L","","","","","37","","","","","","","","","","","","","","","","","","","","","",""
"null","","image-button-response","199","2558348","0.0-197.0","AM6LBRUS3YR0L","img_art/21.jpg","null","","","","","","","","","","","","","","","","","","","","","","","","",""
"427","","image-button-response","200","2558777","0.0-198.0","AM6LBRUS3YR0L","img_art/21.jpg","0","","","","","","","","","","","","","","","","","","","","","","","","",""
"2100","","image-button-response","201","2560879","0.0-199.0-0.0","AM6LBRUS3YR0L","img_art/21.jpg","4","","","","","","","","","","","","","","","","","","","","","","","","",""
"11415","","image-button-response","202","2572296","0.0-200.0-0.0","AM6LBRUS3YR0L","img_art/21.jpg","1","","","","","","","","","","","","","","","","","","","","","","","","",""
"null","","html-keyboard-response","203","2573313","0.0-201.0","AM6LBRUS3YR0L","<p style=""font-size: 48px;"">+</p>","","","","","null","allTrialResponses","1000","1","22","img_art/21.jpg","37","The misty atmosphere of this painting calms me.","Lindsey,Savannah,Angelica,Victoria,Sarah,Alicia","I like this piece more the more I look at. Still wouldn't want it in my home, though.,8,400,20","Almost appears like the background of an old renaissance painting.,40,200,20","It looks epic and is nice to look at in terms of colors/style.,23,280,20","like the colors,30,400,20","I love the section of blues, the colors overall are really lovely,31,180,20","Don't know why I like it, cant describe, maybe many landscapes?,47,120,20","Lindsey","I like this piece more the more I look at. Still wouldn't want it in my home, though.,8,400,20","Sarah","I love the section of blues, the colors overall are really lovely,31,180,20","Savannah","Almost appears like the background of an old renaissance painting.,40,200,20","3"
"30514","","survey-text","204","2603834","0.0-202.0-0.0","AM6LBRUS3YR0L","","","","{""Q0"":""This painting seems meaningless, and evokes no emotion.""}","","","","","","","","","","","","","","","","","","","","","","",""
"6271.599999964237","","image-slider-response","205","2610107","0.0-203.0","AM6LBRUS3YR0L","","","","","-7","","","","","","","","","","","","","","","","","","","","","",""
"4644","","image-button-response","206","2615119","0.0-204.0","AM6LBRUS3YR0L","img_art/1.jpg","0","","","","","","","","","","","","","","","","","","","","","","","","",""
"2507","","image-button-response","207","2617628","0.0-205.0","AM6LBRUS3YR0L","img_art/1.jpg","0","","","","","","","","","","","","","","","","","","","","","","","","",""
"1878","","image-button-response","208","2619509","0.0-206.0-0.0","AM6LBRUS3YR0L","img_art/1.jpg","4","","","","","","","","","","","","","","","","","","","","","","","","",""
"4590","","image-button-response","209","2624102","0.0-207.0-0.0","AM6LBRUS3YR0L","img_art/1.jpg","1","","","","","","","","","","","","","","","","","","","","","","","","",""
"null","","html-keyboard-response","210","2624608","0.0-208.0","AM6LBRUS3YR0L","<p style=""font-size: 48px;"">+</p>","","","","","null","allTrialResponses","500","1","23","img_art/1.jpg","-7","This painting seems meaningless, and evokes no emotion.","Lindsey,Savannah,Kaylee,Abigail,Sarah,Leah","Not a fan of the colors. Makes me think of the Australian bush fires.,-5,400,20","Its simply okay.,3,200,20","a colorful piece of art,25,200,20","I like the warmth of the picture,21,20,20","it's boring despite all the colors,-2,180,20","Pretty intermeshing of colors, happy,32,360,20","Lindsey","Not a fan of the colors. Makes me think of the Australian bush fires.,-5,400,20","Sarah","it's boring despite all the colors,-2,180,20","Savannah","Its simply okay.,3,200,20","3"
"54831","","survey-text","211","2679445","0.0-209.0-0.0","AM6LBRUS3YR0L","","","","{""Q0"":""I like the precise feeling this picture gives me. It's calming.""}","","","","","","","","","","","","","","","","","","","","","","",""
"4648.899999976158","","image-slider-response","212","2684097","0.0-210.0","AM6LBRUS3YR0L","","","","","17","","","","","","","","","","","","","","","","","","","","","",""
"4244","","image-button-response","213","2689117","0.0-211.0","AM6LBRUS3YR0L","img_art/10.jpg","0","","","","","","","","","","","","","","","","","","","","","","","","",""
"6559","","image-button-response","214","2695678","0.0-212.0","AM6LBRUS3YR0L","img_art/10.jpg","5","","","","","","","","","","","","","","","","","","","","","","","","",""
"1631","","image-button-response","215","2697312","0.0-213.0-0.0","AM6LBRUS3YR0L","img_art/10.jpg","0","","","","","","","","","","","","","","","","","","","","","","","","",""
"5650","","image-button-response","216","2702967","0.0-214.0-0.0","AM6LBRUS3YR0L","img_art/10.jpg","2","","","","","","","","","","","","","","","","","","","","","","","","",""
"null","","html-keyboard-response","217","2703487","0.0-215.0","AM6LBRUS3YR0L","<p style=""font-size: 48px;"">+</p>","","","","","null","allTrialResponses","500","1","24","img_art/10.jpg","17","I like the precise feeling this picture gives me. It's calming.","Lindsey,Savannah,Katelyn,Cassidy,Sarah,Erika","Looks like a violin. Not a fan of the smudges and smears, but my initial reaction was positive.,11,400,20","This is a scribble of a mad man. Appears low effort.,-33,200,20","It makes me think of music and i love the reflective aspect,29,100,20","Looks like someone just smeared some paint and called it good. Do not like.,-6,140,20","i like this, the mix of brush textures is cool,24,180,20","Good texture, expressive,18,100,20","Erika","Good texture, expressive,18,100,20","Lindsey","Looks like a violin. Not a fan of the smudges and smears, but my initial reaction was positive.,11,400,20","Katelyn","It makes me think of music and i love the reflective aspect,29,100,20","3"
"56081","","survey-text","218","2759576","0.0-216.0-0.0","AM6LBRUS3YR0L","","","","{""Q0"":""Very simplistic. It evokes no emotion.""}","","","","","","","","","","","","","","","","","","","","","","",""
"7030.399999976158","","image-slider-response","219","2766609","0.0-217.0","AM6LBRUS3YR0L","","","","","4","","","","","","","","","","","","","","","","","","","","","",""
"3224","","image-button-response","220","2771627","0.0-218.0","AM6LBRUS3YR0L","img_art/26.jpg","1","","","","","","","","","","","","","","","","","","","","","","","","",""
"918","","image-button-response","221","2772548","0.0-219.0","AM6LBRUS3YR0L","img_art/26.jpg","1","","","","","","","","","","","","","","","","","","","","","","","","",""
"2510","","image-button-response","222","2775060","0.0-220.0-0.0","AM6LBRUS3YR0L","img_art/26.jpg","3","","","","","","","","","","","","","","","","","","","","","","","","",""
"5385","","image-button-response","223","2780447","0.0-221.0-0.0","AM6LBRUS3YR0L","img_art/26.jpg","2","","","","","","","","","","","","","","","","","","","","","","","","",""
"null","","html-keyboard-response","224","2780958","0.0-222.0","AM6LBRUS3YR0L","<p style=""font-size: 48px;"">+</p>","","","","","null","allTrialResponses","500","1","25","img_art/26.jpg","4","Very simplistic. It evokes no emotion.","Lindsey,Nicole,Katelyn,Cassandra,Mikayla,Erika","I see a suburban neighborhood with townhouses and trees. Not a fan of the colors or style.,-16,400,20","It's relaxing to look at but I wish it was just a little more defined,20,20,20","Looks bland and boring,-5,100,20","Neutral...nothing to say.,3,120,20","Love the colors in this one.,22,300,20","Feels like still life,-13,100,20","Nicole","It's relaxing to look at but I wish it was just a little more defined,20,20,20","Cassandra","Neutral...nothing to say.,3,120,20","Katelyn","Looks bland and boring,-5,100,20","3"
"9839","","survey-text","225","2790806","0.0-223.0-0.0","AM6LBRUS3YR0L","","","","{""Q0"":""table""}","","","","","","","","","","","","","","","","","","","","","","",""
"27315","","survey-text","226","2818123","0.0-224.0-0.0","AM6LBRUS3YR0L","","","","{""Q0"":""Intriguing. It makes me feel unsettled.""}","","","","","","","","","","","","","","","","","","","","","","",""
"8397.700000047684","","image-slider-response","227","2826527","0.0-225.0","AM6LBRUS3YR0L","","","","","16","","","","","","","","","","","","","","","","","","","","","",""
"2737","","image-button-response","228","2831537","0.0-226.0","AM6LBRUS3YR0L","img_art/29.jpg","0","","","","","","","","","","","","","","","","","","","","","","","","",""
"811","","image-button-response","229","2832352","0.0-227.0","AM6LBRUS3YR0L","img_art/29.jpg","0","","","","","","","","","","","","","","","","","","","","","","","","",""
"8349","","image-button-response","230","2840702","0.0-228.0-0.0","AM6LBRUS3YR0L","img_art/29.jpg","4","","","","","","","","","","","","","","","","","","","","","","","","",""
"1941","","image-button-response","231","2842646","0.0-229.0-0.0","AM6LBRUS3YR0L","img_art/29.jpg","2","","","","","","","","","","","","","","","","","","","","","","","","",""
"null","","html-keyboard-response","232","2843167","0.0-230.0","AM6LBRUS3YR0L","<p style=""font-size: 48px;"">+</p>","","","","","null","allTrialResponses","500","1","26","img_art/29.jpg","16","Intriguing. It makes me feel unsettled.","Leslie,Nicole,Katelyn,Cassandra,Anna,Destiny","I can relate to the frustration this evokes.,20,380,20","This one feels scary in a good way,30,20,20","Grabs interest but then confuses me,6,100,20","Neural...just a blackboard jungle.,3,120,20","I like the texture and colors and how it makes me feel. I like how it's different from other abstract art.,45,300,20","is this supposed to be edgy,-21,360,20","Leslie","I can relate to the frustration this evokes.,20,380,20","Anna","I like the texture and colors and how it makes me feel. I like how it's different from other abstract art.,45,300,20","Katelyn","Grabs interest but then confuses me,6,100,20","3"
"41020","","survey-text","233","2884196","0.0-231.0-0.0","AM6LBRUS3YR0L","","","","{""Q0"":""Very pleasant colors. It makes me happy.""}","","","","","","","","","","","","","","","","","","","","","","",""
"5264.799999952316","","image-slider-response","234","2889464","0.0-232.0","AM6LBRUS3YR0L","","","","","33","","","","","","","","","","","","","","","","","","","","","",""
"4400","","image-button-response","235","2894477","0.0-233.0","AM6LBRUS3YR0L","img_art/8.jpg","0","","","","","","","","","","","","","","","","","","","","","","","","",""
"2048","","image-button-response","236","2896528","0.0-234.0","AM6LBRUS3YR0L","img_art/8.jpg","4","","","","","","","","","","","","","","","","","","","","","","","","",""
"1760","","image-button-response","237","2898290","0.0-235.0-0.0","AM6LBRUS3YR0L","img_art/8.jpg","0","","","","","","","","","","","","","","","","","","","","","","","","",""
"6921","","image-button-response","238","2905214","0.0-236.0-0.0","AM6LBRUS3YR0L","img_art/8.jpg","5","","","","","","","","","","","","","","","","","","","","","","","","",""
"null","","html-keyboard-response","239","2906717","0.0-237.0","AM6LBRUS3YR0L","<p style=""font-size: 48px;"">+</p>","","","","","null","allTrialResponses","1500","1","27","img_art/8.jpg","33","Very pleasant colors. It makes me happy.","Leslie,Diana,Katelyn,Julia,Anna,Jordan","The stylized faces remind me of German expressionism in a very good way.,40,380,20","I don't care for the piece, but I appreciate the talent that it took to create it.,22,380,20","I like the definition and the strong lines. It makes me think of someone watching over the world,24,100,20","it's a little too classical for my tastes,-25,40,20","The shapes and colors work well together.,40,300,20","very nice, i love what's going on here,21,20,20","Anna","The shapes and colors work well together.,40,300,20","Leslie","The stylized faces remind me of German expressionism in a very good way.,40,380,20","Jordan","very nice, i love what's going on here,21,20,20","3"
"50061","","survey-text","240","2956786","0.0-238.0-0.0","AM6LBRUS3YR0L","","","","{""Q0"":""Very interesting. It makes me think.""}","","","","","","","","","","","","","","","","","","","","","","",""
"5738.699999988079","","image-slider-response","241","2962529","0.0-239.0","AM6LBRUS3YR0L","","","","","38","","","","","","","","","","","","","","","","","","","","","",""
"3837","","image-button-response","242","2967532","0.0-240.0","AM6LBRUS3YR0L","img_art/15.jpg","4","","","","","","","","","","","","","","","","","","","","","","","","",""
"1148","","image-button-response","243","2968682","0.0-241.0","AM6LBRUS3YR0L","img_art/15.jpg","4","","","","","","","","","","","","","","","","","","","","","","","","",""
"4764","","image-button-response","244","2973448","0.0-242.0-0.0","AM6LBRUS3YR0L","img_art/15.jpg","2","","","","","","","","","","","","","","","","","","","","","","","","",""
"4705","","image-button-response","245","2978155","0.0-243.0-0.0","AM6LBRUS3YR0L","img_art/15.jpg","1","","","","","","","","","","","","","","","","","","","","","","","","",""
"null","","html-keyboard-response","246","2979676","0.0-244.0","AM6LBRUS3YR0L","<p style=""font-size: 48px;"">+</p>","","","","","null","allTrialResponses","1500","1","28","img_art/15.jpg","38","Very interesting. It makes me think.","Leslie,Olivia,Madeline,Sierra,Anna,Jordan","This elicits no reaction in me.,0,380,20","Black reminds me of darkness,-18,40,20","Simple but needs some more detail somehow,-3,40,20","i cant find somthing ilike about it,-31,260,20","I like how it's simple but beautiful.,40,300,20","I'm just not into it,-5,20,20","Anna","I like how it's simple but beautiful.,40,300,20","Madeline","Simple but needs some more detail somehow,-3,40,20","Olivia","Black reminds me of darkness,-18,40,20","3"
"35762","","survey-text","247","3015444","0.0-245.0-0.0","AM6LBRUS3YR0L","","","","{""Q0"":""This somehow reminds me of an afternoon at the beach. It's quite calming.""}","","","","","","","","","","","","","","","","","","","","","","",""
"5206.300000011921","","image-slider-response","248","3020656","0.0-246.0","AM6LBRUS3YR0L","","","","","40","","","","","","","","","","","","","","","","","","","","","",""
"null","","image-button-response","249","3025676","0.0-247.0","AM6LBRUS3YR0L","img_art/7.jpg","null","","","","","","","","","","","","","","","","","","","","","","","","",""
"1756","","image-button-response","250","3027433","0.0-248.0","AM6LBRUS3YR0L","img_art/7.jpg","1","","","","","","","","","","","","","","","","","","","","","","","","",""
"12063","","image-button-response","251","3039498","0.0-249.0-0.0","AM6LBRUS3YR0L","img_art/7.jpg","5","","","","","","","","","","","","","","","","","","","","","","","","",""
"3491","","image-button-response","252","3042992","0.0-250.0-0.0","AM6LBRUS3YR0L","img_art/7.jpg","4","","","","","","","","","","","","","","","","","","","","","","","","",""
"null","","html-keyboard-response","253","3044501","0.0-251.0","AM6LBRUS3YR0L","<p style=""font-size: 48px;"">+</p>","","","","","null","allTrialResponses","1500","1","29","img_art/7.jpg","40","This somehow reminds me of an afternoon at the beach. It's quite calming.","Sabrina,Olivia,Madeline,Amber,Anna,Kimberly","Not getting the vibe i would like from this,-30,120,20","looking down on earth,19,40,20","Not very big on the sameness here,-20,40,20","Dull and confusing,-24,200,20","It's kind of ugly but I like the texture.,10,300,20","Looks like a bad picture of a beach,-21,260,20","Olivia","looking down on earth,19,40,20","Kimberly","Looks like a bad picture of a beach,-21,260,20","Anna","It's kind of ugly but I like the texture.,10,300,20","3"
"39894","","survey-text","254","3084400","0.0-252.0-0.0","AM6LBRUS3YR0L","","","","{""Q0"":""This makes me feel thoughtful and meditative.""}","","","","","","","","","","","","","","","","","","","","","","",""
"6615.799999952316","","image-slider-response","255","3091018","0.0-253.0","AM6LBRUS3YR0L","","","","","38","","","","","","","","","","","","","","","","","","","","","",""
"null","","image-button-response","256","3096035","0.0-254.0","AM6LBRUS3YR0L","img_art/22.jpg","null","","","","","","","","","","","","","","","","","","","","","","","","",""
"1799","","image-button-response","257","3097837","0.0-255.0","AM6LBRUS3YR0L","img_art/22.jpg","0","","","","","","","","","","","","","","","","","","","","","","","","",""
"4006","","image-button-response","258","3101845","0.0-256.0-0.0","AM6LBRUS3YR0L","img_art/22.jpg","3","","","","","","","","","","","","","","","","","","","","","","","","",""
"2083","","image-button-response","259","3103930","0.0-257.0-0.0","AM6LBRUS3YR0L","img_art/22.jpg","5","","","","","","","","","","","","","","","","","","","","","","","","",""
"null","","html-keyboard-response","260","3105435","0.0-258.0","AM6LBRUS3YR0L","<p style=""font-size: 48px;"">+</p>","","","","","null","allTrialResponses","1500","1","30","img_art/22.jpg","38","This makes me feel thoughtful and meditative.","Meghan,Olivia,Vanessa,Marissa,Anna,Kimberly","really beautiful colors and contrast,30,220,20","ball of light in 90s,8,40,20","I don't like the colors or the way they've been arranged.,-20,380,20","I enjoy the vibrant colors,23,160,20","Boring, typical abstract art,-30,300,20","I like the key near the sphere in the center,19,260,20","Meghan","really beautiful colors and contrast,30,220,20","Marissa","I enjoy the vibrant colors,23,160,20","Kimberly","I like the key near the sphere in the center,19,260,20","3"
"11149","","image-button-response_instructions","261","3116602","0.0-259.0","AM6LBRUS3YR0L","","0","instructions","","","","","","","","","","","","","","","","","","","","","","","",""
"2022","","image-button-response","262","3118678","0.0-260.0","AM6LBRUS3YR0L","","0","","","","","","","","","","","","","","","","","","","","","","","","",""
