"rt","url","trial_type","trial_index","time_elapsed","internal_node_id","participant_id","stimulus","button_pressed","Name","responses","response","key_press","variableName","fixationTime","condition","trial","photo","subjectRating","subjectResponse","agentsNames","agent_1_Response","agent_2_Response","agent_3_Response","agent_4_Response","agent_5_Response","agent_6_Response","kept_1_name","kept_1_response","kept_2_name","kept_2_response","kept_3_name","kept_3_response","errorCounter"
"16077","external_page_harvard.html","external-html","0","16868","0.0-0.0","AM7KUJM4MQOBM","","","","","","","","","","","","","","","","","","","","","","","","","","",""
"2470","","image-button-response","1","19343","0.0-1.0","AM7KUJM4MQOBM","","0","","","","","","","","","","","","","","","","","","","","","","","","",""
"4056","","image-button-response","2","23418","0.0-2.0-0.0","AM7KUJM4MQOBM","","1","phone","","","","","","","","","","","","","","","","","","","","","","","",""
"8524","","survey-text","3","31951","0.0-3.0-0.0","AM7KUJM4MQOBM","","","","{""Q0"":""AM7KUJM4MQOBM""}","","","","","","","","","","","","","","","","","","","","","","",""
"78235","","image-button-response_instructions","4","110191","0.0-4.0","AM7KUJM4MQOBM","","0","instructions","","","","","","","","","","","","","","","","","","","","","","","",""
"35650","","image-button-response_instructions","5","145847","0.0-5.0","AM7KUJM4MQOBM","img_art/ins/popularity/ins1.png","0","instructions","","","","","","","","","","","","","","","","","","","","","","","",""
"11771","","image-button-response_instructions","6","157622","0.0-6.0","AM7KUJM4MQOBM","img_art/ins/popularity/ins2.png","0","instructions","","","","","","","","","","","","","","","","","","","","","","","",""
"7275","","image-button-response_instructions","7","164902","0.0-7.0","AM7KUJM4MQOBM","img_art/ins/popularity/ins2Extreme.png","0","instructions","","","","","","","","","","","","","","","","","","","","","","","",""
"11221","","image-button-response_instructions","8","176127","0.0-8.0","AM7KUJM4MQOBM","img_art/ins/popularity/ins3KEEPpop.PNG","0","instructions","","","","","","","","","","","","","","","","","","","","","","","",""
"5556","","image-button-response_instructions","9","181686","0.0-9.0","AM7KUJM4MQOBM","img_art/ins/popularity/ins3ANamepop.PNG","0","instructions","","","","","","","","","","","","","","","","","","","","","","","",""
"5052","","image-button-response_instructions","10","186742","0.0-10.0","AM7KUJM4MQOBM","img_art/ins/popularity/ins3ARatingpop.png","0","instructions","","","","","","","","","","","","","","","","","","","","","","","",""
"4647","","image-button-response_instructions","11","191393","0.0-11.0","AM7KUJM4MQOBM","img_art/ins/popularity/ins3ATextpop.png","0","instructions","","","","","","","","","","","","","","","","","","","","","","","",""
"6186","","image-button-response_instructions","12","197583","0.0-12.0","AM7KUJM4MQOBM","img_art/ins/popularity/ins3ALikespop.png","0","instructions","","","","","","","","","","","","","","","","","","","","","","","",""
"12563","","image-button-response_instructions","13","210151","0.0-13.0","AM7KUJM4MQOBM","img_art/ins/popularity/ins3KEEPpop.PNG","0","instructions","","","","","","","","","","","","","","","","","","","","","","","",""
"9996","","image-button-response_instructions","14","220150","0.0-14.0","AM7KUJM4MQOBM","img_art/ins/popularity/ins3_5RED.png","0","instructions","","","","","","","","","","","","","","","","","","","","","","","",""
"8205","","image-button-response_instructions","15","228359","0.0-15.0","AM7KUJM4MQOBM","img_art/ins/popularity/ins3KEEPpop.PNG","0","instructions","","","","","","","","","","","","","","","","","","","","","","","",""
"13143","","image-button-response_instructions","16","241507","0.0-16.0","AM7KUJM4MQOBM","img_art/ins/popularity/ins4KEEPpop.PNG","0","instructions","","","","","","","","","","","","","","","","","","","","","","","",""
"9304","","image-button-response_instructions","17","250815","0.0-17.0","AM7KUJM4MQOBM","img_art/ins/popularity/ins5KEEPpop.PNG","0","instructions","","","","","","","","","","","","","","","","","","","","","","","",""
"2660","","image-button-response_instructions","18","253478","0.0-18.0","AM7KUJM4MQOBM","","0","instructions","","","","","","","","","","","","","","","","","","","","","","","",""
"13445","","survey-text","19","266974","0.0-19.0-0.0","AM7KUJM4MQOBM","","","","{""Q0"":""but""}","","","","","","","","","","","","","","","","","","","","","","",""
"23844","","survey-text","20","290823","0.0-20.0-0.0","AM7KUJM4MQOBM","","","","{""Q0"":""nice blend of colors""}","","","","","","","","","","","","","","","","","","","","","","",""
"6513.4000000059605","","image-slider-response","21","297342","0.0-21.0","AM7KUJM4MQOBM","","","","","23","","","","","","","","","","","","","","","","","","","","","",""
"null","","image-button-response","22","302367","0.0-22.0","AM7KUJM4MQOBM","img_art/ins/1.jpg","null","","","","","","","","","","","","","","","","","","","","","","","","",""
"11218","","image-button-response","23","313591","0.0-23.0","AM7KUJM4MQOBM","img_art/ins/1.jpg","1","","","","","","","","","","","","","","","","","","","","","","","","",""
"1867","","image-button-response","24","315464","0.0-24.0-0.0","AM7KUJM4MQOBM","img_art/ins/1.jpg","4","","","","","","","","","","","","","","","","","","","","","","","","",""
"759","","image-button-response","25","316235","0.0-25.0-0.0","AM7KUJM4MQOBM","img_art/ins/1.jpg","5","","","","","","","","","","","","","","","","","","","","","","","","",""
"null","","html-keyboard-response","26","317251","0.0-26.0","AM7KUJM4MQOBM","<p style=""font-size: 48px;"">+</p>","","","","","null","allTrialResponses","1000","1","-2","img_art/ins/1.jpg","23","nice blend of colors","Adam,Alex,Ben,Carl,Daniel,Jack","Seems like doodles,-20,20,20","very creative work.,36,40,20","This color reminds me of poo,-46,60,20","very calming artwork,42,80,20","It looks like a murder scene.,-48,100,20","I like the sophisticated brushwork,40,120,20","Alex","very creative work.,36,40,20","Daniel","It looks like a murder scene.,-48,100,20","Jack","I like the sophisticated brushwork,40,120,20","0"
"81038","","survey-text","27","398317","0.0-27.0-0.0","AM7KUJM4MQOBM","","","","{""Q0"":""feels like its coming to mew""}","","","","","","","","","","","","","","","","","","","","","","",""
"6852.5","","image-slider-response","28","405174","0.0-28.0","AM7KUJM4MQOBM","","","","","6","","","","","","","","","","","","","","","","","","","","","",""
"null","","image-button-response","29","410203","0.0-29.0","AM7KUJM4MQOBM","img_art/ins/2.jpg","null","","","","","","","","","","","","","","","","","","","","","","","","",""
"1033","","image-button-response","30","411240","0.0-30.0","AM7KUJM4MQOBM","img_art/ins/2.jpg","1","","","","","","","","","","","","","","","","","","","","","","","","",""
"584","","image-button-response","31","411831","0.0-31.0-0.0","AM7KUJM4MQOBM","img_art/ins/2.jpg","0","","","","","","","","","","","","","","","","","","","","","","","","",""
"1652","","image-button-response","32","413487","0.0-32.0-0.0","AM7KUJM4MQOBM","img_art/ins/2.jpg","0","","","","","","","","","","","","","","","","","","","","","","","","",""
"2343","","image-button-response","33","422280","0.0-32.1-0.1","AM7KUJM4MQOBM","img_art/ins/2.jpg","5","","","","","","","","","","","","","","","","","","","","","","","","",""
"null","","html-keyboard-response","34","423785","0.0-33.0","AM7KUJM4MQOBM","<p style=""font-size: 48px;"">+</p>","","","","","null","allTrialResponses","1500","1","-1","img_art/ins/2.jpg","6","feels like its coming to mew","John,Alex,Kyle,James,Daniel,Jack","love the texture of paint,48,160,20","I like the blocks of color arrangements,30,40,20","Idk, it is just annoying,-32,180,20","looks too angry,-50,140,20","One of my pet peevs,-48,100,20","I would never be able to compose a sophisticated pallete like this,48,120,20","Alex","I like the blocks of color arrangements,30,40,20","John","love the texture of paint,48,160,20","Jack","I would never be able to compose a sophisticated pallete like this,48,120,20","2"
"14595","","survey-text","35","438391","0.0-34.0-0.0","AM7KUJM4MQOBM","","","","{""Q0"":""very very bright""}","","","","","","","","","","","","","","","","","","","","","","",""
"6398.800000011921","","image-slider-response","36","444799","0.0-35.0","AM7KUJM4MQOBM","","","","","-26","","","","","","","","","","","","","","","","","","","","","",""
"null","","image-button-response","37","449814","0.0-36.0","AM7KUJM4MQOBM","img_art/ins/3.jpg","null","","","","","","","","","","","","","","","","","","","","","","","","",""
"5292","","image-button-response","38","455111","0.0-37.0","AM7KUJM4MQOBM","img_art/ins/3.jpg","2","","","","","","","","","","","","","","","","","","","","","","","","",""
"2263","","image-button-response","39","457379","0.0-38.0-0.0","AM7KUJM4MQOBM","img_art/ins/3.jpg","4","","","","","","","","","","","","","","","","","","","","","","","","",""
"3497","","image-button-response","40","460882","0.0-39.0-0.0","AM7KUJM4MQOBM","img_art/ins/3.jpg","3","","","","","","","","","","","","","","","","","","","","","","","","",""
"null","","html-keyboard-response","41","461886","0.0-40.0","AM7KUJM4MQOBM","<p style=""font-size: 48px;"">+</p>","","","","","null","allTrialResponses","1000","1","0","img_art/ins/3.jpg","-26","very very bright","John,Alex,Sam,Mike,Ron,Jack","I like the overlapping of brushes,41,160,20","calming blue is very nice,36,40,20","I can feel a rainy day from this painting,18,240,20","enjoy the different shades of blue,22,200,20","It looks depressing,-26,220,20","I feel connected to the artist,40,120,20","Sam","I can feel a rainy day from this painting,18,240,20","Ron","It looks depressing,-26,220,20","Mike","enjoy the different shades of blue,22,200,20","2"
"6905","","image-button-response_instructions","42","468806","0.0-41.0","AM7KUJM4MQOBM","","0","instructions","","","","","","","","","","","","","","","","","","","","","","","",""
"17733","","survey-likert","43","486545","0.0-42.0-0.0","AM7KUJM4MQOBM","","","","{""Q0"":"""",""Q1"":0,""Q2"":1}","","","","","","","","","","","","","","","","","","","","","","",""
"8059","","survey-text","44","494621","0.0-43.0-0.0","AM7KUJM4MQOBM","","","","{""Q0"":""rock""}","","","","","","","","","","","","","","","","","","","","","","",""
"19003","","survey-text","45","513630","0.0-44.0-0.0","AM7KUJM4MQOBM","","","","{""Q0"":""very childlike""}","","","","","","","","","","","","","","","","","","","","","","",""
"4943.4000000059605","","image-slider-response","46","518581","0.0-45.0","AM7KUJM4MQOBM","","","","","-11","","","","","","","","","","","","","","","","","","","","","",""
"null","","image-button-response","47","523632","0.0-46.0","AM7KUJM4MQOBM","img_art/26.jpg","null","","","","","","","","","","","","","","","","","","","","","","","","",""
"243","","image-button-response","48","523879","0.0-47.0","AM7KUJM4MQOBM","img_art/26.jpg","1","","","","","","","","","","","","","","","","","","","","","","","","",""
"874","","image-button-response","49","524759","0.0-48.0-0.0","AM7KUJM4MQOBM","img_art/26.jpg","2","","","","","","","","","","","","","","","","","","","","","","","","",""
"1113","","image-button-response","50","525880","0.0-49.0-0.0","AM7KUJM4MQOBM","img_art/26.jpg","5","","","","","","","","","","","","","","","","","","","","","","","","",""
"null","","html-keyboard-response","51","527385","0.0-50.0","AM7KUJM4MQOBM","<p style=""font-size: 48px;"">+</p>","","","","","null","allTrialResponses","1500","1","1","img_art/26.jpg","-11","very childlike","Jared,Edward,Jeremy,Elijah,Devon,Stephen","soothing and subtle,1,400,20","Elevator art but the watercolors are good,29,60,20","somewhat happy, like being outside on a nice day,30,60,20","Splash of paint in an ordered way,7,80,20","i can feel the warmth,12,400,20","No strong reaction but the color scheme is nice,10,140,20","Edward","Elevator art but the watercolors are good,29,60,20","Jeremy","somewhat happy, like being outside on a nice day,30,60,20","Stephen","No strong reaction but the color scheme is nice,10,140,20","2"
"23130","","survey-text","52","550534","0.0-51.0-0.0","AM7KUJM4MQOBM","","","","{""Q0"":""wrong mix of colors""}","","","","","","","","","","","","","","","","","","","","","","",""
"4697.4000000059605","","image-slider-response","53","555239","0.0-52.0","AM7KUJM4MQOBM","","","","","-21","","","","","","","","","","","","","","","","","","","","","",""
"null","","image-button-response","54","560246","0.0-53.0","AM7KUJM4MQOBM","img_art/21.jpg","null","","","","","","","","","","","","","","","","","","","","","","","","",""
"2542","","image-button-response","55","562793","0.0-54.0","AM7KUJM4MQOBM","img_art/21.jpg","2","","","","","","","","","","","","","","","","","","","","","","","","",""
"2185","","image-button-response","56","564983","0.0-55.0-0.0","AM7KUJM4MQOBM","img_art/21.jpg","4","","","","","","","","","","","","","","","","","","","","","","","","",""
"2483","","image-button-response","57","567472","0.0-56.0-0.0","AM7KUJM4MQOBM","img_art/21.jpg","3","","","","","","","","","","","","","","","","","","","","","","","","",""
"null","","html-keyboard-response","58","568477","0.0-57.0","AM7KUJM4MQOBM","<p style=""font-size: 48px;"">+</p>","","","","","null","allTrialResponses","1000","1","2","img_art/21.jpg","-21","wrong mix of colors","Nathan,Edward,Jeremy,Jorge,Chase,Stephen","I like it. It's some of war-scene, bloodshed and battle on the left, field of dispair on the right, dark and rich,40,200,20","I love how vague it is but how you can imagine a story anyway, like clouds,45,60,20","the picture is boring,1,60,20","mythical between good and evil,16,180,20","Kind of looks like a sky with a storm or tornado.,10,120,20","Don't see anything special about it,-21,140,20","Jeremy","the picture is boring,1,60,20","Chase","Kind of looks like a sky with a storm or tornado.,10,120,20","Jorge","mythical between good and evil,16,180,20","2"
"22624","","survey-text","59","591119","0.0-58.0-0.0","AM7KUJM4MQOBM","","","","{""Q0"":""love the great detail""}","","","","","","","","","","","","","","","","","","","","","","",""
"3186.899999976158","","image-slider-response","60","594310","0.0-59.0","AM7KUJM4MQOBM","","","","","42","","","","","","","","","","","","","","","","","","","","","",""
"4979","","image-button-response","61","599316","0.0-60.0","AM7KUJM4MQOBM","img_art/18.jpg","3","","","","","","","","","","","","","","","","","","","","","","","","",""
"2669","","image-button-response","62","601990","0.0-61.0","AM7KUJM4MQOBM","img_art/18.jpg","4","","","","","","","","","","","","","","","","","","","","","","","","",""
"1165","","image-button-response","63","603159","0.0-62.0-0.0","AM7KUJM4MQOBM","img_art/18.jpg","3","","","","","","","","","","","","","","","","","","","","","","","","",""
"1379","","image-button-response","64","604543","0.0-63.0-0.0","AM7KUJM4MQOBM","img_art/18.jpg","0","","","","","","","","","","","","","","","","","","","","","","","","",""
"null","","html-keyboard-response","65","606057","0.0-64.0","AM7KUJM4MQOBM","<p style=""font-size: 48px;"">+</p>","","","","","null","allTrialResponses","1500","1","3","img_art/18.jpg","42","love the great detail","Luis,Trevor,Jeremy,Jorge,Chase,Robert","I love the battle vibe in this,50,400,20","it looks dreary and not uplifting,-10,280,20","Unhappy. Makes me thing of evil,-10,60,20","Imaginative, makes me feel creative.,42,180,20","Kinda neat, looks like cavalry, or a knight.,15,120,20","It made me think of a car crash,-39,360,20","Chase","Kinda neat, looks like cavalry, or a knight.,15,120,20","Jorge","Imaginative, makes me feel creative.,42,180,20","Luis","I love the battle vibe in this,50,400,20","2"
"36633","","survey-text","66","642709","0.0-65.0-0.0","AM7KUJM4MQOBM","","","","{""Q0"":""very scenic look""}","","","","","","","","","","","","","","","","","","","","","","",""
"4868.9000000059605","","image-slider-response","67","647583","0.0-66.0","AM7KUJM4MQOBM","","","","","22","","","","","","","","","","","","","","","","","","","","","",""
"3586","","image-button-response","68","652589","0.0-67.0","AM7KUJM4MQOBM","img_art/19.jpg","0","","","","","","","","","","","","","","","","","","","","","","","","",""
"469","","image-button-response","69","653066","0.0-68.0","AM7KUJM4MQOBM","img_art/19.jpg","1","","","","","","","","","","","","","","","","","","","","","","","","",""
"768","","image-button-response","70","653839","0.0-69.0-0.0","AM7KUJM4MQOBM","img_art/19.jpg","2","","","","","","","","","","","","","","","","","","","","","","","","",""
"2857","","image-button-response","71","656703","0.0-70.0-0.0","AM7KUJM4MQOBM","img_art/19.jpg","5","","","","","","","","","","","","","","","","","","","","","","","","",""
"null","","html-keyboard-response","72","658206","0.0-71.0","AM7KUJM4MQOBM","<p style=""font-size: 48px;"">+</p>","","","","","null","allTrialResponses","1500","1","4","img_art/19.jpg","22","very scenic look","Luis,Grant,Isaiah,Jorge,Chase,Angel","Gives a very open and freeing vibe,42,400,20","It's a cute city scene, but nothing special.,10,200,20","I feel a little anxious and happy. I'm about to walk into a market and any number of treasures could be found,14,300,20","confused and emotional,-4,180,20","This is just a mess.,-30,120,20","This one feels pretty neutral. Like a window into someone's life, one person in a bustling metropolis.,0,180,20","Grant","It's a cute city scene, but nothing special.,10,200,20","Isaiah","I feel a little anxious and happy. I'm about to walk into a market and any number of treasures could be found,14,300,20","Angel","This one feels pretty neutral. Like a window into someone's life, one person in a bustling metropolis.,0,180,20","2"
"35667","","survey-text","73","693894","0.0-72.0-0.0","AM7KUJM4MQOBM","","","","{""Q0"":""does not stand out""}","","","","","","","","","","","","","","","","","","","","","","",""
"4619.4000000059605","","image-slider-response","74","698520","0.0-73.0","AM7KUJM4MQOBM","","","","","-26","","","","","","","","","","","","","","","","","","","","","",""
"2129","","image-button-response","75","703525","0.0-74.0","AM7KUJM4MQOBM","img_art/3.jpg","0","","","","","","","","","","","","","","","","","","","","","","","","",""
"756","","image-button-response","76","704287","0.0-75.0","AM7KUJM4MQOBM","img_art/3.jpg","2","","","","","","","","","","","","","","","","","","","","","","","","",""
"1602","","image-button-response","77","705898","0.0-76.0-0.0","AM7KUJM4MQOBM","img_art/3.jpg","5","","","","","","","","","","","","","","","","","","","","","","","","",""
"2152","","image-button-response","78","708055","0.0-77.0-0.0","AM7KUJM4MQOBM","img_art/3.jpg","4","","","","","","","","","","","","","","","","","","","","","","","","",""
"null","","html-keyboard-response","79","709059","0.0-78.0","AM7KUJM4MQOBM","<p style=""font-size: 48px;"">+</p>","","","","","null","allTrialResponses","1000","1","5","img_art/3.jpg","-26","does not stand out","Paul,Grant,Isaiah,Samuel,Patrick,Angel","It looks like random scribbles by a child and not appealing,-38,300,20","It looks like the artist was trying too hard to make it chaotic and emotional.,-25,200,20","I feel uncomfortable, like I am looking at a crime scene.,-17,300,20","confusing taking over,-15,400,20","Random use of red and looks scary,-50,280,20","This gives me a negative feeling, like someone trying to scratch out their flaws. I see low self-esteem.,-20,180,20","Isaiah","I feel uncomfortable, like I am looking at a crime scene.,-17,300,20","Angel","This gives me a negative feeling, like someone trying to scratch out their flaws. I see low self-esteem.,-20,180,20","Patrick","Random use of red and looks scary,-50,280,20","2"
"6392","","survey-text","80","715496","0.0-79.0-0.0","AM7KUJM4MQOBM","","","","{""Q0"":""sky""}","","","","","","","","","","","","","","","","","","","","","","",""
"21122","","survey-text","81","736622","0.0-80.0-0.0","AM7KUJM4MQOBM","","","","{""Q0"":""it glows to me""}","","","","","","","","","","","","","","","","","","","","","","",""
"4394","","image-slider-response","82","741022","0.0-81.0","AM7KUJM4MQOBM","","","","","27","","","","","","","","","","","","","","","","","","","","","",""
"2034","","image-button-response","83","746028","0.0-82.0","AM7KUJM4MQOBM","img_art/25.jpg","1","","","","","","","","","","","","","","","","","","","","","","","","",""
"294","","image-button-response","84","746328","0.0-83.0","AM7KUJM4MQOBM","img_art/25.jpg","2","","","","","","","","","","","","","","","","","","","","","","","","",""
"3826","","image-button-response","85","750162","0.0-84.0-0.0","AM7KUJM4MQOBM","img_art/25.jpg","1","","","","","","","","","","","","","","","","","","","","","","","","",""
"3887","","image-button-response","86","754055","0.0-85.0-0.0","AM7KUJM4MQOBM","img_art/25.jpg","0","","","","","","","","","","","","","","","","","","","","","","","","",""
"null","","html-keyboard-response","87","754562","0.0-86.0","AM7KUJM4MQOBM","<p style=""font-size: 48px;"">+</p>","","","","","null","allTrialResponses","500","1","6","img_art/25.jpg","27","it glows to me","Taylor,Jose,Isaiah,David,Patrick,Angel","Wish I was that thin.,-5,200,20","That's pretty awesome. I love the green and black combo, reminds me of one of those cartoon creepy movies,47,200,20","I feel little to no emotion looking at this painting.,0,300,20","Depicts something negative, such as ritual. I'm not a fan.,-10,340,20","Green color is not my thing,-29,280,20","I feel uneasy. Like watching someone powerful ready to perform a ritual, but I don't know their intentions.,-10,180,20","Isaiah","I feel little to no emotion looking at this painting.,0,300,20","Jose","That's pretty awesome. I love the green and black combo, reminds me of one of those cartoon creepy movies,47,200,20","Taylor","Wish I was that thin.,-5,200,20","2"
"18348","","survey-text","88","772934","0.0-87.0-0.0","AM7KUJM4MQOBM","","","","{""Q0"":""its a big mess""}","","","","","","","","","","","","","","","","","","","","","","",""
"4299.300000011921","","image-slider-response","89","777238","0.0-88.0","AM7KUJM4MQOBM","","","","","-40","","","","","","","","","","","","","","","","","","","","","",""
"4264","","image-button-response","90","782247","0.0-89.0","AM7KUJM4MQOBM","img_art/2.jpg","5","","","","","","","","","","","","","","","","","","","","","","","","",""
"704","","image-button-response","91","782961","0.0-90.0","AM7KUJM4MQOBM","img_art/2.jpg","5","","","","","","","","","","","","","","","","","","","","","","","","",""
"993","","image-button-response","92","783959","0.0-91.0-0.0","AM7KUJM4MQOBM","img_art/2.jpg","4","","","","","","","","","","","","","","","","","","","","","","","","",""
"2618","","image-button-response","93","786583","0.0-92.0-0.0","AM7KUJM4MQOBM","img_art/2.jpg","2","","","","","","","","","","","","","","","","","","","","","","","","",""
"null","","html-keyboard-response","94","787588","0.0-93.0","AM7KUJM4MQOBM","<p style=""font-size: 48px;"">+</p>","","","","","null","allTrialResponses","1000","1","7","img_art/2.jpg","-40","its a big mess","Taylor,Jose,Isaiah,Hunter,Kyle,Scott","Have now advanced from kindergarten to the first grade.,-5,200,20","The color combo is kind of ugly but there's something charming about it still,17,200,20","I feel claustrophobic. I'm looking at a busy shop, but the simple shapes and continuous colors make it hectic.,-8,300,20","appealing colors,4,240,20","Color picks are a bad mesh with each other,-17,340,20","looks like a child's artwork,-40,20,20","Scott","looks like a child's artwork,-40,20,20","Kyle","Color picks are a bad mesh with each other,-17,340,20","Isaiah","I feel claustrophobic. I'm looking at a busy shop, but the simple shapes and continuous colors make it hectic.,-8,300,20","2"
"58462","","survey-text","95","846061","0.0-94.0-0.0","AM7KUJM4MQOBM","","","","{""Q0"":""its needs more life""}","","","","","","","","","","","","","","","","","","","","","","",""
"4556.200000017881","","image-slider-response","96","850621","0.0-95.0","AM7KUJM4MQOBM","","","","","-26","","","","","","","","","","","","","","","","","","","","","",""
"null","","image-button-response","97","855629","0.0-96.0","AM7KUJM4MQOBM","img_art/22.jpg","null","","","","","","","","","","","","","","","","","","","","","","","","",""
"7164","","image-button-response","98","862798","0.0-97.0","AM7KUJM4MQOBM","img_art/22.jpg","4","","","","","","","","","","","","","","","","","","","","","","","","",""
"1492","","image-button-response","99","864295","0.0-98.0-0.0","AM7KUJM4MQOBM","img_art/22.jpg","3","","","","","","","","","","","","","","","","","","","","","","","","",""
"2560","","image-button-response","100","866862","0.0-99.0-0.0","AM7KUJM4MQOBM","img_art/22.jpg","2","","","","","","","","","","","","","","","","","","","","","","","","",""
"null","","html-keyboard-response","101","867866","0.0-100.0","AM7KUJM4MQOBM","<p style=""font-size: 48px;"">+</p>","","","","","null","allTrialResponses","1000","1","8","img_art/22.jpg","-26","its needs more life","Shane,Tyler,Isaiah,John,Kyle,Scott","Sunsets at the beach,42,80,20","Like the colors, and the even blur. The more I look, the more a story forms. A very narrative image.,18,320,20","The painting makes me feel a little sad.,12,300,20","Its okay,it doesnt make me feel any sort of strong emotion,1,120,20","I appreciate the artistic effort but it's not for me,0,340,20","really beautiful colors and contrast,30,20,20","Kyle","I appreciate the artistic effort but it's not for me,0,340,20","John","Its okay,it doesnt make me feel any sort of strong emotion,1,120,20","Isaiah","The painting makes me feel a little sad.,12,300,20","2"
"47056","","survey-text","102","914936","0.0-101.0-0.0","AM7KUJM4MQOBM","","","","{""Q0"":""very well laid out""}","","","","","","","","","","","","","","","","","","","","","","",""
"5129.5999999940395","","image-slider-response","103","920070","0.0-102.0","AM7KUJM4MQOBM","","","","","43","","","","","","","","","","","","","","","","","","","","","",""
"null","","image-button-response","104","925075","0.0-103.0","AM7KUJM4MQOBM","img_art/12.jpg","null","","","","","","","","","","","","","","","","","","","","","","","","",""
"521","","image-button-response","105","925602","0.0-104.0","AM7KUJM4MQOBM","img_art/12.jpg","3","","","","","","","","","","","","","","","","","","","","","","","","",""
"1801","","image-button-response","106","927408","0.0-105.0-0.0","AM7KUJM4MQOBM","img_art/12.jpg","5","","","","","","","","","","","","","","","","","","","","","","","","",""
"6375","","image-button-response","107","933791","0.0-106.0-0.0","AM7KUJM4MQOBM","img_art/12.jpg","0","","","","","","","","","","","","","","","","","","","","","","","","",""
"null","","html-keyboard-response","108","935294","0.0-107.0","AM7KUJM4MQOBM","<p style=""font-size: 48px;"">+</p>","","","","","null","allTrialResponses","1500","1","9","img_art/12.jpg","43","very well laid out","Gabriel,Brendan,Isaiah,John,Kyle,Antonio","dont like the squares,-16,160,20","wtf is that i dont get it,-50,340,20","The painting makes me uncomfortable. The smears in the boxes feel like a giant mess.,-16,300,20","Its cool,reminiscent of Andy Warhol type of style,10,120,20","It's just not my style,-18,340,20","I like the colors in both sections, brights compared to neutrals. Each block has a different view. I think of the future,11,220,20","John","Its cool,reminiscent of Andy Warhol type of style,10,120,20","Antonio","I like the colors in both sections, brights compared to neutrals. Each block has a different view. I think of the future,11,220,20","Gabriel","dont like the squares,-16,160,20","2"
"34957","","survey-text","109","970264","0.0-108.0-0.0","AM7KUJM4MQOBM","","","","{""Q0"":""it lacks real meaning""}","","","","","","","","","","","","","","","","","","","","","","",""
"3785.5999999940395","","image-slider-response","110","974054","0.0-109.0","AM7KUJM4MQOBM","","","","","-28","","","","","","","","","","","","","","","","","","","","","",""
"4591","","image-button-response","111","979059","0.0-110.0","AM7KUJM4MQOBM","img_art/9.jpg","3","","","","","","","","","","","","","","","","","","","","","","","","",""
"791","","image-button-response","112","979855","0.0-111.0","AM7KUJM4MQOBM","img_art/9.jpg","3","","","","","","","","","","","","","","","","","","","","","","","","",""
"2394","","image-button-response","113","982255","0.0-112.0-0.0","AM7KUJM4MQOBM","img_art/9.jpg","0","","","","","","","","","","","","","","","","","","","","","","","","",""
"850","","image-button-response","114","983111","0.0-113.0-0.0","AM7KUJM4MQOBM","img_art/9.jpg","0","","","","","","","","","","","","","","","","","","","","","","","","",""
"1259","","image-button-response","115","993142","0.0-113.1-0.1","AM7KUJM4MQOBM","img_art/9.jpg","1","","","","","","","","","","","","","","","","","","","","","","","","",""
"null","","html-keyboard-response","116","994151","0.0-114.0","AM7KUJM4MQOBM","<p style=""font-size: 48px;"">+</p>","","","","","null","allTrialResponses","1000","1","10","img_art/9.jpg","-28","it lacks real meaning","Gabriel,Colton,Mitchell,John,Tanner,Antonio","i like the colors but not the composition,-17,160,20","the colors are nice,6,220,20","Cozy, In her own world. feminine .,30,180,20","Unpleasant, alot of dark colors and strange lines,-26,120,20","sleep, calm, safe,12,180,20","Stirs up emotions of watching someone sleep which is relaxing,11,220,20","John","Unpleasant, alot of dark colors and strange lines,-26,120,20","Gabriel","i like the colors but not the composition,-17,160,20","Colton","the colors are nice,6,220,20","4"
"9553","","survey-text","117","1003749","0.0-115.0-0.0","AM7KUJM4MQOBM","","","","{""Q0"":""our""}","","","","","","","","","","","","","","","","","","","","","","",""
"47820","","survey-text","118","1051574","0.0-116.0-0.0","AM7KUJM4MQOBM","","","","{""Q0"":""only would like it if a young kid made it""}","","","","","","","","","","","","","","","","","","","","","","",""
"8273.90000000596","","image-slider-response","119","1059854","0.0-117.0","AM7KUJM4MQOBM","","","","","-24","","","","","","","","","","","","","","","","","","","","","",""
"null","","image-button-response","120","1064861","0.0-118.0","AM7KUJM4MQOBM","img_art/4.jpg","null","","","","","","","","","","","","","","","","","","","","","","","","",""
"863","","image-button-response","121","1065727","0.0-119.0","AM7KUJM4MQOBM","img_art/4.jpg","2","","","","","","","","","","","","","","","","","","","","","","","","",""
"1899","","image-button-response","122","1067631","0.0-120.0-0.0","AM7KUJM4MQOBM","img_art/4.jpg","1","","","","","","","","","","","","","","","","","","","","","","","","",""
"1169","","image-button-response","123","1068806","0.0-121.0-0.0","AM7KUJM4MQOBM","img_art/4.jpg","0","","","","","","","","","","","","","","","","","","","","","","","","",""
"null","","html-keyboard-response","124","1069311","0.0-122.0","AM7KUJM4MQOBM","<p style=""font-size: 48px;"">+</p>","","","","","null","allTrialResponses","500","1","11","img_art/4.jpg","-24","only would like it if a young kid made it","Gabriel,Colton,Nicholas,John,Joseph,Charles","this is terrible,-49,160,20","I really don't like the colors,-26,220,20","I domt like the yellow black blended smear,-50,240,20","Extremely simple and like not alot of time was put into it,-20,120,20","It's okay, I guess. Nothing much either way.,5,220,20","It's ok, theres nothing that draws me away from it I guess,0,100,20","Nicholas","I domt like the yellow black blended smear,-50,240,20","Colton","I really don't like the colors,-26,220,20","Gabriel","this is terrible,-49,160,20","4"
"31428","","survey-text","125","1100750","0.0-123.0-0.0","AM7KUJM4MQOBM","","","","{""Q0"":""middle too dull looking""}","","","","","","","","","","","","","","","","","","","","","","",""
"4306.100000023842","","image-slider-response","126","1105061","0.0-124.0","AM7KUJM4MQOBM","","","","","-24","","","","","","","","","","","","","","","","","","","","","",""
"null","","image-button-response","127","1110076","0.0-125.0","AM7KUJM4MQOBM","img_art/27.jpg","null","","","","","","","","","","","","","","","","","","","","","","","","",""
"100","","image-button-response","128","1110182","0.0-126.0","AM7KUJM4MQOBM","img_art/27.jpg","1","","","","","","","","","","","","","","","","","","","","","","","","",""
"1559","","image-button-response","129","1111745","0.0-127.0-0.0","AM7KUJM4MQOBM","img_art/27.jpg","0","","","","","","","","","","","","","","","","","","","","","","","","",""
"1079","","image-button-response","130","1112829","0.0-128.0-0.0","AM7KUJM4MQOBM","img_art/27.jpg","0","","","","","","","","","","","","","","","","","","","","","","","","",""
"1182","","image-button-response","131","1117375","0.0-128.1-0.1","AM7KUJM4MQOBM","img_art/27.jpg","3","","","","","","","","","","","","","","","","","","","","","","","","",""
"null","","html-keyboard-response","132","1117880","0.0-129.0","AM7KUJM4MQOBM","<p style=""font-size: 48px;"">+</p>","","","","","null","allTrialResponses","500","1","12","img_art/27.jpg","-24","middle too dull looking","Gabriel,Colton,Nicholas,Noah,Anthony,Malik","too messy dont like the color choices either,-17,160,20","looks like a little kid did it,-30,220,20","I like all it has going but i wouldnt put it in my house unless my child did it,25,240,20","I generally enjoy the style, but I'm finding the green lines grating,-9,260,20","Somewhat boring piece,-3,200,20","Nice color, but too vague,-12,40,20","Colton","looks like a little kid did it,-30,220,20","Gabriel","too messy dont like the color choices either,-17,160,20","Noah","I generally enjoy the style, but I'm finding the green lines grating,-9,260,20","6"
"20647","","survey-text","133","1138549","0.0-130.0-0.0","AM7KUJM4MQOBM","","","","{""Q0"":""lights up a room""}","","","","","","","","","","","","","","","","","","","","","","",""
"3372","","image-slider-response","134","1141926","0.0-131.0","AM7KUJM4MQOBM","","","","","32","","","","","","","","","","","","","","","","","","","","","",""
"4260","","image-button-response","135","1146933","0.0-132.0","AM7KUJM4MQOBM","img_art/14.jpg","1","","","","","","","","","","","","","","","","","","","","","","","","",""
"1144","","image-button-response","136","1148089","0.0-133.0","AM7KUJM4MQOBM","img_art/14.jpg","0","","","","","","","","","","","","","","","","","","","","","","","","",""
"993","","image-button-response","137","1149086","0.0-134.0-0.0","AM7KUJM4MQOBM","img_art/14.jpg","1","","","","","","","","","","","","","","","","","","","","","","","","",""
"2441","","image-button-response","138","1151535","0.0-135.0-0.0","AM7KUJM4MQOBM","img_art/14.jpg","3","","","","","","","","","","","","","","","","","","","","","","","","",""
"null","","html-keyboard-response","139","1152043","0.0-136.0","AM7KUJM4MQOBM","<p style=""font-size: 48px;"">+</p>","","","","","null","allTrialResponses","500","1","13","img_art/14.jpg","32","lights up a room","Gabriel,Colton,Sean,Noah,Benjamin,Seth","i like this one!,23,160,20","mythical and nature like,37,220,20","my reaction is that the picture is wierd,-14,40,20","I enjoy what comes across as a playful take on nature themes,26,260,20","Reminds me of the outdoors.,12,260,20","This piece feels inviting. It's like opening up the pages of your favorite book for the first time.,26,60,20","Gabriel","i like this one!,23,160,20","Colton","mythical and nature like,37,220,20","Noah","I enjoy what comes across as a playful take on nature themes,26,260,20","6"
"50256","","survey-text","140","1202319","0.0-137.0-0.0","AM7KUJM4MQOBM","","","","{""Q0"":""has a nice 3d look""}","","","","","","","","","","","","","","","","","","","","","","",""
"3402.699999988079","","image-slider-response","141","1205726","0.0-138.0","AM7KUJM4MQOBM","","","","","28","","","","","","","","","","","","","","","","","","","","","",""
"null","","image-button-response","142","1210733","0.0-139.0","AM7KUJM4MQOBM","img_art/5.jpg","null","","","","","","","","","","","","","","","","","","","","","","","","",""
"1177","","image-button-response","143","1211918","0.0-140.0","AM7KUJM4MQOBM","img_art/5.jpg","1","","","","","","","","","","","","","","","","","","","","","","","","",""
"59","","image-button-response","144","1211982","0.0-141.0-0.0","AM7KUJM4MQOBM","img_art/5.jpg","1","","","","","","","","","","","","","","","","","","","","","","","","",""
"2298","","image-button-response","145","1218839","0.0-141.1-0.1","AM7KUJM4MQOBM","img_art/5.jpg","3","","","","","","","","","","","","","","","","","","","","","","","","",""
"1986","","image-button-response","146","1220831","0.0-142.0-0.0","AM7KUJM4MQOBM","img_art/5.jpg","0","","","","","","","","","","","","","","","","","","","","","","","","",""
"null","","html-keyboard-response","147","1221338","0.0-143.0","AM7KUJM4MQOBM","<p style=""font-size: 48px;"">+</p>","","","","","null","allTrialResponses","500","1","14","img_art/5.jpg","28","has a nice 3d look","Gabriel,Colton,Juan,Noah,Travis,Steven","too abstract, looks like a pyramid,-22,160,20","I like the strokes and colors used,20,220,20","The yellow is garish and the picture doesn't look liked anything.,-49,260,20","this feels like something I should like, but I'm not feeling the execution,-10,260,20","This was awful and it looked like someone took minimul effort with it... no time at all.,-49,260,20","I dont really get anything from this,-25,160,20","Colton","I like the strokes and colors used,20,220,20","Noah","this feels like something I should like, but I'm not feeling the execution,-10,260,20","Gabriel","too abstract, looks like a pyramid,-22,160,20","8"
"29676","","survey-text","148","1251031","0.0-144.0-0.0","AM7KUJM4MQOBM","","","","{""Q0"":""would prefer brighter color""}","","","","","","","","","","","","","","","","","","","","","","",""
"3980.5999999940395","","image-slider-response","149","1255019","0.0-145.0","AM7KUJM4MQOBM","","","","","-13","","","","","","","","","","","","","","","","","","","","","",""
"null","","image-button-response","150","1260023","0.0-146.0","AM7KUJM4MQOBM","img_art/1.jpg","null","","","","","","","","","","","","","","","","","","","","","","","","",""
"2347","","image-button-response","151","1262374","0.0-147.0","AM7KUJM4MQOBM","img_art/1.jpg","2","","","","","","","","","","","","","","","","","","","","","","","","",""
"2875","","image-button-response","152","1265254","0.0-148.0-0.0","AM7KUJM4MQOBM","img_art/1.jpg","1","","","","","","","","","","","","","","","","","","","","","","","","",""
"892","","image-button-response","153","1266150","0.0-149.0-0.0","AM7KUJM4MQOBM","img_art/1.jpg","0","","","","","","","","","","","","","","","","","","","","","","","","",""
"null","","html-keyboard-response","154","1266654","0.0-150.0","AM7KUJM4MQOBM","<p style=""font-size: 48px;"">+</p>","","","","","null","allTrialResponses","500","1","15","img_art/1.jpg","-13","would prefer brighter color","Gabriel,Colton,Kevin,Noah,William,Lucas","this ones alright,10,160,20","the colors are nice,8,220,20","I cant make anything of this one.,-7,320,20","the bright colours evoke the 90s, and not their best part,-10,260,20","love how the colors blend,42,380,20","The colors match and create a nice artistic disorder.,20,380,20","Kevin","I cant make anything of this one.,-7,320,20","Colton","the colors are nice,8,220,20","Gabriel","this ones alright,10,160,20","8"
"12006","","survey-text","155","1278688","0.0-151.0-0.0","AM7KUJM4MQOBM","","","","{""Q0"":""course""}","","","","","","","","","","","","","","","","","","","","","","",""
"24329","","survey-text","156","1303023","0.0-152.0-0.0","AM7KUJM4MQOBM","","","","{""Q0"":""nice stand out look""}","","","","","","","","","","","","","","","","","","","","","","",""
"3166.0999999940395","","image-slider-response","157","1306197","0.0-153.0","AM7KUJM4MQOBM","","","","","37","","","","","","","","","","","","","","","","","","","","","",""
"3980","","image-button-response","158","1311203","0.0-154.0","AM7KUJM4MQOBM","img_art/20.jpg","2","","","","","","","","","","","","","","","","","","","","","","","","",""
"607","","image-button-response","159","1311814","0.0-155.0","AM7KUJM4MQOBM","img_art/20.jpg","2","","","","","","","","","","","","","","","","","","","","","","","","",""
"83","","image-button-response","160","1311901","0.0-156.0-0.0","AM7KUJM4MQOBM","img_art/20.jpg","2","","","","","","","","","","","","","","","","","","","","","","","","",""
"1254","","image-button-response","161","1316729","0.0-156.1-0.1","AM7KUJM4MQOBM","img_art/20.jpg","1","","","","","","","","","","","","","","","","","","","","","","","","",""
"2376","","image-button-response","162","1319111","0.0-157.0-0.0","AM7KUJM4MQOBM","img_art/20.jpg","5","","","","","","","","","","","","","","","","","","","","","","","","",""
"null","","html-keyboard-response","163","1320118","0.0-158.0","AM7KUJM4MQOBM","<p style=""font-size: 48px;"">+</p>","","","","","null","allTrialResponses","1000","1","16","img_art/20.jpg","37","nice stand out look","Gabriel,Colton,Kevin,Miguel,Tristan,Michael","i almost feel like i can recognize what this is,-6,160,20","reminds me of Salvadore Dali,24,220,20","The beast is running after you.,33,320,20","It's ok. Very abstract.,18,160,20","Elements that are more defined are incongruous to the soft and melting nature of this painting,5,300,20","Brings about an emotion response of dspair. Loose lines but yet has a cohesion.,8,140,20","Kevin","The beast is running after you.,33,320,20","Colton","reminds me of Salvadore Dali,24,220,20","Michael","Brings about an emotion response of dspair. Loose lines but yet has a cohesion.,8,140,20","10"
"42449","","survey-text","164","1362591","0.0-159.0-0.0","AM7KUJM4MQOBM","","","","{""Q0"":""very well done in detail""}","","","","","","","","","","","","","","","","","","","","","","",""
"3368","","image-slider-response","165","1365967","0.0-160.0","AM7KUJM4MQOBM","","","","","43","","","","","","","","","","","","","","","","","","","","","",""
"4810","","image-button-response","166","1370973","0.0-161.0","AM7KUJM4MQOBM","img_art/15.jpg","2","","","","","","","","","","","","","","","","","","","","","","","","",""
"899","","image-button-response","167","1371879","0.0-162.0","AM7KUJM4MQOBM","img_art/15.jpg","2","","","","","","","","","","","","","","","","","","","","","","","","",""
"1066","","image-button-response","168","1372951","0.0-163.0-0.0","AM7KUJM4MQOBM","img_art/15.jpg","1","","","","","","","","","","","","","","","","","","","","","","","","",""
"5946","","image-button-response","169","1378903","0.0-164.0-0.0","AM7KUJM4MQOBM","img_art/15.jpg","3","","","","","","","","","","","","","","","","","","","","","","","","",""
"null","","html-keyboard-response","170","1379406","0.0-165.0","AM7KUJM4MQOBM","<p style=""font-size: 48px;"">+</p>","","","","","null","allTrialResponses","500","1","17","img_art/15.jpg","43","very well done in detail","Garrett,Colton,Kevin,Dylan,Vincent,Michael","Not enough colors to make it interesting and doesn't look like anything is happening.,-20,180,20","it's alright but a little cluttered,14,220,20","Weird fuzzball bush.,22,320,20","This is sort of ugly, but I do like the design.,10,40,20","I like the colors and the different style This brings,7,360,20","Looks incomplete.,-19,140,20","Kevin","Weird fuzzball bush.,22,320,20","Colton","it's alright but a little cluttered,14,220,20","Dylan","This is sort of ugly, but I do like the design.,10,40,20","10"
"33127","","survey-text","171","1412551","0.0-166.0-0.0","AM7KUJM4MQOBM","","","","{""Q0"":""i would keep in the closet""}","","","","","","","","","","","","","","","","","","","","","","",""
"3394.2999999821186","","image-slider-response","172","1415950","0.0-167.0","AM7KUJM4MQOBM","","","","","-42","","","","","","","","","","","","","","","","","","","","","",""
"3668","","image-button-response","173","1420968","0.0-168.0","AM7KUJM4MQOBM","img_art/28.jpg","1","","","","","","","","","","","","","","","","","","","","","","","","",""
"1559","","image-button-response","174","1422534","0.0-169.0","AM7KUJM4MQOBM","img_art/28.jpg","3","","","","","","","","","","","","","","","","","","","","","","","","",""
"2612","","image-button-response","175","1425150","0.0-170.0-0.0","AM7KUJM4MQOBM","img_art/28.jpg","1","","","","","","","","","","","","","","","","","","","","","","","","",""
"3803","","image-button-response","176","1428959","0.0-171.0-0.0","AM7KUJM4MQOBM","img_art/28.jpg","5","","","","","","","","","","","","","","","","","","","","","","","","",""
"null","","html-keyboard-response","177","1429464","0.0-172.0","AM7KUJM4MQOBM","<p style=""font-size: 48px;"">+</p>","","","","","null","allTrialResponses","500","1","18","img_art/28.jpg","-42","i would keep in the closet","Corey,Colton,Kevin,Dylan,Brett,Evan","i like the neutral color pallette but i dont know what i am looking at,26,260,20","not a fan of the colors or strokes used,-27,220,20","Looks like some guys in s band playing at a busy park.,18,320,20","Boring, looks like it belongs in a coffee shop,-20,40,20","Overpopulated city,35,360,20","It feels very blah,-10,140,20","Dylan","Boring, looks like it belongs in a coffee shop,-20,40,20","Colton","not a fan of the colors or strokes used,-27,220,20","Evan","It feels very blah,-10,140,20","10"
"62558","","survey-text","178","1492037","0.0-173.0-0.0","AM7KUJM4MQOBM","","","","{""Q0"":""i want to like it but i need it to grow on me""}","","","","","","","","","","","","","","","","","","","","","","",""
"5164.9000000059605","","image-slider-response","179","1497208","0.0-174.0","AM7KUJM4MQOBM","","","","","-1","","","","","","","","","","","","","","","","","","","","","",""
"null","","image-button-response","180","1502214","0.0-175.0","AM7KUJM4MQOBM","img_art/7.jpg","null","","","","","","","","","","","","","","","","","","","","","","","","",""
"1094","","image-button-response","181","1503312","0.0-176.0","AM7KUJM4MQOBM","img_art/7.jpg","0","","","","","","","","","","","","","","","","","","","","","","","","",""
"1707","","image-button-response","182","1505023","0.0-177.0-0.0","AM7KUJM4MQOBM","img_art/7.jpg","0","","","","","","","","","","","","","","","","","","","","","","","","",""
"3629","","image-button-response","183","1512338","0.0-177.1-0.1","AM7KUJM4MQOBM","img_art/7.jpg","4","","","","","","","","","","","","","","","","","","","","","","","","",""
"3194","","image-button-response","184","1515538","0.0-178.0-0.0","AM7KUJM4MQOBM","img_art/7.jpg","2","","","","","","","","","","","","","","","","","","","","","","","","",""
"null","","html-keyboard-response","185","1517043","0.0-179.0","AM7KUJM4MQOBM","<p style=""font-size: 48px;"">+</p>","","","","","null","allTrialResponses","1500","1","19","img_art/7.jpg","-1","i want to like it but i need it to grow on me","Spencer,Colton,Alexander,Dylan,Richard,Evan","I love it, it looks like a landscape photograph in desert or rocky mountain,50,120,20","reminds me of a cave wall,-21,220,20","Dead bugs on an insect battleground.,-10,120,20","I do not like the boring colors in this.,-20,40,20","looks like wallpaper,-6,340,20","I feel confused, am I looking at a painting or a close up picture of some sort of fly stone?,-19,140,20","Spencer","I love it, it looks like a landscape photograph in desert or rocky mountain,50,120,20","Richard","looks like wallpaper,-6,340,20","Alexander","Dead bugs on an insect battleground.,-10,120,20","12"
"37182","","survey-text","186","1554238","0.0-180.0-0.0","AM7KUJM4MQOBM","","","","{""Q0"":""it looks sideways but love the blend""}","","","","","","","","","","","","","","","","","","","","","","",""
"3562.5999999940395","","image-slider-response","187","1557805","0.0-181.0","AM7KUJM4MQOBM","","","","","25","","","","","","","","","","","","","","","","","","","","","",""
"3533","","image-button-response","188","1562810","0.0-182.0","AM7KUJM4MQOBM","img_art/13.jpg","0","","","","","","","","","","","","","","","","","","","","","","","","",""
"3155","","image-button-response","189","1565972","0.0-183.0","AM7KUJM4MQOBM","img_art/13.jpg","5","","","","","","","","","","","","","","","","","","","","","","","","",""
"1533","","image-button-response","190","1567510","0.0-184.0-0.0","AM7KUJM4MQOBM","img_art/13.jpg","3","","","","","","","","","","","","","","","","","","","","","","","","",""
"114","","image-button-response","191","1567630","0.0-185.0-0.0","AM7KUJM4MQOBM","img_art/13.jpg","3","","","","","","","","","","","","","","","","","","","","","","","","",""
"2314","","image-button-response","192","1575219","0.0-185.1-0.1","AM7KUJM4MQOBM","img_art/13.jpg","2","","","","","","","","","","","","","","","","","","","","","","","","",""
"null","","html-keyboard-response","193","1575726","0.0-186.0","AM7KUJM4MQOBM","<p style=""font-size: 48px;"">+</p>","","","","","null","allTrialResponses","500","1","20","img_art/13.jpg","25","it looks sideways but love the blend","Spencer,Alex,Alexander,Matthew,Richard,Jesse","Like it a lot, reminds me of rainy day on glass,43,120,20","I like the blue colors and the symmetry and paint splatters but I would not hang it in my house,8,100,20","Seeing the world through different lenses.,15,120,20","AWESOME! Pollack but with more direction.,32,120,20","kind of like the pattern and colors but don't love it,13,340,20","Really like this. Its like looking out a window into a beautiful storm,39,80,20","Jesse","Really like this. Its like looking out a window into a beautiful storm,39,80,20","Matthew","AWESOME! Pollack but with more direction.,32,120,20","Alexander","Seeing the world through different lenses.,15,120,20","14"
"5479","","survey-text","194","1581246","0.0-187.0-0.0","AM7KUJM4MQOBM","","","","{""Q0"":""we""}","","","","","","","","","","","","","","","","","","","","","","",""
"82208","","survey-text","195","1663461","0.0-188.0-0.0","AM7KUJM4MQOBM","","","","{""Q0"":""very old evil ways ,i like""}","","","","","","","","","","","","","","","","","","","","","","",""
"3416.699999988079","","image-slider-response","196","1666886","0.0-189.0","AM7KUJM4MQOBM","","","","","34","","","","","","","","","","","","","","","","","","","","","",""
"2346","","image-button-response","197","1671909","0.0-190.0","AM7KUJM4MQOBM","img_art/8.jpg","0","","","","","","","","","","","","","","","","","","","","","","","","",""
"1033","","image-button-response","198","1672950","0.0-191.0","AM7KUJM4MQOBM","img_art/8.jpg","3","","","","","","","","","","","","","","","","","","","","","","","","",""
"2157","","image-button-response","199","1675112","0.0-192.0-0.0","AM7KUJM4MQOBM","img_art/8.jpg","0","","","","","","","","","","","","","","","","","","","","","","","","",""
"2882","","image-button-response","200","1677998","0.0-193.0-0.0","AM7KUJM4MQOBM","img_art/8.jpg","1","","","","","","","","","","","","","","","","","","","","","","","","",""
"null","","html-keyboard-response","201","1679502","0.0-194.0","AM7KUJM4MQOBM","<p style=""font-size: 48px;"">+</p>","","","","","null","allTrialResponses","1500","1","21","img_art/8.jpg","34","very old evil ways ,i like","Jesus,Cole,Alexander,Matthew,Bryce,Jesse","The different shapes are fun to look for.,30,100,20","Its abstract and interesting,24,200,20","Falling into a city's heart.,10,120,20","Escher? Dali? Could be their lovechild?,50,120,20","Its kinda like an optical illusion.,22,20,20","I like the definition and the strong lines. It makes me think of someone watching over the world,24,80,20","Matthew","Escher? Dali? Could be their lovechild?,50,120,20","Jesus","The different shapes are fun to look for.,30,100,20","Cole","Its abstract and interesting,24,200,20","14"
"33369","","survey-text","202","1712885","0.0-195.0-0.0","AM7KUJM4MQOBM","","","","{""Q0"":""wheres the goldfish""}","","","","","","","","","","","","","","","","","","","","","","",""
"6476","","image-slider-response","203","1719366","0.0-196.0","AM7KUJM4MQOBM","","","","","-50","","","","","","","","","","","","","","","","","","","","","",""
"4364","","image-button-response","204","1724374","0.0-197.0","AM7KUJM4MQOBM","img_art/6.jpg","1","","","","","","","","","","","","","","","","","","","","","","","","",""
"2263","","image-button-response","205","1726647","0.0-198.0","AM7KUJM4MQOBM","img_art/6.jpg","1","","","","","","","","","","","","","","","","","","","","","","","","",""
"2970","","image-button-response","206","1729625","0.0-199.0-0.0","AM7KUJM4MQOBM","img_art/6.jpg","3","","","","","","","","","","","","","","","","","","","","","","","","",""
"2567","","image-button-response","207","1732199","0.0-200.0-0.0","AM7KUJM4MQOBM","img_art/6.jpg","4","","","","","","","","","","","","","","","","","","","","","","","","",""
"null","","html-keyboard-response","208","1732718","0.0-201.0","AM7KUJM4MQOBM","<p style=""font-size: 48px;"">+</p>","","","","","null","allTrialResponses","500","1","22","img_art/6.jpg","-50","wheres the goldfish","Jesus,Cole,Dalton,Matthew,Ethan,Thomas","I enjoy the color contrast.,20,100,20","Close up peach? Hate it,-16,200,20","it looks like a stick holding a wig on a cliff,21,300,20","A lot of people will lvoe this, I do not.,1,120,20","This piece has some emotion of isolation. I like it.,6,120,20","I like the color and the gradient,10,220,20","Cole","Close up peach? Hate it,-16,200,20","Matthew","A lot of people will lvoe this, I do not.,1,120,20","Ethan","This piece has some emotion of isolation. I like it.,6,120,20","14"
"30384","","survey-text","209","1763134","0.0-202.0-0.0","AM7KUJM4MQOBM","","","","{""Q0"":""very elegant ""}","","","","","","","","","","","","","","","","","","","","","","",""
"4424.699999988079","","image-slider-response","210","1767565","0.0-203.0","AM7KUJM4MQOBM","","","","","45","","","","","","","","","","","","","","","","","","","","","",""
"null","","image-button-response","211","1772580","0.0-204.0","AM7KUJM4MQOBM","img_art/24.jpg","null","","","","","","","","","","","","","","","","","","","","","","","","",""
"901","","image-button-response","212","1773488","0.0-205.0","AM7KUJM4MQOBM","img_art/24.jpg","0","","","","","","","","","","","","","","","","","","","","","","","","",""
"1689","","image-button-response","213","1775182","0.0-206.0-0.0","AM7KUJM4MQOBM","img_art/24.jpg","2","","","","","","","","","","","","","","","","","","","","","","","","",""
"1875","","image-button-response","214","1777062","0.0-207.0-0.0","AM7KUJM4MQOBM","img_art/24.jpg","3","","","","","","","","","","","","","","","","","","","","","","","","",""
"null","","html-keyboard-response","215","1777567","0.0-208.0","AM7KUJM4MQOBM","<p style=""font-size: 48px;"">+</p>","","","","","null","allTrialResponses","500","1","23","img_art/24.jpg","45","very elegant ","Mason,Cole,Ian,Matthew,Ethan,Jake","Nature, abstract, I'd hang this in my house.,37,100,20","Abstract waterfall landscape. Confusing,-13,200,20","I find the colors work really well. It's very pretty but I have no idea as what it is.,34,260,20","NOt quite Bob Ross, but still good.,30,120,20","This is sort of interesting. I think it's a bit busy. Less is more.,3,120,20","This looks ugly and simple, as if done by a young person.,-2,360,20","Mason","Nature, abstract, I'd hang this in my house.,37,100,20","Ian","I find the colors work really well. It's very pretty but I have no idea as what it is.,34,260,20","Matthew","NOt quite Bob Ross, but still good.,30,120,20","14"
"32599","","survey-text","216","1810198","0.0-209.0-0.0","AM7KUJM4MQOBM","","","","{""Q0"":""too mixed up looking""}","","","","","","","","","","","","","","","","","","","","","","",""
"3921.9000000059605","","image-slider-response","217","1814125","0.0-210.0","AM7KUJM4MQOBM","","","","","-37","","","","","","","","","","","","","","","","","","","","","",""
"4437","","image-button-response","218","1819130","0.0-211.0","AM7KUJM4MQOBM","img_art/16.jpg","5","","","","","","","","","","","","","","","","","","","","","","","","",""
"2195","","image-button-response","219","1821334","0.0-212.0","AM7KUJM4MQOBM","img_art/16.jpg","0","","","","","","","","","","","","","","","","","","","","","","","","",""
"59","","image-button-response","220","1821397","0.0-213.0-0.0","AM7KUJM4MQOBM","img_art/16.jpg","0","","","","","","","","","","","","","","","","","","","","","","","","",""
"999","","image-button-response","221","1827040","0.0-213.1-0.1","AM7KUJM4MQOBM","img_art/16.jpg","2","","","","","","","","","","","","","","","","","","","","","","","","",""
"80","","image-button-response","222","1827124","0.0-214.0-0.0","AM7KUJM4MQOBM","img_art/16.jpg","2","","","","","","","","","","","","","","","","","","","","","","","","",""
"1438","","image-button-response","223","1832585","0.0-214.1-0.1","AM7KUJM4MQOBM","img_art/16.jpg","1","","","","","","","","","","","","","","","","","","","","","","","","",""
"null","","html-keyboard-response","224","1834089","0.0-215.0","AM7KUJM4MQOBM","<p style=""font-size: 48px;"">+</p>","","","","","null","allTrialResponses","1500","1","24","img_art/16.jpg","-37","too mixed up looking","Mason,Andrew,Ian,Matthew,Peter,Connor","Don't get it. Hate it. ugly.,-44,100,20","It just makes me feel uncomfortable,-25,160,20","This looks like it was made by an art student filled with angst,-30,260,20","A lot fo these could abstract or childrens work.,23,120,20","It's a little unsettling,2,320,20","Not original. Bear is odd,-50,240,20","Mason","Don't get it. Hate it. ugly.,-44,100,20","Ian","This looks like it was made by an art student filled with angst,-30,260,20","Andrew","It just makes me feel uncomfortable,-25,160,20","18"
"69817","","survey-text","225","1903926","0.0-216.0-0.0","AM7KUJM4MQOBM","","","","{""Q0"":""i dislike the white part. but love the rest""}","","","","","","","","","","","","","","","","","","","","","","",""
"4123.0999999940395","","image-slider-response","226","1908055","0.0-217.0","AM7KUJM4MQOBM","","","","","16","","","","","","","","","","","","","","","","","","","","","",""
"3683","","image-button-response","227","1913060","0.0-218.0","AM7KUJM4MQOBM","img_art/23.jpg","4","","","","","","","","","","","","","","","","","","","","","","","","",""
"1022","","image-button-response","228","1914088","0.0-219.0","AM7KUJM4MQOBM","img_art/23.jpg","1","","","","","","","","","","","","","","","","","","","","","","","","",""
"92","","image-button-response","229","1914183","0.0-220.0-0.0","AM7KUJM4MQOBM","img_art/23.jpg","1","","","","","","","","","","","","","","","","","","","","","","","","",""
"1740","","image-button-response","230","1919639","0.0-220.1-0.1","AM7KUJM4MQOBM","img_art/23.jpg","4","","","","","","","","","","","","","","","","","","","","","","","","",""
"2476","","image-button-response","231","1922120","0.0-221.0-0.0","AM7KUJM4MQOBM","img_art/23.jpg","5","","","","","","","","","","","","","","","","","","","","","","","","",""
"null","","html-keyboard-response","232","1923626","0.0-222.0","AM7KUJM4MQOBM","<p style=""font-size: 48px;"">+</p>","","","","","null","allTrialResponses","1500","1","25","img_art/23.jpg","16","i dislike the white part. but love the rest","Mason,Andrew,Ian,Dakota,Jack,Derek","No reactions, childish.,-19,100,20","The color contrast makes me happy,40,160,20","It's very colorful and different, the white looks like people dancing,26,260,20","teeth! dancing people, celebrations,-39,280,20","awesome colors. love the white drawing the eye to the center. oddly comforting.,50,320,20","Very colorful and wild. It's cool and I like it,32,360,20","Andrew","The color contrast makes me happy,40,160,20","Jack","awesome colors. love the white drawing the eye to the center. oddly comforting.,50,320,20","Derek","Very colorful and wild. It's cool and I like it,32,360,20","20"
"8437","","survey-text","233","1932102","0.0-223.0-0.0","AM7KUJM4MQOBM","","","","{""Q0"":""table""}","","","","","","","","","","","","","","","","","","","","","","",""
"49627","","survey-text","234","1981734","0.0-224.0-0.0","AM7KUJM4MQOBM","","","","{""Q0"":""i would like a sharper color to excite me""}","","","","","","","","","","","","","","","","","","","","","","",""
"3563.9000000059605","","image-slider-response","235","1985302","0.0-225.0","AM7KUJM4MQOBM","","","","","-15","","","","","","","","","","","","","","","","","","","","","",""
"4346","","image-button-response","236","1990310","0.0-226.0","AM7KUJM4MQOBM","img_art/10.jpg","2","","","","","","","","","","","","","","","","","","","","","","","","",""
"3370","","image-button-response","237","1993686","0.0-227.0","AM7KUJM4MQOBM","img_art/10.jpg","0","","","","","","","","","","","","","","","","","","","","","","","","",""
"5244","","image-button-response","238","1998935","0.0-228.0-0.0","AM7KUJM4MQOBM","img_art/10.jpg","4","","","","","","","","","","","","","","","","","","","","","","","","",""
"1856","","image-button-response","239","2000798","0.0-229.0-0.0","AM7KUJM4MQOBM","img_art/10.jpg","2","","","","","","","","","","","","","","","","","","","","","","","","",""
"null","","html-keyboard-response","240","2001311","0.0-230.0","AM7KUJM4MQOBM","<p style=""font-size: 48px;"">+</p>","","","","","null","allTrialResponses","500","1","26","img_art/10.jpg","-15","i would like a sharper color to excite me","Bryan,Andrew,Jason,Gregory,Jack,Derek","First impression was musical instrument then, because of the gray colors, death.,5,400,20","Makes me think of the exhilaration of a roller coaster,31,160,20","Picture looks smudged,-7,20,20","Well done designs for being considered abstract,45,220,20","this piece is okay. I wish it was more colorful, but it is certainly intriguing.,23,320,20","Cute and has a vintage feel to it,45,360,20","Bryan","First impression was musical instrument then, because of the gray colors, death.,5,400,20","Jack","this piece is okay. I wish it was more colorful, but it is certainly intriguing.,23,320,20","Jason","Picture looks smudged,-7,20,20","20"
"60672","","survey-text","241","2062006","0.0-231.0-0.0","AM7KUJM4MQOBM","","","","{""Q0"":""overall i cant find nothing i dislike""}","","","","","","","","","","","","","","","","","","","","","","",""
"3444.5999999940395","","image-slider-response","242","2065456","0.0-232.0","AM7KUJM4MQOBM","","","","","49","","","","","","","","","","","","","","","","","","","","","",""
"4162","","image-button-response","243","2070462","0.0-233.0","AM7KUJM4MQOBM","img_art/11.jpg","4","","","","","","","","","","","","","","","","","","","","","","","","",""
"1892","","image-button-response","244","2072358","0.0-234.0","AM7KUJM4MQOBM","img_art/11.jpg","0","","","","","","","","","","","","","","","","","","","","","","","","",""
"3196","","image-button-response","245","2075559","0.0-235.0-0.0","AM7KUJM4MQOBM","img_art/11.jpg","2","","","","","","","","","","","","","","","","","","","","","","","","",""
"3491","","image-button-response","246","2079056","0.0-236.0-0.0","AM7KUJM4MQOBM","img_art/11.jpg","4","","","","","","","","","","","","","","","","","","","","","","","","",""
"null","","html-keyboard-response","247","2080059","0.0-237.0","AM7KUJM4MQOBM","<p style=""font-size: 48px;"">+</p>","","","","","null","allTrialResponses","1000","1","27","img_art/11.jpg","49","overall i cant find nothing i dislike","Bryan,Ryan,Jason,Marcus,Jack,Adam","Rainy asian city scape.,31,400,20","It makes me feel angry and overwhelmed,-29,380,20","Interesting use of color,9,20,20","I like this one very much, especially the shades of gray.,30,60,20","makes me think of city highways & bridges on a rainy, foggy day. I like the melancholy it evokes.,43,320,20","Kind of reminds me of DNA.,9,40,20","Bryan","Rainy asian city scape.,31,400,20","Jason","Interesting use of color,9,20,20","Jack","makes me think of city highways & bridges on a rainy, foggy day. I like the melancholy it evokes.,43,320,20","20"
"43995","","survey-text","248","2124078","0.0-238.0-0.0","AM7KUJM4MQOBM","","","","{""Q0"":""i like the idea but needs brightness""}","","","","","","","","","","","","","","","","","","","","","","",""
"4251.5999999940395","","image-slider-response","249","2128334","0.0-239.0","AM7KUJM4MQOBM","","","","","-13","","","","","","","","","","","","","","","","","","","","","",""
"4314","","image-button-response","250","2133342","0.0-240.0","AM7KUJM4MQOBM","img_art/30.jpg","2","","","","","","","","","","","","","","","","","","","","","","","","",""
"1850","","image-button-response","251","2135200","0.0-241.0","AM7KUJM4MQOBM","img_art/30.jpg","2","","","","","","","","","","","","","","","","","","","","","","","","",""
"1521","","image-button-response","252","2136727","0.0-242.0-0.0","AM7KUJM4MQOBM","img_art/30.jpg","1","","","","","","","","","","","","","","","","","","","","","","","","",""
"1771","","image-button-response","253","2138503","0.0-243.0-0.0","AM7KUJM4MQOBM","img_art/30.jpg","0","","","","","","","","","","","","","","","","","","","","","","","","",""
"null","","html-keyboard-response","254","2139507","0.0-244.0","AM7KUJM4MQOBM","<p style=""font-size: 48px;"">+</p>","","","","","null","allTrialResponses","1000","1","28","img_art/30.jpg","-13","i like the idea but needs brightness","Bryan,Jacob,Jason,Austin,Jack,Luke","A little too dull. Would've liked brighter colors. Also looks washed out.,1,400,20","Looks cool , but no meaning,1,340,20","Do not like the streaks,-14,20,20","Love the bold brush strokes and the illusion it creates,50,240,20","love the movement of the brush strokes. very interesting piece.,38,320,20","the lines and colors look purposeful,18,20,20","Jason","Do not like the streaks,-14,20,20","Jacob","Looks cool , but no meaning,1,340,20","Bryan","A little too dull. Would've liked brighter colors. Also looks washed out.,1,400,20","20"
"59954","","survey-text","255","2199478","0.0-245.0-0.0","AM7KUJM4MQOBM","","","","{""Q0"":""nice shades of gray makes this great""}","","","","","","","","","","","","","","","","","","","","","","",""
"3081.699999988079","","image-slider-response","256","2202565","0.0-246.0","AM7KUJM4MQOBM","","","","","47","","","","","","","","","","","","","","","","","","","","","",""
"3421","","image-button-response","257","2207572","0.0-247.0","AM7KUJM4MQOBM","img_art/29.jpg","3","","","","","","","","","","","","","","","","","","","","","","","","",""
"2127","","image-button-response","258","2209707","0.0-248.0","AM7KUJM4MQOBM","img_art/29.jpg","5","","","","","","","","","","","","","","","","","","","","","","","","",""
"88","","image-button-response","259","2209798","0.0-249.0-0.0","AM7KUJM4MQOBM","img_art/29.jpg","5","","","","","","","","","","","","","","","","","","","","","","","","",""
"892","","image-button-response","260","2213477","0.0-249.1-0.1","AM7KUJM4MQOBM","img_art/29.jpg","3","","","","","","","","","","","","","","","","","","","","","","","","",""
"106","","image-button-response","261","2213589","0.0-250.0-0.0","AM7KUJM4MQOBM","img_art/29.jpg","3","","","","","","","","","","","","","","","","","","","","","","","","",""
"2030","","image-button-response","262","2218502","0.0-250.1-0.1","AM7KUJM4MQOBM","img_art/29.jpg","1","","","","","","","","","","","","","","","","","","","","","","","","",""
"null","","html-keyboard-response","263","2219507","0.0-251.0","AM7KUJM4MQOBM","<p style=""font-size: 48px;"">+</p>","","","","","null","allTrialResponses","1000","1","29","img_art/29.jpg","47","nice shades of gray makes this great","Bryan,Jacob,Jason,Christian,Devin,Mark","Doesn't do much for me. I like some of the colors but not much else.,-10,400,20","It looks cool but I don't really get what's going on, it looks too busy,0,340,20","I do not like the red x present in the picture,-6,20,20","love the texture, i don't know, i just really like it (and the paintbrush adds a nice touch),44,140,20","Looks a bit messy,-13,380,20","Bottomless pit and prison. Feels like its saying time is precious.,11,80,20","Mark","Bottomless pit and prison. Feels like its saying time is precious.,11,80,20","Christian","love the texture, i don't know, i just really like it (and the paintbrush adds a nice touch),44,140,20","Jacob","It looks cool but I don't really get what's going on, it looks too busy,0,340,20","24"
"27772","","survey-text","264","2247297","0.0-252.0-0.0","AM7KUJM4MQOBM","","","","{""Q0"":""blinds me at first glance""}","","","","","","","","","","","","","","","","","","","","","","",""
"5880.299999982119","","image-slider-response","265","2253182","0.0-253.0","AM7KUJM4MQOBM","","","","","-41","","","","","","","","","","","","","","","","","","","","","",""
"4478","","image-button-response","266","2258186","0.0-254.0","AM7KUJM4MQOBM","img_art/17.jpg","0","","","","","","","","","","","","","","","","","","","","","","","","",""
"1927","","image-button-response","267","2260119","0.0-255.0","AM7KUJM4MQOBM","img_art/17.jpg","5","","","","","","","","","","","","","","","","","","","","","","","","",""
"5303","","image-button-response","268","2265431","0.0-256.0-0.0","AM7KUJM4MQOBM","img_art/17.jpg","4","","","","","","","","","","","","","","","","","","","","","","","","",""
"1932","","image-button-response","269","2267367","0.0-257.0-0.0","AM7KUJM4MQOBM","img_art/17.jpg","0","","","","","","","","","","","","","","","","","","","","","","","","",""
"null","","html-keyboard-response","270","2268370","0.0-258.0","AM7KUJM4MQOBM","<p style=""font-size: 48px;"">+</p>","","","","","null","allTrialResponses","1000","1","30","img_art/17.jpg","-41","blinds me at first glance","Joshua,Jacob,Christopher,Christian,Dustin,Mark","Looks like an abandoned building that is being overtaken by nature.,-10,240,20","The way they painted the trees is so cool.,27,340,20","i like the delicate wispy part, but overall i don't love it,10,160,20","tree sprouting out of a box (house) the invasion of nature?,39,140,20","Is it a tree/plant of some sort?  Or, I see hair?  I don't get it. But, the colors are pleasing to me.,1,20,20","A coming storm but I think I would appreciate it more with more contrast.,-12,80,20","Mark","A coming storm but I think I would appreciate it more with more contrast.,-12,80,20","Dustin","Is it a tree/plant of some sort?  Or, I see hair?  I don't get it. But, the colors are pleasing to me.,1,20,20","Joshua","Looks like an abandoned building that is being overtaken by nature.,-10,240,20","24"
"4293","","image-button-response_instructions","271","2272679","0.0-259.0","AM7KUJM4MQOBM","","0","instructions","","","","","","","","","","","","","","","","","","","","","","","",""
"2744","","image-button-response","272","2275437","0.0-260.0","AM7KUJM4MQOBM","","0","","","","","","","","","","","","","","","","","","","","","","","","",""
