"rt","url","trial_type","trial_index","time_elapsed","internal_node_id","participant_id","stimulus","button_pressed","Name","responses","response","key_press","variableName","fixationTime","condition","trial","photo","subjectRating","subjectResponse","agentsNames","agent_1_Response","agent_2_Response","agent_3_Response","agent_4_Response","agent_5_Response","agent_6_Response","kept_1_name","kept_1_response","kept_2_name","kept_2_response","kept_3_name","kept_3_response","errorCounter"
"44676","external_page_harvard.html","external-html","0","44790","0.0-0.0","AMLE1FC3SQVL8","","","","","","","","","","","","","","","","","","","","","","","","","","",""
"1411","","image-button-response","1","46204","0.0-1.0","AMLE1FC3SQVL8","","0","","","","","","","","","","","","","","","","","","","","","","","","",""
"1418","","image-button-response","2","47628","0.0-2.0-0.0","AMLE1FC3SQVL8","","1","phone","","","","","","","","","","","","","","","","","","","","","","","",""
"6023","","survey-text","3","53654","0.0-3.0-0.0","AMLE1FC3SQVL8","","","","{""Q0"":""AMLE1FC3SQVL8""}","","","","","","","","","","","","","","","","","","","","","","",""
"4909","","image-button-response_instructions","4","58566","0.0-4.0","AMLE1FC3SQVL8","","0","instructions","","","","","","","","","","","","","","","","","","","","","","","",""
"8589","","image-button-response_instructions","5","67157","0.0-5.0","AMLE1FC3SQVL8","img_art/ins/popularity/ins1.png","0","instructions","","","","","","","","","","","","","","","","","","","","","","","",""
"4275","","image-button-response_instructions","6","71433","0.0-6.0","AMLE1FC3SQVL8","img_art/ins/popularity/ins2.png","0","instructions","","","","","","","","","","","","","","","","","","","","","","","",""
"3074","","image-button-response_instructions","7","74510","0.0-7.0","AMLE1FC3SQVL8","img_art/ins/popularity/ins2Extreme.png","0","instructions","","","","","","","","","","","","","","","","","","","","","","","",""
"14916","","image-button-response_instructions","8","89428","0.0-8.0","AMLE1FC3SQVL8","img_art/ins/popularity/ins3KEEPpop.PNG","0","instructions","","","","","","","","","","","","","","","","","","","","","","","",""
"3405","","image-button-response_instructions","9","92835","0.0-9.0","AMLE1FC3SQVL8","img_art/ins/popularity/ins3ANamepop.PNG","0","instructions","","","","","","","","","","","","","","","","","","","","","","","",""
"2518","","image-button-response_instructions","10","95354","0.0-10.0","AMLE1FC3SQVL8","img_art/ins/popularity/ins3ARatingpop.png","0","instructions","","","","","","","","","","","","","","","","","","","","","","","",""
"2035","","image-button-response_instructions","11","97389","0.0-11.0","AMLE1FC3SQVL8","img_art/ins/popularity/ins3ATextpop.png","0","instructions","","","","","","","","","","","","","","","","","","","","","","","",""
"3325","","image-button-response_instructions","12","100716","0.0-12.0","AMLE1FC3SQVL8","img_art/ins/popularity/ins3ALikespop.png","0","instructions","","","","","","","","","","","","","","","","","","","","","","","",""
"13330","","image-button-response_instructions","13","114048","0.0-13.0","AMLE1FC3SQVL8","img_art/ins/popularity/ins3KEEPpop.PNG","0","instructions","","","","","","","","","","","","","","","","","","","","","","","",""
"12701","","image-button-response_instructions","14","126751","0.0-14.0","AMLE1FC3SQVL8","img_art/ins/popularity/ins3_5RED.png","0","instructions","","","","","","","","","","","","","","","","","","","","","","","",""
"6760","","image-button-response_instructions","15","133513","0.0-15.0","AMLE1FC3SQVL8","img_art/ins/popularity/ins3KEEPpop.PNG","0","instructions","","","","","","","","","","","","","","","","","","","","","","","",""
"5555","","image-button-response_instructions","16","139069","0.0-16.0","AMLE1FC3SQVL8","img_art/ins/popularity/ins4KEEPpop.PNG","0","instructions","","","","","","","","","","","","","","","","","","","","","","","",""
"2616","","image-button-response_instructions","17","141686","0.0-17.0","AMLE1FC3SQVL8","img_art/ins/popularity/ins5KEEPpop.PNG","0","instructions","","","","","","","","","","","","","","","","","","","","","","","",""
"1465","","image-button-response_instructions","18","143152","0.0-18.0","AMLE1FC3SQVL8","","0","instructions","","","","","","","","","","","","","","","","","","","","","","","",""
"6269","","survey-text","19","149462","0.0-19.0-0.0","AMLE1FC3SQVL8","","","","{""Q0"":""but""}","","","","","","","","","","","","","","","","","","","","","","",""
"15249","","survey-text","20","164713","0.0-20.0-0.0","AMLE1FC3SQVL8","","","","{""Q0"":""very messy but with a purpose""}","","","","","","","","","","","","","","","","","","","","","","",""
"6200.800000071526","","image-slider-response","21","170917","0.0-21.0","AMLE1FC3SQVL8","","","","","18","","","","","","","","","","","","","","","","","","","","","",""
"null","","image-button-response","22","175936","0.0-22.0","AMLE1FC3SQVL8","img_art/ins/1.jpg","null","","","","","","","","","","","","","","","","","","","","","","","","",""
"988","","image-button-response","23","176929","0.0-23.0","AMLE1FC3SQVL8","img_art/ins/1.jpg","5","","","","","","","","","","","","","","","","","","","","","","","","",""
"1259","","image-button-response","24","178192","0.0-24.0-0.0","AMLE1FC3SQVL8","img_art/ins/1.jpg","5","","","","","","","","","","","","","","","","","","","","","","","","",""
"4341","","image-button-response","25","185831","0.0-24.1-0.1","AMLE1FC3SQVL8","img_art/ins/1.jpg","4","","","","","","","","","","","","","","","","","","","","","","","","",""
"5250","","image-button-response","26","191087","0.0-25.0-0.0","AMLE1FC3SQVL8","img_art/ins/1.jpg","3","","","","","","","","","","","","","","","","","","","","","","","","",""
"null","","html-keyboard-response","27","192603","0.0-26.0","AMLE1FC3SQVL8","<p style=""font-size: 48px;"">+</p>","","","","","null","allTrialResponses","1500","1","-2","img_art/ins/1.jpg","18","very messy but with a purpose","Adam,Alex,Ben,Carl,Daniel,Jack","Seems like doodles,-20,20,20","very creative work.,36,40,20","This color reminds me of poo,-46,60,20","very calming artwork,42,80,20","It looks like a murder scene.,-48,100,20","I like the sophisticated brushwork,40,120,20","Jack","I like the sophisticated brushwork,40,120,20","Daniel","It looks like a murder scene.,-48,100,20","Carl","very calming artwork,42,80,20","2"
"25953","","survey-text","28","218576","0.0-27.0-0.0","AMLE1FC3SQVL8","","","","{""Q0"":""I enjoy the brushwork and deep colors""}","","","","","","","","","","","","","","","","","","","","","","",""
"2676.2000000476837","","image-slider-response","29","221255","0.0-28.0","AMLE1FC3SQVL8","","","","","26","","","","","","","","","","","","","","","","","","","","","",""
"3382","","image-button-response","30","226273","0.0-29.0","AMLE1FC3SQVL8","img_art/ins/2.jpg","1","","","","","","","","","","","","","","","","","","","","","","","","",""
"779","","image-button-response","31","227056","0.0-30.0","AMLE1FC3SQVL8","img_art/ins/2.jpg","3","","","","","","","","","","","","","","","","","","","","","","","","",""
"4265","","image-button-response","32","231325","0.0-31.0-0.0","AMLE1FC3SQVL8","img_art/ins/2.jpg","5","","","","","","","","","","","","","","","","","","","","","","","","",""
"1163","","image-button-response","33","232490","0.0-32.0-0.0","AMLE1FC3SQVL8","img_art/ins/2.jpg","1","","","","","","","","","","","","","","","","","","","","","","","","",""
"null","","html-keyboard-response","34","233001","0.0-33.0","AMLE1FC3SQVL8","<p style=""font-size: 48px;"">+</p>","","","","","null","allTrialResponses","500","1","-1","img_art/ins/2.jpg","26","I enjoy the brushwork and deep colors","James,John,Kyle,Carl,Daniel,Jack","looks too angry,-50,140,20","love the texture of paint,48,160,20","Idk, it is just annoying,-32,180,20","I can feel the artist's passion in it,45,80,20","One of my pet peevs,-48,100,20","I would never be able to compose a sophisticated pallete like this,48,120,20","Carl","I can feel the artist's passion in it,45,80,20","Jack","I would never be able to compose a sophisticated pallete like this,48,120,20","John","love the texture of paint,48,160,20","2"
"24510","","survey-text","35","257525","0.0-34.0-0.0","AMLE1FC3SQVL8","","","","{""Q0"":""I love the cool blue colors used""}","","","","","","","","","","","","","","","","","","","","","","",""
"3233.5999999046326","","image-slider-response","36","260761","0.0-35.0","AMLE1FC3SQVL8","","","","","33","","","","","","","","","","","","","","","","","","","","","",""
"4120","","image-button-response","37","265772","0.0-36.0","AMLE1FC3SQVL8","img_art/ins/3.jpg","0","","","","","","","","","","","","","","","","","","","","","","","","",""
"3538","","image-button-response","38","269314","0.0-37.0","AMLE1FC3SQVL8","img_art/ins/3.jpg","0","","","","","","","","","","","","","","","","","","","","","","","","",""
"1387","","image-button-response","39","270704","0.0-38.0-0.0","AMLE1FC3SQVL8","img_art/ins/3.jpg","1","","","","","","","","","","","","","","","","","","","","","","","","",""
"2917","","image-button-response","40","273625","0.0-39.0-0.0","AMLE1FC3SQVL8","img_art/ins/3.jpg","2","","","","","","","","","","","","","","","","","","","","","","","","",""
"null","","html-keyboard-response","41","274139","0.0-40.0","AMLE1FC3SQVL8","<p style=""font-size: 48px;"">+</p>","","","","","null","allTrialResponses","500","1","0","img_art/ins/3.jpg","33","I love the cool blue colors used","Mike,John,Sam,Carl,Ron,Jack","enjoy the different shades of blue,22,200,20","I like the overlapping of brushes,41,160,20","I can feel a rainy day from this painting,18,240,20","It's an alright work,15,80,20","It looks depressing,-26,220,20","I feel connected to the artist,40,120,20","Mike","enjoy the different shades of blue,22,200,20","John","I like the overlapping of brushes,41,160,20","Sam","I can feel a rainy day from this painting,18,240,20","2"
"7127","","image-button-response_instructions","42","281284","0.0-41.0","AMLE1FC3SQVL8","","0","instructions","","","","","","","","","","","","","","","","","","","","","","","",""
"7440","","survey-likert","43","288726","0.0-42.0-0.0","AMLE1FC3SQVL8","","","","{""Q0"":"""",""Q1"":0,""Q2"":1}","","","","","","","","","","","","","","","","","","","","","","",""
"3443","","survey-text","44","292178","0.0-43.0-0.0","AMLE1FC3SQVL8","","","","{""Q0"":""rock""}","","","","","","","","","","","","","","","","","","","","","","",""
"21113","","survey-text","45","313293","0.0-44.0-0.0","AMLE1FC3SQVL8","","","","{""Q0"":""I like the depth of this piece""}","","","","","","","","","","","","","","","","","","","","","","",""
"3286.6999999284744","","image-slider-response","46","316583","0.0-45.0","AMLE1FC3SQVL8","","","","","16","","","","","","","","","","","","","","","","","","","","","",""
"null","","image-button-response","47","321627","0.0-46.0","AMLE1FC3SQVL8","img_art/7.jpg","null","","","","","","","","","","","","","","","","","","","","","","","","",""
"637","","image-button-response","48","322268","0.0-47.0","AMLE1FC3SQVL8","img_art/7.jpg","2","","","","","","","","","","","","","","","","","","","","","","","","",""
"1962","","image-button-response","49","324234","0.0-48.0-0.0","AMLE1FC3SQVL8","img_art/7.jpg","3","","","","","","","","","","","","","","","","","","","","","","","","",""
"1104","","image-button-response","50","325345","0.0-49.0-0.0","AMLE1FC3SQVL8","img_art/7.jpg","5","","","","","","","","","","","","","","","","","","","","","","","","",""
"null","","html-keyboard-response","51","325854","0.0-50.0","AMLE1FC3SQVL8","<p style=""font-size: 48px;"">+</p>","","","","","null","allTrialResponses","500","1","1","img_art/7.jpg","16","I like the depth of this piece","Adrian,Charles,Shane,Chase,Corey,Jonathan","It's dirty. I don't mind the colors so much as the way they are put together in this dirty-looking pattern.,-41,60,20","Looks like a bad picture of a beach,-21,100,20","Dessert like almost like dry land,4,80,20","Just looks like rocks or some kind of mineral.,0,120,20","looks like a close up of irritated skin under a microscope,-49,260,20","Looks like the surface of mars,29,140,20","Shane","Dessert like almost like dry land,4,80,20","Chase","Just looks like rocks or some kind of mineral.,0,120,20","Jonathan","Looks like the surface of mars,29,140,20","2"
"17681","","survey-text","52","343555","0.0-51.0-0.0","AMLE1FC3SQVL8","","","","{""Q0"":""I like the futuristic vibes I'm getting from it""}","","","","","","","","","","","","","","","","","","","","","","",""
"5072.5","","image-slider-response","53","348630","0.0-52.0","AMLE1FC3SQVL8","","","","","37","","","","","","","","","","","","","","","","","","","","","",""
"null","","image-button-response","54","353641","0.0-53.0","AMLE1FC3SQVL8","img_art/30.jpg","null","","","","","","","","","","","","","","","","","","","","","","","","",""
"1341","","image-button-response","55","354986","0.0-54.0","AMLE1FC3SQVL8","img_art/30.jpg","5","","","","","","","","","","","","","","","","","","","","","","","","",""
"3691","","image-button-response","56","358680","0.0-55.0-0.0","AMLE1FC3SQVL8","img_art/30.jpg","2","","","","","","","","","","","","","","","","","","","","","","","","",""
"732","","image-button-response","57","359415","0.0-56.0-0.0","AMLE1FC3SQVL8","img_art/30.jpg","0","","","","","","","","","","","","","","","","","","","","","","","","",""
"null","","html-keyboard-response","58","360430","0.0-57.0","AMLE1FC3SQVL8","<p style=""font-size: 48px;"">+</p>","","","","","null","allTrialResponses","1000","1","2","img_art/30.jpg","37","I like the futuristic vibes I'm getting from it","Cameron,Tristan,Shane,Chase,Travis,Jonathan","Like the color and style,31,60,20","Too much abstraction for me, leaving my focus mainly on color. I like the texture.,-20,300,20","I like the back but the red lines in the front distress me,-7,80,20","Too dark and ugly with all the black smears,-20,120,20","I didn't like this...it looks like someone just finger painted it.,-10,260,20","I like the softness of this but it doesn't make me feel that nice,5,140,20","Jonathan","I like the softness of this but it doesn't make me feel that nice,5,140,20","Shane","I like the back but the red lines in the front distress me,-7,80,20","Cameron","Like the color and style,31,60,20","2"
"13152","","survey-text","59","373600","0.0-58.0-0.0","AMLE1FC3SQVL8","","","","{""Q0"":""too chaotic for my tastes""}","","","","","","","","","","","","","","","","","","","","","","",""
"3897","","image-slider-response","60","377499","0.0-59.0","AMLE1FC3SQVL8","","","","","-10","","","","","","","","","","","","","","","","","","","","","",""
"null","","image-button-response","61","382514","0.0-60.0","AMLE1FC3SQVL8","img_art/28.jpg","null","","","","","","","","","","","","","","","","","","","","","","","","",""
"1339","","image-button-response","62","383858","0.0-61.0","AMLE1FC3SQVL8","img_art/28.jpg","5","","","","","","","","","","","","","","","","","","","","","","","","",""
"3350","","image-button-response","63","387210","0.0-62.0-0.0","AMLE1FC3SQVL8","img_art/28.jpg","2","","","","","","","","","","","","","","","","","","","","","","","","",""
"553","","image-button-response","64","387766","0.0-63.0-0.0","AMLE1FC3SQVL8","img_art/28.jpg","1","","","","","","","","","","","","","","","","","","","","","","","","",""
"null","","html-keyboard-response","65","388782","0.0-64.0","AMLE1FC3SQVL8","<p style=""font-size: 48px;"">+</p>","","","","","null","allTrialResponses","1000","1","3","img_art/28.jpg","-10","too chaotic for my tastes","Cameron,Jesus,Shane,Sean,Trevor,Jonathan","dislike the colors. it looks like a bike, but misshapen wheels like it was wrecked.,-10,60,20","The muted tones aren't my favorite.,-10,100,20","This is also something I would see in a serious but safe environment,14,80,20","it looks alright,-1,40,20","very blah colors and it's not fun,-27,280,20","The lack of color variance leaves it looking ugly even if I like the brush strokes,-10,140,20","Jonathan","The lack of color variance leaves it looking ugly even if I like the brush strokes,-10,140,20","Shane","This is also something I would see in a serious but safe environment,14,80,20","Jesus","The muted tones aren't my favorite.,-10,100,20","2"
"22812","","survey-text","66","411623","0.0-65.0-0.0","AMLE1FC3SQVL8","","","","{""Q0"":""messy but I can't help but enjoy how the colors blend""}","","","","","","","","","","","","","","","","","","","","","","",""
"3871","","image-slider-response","67","415496","0.0-66.0","AMLE1FC3SQVL8","","","","","26","","","","","","","","","","","","","","","","","","","","","",""
"4929","","image-button-response","68","420504","0.0-67.0","AMLE1FC3SQVL8","img_art/2.jpg","4","","","","","","","","","","","","","","","","","","","","","","","","",""
"1249","","image-button-response","69","421757","0.0-68.0","AMLE1FC3SQVL8","img_art/2.jpg","5","","","","","","","","","","","","","","","","","","","","","","","","",""
"1242","","image-button-response","70","423002","0.0-69.0-0.0","AMLE1FC3SQVL8","img_art/2.jpg","2","","","","","","","","","","","","","","","","","","","","","","","","",""
"2222","","image-button-response","71","425227","0.0-70.0-0.0","AMLE1FC3SQVL8","img_art/2.jpg","0","","","","","","","","","","","","","","","","","","","","","","","","",""
"null","","html-keyboard-response","72","426229","0.0-71.0","AMLE1FC3SQVL8","<p style=""font-size: 48px;"">+</p>","","","","","null","allTrialResponses","1000","1","4","img_art/2.jpg","26","messy but I can't help but enjoy how the colors blend","Carlos,Jesus,Shane,Colton,Shawn,Jonathan","The colors are soothing, but the composition feels thoughtless.,-11,80,20","Muted green is overpowering,-10,100,20","Feels like a playground or park vibe,27,80,20","too blocky and don't like color combination,-32,220,20","The color choices and lines seem a bit sloppy?,-10,100,20","It's a cool piece but honestly these color choices are the worst thing in the world,-31,140,20","Jonathan","It's a cool piece but honestly these color choices are the worst thing in the world,-31,140,20","Shane","Feels like a playground or park vibe,27,80,20","Carlos","The colors are soothing, but the composition feels thoughtless.,-11,80,20","2"
"46813","","survey-text","73","473060","0.0-72.0-0.0","AMLE1FC3SQVL8","","","","{""Q0"":""the white in the middle stands out to me in a negative way""}","","","","","","","","","","","","","","","","","","","","","","",""
"3751.7000000476837","","image-slider-response","74","476815","0.0-73.0","AMLE1FC3SQVL8","","","","","-15","","","","","","","","","","","","","","","","","","","","","",""
"null","","image-button-response","75","481829","0.0-74.0","AMLE1FC3SQVL8","img_art/24.jpg","null","","","","","","","","","","","","","","","","","","","","","","","","",""
"1699","","image-button-response","76","483532","0.0-75.0","AMLE1FC3SQVL8","img_art/24.jpg","5","","","","","","","","","","","","","","","","","","","","","","","","",""
"1880","","image-button-response","77","485414","0.0-76.0-0.0","AMLE1FC3SQVL8","img_art/24.jpg","4","","","","","","","","","","","","","","","","","","","","","","","","",""
"921","","image-button-response","78","486338","0.0-77.0-0.0","AMLE1FC3SQVL8","img_art/24.jpg","0","","","","","","","","","","","","","","","","","","","","","","","","",""
"null","","html-keyboard-response","79","487856","0.0-78.0","AMLE1FC3SQVL8","<p style=""font-size: 48px;"">+</p>","","","","","null","allTrialResponses","1500","1","5","img_art/24.jpg","-15","the white in the middle stands out to me in a negative way","Carlos,Elijah,Shane,Mitchell,Adam,Jonathan","It is like a really bad impressionist painting.,-40,80,20","Like it, nice attention to details,31,80,20","A peaceful day by the river,42,80,20","Nature, Peace, connected.,50,180,20","I appreciate the earth tones. Soothing.,5,40,20","The colors and brush strokes make it feel adventurous,20,140,20","Jonathan","The colors and brush strokes make it feel adventurous,20,140,20","Adam","I appreciate the earth tones. Soothing.,5,40,20","Carlos","It is like a really bad impressionist painting.,-40,80,20","2"
"3819","","survey-text","80","491709","0.0-79.0-0.0","AMLE1FC3SQVL8","","","","{""Q0"":""sky""}","","","","","","","","","","","","","","","","","","","","","","",""
"47195","","survey-text","81","538906","0.0-80.0-0.0","AMLE1FC3SQVL8","","","","{""Q0"":""I love the layout and the colors. Lots of details but not too specific.""}","","","","","","","","","","","","","","","","","","","","","","",""
"2723.100000023842","","image-slider-response","82","541632","0.0-81.0","AMLE1FC3SQVL8","","","","","29","","","","","","","","","","","","","","","","","","","","","",""
"null","","image-button-response","83","546645","0.0-82.0","AMLE1FC3SQVL8","img_art/19.jpg","null","","","","","","","","","","","","","","","","","","","","","","","","",""
"758","","image-button-response","84","547407","0.0-83.0","AMLE1FC3SQVL8","img_art/19.jpg","1","","","","","","","","","","","","","","","","","","","","","","","","",""
"2587","","image-button-response","85","549995","0.0-84.0-0.0","AMLE1FC3SQVL8","img_art/19.jpg","3","","","","","","","","","","","","","","","","","","","","","","","","",""
"2775","","image-button-response","86","552774","0.0-85.0-0.0","AMLE1FC3SQVL8","img_art/19.jpg","5","","","","","","","","","","","","","","","","","","","","","","","","",""
"null","","html-keyboard-response","87","553791","0.0-86.0","AMLE1FC3SQVL8","<p style=""font-size: 48px;"">+</p>","","","","","null","allTrialResponses","1000","1","6","img_art/19.jpg","29","I love the layout and the colors. Lots of details but not too specific.","Carlos,Logan,Connor,Malik,Adam,Jonathan","I like the watercolor and colors, do not like the deconstructed city scene feel.,0,80,20","this flow I just really like how everything blends but also doesn't,45,360,20","Childish music hall,-20,240,20","Very dreamlike,26,40,20","Messy mix of colors.,-5,40,20","Feels like something I would hang in my dining room,42,140,20","Logan","this flow I just really like how everything blends but also doesn't,45,360,20","Malik","Very dreamlike,26,40,20","Jonathan","Feels like something I would hang in my dining room,42,140,20","2"
"25350","","survey-text","88","579164","0.0-87.0-0.0","AMLE1FC3SQVL8","","","","{""Q0"":""I enjoy the faces and the angles. Lots to unpack here.""}","","","","","","","","","","","","","","","","","","","","","","",""
"6394.799999952316","","image-slider-response","89","585563","0.0-88.0","AMLE1FC3SQVL8","","","","","36","","","","","","","","","","","","","","","","","","","","","",""
"4928","","image-button-response","90","590571","0.0-89.0","AMLE1FC3SQVL8","img_art/8.jpg","2","","","","","","","","","","","","","","","","","","","","","","","","",""
"2016","","image-button-response","91","592592","0.0-90.0","AMLE1FC3SQVL8","img_art/8.jpg","5","","","","","","","","","","","","","","","","","","","","","","","","",""
"985","","image-button-response","92","593579","0.0-91.0-0.0","AMLE1FC3SQVL8","img_art/8.jpg","2","","","","","","","","","","","","","","","","","","","","","","","","",""
"785","","image-button-response","93","594367","0.0-92.0-0.0","AMLE1FC3SQVL8","img_art/8.jpg","0","","","","","","","","","","","","","","","","","","","","","","","","",""
"null","","html-keyboard-response","94","594871","0.0-93.0","AMLE1FC3SQVL8","<p style=""font-size: 48px;"">+</p>","","","","","null","allTrialResponses","500","1","7","img_art/8.jpg","36","I enjoy the faces and the angles. Lots to unpack here.","Vincent,Logan,Alexis,Malik,Jake,Jonathan","This speaks volumes to me and is another favorite I'm sure by many,40,360,20","a cute little cute with some protectors,25,360,20","I like that it sort of looks like a cityscape,9,140,20","Striking, but not my taste,20,40,20","It's a poor rendition of an MC Escher inspired piece.,-25,360,20","It's very grand and ominous but I like it,25,140,20","Jonathan","It's very grand and ominous but I like it,25,140,20","Alexis","I like that it sort of looks like a cityscape,9,140,20","Vincent","This speaks volumes to me and is another favorite I'm sure by many,40,360,20","2"
"33838","","survey-text","95","628733","0.0-94.0-0.0","AMLE1FC3SQVL8","","","","{""Q0"":""looks better the more time I spend looking at it, good use of blue""}","","","","","","","","","","","","","","","","","","","","","","",""
"2765.5999999046326","","image-slider-response","96","631501","0.0-95.0","AMLE1FC3SQVL8","","","","","16","","","","","","","","","","","","","","","","","","","","","",""
"null","","image-button-response","97","636515","0.0-96.0","AMLE1FC3SQVL8","img_art/15.jpg","null","","","","","","","","","","","","","","","","","","","","","","","","",""
"481","","image-button-response","98","637000","0.0-97.0","AMLE1FC3SQVL8","img_art/15.jpg","3","","","","","","","","","","","","","","","","","","","","","","","","",""
"2453","","image-button-response","99","639456","0.0-98.0-0.0","AMLE1FC3SQVL8","img_art/15.jpg","4","","","","","","","","","","","","","","","","","","","","","","","","",""
"706","","image-button-response","100","640165","0.0-99.0-0.0","AMLE1FC3SQVL8","img_art/15.jpg","0","","","","","","","","","","","","","","","","","","","","","","","","",""
"null","","html-keyboard-response","101","641178","0.0-100.0","AMLE1FC3SQVL8","<p style=""font-size: 48px;"">+</p>","","","","","null","allTrialResponses","1000","1","8","img_art/15.jpg","16","looks better the more time I spend looking at it, good use of blue","Vincent,Patrick,Alexis,Ian,Luis,Jonathan","I like the colors and the different style This brings,7,360,20","I don't like the black dots,-19,280,20","it is dark and gloomy,-9,140,20","This gives a skin crawling feeling. Like something that you could see under a mircoscope,10,260,20","Extreme darkness and sadness,-30,400,20","Very cool, i want it in my living room,50,140,20","Ian","This gives a skin crawling feeling. Like something that you could see under a mircoscope,10,260,20","Luis","Extreme darkness and sadness,-30,400,20","Vincent","I like the colors and the different style This brings,7,360,20","2"
"17018","","survey-text","102","658223","0.0-101.0-0.0","AMLE1FC3SQVL8","","","","{""Q0"":""teddy bear just feels so out of place for me""}","","","","","","","","","","","","","","","","","","","","","","",""
"2462.600000023842","","image-slider-response","103","660688","0.0-102.0","AMLE1FC3SQVL8","","","","","-18","","","","","","","","","","","","","","","","","","","","","",""
"null","","image-button-response","104","665707","0.0-103.0","AMLE1FC3SQVL8","img_art/16.jpg","null","","","","","","","","","","","","","","","","","","","","","","","","",""
"1415","","image-button-response","105","667126","0.0-104.0","AMLE1FC3SQVL8","img_art/16.jpg","2","","","","","","","","","","","","","","","","","","","","","","","","",""
"959","","image-button-response","106","668087","0.0-105.0-0.0","AMLE1FC3SQVL8","img_art/16.jpg","5","","","","","","","","","","","","","","","","","","","","","","","","",""
"3743","","image-button-response","107","671832","0.0-106.0-0.0","AMLE1FC3SQVL8","img_art/16.jpg","0","","","","","","","","","","","","","","","","","","","","","","","","",""
"null","","html-keyboard-response","108","672338","0.0-107.0","AMLE1FC3SQVL8","<p style=""font-size: 48px;"">+</p>","","","","","null","allTrialResponses","500","1","9","img_art/16.jpg","-18","teddy bear just feels so out of place for me","Vincent,Christian,Luke,Ian,Luis,Victor","Toys toys toys. Happy playful free spirit,30,360,20","don't know how to feel, I mean I respect it but I honestly don't know about this,-12,140,20","while simple, it seems to have a deeper meaning on childhood,33,20,20","This looks like it was made by an art student filled with angst,-30,260,20","Kind of an edgy teenager vibe,32,400,20","I don't know why, I just don't like it,-28,340,20","Luke","while simple, it seems to have a deeper meaning on childhood,33,20,20","Victor","I don't know why, I just don't like it,-28,340,20","Vincent","Toys toys toys. Happy playful free spirit,30,360,20","2"
"26086","","survey-text","109","698448","0.0-108.0-0.0","AMLE1FC3SQVL8","","","","{""Q0"":""I like the depth and the colors here are so fresh to me""}","","","","","","","","","","","","","","","","","","","","","","",""
"3416.0999999046326","","image-slider-response","110","701870","0.0-109.0","AMLE1FC3SQVL8","","","","","20","","","","","","","","","","","","","","","","","","","","","",""
"null","","image-button-response","111","706881","0.0-110.0","AMLE1FC3SQVL8","img_art/9.jpg","null","","","","","","","","","","","","","","","","","","","","","","","","",""
"2262","","image-button-response","112","709147","0.0-111.0","AMLE1FC3SQVL8","img_art/9.jpg","3","","","","","","","","","","","","","","","","","","","","","","","","",""
"2520","","image-button-response","113","711670","0.0-112.0-0.0","AMLE1FC3SQVL8","img_art/9.jpg","4","","","","","","","","","","","","","","","","","","","","","","","","",""
"2542","","image-button-response","114","714215","0.0-113.0-0.0","AMLE1FC3SQVL8","img_art/9.jpg","2","","","","","","","","","","","","","","","","","","","","","","","","",""
"null","","html-keyboard-response","115","715730","0.0-114.0","AMLE1FC3SQVL8","<p style=""font-size: 48px;"">+</p>","","","","","null","allTrialResponses","1500","1","10","img_art/9.jpg","20","I like the depth and the colors here are so fresh to me","Vincent,Kevin,Luke,Brandon,Alejandro,Victor","This speaks to me like a personalities and sides and not all are nice,19,360,20","This is a picture of a scary mans head sideways.,-24,320,20","it makes me feel excited and draws my eye around,24,20,20","I like the sense of forboding, the green creates a claustrophobic feeling,10,320,20","Evokes triumph of a mountain over powering a drowning sea,24,80,20","The colors are okay, but this looks like someone scribbled with a crayon,1,340,20","Brandon","I like the sense of forboding, the green creates a claustrophobic feeling,10,320,20","Alejandro","Evokes triumph of a mountain over powering a drowning sea,24,80,20","Luke","it makes me feel excited and draws my eye around,24,20,20","2"
"3368","","survey-text","116","719146","0.0-115.0-0.0","AMLE1FC3SQVL8","","","","{""Q0"":""our""}","","","","","","","","","","","","","","","","","","","","","","",""
"33271","","survey-text","117","752420","0.0-116.0-0.0","AMLE1FC3SQVL8","","","","{""Q0"":""looks messy at first but the colors are used well and make it work""}","","","","","","","","","","","","","","","","","","","","","","",""
"2479","","image-slider-response","118","754902","0.0-117.0","AMLE1FC3SQVL8","","","","","25","","","","","","","","","","","","","","","","","","","","","",""
"null","","image-button-response","119","759911","0.0-118.0","AMLE1FC3SQVL8","img_art/18.jpg","null","","","","","","","","","","","","","","","","","","","","","","","","",""
"62","","image-button-response","120","759975","0.0-119.0","AMLE1FC3SQVL8","img_art/18.jpg","1","","","","","","","","","","","","","","","","","","","","","","","","",""
"6070","","image-button-response","121","766047","0.0-120.0-0.0","AMLE1FC3SQVL8","img_art/18.jpg","4","","","","","","","","","","","","","","","","","","","","","","","","",""
"1673","","image-button-response","122","767723","0.0-121.0-0.0","AMLE1FC3SQVL8","img_art/18.jpg","3","","","","","","","","","","","","","","","","","","","","","","","","",""
"null","","html-keyboard-response","123","768730","0.0-122.0","AMLE1FC3SQVL8","<p style=""font-size: 48px;"">+</p>","","","","","null","allTrialResponses","1000","1","11","img_art/18.jpg","25","looks messy at first but the colors are used well and make it work","Kyle,Noah,Luke,Brandon,Alejandro,Jacob","I feel indifferent about this one,0,340,20","enjoy the juxtaposition of abstract with tangible elements & the use of color,10,260,20","the harsh lines with the smooth lines makes me think of wild animals,20,20,20","Crusade-feel, but a little too abstract for my taste,23,320,20","I love this because abstractly depicts the apocalypse. The white horse and its rider as Death, described in religious texts and pop culture. ""He rode a pale horse and his name was death."",50,80,20","I think this looks pretty cool, I can see what's kind of going on here.,22,340,20","Noah","enjoy the juxtaposition of abstract with tangible elements & the use of color,10,260,20","Alejandro","I love this because abstractly depicts the apocalypse. The white horse and its rider as Death, described in religious texts and pop culture. ""He rode a pale horse and his name was death."",50,80,20","Brandon","Crusade-feel, but a little too abstract for my taste,23,320,20","2"
"66118","","survey-text","124","834875","0.0-123.0-0.0","AMLE1FC3SQVL8","","","","{""Q0"":""I like the colors used but this piece doesn't really flow for me""}","","","","","","","","","","","","","","","","","","","","","","",""
"3449.7000000476837","","image-slider-response","125","838327","0.0-124.0","AMLE1FC3SQVL8","","","","","-12","","","","","","","","","","","","","","","","","","","","","",""
"null","","image-button-response","126","843333","0.0-125.0","AMLE1FC3SQVL8","img_art/12.jpg","null","","","","","","","","","","","","","","","","","","","","","","","","",""
"1337","","image-button-response","127","844674","0.0-126.0","AMLE1FC3SQVL8","img_art/12.jpg","4","","","","","","","","","","","","","","","","","","","","","","","","",""
"4024","","image-button-response","128","848701","0.0-127.0-0.0","AMLE1FC3SQVL8","img_art/12.jpg","5","","","","","","","","","","","","","","","","","","","","","","","","",""
"2121","","image-button-response","129","850824","0.0-128.0-0.0","AMLE1FC3SQVL8","img_art/12.jpg","2","","","","","","","","","","","","","","","","","","","","","","","","",""
"null","","html-keyboard-response","130","851341","0.0-129.0","AMLE1FC3SQVL8","<p style=""font-size: 48px;"">+</p>","","","","","null","allTrialResponses","500","1","12","img_art/12.jpg","-12","I like the colors used but this piece doesn't really flow for me","Peter,Noah,Garrett,Brandon,Alejandro,Seth","Reminds me Early 2000's decor, don't favor it,-10,320,20","evokes the 80s, and not in a necessarily good way,-10,260,20","This image doesn't have anything going on. The top half is really ugly, I kind of like the bottom a little.,-20,180,20","I like the cubic feel.,11,320,20","I like the sectioned nature of the squares and curves. Not my favorite but still a good one.,27,80,20","This is beautiful. It looks like 1,000 different sunrises and sunsets.,44,60,20","Alejandro","I like the sectioned nature of the squares and curves. Not my favorite but still a good one.,27,80,20","Seth","This is beautiful. It looks like 1,000 different sunrises and sunsets.,44,60,20","Garrett","This image doesn't have anything going on. The top half is really ugly, I kind of like the bottom a little.,-20,180,20","2"
"21158","","survey-text","131","872531","0.0-130.0-0.0","AMLE1FC3SQVL8","","","","{""Q0"":""simple but the colors really catch your eye""}","","","","","","","","","","","","","","","","","","","","","","",""
"3666.100000023842","","image-slider-response","132","876200","0.0-131.0","AMLE1FC3SQVL8","","","","","40","","","","","","","","","","","","","","","","","","","","","",""
"null","","image-button-response","133","881218","0.0-132.0","AMLE1FC3SQVL8","img_art/4.jpg","null","","","","","","","","","","","","","","","","","","","","","","","","",""
"1011","","image-button-response","134","882234","0.0-133.0","AMLE1FC3SQVL8","img_art/4.jpg","4","","","","","","","","","","","","","","","","","","","","","","","","",""
"3603","","image-button-response","135","885840","0.0-134.0-0.0","AMLE1FC3SQVL8","img_art/4.jpg","5","","","","","","","","","","","","","","","","","","","","","","","","",""
"6487","","image-button-response","136","892331","0.0-135.0-0.0","AMLE1FC3SQVL8","img_art/4.jpg","2","","","","","","","","","","","","","","","","","","","","","","","","",""
"null","","html-keyboard-response","137","893349","0.0-136.0","AMLE1FC3SQVL8","<p style=""font-size: 48px;"">+</p>","","","","","null","allTrialResponses","1000","1","13","img_art/4.jpg","40","simple but the colors really catch your eye","Brendan,Thomas,Garrett,Mason,Alejandro,Seth","just a scuffed hand,-15,340,20","This image doesn't invoke anything in me,-9,220,20","I think that this picture is too boring in terms of color and it looks ugly.,-41,180,20","ordinary, bland. unmoving.,-6,100,20","Looks like finger nails from the Guinness world record book.,-30,80,20","Odd but intriguing. I feel emotion from this. Like a woman bent over carrying these emotions on her back.,33,60,20","Alejandro","Looks like finger nails from the Guinness world record book.,-30,80,20","Seth","Odd but intriguing. I feel emotion from this. Like a woman bent over carrying these emotions on her back.,33,60,20","Garrett","I think that this picture is too boring in terms of color and it looks ugly.,-41,180,20","2"
"27453","","survey-text","138","920830","0.0-137.0-0.0","AMLE1FC3SQVL8","","","","{""Q0"":""very simple but calming piece""}","","","","","","","","","","","","","","","","","","","","","","",""
"2615.5","","image-slider-response","139","923448","0.0-138.0","AMLE1FC3SQVL8","","","","","25","","","","","","","","","","","","","","","","","","","","","",""
"null","","image-button-response","140","928466","0.0-139.0","AMLE1FC3SQVL8","img_art/6.jpg","null","","","","","","","","","","","","","","","","","","","","","","","","",""
"602","","image-button-response","141","929074","0.0-140.0","AMLE1FC3SQVL8","img_art/6.jpg","4","","","","","","","","","","","","","","","","","","","","","","","","",""
"1282","","image-button-response","142","930365","0.0-141.0-0.0","AMLE1FC3SQVL8","img_art/6.jpg","5","","","","","","","","","","","","","","","","","","","","","","","","",""
"1349","","image-button-response","143","931717","0.0-142.0-0.0","AMLE1FC3SQVL8","img_art/6.jpg","1","","","","","","","","","","","","","","","","","","","","","","","","",""
"null","","html-keyboard-response","144","933228","0.0-143.0","AMLE1FC3SQVL8","<p style=""font-size: 48px;"">+</p>","","","","","null","allTrialResponses","1500","1","14","img_art/6.jpg","25","very simple but calming piece","Dakota,Jared,Garrett,Scott,Alejandro,Seth","graceful and light,35,280,20","simplistic. i love orange and green and i love the subject,50,400,20","I can't tell what this image is, but it's boring because of lack of color variety and nothing in it,-41,180,20","reminds me of a bird,31,20,20","Gives me a feeling of solitude and nothingness,11,80,20","I love it. It reminds me of a bird sitting on a wall.,26,60,20","Alejandro","Gives me a feeling of solitude and nothingness,11,80,20","Seth","I love it. It reminds me of a bird sitting on a wall.,26,60,20","Jared","simplistic. i love orange and green and i love the subject,50,400,20","2"
"33833","","survey-text","145","967079","0.0-144.0-0.0","AMLE1FC3SQVL8","","","","{""Q0"":""the green is soothing and make the figure seem welcoming""}","","","","","","","","","","","","","","","","","","","","","","",""
"4165.100000023842","","image-slider-response","146","971247","0.0-145.0","AMLE1FC3SQVL8","","","","","32","","","","","","","","","","","","","","","","","","","","","",""
"3753","","image-button-response","147","976265","0.0-146.0","AMLE1FC3SQVL8","img_art/25.jpg","1","","","","","","","","","","","","","","","","","","","","","","","","",""
"1201","","image-button-response","148","977470","0.0-147.0","AMLE1FC3SQVL8","img_art/25.jpg","4","","","","","","","","","","","","","","","","","","","","","","","","",""
"565","","image-button-response","149","978039","0.0-148.0-0.0","AMLE1FC3SQVL8","img_art/25.jpg","5","","","","","","","","","","","","","","","","","","","","","","","","",""
"617","","image-button-response","150","978661","0.0-149.0-0.0","AMLE1FC3SQVL8","img_art/25.jpg","1","","","","","","","","","","","","","","","","","","","","","","","","",""
"null","","html-keyboard-response","151","980178","0.0-150.0","AMLE1FC3SQVL8","<p style=""font-size: 48px;"">+</p>","","","","","null","allTrialResponses","1500","1","15","img_art/25.jpg","32","the green is soothing and make the figure seem welcoming","Gabriel,Jared,Paul,Michael,Alejandro,Seth","quite unnerving,-15,160,20","the green is serene. the figure is scare crow like,7,400,20","The skeletal figure is a bit scary,-12,300,20","Low skill not impressed.,-14,140,20","Seems ritualistic and nativist,50,80,20","This piece feels cultural. Like it represents something culturally.,22,60,20","Alejandro","Seems ritualistic and nativist,50,80,20","Seth","This piece feels cultural. Like it represents something culturally.,22,60,20","Jared","the green is serene. the figure is scare crow like,7,400,20","2"
"5220","","survey-text","152","985451","0.0-151.0-0.0","AMLE1FC3SQVL8","","","","{""Q0"":""course""}","","","","","","","","","","","","","","","","","","","","","","",""
"28364","","survey-text","153","1013818","0.0-152.0-0.0","AMLE1FC3SQVL8","","","","{""Q0"":""the contrasting colors all have a role and evoke passion""}","","","","","","","","","","","","","","","","","","","","","","",""
"2930","","image-slider-response","154","1016750","0.0-153.0","AMLE1FC3SQVL8","","","","","20","","","","","","","","","","","","","","","","","","","","","",""
"4873","","image-button-response","155","1021769","0.0-154.0","AMLE1FC3SQVL8","img_art/21.jpg","4","","","","","","","","","","","","","","","","","","","","","","","","",""
"763","","image-button-response","156","1022534","0.0-155.0","AMLE1FC3SQVL8","img_art/21.jpg","1","","","","","","","","","","","","","","","","","","","","","","","","",""
"698","","image-button-response","157","1023235","0.0-156.0-0.0","AMLE1FC3SQVL8","img_art/21.jpg","4","","","","","","","","","","","","","","","","","","","","","","","","",""
"3116","","image-button-response","158","1026355","0.0-157.0-0.0","AMLE1FC3SQVL8","img_art/21.jpg","5","","","","","","","","","","","","","","","","","","","","","","","","",""
"null","","html-keyboard-response","159","1027363","0.0-158.0","AMLE1FC3SQVL8","<p style=""font-size: 48px;"">+</p>","","","","","null","allTrialResponses","1000","1","16","img_art/21.jpg","20","the contrasting colors all have a role and evoke passion","James,Jared,Stephen,Austin,Alejandro,Seth","Don't really lean either way.,1,380,20","i like the way the colors divide the canvas.,16,400,20","Don't see anything special about it,-21,140,20","Touches the heart,50,240,20","Feels like a clash between land and sea,31,80,20","Makes me feel light and airy. Like I've gone back in time to 1700th century France.,43,60,20","Jared","i like the way the colors divide the canvas.,16,400,20","Alejandro","Feels like a clash between land and sea,31,80,20","Seth","Makes me feel light and airy. Like I've gone back in time to 1700th century France.,43,60,20","2"
"34374","","survey-text","160","1061770","0.0-159.0-0.0","AMLE1FC3SQVL8","","","","{""Q0"":""love the contrast between the top and bottom halves, each show different emotion levels""}","","","","","","","","","","","","","","","","","","","","","","",""
"2659.4000000953674","","image-slider-response","161","1064432","0.0-160.0","AMLE1FC3SQVL8","","","","","32","","","","","","","","","","","","","","","","","","","","","",""
"null","","image-button-response","162","1069447","0.0-161.0","AMLE1FC3SQVL8","img_art/17.jpg","null","","","","","","","","","","","","","","","","","","","","","","","","",""
"1203","","image-button-response","163","1070654","0.0-162.0","AMLE1FC3SQVL8","img_art/17.jpg","5","","","","","","","","","","","","","","","","","","","","","","","","",""
"4159","","image-button-response","164","1074816","0.0-163.0-0.0","AMLE1FC3SQVL8","img_art/17.jpg","2","","","","","","","","","","","","","","","","","","","","","","","","",""
"3197","","image-button-response","165","1078016","0.0-164.0-0.0","AMLE1FC3SQVL8","img_art/17.jpg","4","","","","","","","","","","","","","","","","","","","","","","","","",""
"null","","html-keyboard-response","166","1079028","0.0-165.0","AMLE1FC3SQVL8","<p style=""font-size: 48px;"">+</p>","","","","","null","allTrialResponses","1000","1","17","img_art/17.jpg","32","love the contrast between the top and bottom halves, each show different emotion levels","Anthony,Jared,Derek,Lucas,Alejandro,Seth","Very elegant, this design reminds me of trees,31,200,20","the colors, the arch and the wall,15,400,20","The colors are beautiful and the painting itself is magnificent,50,360,20","Wow, I haven't seen anything better than this.,40,380,20","Embodies beauty and complexity and in simplicity as well,50,80,20","I really enjoyed this piece, it's a play on bringing the outside indoors.,32,60,20","Seth","I really enjoyed this piece, it's a play on bringing the outside indoors.,32,60,20","Derek","The colors are beautiful and the painting itself is magnificent,50,360,20","Alejandro","Embodies beauty and complexity and in simplicity as well,50,80,20","2"
"22883","","survey-text","167","1101946","0.0-166.0-0.0","AMLE1FC3SQVL8","","","","{""Q0"":""I just artsy, music vibes from this one""}","","","","","","","","","","","","","","","","","","","","","","",""
"1815.2999999523163","","image-slider-response","168","1103764","0.0-167.0","AMLE1FC3SQVL8","","","","","10","","","","","","","","","","","","","","","","","","","","","",""
"null","","image-button-response","169","1108776","0.0-168.0","AMLE1FC3SQVL8","img_art/10.jpg","null","","","","","","","","","","","","","","","","","","","","","","","","",""
"877","","image-button-response","170","1109657","0.0-169.0","AMLE1FC3SQVL8","img_art/10.jpg","2","","","","","","","","","","","","","","","","","","","","","","","","",""
"1397","","image-button-response","171","1111058","0.0-170.0-0.0","AMLE1FC3SQVL8","img_art/10.jpg","3","","","","","","","","","","","","","","","","","","","","","","","","",""
"1488","","image-button-response","172","1112552","0.0-171.0-0.0","AMLE1FC3SQVL8","img_art/10.jpg","5","","","","","","","","","","","","","","","","","","","","","","","","",""
"null","","html-keyboard-response","173","1114068","0.0-172.0","AMLE1FC3SQVL8","<p style=""font-size: 48px;"">+</p>","","","","","null","allTrialResponses","1500","1","18","img_art/10.jpg","10","I just artsy, music vibes from this one","Eric,Jordan,Derek,Marcus,Alejandro,Seth","This piece is unusual in a way that makes me uncomfortable.,-5,100,20","Looks gross and messy,-39,160,20","Cute and has a vintage feel to it,45,360,20","This makes me think of a city, specifically London.,20,60,20","The contrast between the messy dots/dabs vs the straight affluent lines is unappealing,-20,80,20","It reminds me of the ocean. Almost like a battlefield, but on the water.,19,60,20","Derek","Cute and has a vintage feel to it,45,360,20","Marcus","This makes me think of a city, specifically London.,20,60,20","Seth","It reminds me of the ocean. Almost like a battlefield, but on the water.,19,60,20","2"
"19414","","survey-text","174","1133516","0.0-173.0-0.0","AMLE1FC3SQVL8","","","","{""Q0"":""hard for me to find any meaning or emotion in this one""}","","","","","","","","","","","","","","","","","","","","","","",""
"4039.600000023842","","image-slider-response","175","1137559","0.0-174.0","AMLE1FC3SQVL8","","","","","-25","","","","","","","","","","","","","","","","","","","","","",""
"null","","image-button-response","176","1142574","0.0-175.0","AMLE1FC3SQVL8","img_art/5.jpg","null","","","","","","","","","","","","","","","","","","","","","","","","",""
"727","","image-button-response","177","1143306","0.0-176.0","AMLE1FC3SQVL8","img_art/5.jpg","0","","","","","","","","","","","","","","","","","","","","","","","","",""
"5083","","image-button-response","178","1148391","0.0-177.0-0.0","AMLE1FC3SQVL8","img_art/5.jpg","5","","","","","","","","","","","","","","","","","","","","","","","","",""
"1539","","image-button-response","179","1149933","0.0-178.0-0.0","AMLE1FC3SQVL8","img_art/5.jpg","2","","","","","","","","","","","","","","","","","","","","","","","","",""
"null","","html-keyboard-response","180","1151443","0.0-179.0","AMLE1FC3SQVL8","<p style=""font-size: 48px;"">+</p>","","","","","null","allTrialResponses","1500","1","19","img_art/5.jpg","-25","hard for me to find any meaning or emotion in this one","Jack,Aaron,Derek,Marcus,Cole,Seth","it's okay. the colors are eye catching, but that's about it.,3,320,20","It's kind of boring.,-20,20,20","It's okay. Don't hate it but don't love it either,0,360,20","I really dislike this. It's ugly and looks dirty.,-44,60,20","It looks like a poorly drawn pear,17,200,20","I didn't care for this art piece. I wasn't sure about the color choice.,-15,60,20","Jack","it's okay. the colors are eye catching, but that's about it.,3,320,20","Seth","I didn't care for this art piece. I wasn't sure about the color choice.,-15,60,20","Derek","It's okay. Don't hate it but don't love it either,0,360,20","2"
"38944","","survey-text","181","1190421","0.0-180.0-0.0","AMLE1FC3SQVL8","","","","{""Q0"":""lots of colors used and none were too overpowering for me""}","","","","","","","","","","","","","","","","","","","","","","",""
"3269.5","","image-slider-response","182","1193695","0.0-181.0","AMLE1FC3SQVL8","","","","","16","","","","","","","","","","","","","","","","","","","","","",""
"null","","image-button-response","183","1198715","0.0-182.0","AMLE1FC3SQVL8","img_art/14.jpg","null","","","","","","","","","","","","","","","","","","","","","","","","",""
"1056","","image-button-response","184","1199774","0.0-183.0","AMLE1FC3SQVL8","img_art/14.jpg","0","","","","","","","","","","","","","","","","","","","","","","","","",""
"1521","","image-button-response","185","1201297","0.0-184.0-0.0","AMLE1FC3SQVL8","img_art/14.jpg","1","","","","","","","","","","","","","","","","","","","","","","","","",""
"1295","","image-button-response","186","1202595","0.0-185.0-0.0","AMLE1FC3SQVL8","img_art/14.jpg","3","","","","","","","","","","","","","","","","","","","","","","","","",""
"null","","html-keyboard-response","187","1203110","0.0-186.0","AMLE1FC3SQVL8","<p style=""font-size: 48px;"">+</p>","","","","","null","allTrialResponses","500","1","20","img_art/14.jpg","16","lots of colors used and none were too overpowering for me","Jack,Devon,Derek,Joseph,Robert,Seth","love the colors. despite their brightness it seems sad somehow.,41,320,20","this would make a very beautiful art project,22,400,20","Very abstract and colorful,40,360,20","I like that it looks like plants on a table, which reminds me of life.,4,220,20","Late Winter when things are just starting to bloom.,21,360,20","This piece feels inviting. It's like opening up the pages of your favorite book for the first time.,26,60,20","Jack","love the colors. despite their brightness it seems sad somehow.,41,320,20","Devon","this would make a very beautiful art project,22,400,20","Joseph","I like that it looks like plants on a table, which reminds me of life.,4,220,20","2"
"2544","","survey-text","188","1205691","0.0-187.0-0.0","AMLE1FC3SQVL8","","","","{""Q0"":""we""}","","","","","","","","","","","","","","","","","","","","","","",""
"33574","","survey-text","189","1239268","0.0-188.0-0.0","AMLE1FC3SQVL8","","","","{""Q0"":""the red and black use just makes me feel unnerved and uncomfortable about it""}","","","","","","","","","","","","","","","","","","","","","","",""
"9299.399999976158","","image-slider-response","190","1248570","0.0-189.0","AMLE1FC3SQVL8","","","","","-33","","","","","","","","","","","","","","","","","","","","","",""
"4849","","image-button-response","191","1253582","0.0-190.0","AMLE1FC3SQVL8","img_art/29.jpg","0","","","","","","","","","","","","","","","","","","","","","","","","",""
"1252","","image-button-response","192","1254841","0.0-191.0","AMLE1FC3SQVL8","img_art/29.jpg","4","","","","","","","","","","","","","","","","","","","","","","","","",""
"947","","image-button-response","193","1255791","0.0-192.0-0.0","AMLE1FC3SQVL8","img_art/29.jpg","0","","","","","","","","","","","","","","","","","","","","","","","","",""
"2864","","image-button-response","194","1258658","0.0-193.0-0.0","AMLE1FC3SQVL8","img_art/29.jpg","5","","","","","","","","","","","","","","","","","","","","","","","","",""
"null","","html-keyboard-response","195","1260168","0.0-194.0","AMLE1FC3SQVL8","<p style=""font-size: 48px;"">+</p>","","","","","null","allTrialResponses","1500","1","21","img_art/29.jpg","-33","the red and black use just makes me feel unnerved and uncomfortable about it","Jack,Devon,Alexander,Joseph,Jose,Caleb","risks well taken. the brush is hilarious. feels like an artist's frustration, which is relatable.,50,320,20","seems fun, looks like a battle zone,22,400,20","Tested and failed a lot of ideas.,-20,120,20","It looks like graffiti in a subway tunnel- destruction.,-20,220,20","I think the grey and red inspire negative feelings but it's not the worst thing.,13,200,20","Looks wrong. Like a real painting was vandalized.,-50,40,20","Jose","I think the grey and red inspire negative feelings but it's not the worst thing.,13,200,20","Jack","risks well taken. the brush is hilarious. feels like an artist's frustration, which is relatable.,50,320,20","Caleb","Looks wrong. Like a real painting was vandalized.,-50,40,20","2"
"26665","","survey-text","196","1286863","0.0-195.0-0.0","AMLE1FC3SQVL8","","","","{""Q0"":""I get city vibes from this, makes me feel active""}","","","","","","","","","","","","","","","","","","","","","","",""
"3379","","image-slider-response","197","1290246","0.0-196.0","AMLE1FC3SQVL8","","","","","31","","","","","","","","","","","","","","","","","","","","","",""
"3483","","image-button-response","198","1295259","0.0-197.0","AMLE1FC3SQVL8","img_art/11.jpg","0","","","","","","","","","","","","","","","","","","","","","","","","",""
"831","","image-button-response","199","1296092","0.0-198.0","AMLE1FC3SQVL8","img_art/11.jpg","0","","","","","","","","","","","","","","","","","","","","","","","","",""
"2259","","image-button-response","200","1298353","0.0-199.0-0.0","AMLE1FC3SQVL8","img_art/11.jpg","2","","","","","","","","","","","","","","","","","","","","","","","","",""
"3941","","image-button-response","201","1302297","0.0-200.0-0.0","AMLE1FC3SQVL8","img_art/11.jpg","4","","","","","","","","","","","","","","","","","","","","","","","","",""
"null","","html-keyboard-response","202","1303306","0.0-201.0","AMLE1FC3SQVL8","<p style=""font-size: 48px;"">+</p>","","","","","null","allTrialResponses","1000","1","22","img_art/11.jpg","31","I get city vibes from this, makes me feel active","Jack,Joshua,Dalton,Dylan,Jose,Caleb","makes me think of city highways & bridges on a rainy, foggy day. I like the melancholy it evokes.,43,320,20","Is interesting. Wouldn't bother me to have this hanging where I'd see it every day.,11,240,20","looks like highways and homes and lives intertwining.,27,300,20","I normally would not like this photo, but the design is nice.,21,40,20","Makes me feel like my vision is breaking,19,200,20","Not quite as abstract as I'd like- It's clearly a dingy city.,-18,40,20","Jack","makes me think of city highways & bridges on a rainy, foggy day. I like the melancholy it evokes.,43,320,20","Dalton","looks like highways and homes and lives intertwining.,27,300,20","Jose","Makes me feel like my vision is breaking,19,200,20","2"
"23533","","survey-text","203","1326880","0.0-202.0-0.0","AMLE1FC3SQVL8","","","","{""Q0"":""the white takes this from a boring piece to one with an edge""}","","","","","","","","","","","","","","","","","","","","","","",""
"2119.6999999284744","","image-slider-response","204","1329003","0.0-203.0","AMLE1FC3SQVL8","","","","","11","","","","","","","","","","","","","","","","","","","","","",""
"4687","","image-button-response","205","1334021","0.0-204.0","AMLE1FC3SQVL8","img_art/23.jpg","0","","","","","","","","","","","","","","","","","","","","","","","","",""
"1559","","image-button-response","206","1335585","0.0-205.0","AMLE1FC3SQVL8","img_art/23.jpg","4","","","","","","","","","","","","","","","","","","","","","","","","",""
"1118","","image-button-response","207","1336705","0.0-206.0-0.0","AMLE1FC3SQVL8","img_art/23.jpg","0","","","","","","","","","","","","","","","","","","","","","","","","",""
"2427","","image-button-response","208","1339135","0.0-207.0-0.0","AMLE1FC3SQVL8","img_art/23.jpg","5","","","","","","","","","","","","","","","","","","","","","","","","",""
"null","","html-keyboard-response","209","1339637","0.0-208.0","AMLE1FC3SQVL8","<p style=""font-size: 48px;"">+</p>","","","","","null","allTrialResponses","500","1","23","img_art/23.jpg","11","the white takes this from a boring piece to one with an edge","Jack,Evan,Dalton,Bryce,Jose,Jason","awesome colors. love the white drawing the eye to the center. oddly comforting.,50,320,20","It feels exciting,23,140,20","illegible wording with a graffiti background,1,300,20","So beautiful with the white accents.,50,20,20","This one is awesome, kinda looks like a cake with sprinkles but in a different universe,50,200,20","Interesting contrast,9,20,20","Jose","This one is awesome, kinda looks like a cake with sprinkles but in a different universe,50,200,20","Jack","awesome colors. love the white drawing the eye to the center. oddly comforting.,50,320,20","Jason","Interesting contrast,9,20,20","2"
"22486","","survey-text","210","1362158","0.0-209.0-0.0","AMLE1FC3SQVL8","","","","{""Q0"":""hard to find any feelings or passion when viewing this one""}","","","","","","","","","","","","","","","","","","","","","","",""
"2339","","image-slider-response","211","1364501","0.0-210.0","AMLE1FC3SQVL8","","","","","-16","","","","","","","","","","","","","","","","","","","","","",""
"null","","image-button-response","212","1369511","0.0-211.0","AMLE1FC3SQVL8","img_art/1.jpg","null","","","","","","","","","","","","","","","","","","","","","","","","",""
"25","","image-button-response","213","1369540","0.0-212.0","AMLE1FC3SQVL8","img_art/1.jpg","2","","","","","","","","","","","","","","","","","","","","","","","","",""
"1109","","image-button-response","214","1370652","0.0-213.0-0.0","AMLE1FC3SQVL8","img_art/1.jpg","3","","","","","","","","","","","","","","","","","","","","","","","","",""
"2363","","image-button-response","215","1373018","0.0-214.0-0.0","AMLE1FC3SQVL8","img_art/1.jpg","5","","","","","","","","","","","","","","","","","","","","","","","","",""
"null","","html-keyboard-response","216","1374535","0.0-215.0","AMLE1FC3SQVL8","<p style=""font-size: 48px;"">+</p>","","","","","null","allTrialResponses","1500","1","24","img_art/1.jpg","-16","hard to find any feelings or passion when viewing this one","Jack,Kenneth,Zachary,Isaiah,Jose,Jason","beautiful colors and brush strokes,47,320,20","I love colorful photos and I like this one a lot.,25,300,20","While I like the colors, I find nothing interesting or thought provoking about it.,10,400,20","I feel relaxed, like I'm watching the leaves change color.,17,300,20","Blurry but that's how emotions are a lot of the time.,27,200,20","Interesting blend of colors,9,20,20","Zachary","While I like the colors, I find nothing interesting or thought provoking about it.,10,400,20","Isaiah","I feel relaxed, like I'm watching the leaves change color.,17,300,20","Jason","Interesting blend of colors,9,20,20","2"
"66933","","survey-text","217","1441508","0.0-216.0-0.0","AMLE1FC3SQVL8","","","","{""Q0"":""I enjoy the red and how it it is used less aggressively as you look down, gives it a human quality ""}","","","","","","","","","","","","","","","","","","","","","","",""
"2945.7999999523163","","image-slider-response","218","1444456","0.0-217.0","AMLE1FC3SQVL8","","","","","16","","","","","","","","","","","","","","","","","","","","","",""
"4847","","image-button-response","219","1449468","0.0-218.0","AMLE1FC3SQVL8","img_art/3.jpg","3","","","","","","","","","","","","","","","","","","","","","","","","",""
"792","","image-button-response","220","1450265","0.0-219.0","AMLE1FC3SQVL8","img_art/3.jpg","3","","","","","","","","","","","","","","","","","","","","","","","","",""
"3686","","image-button-response","221","1453953","0.0-220.0-0.0","AMLE1FC3SQVL8","img_art/3.jpg","1","","","","","","","","","","","","","","","","","","","","","","","","",""
"1646","","image-button-response","222","1455601","0.0-221.0-0.0","AMLE1FC3SQVL8","img_art/3.jpg","2","","","","","","","","","","","","","","","","","","","","","","","","",""
"null","","html-keyboard-response","223","1456620","0.0-222.0","AMLE1FC3SQVL8","<p style=""font-size: 48px;"">+</p>","","","","","null","allTrialResponses","1000","1","25","img_art/3.jpg","16","I enjoy the red and how it it is used less aggressively as you look down, gives it a human quality ","Isaac,Tanner,Zachary,Isaiah,Mark,Jason","It looks like scribbles.,-40,280,20","anger, blood, death,-24,180,20","Too red and chaotic. Not calming.,-41,400,20","I feel uncomfortable, like I am looking at a crime scene.,-17,300,20","I don't feel anything, it seems childish.,-25,80,20","Too much red; very bland,-26,20,20","Isaiah","I feel uncomfortable, like I am looking at a crime scene.,-17,300,20","Tanner","anger, blood, death,-24,180,20","Zachary","Too red and chaotic. Not calming.,-41,400,20","2"
"3354","","survey-text","224","1460021","0.0-223.0-0.0","AMLE1FC3SQVL8","","","","{""Q0"":""table""}","","","","","","","","","","","","","","","","","","","","","","",""
"24860","","survey-text","225","1484884","0.0-224.0-0.0","AMLE1FC3SQVL8","","","","{""Q0"":""simple living shown here gives me a calm, homely vibe""}","","","","","","","","","","","","","","","","","","","","","","",""
"1701.6000000238419","","image-slider-response","226","1486588","0.0-225.0","AMLE1FC3SQVL8","","","","","35","","","","","","","","","","","","","","","","","","","","","",""
"4638","","image-button-response","227","1491606","0.0-226.0","AMLE1FC3SQVL8","img_art/26.jpg","1","","","","","","","","","","","","","","","","","","","","","","","","",""
"565","","image-button-response","228","1492174","0.0-227.0","AMLE1FC3SQVL8","img_art/26.jpg","1","","","","","","","","","","","","","","","","","","","","","","","","",""
"706","","image-button-response","229","1492884","0.0-228.0-0.0","AMLE1FC3SQVL8","img_art/26.jpg","3","","","","","","","","","","","","","","","","","","","","","","","","",""
"3881","","image-button-response","230","1496772","0.0-229.0-0.0","AMLE1FC3SQVL8","img_art/26.jpg","2","","","","","","","","","","","","","","","","","","","","","","","","",""
"null","","html-keyboard-response","231","1497777","0.0-230.0","AMLE1FC3SQVL8","<p style=""font-size: 48px;"">+</p>","","","","","null","allTrialResponses","1000","1","26","img_art/26.jpg","35","simple living shown here gives me a calm, homely vibe","Antonio,Tanner,Zachary,Isaiah,Cody,Jorge","Calming and relaxing,28,220,20","happy, park, childhood,9,180,20","Pretty trees and bushes around fancy brown stones. I like the soft nature.,20,400,20","It is very relaxing to look at, almost a relief.,21,300,20","Looks unfinished,-31,180,20","dull and boring,-6,180,20","Tanner","happy, park, childhood,9,180,20","Isaiah","It is very relaxing to look at, almost a relief.,21,300,20","Zachary","Pretty trees and bushes around fancy brown stones. I like the soft nature.,20,400,20","2"
"43587","","survey-text","232","1541405","0.0-231.0-0.0","AMLE1FC3SQVL8","","","","{""Q0"":""frustrating to me when seeing the green out of place usage""}","","","","","","","","","","","","","","","","","","","","","","",""
"2258","","image-slider-response","233","1543666","0.0-232.0","AMLE1FC3SQVL8","","","","","-15","","","","","","","","","","","","","","","","","","","","","",""
"null","","image-button-response","234","1548681","0.0-233.0","AMLE1FC3SQVL8","img_art/27.jpg","null","","","","","","","","","","","","","","","","","","","","","","","","",""
"1203","","image-button-response","235","1549888","0.0-234.0","AMLE1FC3SQVL8","img_art/27.jpg","0","","","","","","","","","","","","","","","","","","","","","","","","",""
"1054","","image-button-response","236","1550943","0.0-235.0-0.0","AMLE1FC3SQVL8","img_art/27.jpg","2","","","","","","","","","","","","","","","","","","","","","","","","",""
"492","","image-button-response","237","1551438","0.0-236.0-0.0","AMLE1FC3SQVL8","img_art/27.jpg","0","","","","","","","","","","","","","","","","","","","","","","","","",""
"1722","","image-button-response","238","1555286","0.0-236.1-0.1","AMLE1FC3SQVL8","img_art/27.jpg","4","","","","","","","","","","","","","","","","","","","","","","","","",""
"null","","html-keyboard-response","239","1555799","0.0-237.0","AMLE1FC3SQVL8","<p style=""font-size: 48px;"">+</p>","","","","","null","allTrialResponses","500","1","27","img_art/27.jpg","-15","frustrating to me when seeing the green out of place usage","Nathaniel,Tanner,Zachary,Isaiah,Matthew,Jeremy","Looks like a splash of different colors and designs without purpose,-44,220,20","makes me think of fume clouds, low visibility,-28,180,20","Color story is boring in nature, and I feel nothing but boredom from this piece.,-20,400,20","I feel peaceful and a little nervous at the same time.,11,300,20","Lots of activity, layers, imagination at work here.,29,120,20","Pleased. Reminds me of a child drawing,46,60,20","Nathaniel","Looks like a splash of different colors and designs without purpose,-44,220,20","Zachary","Color story is boring in nature, and I feel nothing but boredom from this piece.,-20,400,20","Matthew","Lots of activity, layers, imagination at work here.,29,120,20","4"
"32177","","survey-text","240","1588001","0.0-238.0-0.0","AMLE1FC3SQVL8","","","","{""Q0"":""gives me big city vibes and current life, so active and large""}","","","","","","","","","","","","","","","","","","","","","","",""
"2747.399999976158","","image-slider-response","241","1590753","0.0-239.0","AMLE1FC3SQVL8","","","","","20","","","","","","","","","","","","","","","","","","","","","",""
"null","","image-button-response","242","1595759","0.0-240.0","AMLE1FC3SQVL8","img_art/20.jpg","null","","","","","","","","","","","","","","","","","","","","","","","","",""
"927","","image-button-response","243","1596690","0.0-241.0","AMLE1FC3SQVL8","img_art/20.jpg","2","","","","","","","","","","","","","","","","","","","","","","","","",""
"1125","","image-button-response","244","1597819","0.0-242.0-0.0","AMLE1FC3SQVL8","img_art/20.jpg","3","","","","","","","","","","","","","","","","","","","","","","","","",""
"1180","","image-button-response","245","1599002","0.0-243.0-0.0","AMLE1FC3SQVL8","img_art/20.jpg","5","","","","","","","","","","","","","","","","","","","","","","","","",""
"null","","html-keyboard-response","246","1600013","0.0-244.0","AMLE1FC3SQVL8","<p style=""font-size: 48px;"">+</p>","","","","","null","allTrialResponses","1000","1","28","img_art/20.jpg","20","gives me big city vibes and current life, so active and large","Nathaniel,Blake,Zachary,Benjamin,Matthew,Spencer","A bit hectic, but it does have a bit of coolness to it,6,220,20","reminds me of a dead animal in the west. ugly,-25,280,20","While interesting in technique.. It looks like a blurry car wreck. Does not evoke great emotions.,-20,400,20","Bold strokes and colors.,6,260,20","Painting within a painting, abstract.,32,120,20","A sad past town, pollution, guess I like happier scenes,-30,120,20","Zachary","While interesting in technique.. It looks like a blurry car wreck. Does not evoke great emotions.,-20,400,20","Benjamin","Bold strokes and colors.,6,260,20","Spencer","A sad past town, pollution, guess I like happier scenes,-30,120,20","4"
"43598","","survey-text","247","1643658","0.0-245.0-0.0","AMLE1FC3SQVL8","","","","{""Q0"":""makes me think of heat and the sun, the toll on the environment""}","","","","","","","","","","","","","","","","","","","","","","",""
"3576","","image-slider-response","248","1647236","0.0-246.0","AMLE1FC3SQVL8","","","","","6","","","","","","","","","","","","","","","","","","","","","",""
"null","","image-button-response","249","1652250","0.0-247.0","AMLE1FC3SQVL8","img_art/22.jpg","null","","","","","","","","","","","","","","","","","","","","","","","","",""
"1342","","image-button-response","250","1653596","0.0-248.0","AMLE1FC3SQVL8","img_art/22.jpg","4","","","","","","","","","","","","","","","","","","","","","","","","",""
"875","","image-button-response","251","1654474","0.0-249.0-0.0","AMLE1FC3SQVL8","img_art/22.jpg","1","","","","","","","","","","","","","","","","","","","","","","","","",""
"2193","","image-button-response","252","1656670","0.0-250.0-0.0","AMLE1FC3SQVL8","img_art/22.jpg","2","","","","","","","","","","","","","","","","","","","","","","","","",""
"null","","html-keyboard-response","253","1657186","0.0-251.0","AMLE1FC3SQVL8","<p style=""font-size: 48px;"">+</p>","","","","","null","allTrialResponses","500","1","29","img_art/22.jpg","6","makes me think of heat and the sun, the toll on the environment","Brian,Nicholas,Zachary,Benjamin,Brett,Spencer","this is too generic,-27,380,20","Pretty colors but something seems sinister about it,25,240,20","I like the vivid colors.,11,400,20","Colors are bright and cheerful.,5,260,20","Climate change in a big city,35,360,20","Pretty colors but too blocky for me,-19,120,20","Brett","Climate change in a big city,35,360,20","Nicholas","Pretty colors but something seems sinister about it,25,240,20","Zachary","I like the vivid colors.,11,400,20","4"
"25208","","survey-text","254","1682428","0.0-252.0-0.0","AMLE1FC3SQVL8","","","","{""Q0"":""seems calm and slow, like we are watching the paint fall down before our eyes""}","","","","","","","","","","","","","","","","","","","","","","",""
"3611","","image-slider-response","255","1686041","0.0-253.0","AMLE1FC3SQVL8","","","","","50","","","","","","","","","","","","","","","","","","","","","",""
"null","","image-button-response","256","1691049","0.0-254.0","AMLE1FC3SQVL8","img_art/13.jpg","null","","","","","","","","","","","","","","","","","","","","","","","","",""
"82","","image-button-response","257","1691134","0.0-255.0","AMLE1FC3SQVL8","img_art/13.jpg","3","","","","","","","","","","","","","","","","","","","","","","","","",""
"2750","","image-button-response","258","1693886","0.0-256.0-0.0","AMLE1FC3SQVL8","img_art/13.jpg","0","","","","","","","","","","","","","","","","","","","","","","","","",""
"1808","","image-button-response","259","1695698","0.0-257.0-0.0","AMLE1FC3SQVL8","img_art/13.jpg","4","","","","","","","","","","","","","","","","","","","","","","","","",""
"null","","html-keyboard-response","260","1696205","0.0-258.0","AMLE1FC3SQVL8","<p style=""font-size: 48px;"">+</p>","","","","","null","allTrialResponses","500","1","30","img_art/13.jpg","50","seems calm and slow, like we are watching the paint fall down before our eyes","Richard,Nicholas,Zachary,Angel,Brett,Justin","kind of like the pattern and colors but don't love it,13,340,20","Nice colors. beautiful blue,50,240,20","Peaceful colors.,20,400,20","Reminds me of depression anxiety, but negativity is dampened by motion. It's trying to release itself through expression.,-10,180,20","Very abstract and soothing,40,360,20","Not really a fan of ""splash"" art.,-20,280,20","Angel","Reminds me of depression anxiety, but negativity is dampened by motion. It's trying to release itself through expression.,-10,180,20","Richard","kind of like the pattern and colors but don't love it,13,340,20","Brett","Very abstract and soothing,40,360,20","4"
"3450","","image-button-response_instructions","261","1699687","0.0-259.0","AMLE1FC3SQVL8","","0","instructions","","","","","","","","","","","","","","","","","","","","","","","",""
"1198","","image-button-response","262","1700907","0.0-260.0","AMLE1FC3SQVL8","","0","","","","","","","","","","","","","","","","","","","","","","","","",""
