"rt","url","trial_type","trial_index","time_elapsed","internal_node_id","participant_id","stimulus","button_pressed","Name","responses","response","key_press","variableName","fixationTime","condition","trial","photo","subjectRating","subjectResponse","agentsNames","agent_1_Response","agent_2_Response","agent_3_Response","agent_4_Response","agent_5_Response","agent_6_Response","kept_1_name","kept_1_response","kept_2_name","kept_2_response","kept_3_name","kept_3_response","errorCounter"
"9693","external_page_harvard.html","external-html","0","9826","0.0-0.0","AN5WGHGM4BTJ2","","","","","","","","","","","","","","","","","","","","","","","","","","",""
"1849","","image-button-response","1","11679","0.0-1.0","AN5WGHGM4BTJ2","","1","","","","","","","","","","","","","","","","","","","","","","","","",""
"2017","","image-button-response","2","13706","0.0-2.0-0.0","AN5WGHGM4BTJ2","","1","phone","","","","","","","","","","","","","","","","","","","","","","","",""
"8650","","survey-text","3","22359","0.0-3.0-0.0","AN5WGHGM4BTJ2","","","","{""Q0"":""AN5WGHGM4BTJ2""}","","","","","","","","","","","","","","","","","","","","","","",""
"5044","","image-button-response_instructions","4","27409","0.0-4.0","AN5WGHGM4BTJ2","","0","instructions","","","","","","","","","","","","","","","","","","","","","","","",""
"10213","","image-button-response_instructions","5","37626","0.0-5.0","AN5WGHGM4BTJ2","img_art/ins/popularity/ins1.png","0","instructions","","","","","","","","","","","","","","","","","","","","","","","",""
"18677","","image-button-response_instructions","6","56306","0.0-6.0","AN5WGHGM4BTJ2","img_art/ins/popularity/ins2.png","0","instructions","","","","","","","","","","","","","","","","","","","","","","","",""
"7472","","image-button-response_instructions","7","63780","0.0-7.0","AN5WGHGM4BTJ2","img_art/ins/popularity/ins2Extreme.png","0","instructions","","","","","","","","","","","","","","","","","","","","","","","",""
"12771","","image-button-response_instructions","8","76553","0.0-8.0","AN5WGHGM4BTJ2","img_art/ins/popularity/ins3KEEPpop.PNG","0","instructions","","","","","","","","","","","","","","","","","","","","","","","",""
"5910","","image-button-response_instructions","9","82467","0.0-9.0","AN5WGHGM4BTJ2","img_art/ins/popularity/ins3ANamepop.PNG","0","instructions","","","","","","","","","","","","","","","","","","","","","","","",""
"5910","","image-button-response_instructions","10","88379","0.0-10.0","AN5WGHGM4BTJ2","img_art/ins/popularity/ins3ARatingpop.png","0","instructions","","","","","","","","","","","","","","","","","","","","","","","",""
"5316","","image-button-response_instructions","11","93697","0.0-11.0","AN5WGHGM4BTJ2","img_art/ins/popularity/ins3ATextpop.png","0","instructions","","","","","","","","","","","","","","","","","","","","","","","",""
"16071","","image-button-response_instructions","12","109770","0.0-12.0","AN5WGHGM4BTJ2","img_art/ins/popularity/ins3ALikespop.png","0","instructions","","","","","","","","","","","","","","","","","","","","","","","",""
"10050","","image-button-response_instructions","13","119823","0.0-13.0","AN5WGHGM4BTJ2","img_art/ins/popularity/ins3KEEPpop.PNG","0","instructions","","","","","","","","","","","","","","","","","","","","","","","",""
"10499","","image-button-response_instructions","14","130326","0.0-14.0","AN5WGHGM4BTJ2","img_art/ins/popularity/ins3_5RED.png","0","instructions","","","","","","","","","","","","","","","","","","","","","","","",""
"6278","","image-button-response_instructions","15","136606","0.0-15.0","AN5WGHGM4BTJ2","img_art/ins/popularity/ins3KEEPpop.PNG","0","instructions","","","","","","","","","","","","","","","","","","","","","","","",""
"11045","","image-button-response_instructions","16","147655","0.0-16.0","AN5WGHGM4BTJ2","img_art/ins/popularity/ins4KEEPpop.PNG","0","instructions","","","","","","","","","","","","","","","","","","","","","","","",""
"5680","","image-button-response_instructions","17","153337","0.0-17.0","AN5WGHGM4BTJ2","img_art/ins/popularity/ins5KEEPpop.PNG","0","instructions","","","","","","","","","","","","","","","","","","","","","","","",""
"1944","","image-button-response_instructions","18","155284","0.0-18.0","AN5WGHGM4BTJ2","","0","instructions","","","","","","","","","","","","","","","","","","","","","","","",""
"7477","","survey-text","19","162814","0.0-19.0-0.0","AN5WGHGM4BTJ2","","","","{""Q0"":""but""}","","","","","","","","","","","","","","","","","","","","","","",""
"19830","","survey-text","20","182648","0.0-20.0-0.0","AN5WGHGM4BTJ2","","","","{""Q0"":""I don't like art pieces like this. It looks messy to me.""}","","","","","","","","","","","","","","","","","","","","","","",""
"5356.299999952316","","image-slider-response","21","188010","0.0-21.0","AN5WGHGM4BTJ2","","","","","-28","","","","","","","","","","","","","","","","","","","","","",""
"null","","image-button-response","22","193022","0.0-22.0","AN5WGHGM4BTJ2","img_art/ins/1.jpg","null","","","","","","","","","","","","","","","","","","","","","","","","",""
"17135","","image-button-response","23","210162","0.0-23.0","AN5WGHGM4BTJ2","img_art/ins/1.jpg","3","","","","","","","","","","","","","","","","","","","","","","","","",""
"2924","","image-button-response","24","213091","0.0-24.0-0.0","AN5WGHGM4BTJ2","img_art/ins/1.jpg","0","","","","","","","","","","","","","","","","","","","","","","","","",""
"2234","","image-button-response","25","215330","0.0-25.0-0.0","AN5WGHGM4BTJ2","img_art/ins/1.jpg","1","","","","","","","","","","","","","","","","","","","","","","","","",""
"null","","html-keyboard-response","26","216835","0.0-26.0","AN5WGHGM4BTJ2","<p style=""font-size: 48px;"">+</p>","","","","","null","allTrialResponses","1500","1","-2","img_art/ins/1.jpg","-28","I don't like art pieces like this. It looks messy to me.","Allison,Ashley,Beth,Dora,Erika,Jen","looks like a lot of things going on in the mist,20,20,20","I just don't get why these type of art would be popular,-32,40,20","This color reminds me of poo,-46,60,20","looks like what my niece in 3rd grade did this afternoon,-50,80,20","I like the sophisticated brushwork,40,100,20","It reminds me of a candy land dream I had,36,120,20","Dora","looks like what my niece in 3rd grade did this afternoon,-50,80,20","Allison","looks like a lot of things going on in the mist,20,20,20","Ashley","I just don't get why these type of art would be popular,-32,40,20","0"
"52388","","survey-text","27","269231","0.0-27.0-0.0","AN5WGHGM4BTJ2","","","","{""Q0"":""I wouldn't want this artwork on my wall. It is not my style. Looking for a different color palette and design.""}","","","","","","","","","","","","","","","","","","","","","","",""
"5051.700000047684","","image-slider-response","28","274286","0.0-28.0","AN5WGHGM4BTJ2","","","","","-42","","","","","","","","","","","","","","","","","","","","","",""
"null","","image-button-response","29","279293","0.0-29.0","AN5WGHGM4BTJ2","img_art/ins/2.jpg","null","","","","","","","","","","","","","","","","","","","","","","","","",""
"7454","","image-button-response","30","286751","0.0-30.0","AN5WGHGM4BTJ2","img_art/ins/2.jpg","5","","","","","","","","","","","","","","","","","","","","","","","","",""
"9291","","image-button-response","31","296046","0.0-31.0-0.0","AN5WGHGM4BTJ2","img_art/ins/2.jpg","2","","","","","","","","","","","","","","","","","","","","","","","","",""
"7586","","image-button-response","32","303636","0.0-32.0-0.0","AN5WGHGM4BTJ2","img_art/ins/2.jpg","1","","","","","","","","","","","","","","","","","","","","","","","","",""
"null","","html-keyboard-response","33","304144","0.0-33.0","AN5WGHGM4BTJ2","<p style=""font-size: 48px;"">+</p>","","","","","null","allTrialResponses","500","1","-1","img_art/ins/2.jpg","-42","I wouldn't want this artwork on my wall. It is not my style. Looking for a different color palette and design.","Allison,Ashley,Jenna,Dora,Kara,Katie","I don't have strong feelings about this,10,20,20","Idk, it is just annoying,-32,40,20","One of my pet peevs,-48,140,20","looks too angry,-50,80,20","I like the blocks of color arrangements,30,160,20","too much color!,-28,180,20","Katie","too much color!,-28,180,20","Jenna","One of my pet peevs,-48,140,20","Ashley","Idk, it is just annoying,-32,40,20","0"
"48128","","survey-text","34","352280","0.0-34.0-0.0","AN5WGHGM4BTJ2","","","","{""Q0"":""I would like a piece with a little more color. I think the blue is pretty.""}","","","","","","","","","","","","","","","","","","","","","","",""
"6907.600000023842","","image-slider-response","35","359191","0.0-35.0","AN5WGHGM4BTJ2","","","","","-28","","","","","","","","","","","","","","","","","","","","","",""
"null","","image-button-response","36","364202","0.0-36.0","AN5WGHGM4BTJ2","img_art/ins/3.jpg","null","","","","","","","","","","","","","","","","","","","","","","","","",""
"8938","","image-button-response","37","373144","0.0-37.0","AN5WGHGM4BTJ2","img_art/ins/3.jpg","1","","","","","","","","","","","","","","","","","","","","","","","","",""
"16387","","image-button-response","38","389536","0.0-38.0-0.0","AN5WGHGM4BTJ2","img_art/ins/3.jpg","3","","","","","","","","","","","","","","","","","","","","","","","","",""
"11094","","image-button-response","39","400636","0.0-39.0-0.0","AN5WGHGM4BTJ2","img_art/ins/3.jpg","4","","","","","","","","","","","","","","","","","","","","","","","","",""
"null","","html-keyboard-response","40","402140","0.0-40.0","AN5WGHGM4BTJ2","<p style=""font-size: 48px;"">+</p>","","","","","null","allTrialResponses","1500","1","0","img_art/ins/3.jpg","-28","I would like a piece with a little more color. I think the blue is pretty.","Rose,Ashley,Jenna,Leslie,Mary,Katie","My daily routine, it's depressing,-20,240,20","It looks like a playground for bats,-36,40,20","looks like a murder room,-35,140,20","It's an alright work,15,200,20","I like the overlapping of brushes,41,220,20","It looks depressing,-26,180,20","Ashley","It looks like a playground for bats,-36,40,20","Leslie","It's an alright work,15,200,20","Mary","I like the overlapping of brushes,41,220,20","0"
"6759","","image-button-response_instructions","41","408906","0.0-41.0","AN5WGHGM4BTJ2","","0","instructions","","","","","","","","","","","","","","","","","","","","","","","",""
"12761","","survey-likert","42","421671","0.0-42.0-0.0","AN5WGHGM4BTJ2","","","","{""Q0"":"""",""Q1"":0,""Q2"":1}","","","","","","","","","","","","","","","","","","","","","","",""
"4423","","survey-text","43","426104","0.0-43.0-0.0","AN5WGHGM4BTJ2","","","","{""Q0"":""rock""}","","","","","","","","","","","","","","","","","","","","","","",""
"25580","","survey-text","44","451688","0.0-44.0-0.0","AN5WGHGM4BTJ2","","","","{""Q0"":""It looks kinda like a tool of some kind. I don't quite know what I am looking at.""}","","","","","","","","","","","","","","","","","","","","","","",""
"5634.900000095367","","image-slider-response","45","457327","0.0-45.0","AN5WGHGM4BTJ2","","","","","-28","","","","","","","","","","","","","","","","","","","","","",""
"null","","image-button-response","46","462371","0.0-46.0","AN5WGHGM4BTJ2","img_art/5.jpg","null","","","","","","","","","","","","","","","","","","","","","","","","",""
"2144","","image-button-response","47","464518","0.0-47.0","AN5WGHGM4BTJ2","img_art/5.jpg","2","","","","","","","","","","","","","","","","","","","","","","","","",""
"3369","","image-button-response","48","467890","0.0-48.0-0.0","AN5WGHGM4BTJ2","img_art/5.jpg","4","","","","","","","","","","","","","","","","","","","","","","","","",""
"4370","","image-button-response","49","472266","0.0-49.0-0.0","AN5WGHGM4BTJ2","img_art/5.jpg","5","","","","","","","","","","","","","","","","","","","","","","","","",""
"null","","html-keyboard-response","50","472773","0.0-50.0","AN5WGHGM4BTJ2","<p style=""font-size: 48px;"">+</p>","","","","","null","allTrialResponses","500","1","1","img_art/5.jpg","-28","It looks kinda like a tool of some kind. I don't quite know what I am looking at.","Hannah,Mariah,Jasmine,Madeline,Shannon,Taylor","Very basic, but at least has some color to it.,-9,240,20","It feels very strong and open.,31,140,20","Not sure what to say about this piece honestly. It's okay I guess.,0,340,20","A bit too messy in my eyes,-4,40,20","I don't know what it's supposed to be and it looks ugly the way the colors are on the yellow cube.,-50,220,20","Doesn't make me think anything,-1,340,20","Jasmine","Not sure what to say about this piece honestly. It's okay I guess.,0,340,20","Shannon","I don't know what it's supposed to be and it looks ugly the way the colors are on the yellow cube.,-50,220,20","Taylor","Doesn't make me think anything,-1,340,20","0"
"33906","","survey-text","51","506685","0.0-51.0-0.0","AN5WGHGM4BTJ2","","","","{""Q0"":""I like the green color. I don't like the overall look of this art piece. I wouldn't want to have it on my wall.""}","","","","","","","","","","","","","","","","","","","","","","",""
"10960.599999904633","","image-slider-response","52","517649","0.0-52.0","AN5WGHGM4BTJ2","","","","","-33","","","","","","","","","","","","","","","","","","","","","",""
"null","","image-button-response","53","522659","0.0-53.0","AN5WGHGM4BTJ2","img_art/25.jpg","null","","","","","","","","","","","","","","","","","","","","","","","","",""
"12249","","image-button-response","54","534911","0.0-54.0","AN5WGHGM4BTJ2","img_art/25.jpg","0","","","","","","","","","","","","","","","","","","","","","","","","",""
"41675","","image-button-response","55","576592","0.0-55.0-0.0","AN5WGHGM4BTJ2","img_art/25.jpg","4","","","","","","","","","","","","","","","","","","","","","","","","",""
"5007","","image-button-response","56","581605","0.0-56.0-0.0","AN5WGHGM4BTJ2","img_art/25.jpg","5","","","","","","","","","","","","","","","","","","","","","","","","",""
"null","","html-keyboard-response","57","582610","0.0-57.0","AN5WGHGM4BTJ2","<p style=""font-size: 48px;"">+</p>","","","","","null","allTrialResponses","1000","1","2","img_art/25.jpg","-33","I like the green color. I don't like the overall look of this art piece. I wouldn't want to have it on my wall.","Sierra,Jordan,Jasmine,Breanna,Shannon,Taylor","the green is serene. the figure is scare crow like,7,260,20","It's fine, belongs in a church, or somewhere else mystical,15,20,20","I liked it as it seems unique in a way,21,340,20","Makes me feel intrigued,13,380,20","I like the way the persons clothes look, there could be more color though.,10,220,20","It makes me feel a little uneasy, but I like the painting,11,340,20","Sierra","the green is serene. the figure is scare crow like,7,260,20","Shannon","I like the way the persons clothes look, there could be more color though.,10,220,20","Taylor","It makes me feel a little uneasy, but I like the painting,11,340,20","0"
"35734","","survey-text","58","618352","0.0-58.0-0.0","AN5WGHGM4BTJ2","","","","{""Q0"":""I do not care for this at all. I wouldn't want to have this art piece on my wall. There is a lot going on with this one. It's too busy for my liking.""}","","","","","","","","","","","","","","","","","","","","","","",""
"5402.799999952316","","image-slider-response","59","623759","0.0-59.0","AN5WGHGM4BTJ2","","","","","-45","","","","","","","","","","","","","","","","","","","","","",""
"3774","","image-button-response","60","628765","0.0-60.0","AN5WGHGM4BTJ2","img_art/30.jpg","0","","","","","","","","","","","","","","","","","","","","","","","","",""
"3809","","image-button-response","61","632578","0.0-61.0","AN5WGHGM4BTJ2","img_art/30.jpg","3","","","","","","","","","","","","","","","","","","","","","","","","",""
"12066","","image-button-response","62","644650","0.0-62.0-0.0","AN5WGHGM4BTJ2","img_art/30.jpg","4","","","","","","","","","","","","","","","","","","","","","","","","",""
"10205","","image-button-response","63","654859","0.0-63.0-0.0","AN5WGHGM4BTJ2","img_art/30.jpg","0","","","","","","","","","","","","","","","","","","","","","","","","",""
"null","","html-keyboard-response","64","655362","0.0-64.0","AN5WGHGM4BTJ2","<p style=""font-size: 48px;"">+</p>","","","","","null","allTrialResponses","500","1","3","img_art/30.jpg","-45","I do not care for this at all. I wouldn't want to have this art piece on my wall. There is a lot going on with this one. It's too busy for my liking.","Sierra,Angela,Margaret,Katelyn,Shannon,Taylor","i dont like how the colors are mixed,-6,260,20","Really don't like this piece. It feels very lazy to me.,-31,260,20","I dont like the colors whatsoever,-15,100,20","I do like the multi-dimensional aspect of this piece,10,100,20","I feel like the colors are too repetitive and not very eyecatching.,-20,220,20","It's a really interesting piece,20,340,20","Katelyn","I do like the multi-dimensional aspect of this piece,10,100,20","Shannon","I feel like the colors are too repetitive and not very eyecatching.,-20,220,20","Sierra","i dont like how the colors are mixed,-6,260,20","0"
"36395","","survey-text","65","691765","0.0-65.0-0.0","AN5WGHGM4BTJ2","","","","{""Q0"":""I don't quite know what I am looking at. I think there is a guy riding a horse in the middle of the art piece. I wouldn't want the art piece on my wall.""}","","","","","","","","","","","","","","","","","","","","","","",""
"6860.400000095367","","image-slider-response","66","698629","0.0-66.0","AN5WGHGM4BTJ2","","","","","-37","","","","","","","","","","","","","","","","","","","","","",""
"null","","image-button-response","67","703638","0.0-67.0","AN5WGHGM4BTJ2","img_art/18.jpg","null","","","","","","","","","","","","","","","","","","","","","","","","",""
"6967","","image-button-response","68","710610","0.0-68.0","AN5WGHGM4BTJ2","img_art/18.jpg","3","","","","","","","","","","","","","","","","","","","","","","","","",""
"3364","","image-button-response","69","713982","0.0-69.0-0.0","AN5WGHGM4BTJ2","img_art/18.jpg","1","","","","","","","","","","","","","","","","","","","","","","","","",""
"3571","","image-button-response","70","717557","0.0-70.0-0.0","AN5WGHGM4BTJ2","img_art/18.jpg","2","","","","","","","","","","","","","","","","","","","","","","","","",""
"null","","html-keyboard-response","71","718061","0.0-71.0","AN5WGHGM4BTJ2","<p style=""font-size: 48px;"">+</p>","","","","","null","allTrialResponses","500","1","4","img_art/18.jpg","-37","I don't quite know what I am looking at. I think there is a guy riding a horse in the middle of the art piece. I wouldn't want the art piece on my wall.","Sierra,Gabriela,Kaitlin,Katelyn,Shannon,Kayla","it looks like people,9,260,20","It's possibly of a mermaid luring in a ship,15,140,20","I really like this one - there seems to be a story behind it,32,60,20","It reminds me of ghosts on a boat. Makes me nervous.,-27,100,20","I think its supposed to be a boat and the boat looks kind of interesting to me.,10,220,20","It's like a ship, but a freaky ship.,-11,180,20","Katelyn","It reminds me of ghosts on a boat. Makes me nervous.,-27,100,20","Gabriela","It's possibly of a mermaid luring in a ship,15,140,20","Kaitlin","I really like this one - there seems to be a story behind it,32,60,20","0"
"32945","","survey-text","72","751016","0.0-72.0-0.0","AN5WGHGM4BTJ2","","","","{""Q0"":""I don't like the color palette. Is there a key at the bottom of this in black?""}","","","","","","","","","","","","","","","","","","","","","","",""
"5716.200000047684","","image-slider-response","73","756735","0.0-73.0","AN5WGHGM4BTJ2","","","","","-37","","","","","","","","","","","","","","","","","","","","","",""
"null","","image-button-response","74","761741","0.0-74.0","AN5WGHGM4BTJ2","img_art/22.jpg","null","","","","","","","","","","","","","","","","","","","","","","","","",""
"5127","","image-button-response","75","766871","0.0-75.0","AN5WGHGM4BTJ2","img_art/22.jpg","0","","","","","","","","","","","","","","","","","","","","","","","","",""
"7704","","image-button-response","76","774578","0.0-76.0-0.0","AN5WGHGM4BTJ2","img_art/22.jpg","4","","","","","","","","","","","","","","","","","","","","","","","","",""
"5244","","image-button-response","77","779828","0.0-77.0-0.0","AN5WGHGM4BTJ2","img_art/22.jpg","1","","","","","","","","","","","","","","","","","","","","","","","","",""
"null","","html-keyboard-response","78","780835","0.0-78.0","AN5WGHGM4BTJ2","<p style=""font-size: 48px;"">+</p>","","","","","null","allTrialResponses","1000","1","5","img_art/22.jpg","-37","I don't like the color palette. Is there a key at the bottom of this in black?","Sabrina,Gabriela,Kaitlin,Katelyn,Kristen,Briana","Just not feeling it,-19,120,20","Neither like nor dislike it. The red, yellow and blue colors are bright but I don't know what it's meant to be.,1,140,20","This represents the hopes in my life.,21,60,20","I usually dont like blurry pieces but the colors are amazing in this,14,100,20","fire, danger, resentful,-17,280,20","Bright colors feel warm,22,400,20","Sabrina","Just not feeling it,-19,120,20","Kristen","fire, danger, resentful,-17,280,20","Gabriela","Neither like nor dislike it. The red, yellow and blue colors are bright but I don't know what it's meant to be.,1,140,20","0"
"3531","","survey-text","79","784381","0.0-79.0-0.0","AN5WGHGM4BTJ2","","","","{""Q0"":""sky""}","","","","","","","","","","","","","","","","","","","","","","",""
"51082","","survey-text","80","835465","0.0-80.0-0.0","AN5WGHGM4BTJ2","","","","{""Q0"":""There is a lot going on in this but I feel like this painting tells a story a little bit better than the pieces with what appear to be random coloring.""}","","","","","","","","","","","","","","","","","","","","","","",""
"5987.200000047684","","image-slider-response","81","841456","0.0-81.0","AN5WGHGM4BTJ2","","","","","-15","","","","","","","","","","","","","","","","","","","","","",""
"null","","image-button-response","82","846460","0.0-82.0","AN5WGHGM4BTJ2","img_art/19.jpg","null","","","","","","","","","","","","","","","","","","","","","","","","",""
"3525","","image-button-response","83","849989","0.0-83.0","AN5WGHGM4BTJ2","img_art/19.jpg","5","","","","","","","","","","","","","","","","","","","","","","","","",""
"1990","","image-button-response","84","851984","0.0-84.0-0.0","AN5WGHGM4BTJ2","img_art/19.jpg","2","","","","","","","","","","","","","","","","","","","","","","","","",""
"7295","","image-button-response","85","859283","0.0-85.0-0.0","AN5WGHGM4BTJ2","img_art/19.jpg","3","","","","","","","","","","","","","","","","","","","","","","","","",""
"null","","html-keyboard-response","86","860790","0.0-86.0","AN5WGHGM4BTJ2","<p style=""font-size: 48px;"">+</p>","","","","","null","allTrialResponses","1500","1","6","img_art/19.jpg","-15","There is a lot going on in this but I feel like this painting tells a story a little bit better than the pieces with what appear to be random coloring.","Sabrina,Gabriela,Gabrielle,Miranda,Kristen,Sophia","Gives a very open and freeing vibe,42,120,20","it looks messy and non-unique.,-9,140,20","not professional looking but not bad either,13,160,20","It looks cool but at the time looks like it was done by a talented 5 year old.,13,320,20","city, stress of urbanism, slightly panicked,2,280,20","This looks like a child's piece. I appreciate the artistic value, but not for me.,-20,280,20","Sophia","This looks like a child's piece. I appreciate the artistic value, but not for me.,-20,280,20","Gabrielle","not professional looking but not bad either,13,160,20","Miranda","It looks cool but at the time looks like it was done by a talented 5 year old.,13,320,20","0"
"45271","","survey-text","87","906069","0.0-87.0-0.0","AN5WGHGM4BTJ2","","","","{""Q0"":""I don't like the color palette. The artwork is not my favorite. Is that supposed to be a skull on the bottom left? What am I looking at?""}","","","","","","","","","","","","","","","","","","","","","","",""
"6285.100000023842","","image-slider-response","88","912357","0.0-88.0","AN5WGHGM4BTJ2","","","","","-31","","","","","","","","","","","","","","","","","","","","","",""
"null","","image-button-response","89","917362","0.0-89.0","AN5WGHGM4BTJ2","img_art/20.jpg","null","","","","","","","","","","","","","","","","","","","","","","","","",""
"5810","","image-button-response","90","923175","0.0-90.0","AN5WGHGM4BTJ2","img_art/20.jpg","4","","","","","","","","","","","","","","","","","","","","","","","","",""
"4506","","image-button-response","91","927685","0.0-91.0-0.0","AN5WGHGM4BTJ2","img_art/20.jpg","2","","","","","","","","","","","","","","","","","","","","","","","","",""
"4685","","image-button-response","92","932374","0.0-92.0-0.0","AN5WGHGM4BTJ2","img_art/20.jpg","1","","","","","","","","","","","","","","","","","","","","","","","","",""
"null","","html-keyboard-response","93","933882","0.0-93.0","AN5WGHGM4BTJ2","<p style=""font-size: 48px;"">+</p>","","","","","null","allTrialResponses","1500","1","7","img_art/20.jpg","-31","I don't like the color palette. The artwork is not my favorite. Is that supposed to be a skull on the bottom left? What am I looking at?","Alyssa,Claire,Gabrielle,Miranda,Autumn,Sophia","Its interesting.It almost seems like a painting of a landscape,14,160,20","reminds me of Salvadore Dali,24,260,20","The white blob on the left seems out of place,-34,160,20","A painting within a painting, the inner painting looks like a car crash with a semi truck.,21,320,20","It's ok. Very abstract.,18,340,20","A truck rolled over?  I do like the pictures and the technique though.,25,280,20","Autumn","It's ok. Very abstract.,18,340,20","Gabrielle","The white blob on the left seems out of place,-34,160,20","Claire","reminds me of Salvadore Dali,24,260,20","0"
"9644","","survey-text","94","943534","0.0-94.0-0.0","AN5WGHGM4BTJ2","","","","{""Q0"":""It is a very textured piece.""}","","","","","","","","","","","","","","","","","","","","","","",""
"5039.799999952316","","image-slider-response","95","948578","0.0-95.0","AN5WGHGM4BTJ2","","","","","-27","","","","","","","","","","","","","","","","","","","","","",""
"null","","image-button-response","96","953584","0.0-96.0","AN5WGHGM4BTJ2","img_art/7.jpg","null","","","","","","","","","","","","","","","","","","","","","","","","",""
"8161","","image-button-response","97","961749","0.0-97.0","AN5WGHGM4BTJ2","img_art/7.jpg","1","","","","","","","","","","","","","","","","","","","","","","","","",""
"7866","","image-button-response","98","969619","0.0-98.0-0.0","AN5WGHGM4BTJ2","img_art/7.jpg","4","","","","","","","","","","","","","","","","","","","","","","","","",""
"3622","","image-button-response","99","973245","0.0-99.0-0.0","AN5WGHGM4BTJ2","img_art/7.jpg","2","","","","","","","","","","","","","","","","","","","","","","","","",""
"null","","html-keyboard-response","100","973748","0.0-100.0","AN5WGHGM4BTJ2","<p style=""font-size: 48px;"">+</p>","","","","","null","allTrialResponses","500","1","8","img_art/7.jpg","-27","It is a very textured piece.","Paige,Claire,Gabrielle,Amanda,Autumn,Elizabeth","Happy. Looking at the moon,43,60,20","reminds me of a cave wall,-21,260,20","looks like wallpaper,-6,160,20","I hate everything about this painting from the cors to it looking like a war,-50,180,20","Well done minimalism.,35,340,20","The picture is just random,-8,20,20","Claire","reminds me of a cave wall,-21,260,20","Autumn","Well done minimalism.,35,340,20","Gabrielle","looks like wallpaper,-6,160,20","0"
"38054","","survey-text","101","1011810","0.0-101.0-0.0","AN5WGHGM4BTJ2","","","","{""Q0"":""It looks like a bomb of spray paint and glitter.""}","","","","","","","","","","","","","","","","","","","","","","",""
"5587","","image-slider-response","102","1017401","0.0-102.0","AN5WGHGM4BTJ2","","","","","-37","","","","","","","","","","","","","","","","","","","","","",""
"null","","image-button-response","103","1022410","0.0-103.0","AN5WGHGM4BTJ2","img_art/23.jpg","null","","","","","","","","","","","","","","","","","","","","","","","","",""
"8386","","image-button-response","104","1030800","0.0-104.0","AN5WGHGM4BTJ2","img_art/23.jpg","2","","","","","","","","","","","","","","","","","","","","","","","","",""
"4481","","image-button-response","105","1035285","0.0-105.0-0.0","AN5WGHGM4BTJ2","img_art/23.jpg","5","","","","","","","","","","","","","","","","","","","","","","","","",""
"7693","","image-button-response","106","1042983","0.0-106.0-0.0","AN5WGHGM4BTJ2","img_art/23.jpg","3","","","","","","","","","","","","","","","","","","","","","","","","",""
"null","","html-keyboard-response","107","1043489","0.0-107.0","AN5WGHGM4BTJ2","<p style=""font-size: 48px;"">+</p>","","","","","null","allTrialResponses","500","1","9","img_art/23.jpg","-37","It looks like a bomb of spray paint and glitter.","Alexandra,Claire,Gabrielle,Kelly,Autumn,Rachel","This is my favorite of them all. I love the colors.,41,60,20","the pattern is pleasing to the eye,28,260,20","it's OK, but just OK, kind of interesting but I wouldn't spend money on it,4,160,20","Love this. I love the white, really pops with the colors surrounding it.,44,220,20","Awesome abstraction love it.,30,340,20","Vivid colors and the white in the middle looks like people dancing.,31,80,20","Gabrielle","it's OK, but just OK, kind of interesting but I wouldn't spend money on it,4,160,20","Rachel","Vivid colors and the white in the middle looks like people dancing.,31,80,20","Kelly","Love this. I love the white, really pops with the colors surrounding it.,44,220,20","0"
"54872","","survey-text","108","1098368","0.0-108.0-0.0","AN5WGHGM4BTJ2","","","","{""Q0"":""It looks too messy to me. I feel like somewhat just dumped paint on to the canvas. I have to wonder if this piece was made with intention.""}","","","","","","","","","","","","","","","","","","","","","","",""
"7421","","image-slider-response","109","1105792","0.0-109.0","AN5WGHGM4BTJ2","","","","","-44","","","","","","","","","","","","","","","","","","","","","",""
"null","","image-button-response","110","1110801","0.0-110.0","AN5WGHGM4BTJ2","img_art/1.jpg","null","","","","","","","","","","","","","","","","","","","","","","","","",""
"4157","","image-button-response","111","1114962","0.0-111.0","AN5WGHGM4BTJ2","img_art/1.jpg","4","","","","","","","","","","","","","","","","","","","","","","","","",""
"2566","","image-button-response","112","1117532","0.0-112.0-0.0","AN5WGHGM4BTJ2","img_art/1.jpg","5","","","","","","","","","","","","","","","","","","","","","","","","",""
"3606","","image-button-response","113","1121142","0.0-113.0-0.0","AN5WGHGM4BTJ2","img_art/1.jpg","0","","","","","","","","","","","","","","","","","","","","","","","","",""
"null","","html-keyboard-response","114","1122146","0.0-114.0","AN5WGHGM4BTJ2","<p style=""font-size: 48px;"">+</p>","","","","","null","allTrialResponses","1000","1","10","img_art/1.jpg","-44","It looks too messy to me. I feel like somewhat just dumped paint on to the canvas. I have to wonder if this piece was made with intention.","Bailey,Cheyenne,Gabrielle,Kelly,Cassandra,Rachel","A bit of a smokey mess, but it does have an air of mystery I like,7,360,20","Nothing really going on but good color choices.,-3,200,20","nice piece, fall like,31,160,20","I love colorful photos and I like this one a lot.,25,220,20","I didn't like this too much...I didn't like the red and the jaggedness to it.,-29,120,20","While I like the colors, I find nothing interesting or thought provoking about it.,10,80,20","Cassandra","I didn't like this too much...I didn't like the red and the jaggedness to it.,-29,120,20","Rachel","While I like the colors, I find nothing interesting or thought provoking about it.,10,80,20","Bailey","A bit of a smokey mess, but it does have an air of mystery I like,7,360,20","0"
"3291","","survey-text","115","1125452","0.0-115.0-0.0","AN5WGHGM4BTJ2","","","","{""Q0"":""our""}","","","","","","","","","","","","","","","","","","","","","","",""
"12623","","survey-text","116","1138077","0.0-116.0-0.0","AN5WGHGM4BTJ2","","","","{""Q0"":""I like some of the colors. It makes me think of fall.""}","","","","","","","","","","","","","","","","","","","","","","",""
"4005.8000000715256","","image-slider-response","117","1142086","0.0-117.0","AN5WGHGM4BTJ2","","","","","-23","","","","","","","","","","","","","","","","","","","","","",""
"null","","image-button-response","118","1147096","0.0-118.0","AN5WGHGM4BTJ2","img_art/27.jpg","null","","","","","","","","","","","","","","","","","","","","","","","","",""
"15968","","image-button-response","119","1163068","0.0-119.0","AN5WGHGM4BTJ2","img_art/27.jpg","5","","","","","","","","","","","","","","","","","","","","","","","","",""
"12768","","image-button-response","120","1175839","0.0-120.0-0.0","AN5WGHGM4BTJ2","img_art/27.jpg","2","","","","","","","","","","","","","","","","","","","","","","","","",""
"7678","","image-button-response","121","1183521","0.0-121.0-0.0","AN5WGHGM4BTJ2","img_art/27.jpg","1","","","","","","","","","","","","","","","","","","","","","","","","",""
"null","","html-keyboard-response","122","1185028","0.0-122.0","AN5WGHGM4BTJ2","<p style=""font-size: 48px;"">+</p>","","","","","null","allTrialResponses","1500","1","11","img_art/27.jpg","-23","I like some of the colors. It makes me think of fall.","Bailey,Sarah,Allison,Angelica,Cassandra,Rachel","Looks like a splash of different colors and designs without purpose,-44,360,20","i don't think i should like this one because it's a little chaotic and simple but I do,6,180,20","Warn colors are pretty, but too blotchy for me.,3,140,20","This looks like a poor copy of Cy Twombly's style.,-3,280,20","I don't like any of it...just scibbles.,-37,120,20","Color story is boring in nature, and I feel nothing but boredom from this piece.,-20,80,20","Rachel","Color story is boring in nature, and I feel nothing but boredom from this piece.,-20,80,20","Allison","Warn colors are pretty, but too blotchy for me.,3,140,20","Sarah","i don't think i should like this one because it's a little chaotic and simple but I do,6,180,20","0"
"26673","","survey-text","123","1211709","0.0-123.0-0.0","AN5WGHGM4BTJ2","","","","{""Q0"":""I don't know what this is a picture of. It is somewhat interesting with the black and the blue.""}","","","","","","","","","","","","","","","","","","","","","","",""
"3126.5","","image-slider-response","124","1214839","0.0-124.0","AN5WGHGM4BTJ2","","","","","-22","","","","","","","","","","","","","","","","","","","","","",""
"null","","image-button-response","125","1219847","0.0-125.0","AN5WGHGM4BTJ2","img_art/15.jpg","null","","","","","","","","","","","","","","","","","","","","","","","","",""
"4934","","image-button-response","126","1224785","0.0-126.0","AN5WGHGM4BTJ2","img_art/15.jpg","3","","","","","","","","","","","","","","","","","","","","","","","","",""
"6386","","image-button-response","127","1231176","0.0-127.0-0.0","AN5WGHGM4BTJ2","img_art/15.jpg","4","","","","","","","","","","","","","","","","","","","","","","","","",""
"18214","","image-button-response","128","1249394","0.0-128.0-0.0","AN5WGHGM4BTJ2","img_art/15.jpg","1","","","","","","","","","","","","","","","","","","","","","","","","",""
"null","","html-keyboard-response","129","1250899","0.0-129.0","AN5WGHGM4BTJ2","<p style=""font-size: 48px;"">+</p>","","","","","null","allTrialResponses","1500","1","12","img_art/15.jpg","-22","I don't know what this is a picture of. It is somewhat interesting with the black and the blue.","Ashley,Sarah,Allison,Vanessa,Erica,Rachel","I think of birds, nature, levels of space.,18,320,20","this is really pretty! i like the pops of blue in all the black,26,180,20","Eyes hunt for the blue in the black.,5,140,20","I don't even know what's going on here. Again, this is too abstract.,-21,380,20","dark and I can not see a meaning behind it,-31,80,20","Reminds me of blue birds in a tree at night. I love nature.,40,80,20","Vanessa","I don't even know what's going on here. Again, this is too abstract.,-21,380,20","Erica","dark and I can not see a meaning behind it,-31,80,20","Sarah","this is really pretty! i like the pops of blue in all the black,26,180,20","0"
"20609","","survey-text","130","1271515","0.0-130.0-0.0","AN5WGHGM4BTJ2","","","","{""Q0"":""It is very abstract. I don't care for the art style. I will say it is interesting.""}","","","","","","","","","","","","","","","","","","","","","","",""
"5574.5","","image-slider-response","131","1277093","0.0-131.0","AN5WGHGM4BTJ2","","","","","-26","","","","","","","","","","","","","","","","","","","","","",""
"null","","image-button-response","132","1282098","0.0-132.0","AN5WGHGM4BTJ2","img_art/8.jpg","null","","","","","","","","","","","","","","","","","","","","","","","","",""
"534","","image-button-response","133","1282635","0.0-133.0","AN5WGHGM4BTJ2","img_art/8.jpg","1","","","","","","","","","","","","","","","","","","","","","","","","",""
"8431","","image-button-response","134","1291070","0.0-134.0-0.0","AN5WGHGM4BTJ2","img_art/8.jpg","3","","","","","","","","","","","","","","","","","","","","","","","","",""
"2444","","image-button-response","135","1293519","0.0-135.0-0.0","AN5WGHGM4BTJ2","img_art/8.jpg","2","","","","","","","","","","","","","","","","","","","","","","","","",""
"null","","html-keyboard-response","136","1294022","0.0-136.0","AN5WGHGM4BTJ2","<p style=""font-size: 48px;"">+</p>","","","","","null","allTrialResponses","500","1","13","img_art/8.jpg","-26","It is very abstract. I don't care for the art style. I will say it is interesting.","Olivia,Sarah,Jenna,Vanessa,Erica,Meghan","being watched over,17,40,20","it's interesting but i don't enjoy the style,-5,180,20","beautiful colors & details. love the surrealism & strange angle. the faces are interesting.,50,360,20","I don't like the negative emotion this picture makes me feel. It's also too abstract.,-30,380,20","Very busy, I want to look at it and investigate,23,80,20","the face is creepy,-49,220,20","Sarah","it's interesting but i don't enjoy the style,-5,180,20","Vanessa","I don't like the negative emotion this picture makes me feel. It's also too abstract.,-30,380,20","Jenna","beautiful colors & details. love the surrealism & strange angle. the faces are interesting.,50,360,20","0"
"78062","","survey-text","137","1372094","0.0-137.0-0.0","AN5WGHGM4BTJ2","","","","{""Q0"":""I originally thought maybe this was a tree trunk in the center, but I think it is a painting with different color walls and spackling?""}","","","","","","","","","","","","","","","","","","","","","","",""
"9385.200000047684","","image-slider-response","138","1381482","0.0-138.0","AN5WGHGM4BTJ2","","","","","-22","","","","","","","","","","","","","","","","","","","","","",""
"null","","image-button-response","139","1386488","0.0-139.0","AN5WGHGM4BTJ2","img_art/13.jpg","null","","","","","","","","","","","","","","","","","","","","","","","","",""
"14589","","image-button-response","140","1401081","0.0-140.0","AN5WGHGM4BTJ2","img_art/13.jpg","5","","","","","","","","","","","","","","","","","","","","","","","","",""
"7230","","image-button-response","141","1408314","0.0-141.0-0.0","AN5WGHGM4BTJ2","img_art/13.jpg","0","","","","","","","","","","","","","","","","","","","","","","","","",""
"2427","","image-button-response","142","1410745","0.0-142.0-0.0","AN5WGHGM4BTJ2","img_art/13.jpg","4","","","","","","","","","","","","","","","","","","","","","","","","",""
"null","","html-keyboard-response","143","1411748","0.0-143.0","AN5WGHGM4BTJ2","<p style=""font-size: 48px;"">+</p>","","","","","null","allTrialResponses","1000","1","14","img_art/13.jpg","-22","I originally thought maybe this was a tree trunk in the center, but I think it is a painting with different color walls and spackling?","Amber,Sarah,Jenna,Vanessa,Catherine,Danielle","Reminds me of rain running down a window.,35,200,20","this is an appealing mix of textures to me and the color scheme is harmonious,36,180,20","exciting & chaotic. love the colors.,50,360,20","I love the colors and the contrast between the different blues.,21,380,20","Magnified rain around trees. Beautiful happy colors. The little person on the right feels nature is huge.,45,160,20","While it is a bit basic and doesn't speak to me much, I like the feeling it gives,40,340,20","Danielle","While it is a bit basic and doesn't speak to me much, I like the feeling it gives,40,340,20","Amber","Reminds me of rain running down a window.,35,200,20","Catherine","Magnified rain around trees. Beautiful happy colors. The little person on the right feels nature is huge.,45,160,20","0"
"20988","","survey-text","144","1432744","0.0-144.0-0.0","AN5WGHGM4BTJ2","","","","{""Q0"":""I think it is a little stream in a colorful forest?""}","","","","","","","","","","","","","","","","","","","","","","",""
"7587.399999976158","","image-slider-response","145","1440335","0.0-145.0","AN5WGHGM4BTJ2","","","","","-12","","","","","","","","","","","","","","","","","","","","","",""
"null","","image-button-response","146","1445341","0.0-146.0","AN5WGHGM4BTJ2","img_art/24.jpg","null","","","","","","","","","","","","","","","","","","","","","","","","",""
"1321","","image-button-response","147","1446666","0.0-147.0","AN5WGHGM4BTJ2","img_art/24.jpg","5","","","","","","","","","","","","","","","","","","","","","","","","",""
"9393","","image-button-response","148","1456064","0.0-148.0-0.0","AN5WGHGM4BTJ2","img_art/24.jpg","2","","","","","","","","","","","","","","","","","","","","","","","","",""
"9419","","image-button-response","149","1465488","0.0-149.0-0.0","AN5WGHGM4BTJ2","img_art/24.jpg","0","","","","","","","","","","","","","","","","","","","","","","","","",""
"null","","html-keyboard-response","150","1465994","0.0-150.0","AN5WGHGM4BTJ2","<p style=""font-size: 48px;"">+</p>","","","","","null","allTrialResponses","500","1","15","img_art/24.jpg","-12","I think it is a little stream in a colorful forest?","Amber,Megan,Erika,Erin,Catherine,Danielle","peaceful and calm yet joyous.,50,200,20","Classic palette lacks real world 3d construction,19,200,20","Very nice textures and subject,38,100,20","Too literal, not abstract,-29,120,20","Nature, Peace, connected.,50,160,20","Looks like a mystical type of forest/waterfall. Love it,40,340,20","Danielle","Looks like a mystical type of forest/waterfall. Love it,40,340,20","Erika","Very nice textures and subject,38,100,20","Amber","peaceful and calm yet joyous.,50,200,20","0"
"14398","","survey-text","151","1480408","0.0-151.0-0.0","AN5WGHGM4BTJ2","","","","{""Q0"":""course""}","","","","","","","","","","","","","","","","","","","","","","",""
"26230","","survey-text","152","1506642","0.0-152.0-0.0","AN5WGHGM4BTJ2","","","","{""Q0"":""It looks like a child drew this. What am I looking at?""}","","","","","","","","","","","","","","","","","","","","","","",""
"7656.799999952316","","image-slider-response","153","1514302","0.0-153.0","AN5WGHGM4BTJ2","","","","","-50","","","","","","","","","","","","","","","","","","","","","",""
"1776","","image-button-response","154","1519310","0.0-154.0","AN5WGHGM4BTJ2","img_art/3.jpg","0","","","","","","","","","","","","","","","","","","","","","","","","",""
"14960","","image-button-response","155","1534274","0.0-155.0","AN5WGHGM4BTJ2","img_art/3.jpg","4","","","","","","","","","","","","","","","","","","","","","","","","",""
"1680","","image-button-response","156","1535958","0.0-156.0-0.0","AN5WGHGM4BTJ2","img_art/3.jpg","1","","","","","","","","","","","","","","","","","","","","","","","","",""
"1092","","image-button-response","157","1537054","0.0-157.0-0.0","AN5WGHGM4BTJ2","img_art/3.jpg","0","","","","","","","","","","","","","","","","","","","","","","","","",""
"null","","html-keyboard-response","158","1538061","0.0-158.0","AN5WGHGM4BTJ2","<p style=""font-size: 48px;"">+</p>","","","","","null","allTrialResponses","1000","1","16","img_art/3.jpg","-50","It looks like a child drew this. What am I looking at?","Amber,Brooke,Erika,Kaitlyn,Chelsea,Danielle","seems to be a lot of angry scribble.,-20,200,20","kid scribbled on the wall again,-35,60,20","Unaure what the artist  was doing, needs context,11,100,20","Too much red; very bland,-26,80,20","It looks like scribbles.,-40,180,20","Looks like it was painted with blood, which I'm aware is an art style, but it just looks messy.,-20,340,20","Chelsea","It looks like scribbles.,-40,180,20","Brooke","kid scribbled on the wall again,-35,60,20","Amber","seems to be a lot of angry scribble.,-20,200,20","0"
"15616","","survey-text","159","1553686","0.0-159.0-0.0","AN5WGHGM4BTJ2","","","","{""Q0"":""It doesn't feel very harmonious to me.""}","","","","","","","","","","","","","","","","","","","","","","",""
"6693.400000095367","","image-slider-response","160","1560383","0.0-160.0","AN5WGHGM4BTJ2","","","","","-41","","","","","","","","","","","","","","","","","","","","","",""
"4365","","image-button-response","161","1565389","0.0-161.0","AN5WGHGM4BTJ2","img_art/12.jpg","1","","","","","","","","","","","","","","","","","","","","","","","","",""
"3501","","image-button-response","162","1568894","0.0-162.0","AN5WGHGM4BTJ2","img_art/12.jpg","5","","","","","","","","","","","","","","","","","","","","","","","","",""
"6470","","image-button-response","163","1575368","0.0-163.0-0.0","AN5WGHGM4BTJ2","img_art/12.jpg","3","","","","","","","","","","","","","","","","","","","","","","","","",""
"4025","","image-button-response","164","1579398","0.0-164.0-0.0","AN5WGHGM4BTJ2","img_art/12.jpg","1","","","","","","","","","","","","","","","","","","","","","","","","",""
"null","","html-keyboard-response","165","1579904","0.0-165.0","AN5WGHGM4BTJ2","<p style=""font-size: 48px;"">+</p>","","","","","null","allTrialResponses","500","1","17","img_art/12.jpg","-41","It doesn't feel very harmonious to me.","Amber,Brooke,Stephanie,Molly,Chelsea,Nicole","Like how all the colors seem to blend together.,15,200,20","Dislike the style, the sharp rectangular pattern very jarring.,-20,60,20","I like the pattern to it.,31,300,20","Seems to be puzzles.,25,340,20","I like the gradient of little color on the top to colorful on the bottom.,24,180,20","I like all the squares and the colors but it feels too cluttered to me,20,20,20","Nicole","I like all the squares and the colors but it feels too cluttered to me,20,20,20","Molly","Seems to be puzzles.,25,340,20","Brooke","Dislike the style, the sharp rectangular pattern very jarring.,-20,60,20","0"
"30313","","survey-text","166","1610224","0.0-166.0-0.0","AN5WGHGM4BTJ2","","","","{""Q0"":""Is a tree coming out of a wall? Is a painting coming to life?""}","","","","","","","","","","","","","","","","","","","","","","",""
"6426.100000023842","","image-slider-response","167","1616653","0.0-167.0","AN5WGHGM4BTJ2","","","","","-31","","","","","","","","","","","","","","","","","","","","","",""
"null","","image-button-response","168","1621658","0.0-168.0","AN5WGHGM4BTJ2","img_art/17.jpg","null","","","","","","","","","","","","","","","","","","","","","","","","",""
"6672","","image-button-response","169","1628334","0.0-169.0","AN5WGHGM4BTJ2","img_art/17.jpg","4","","","","","","","","","","","","","","","","","","","","","","","","",""
"2711","","image-button-response","170","1631049","0.0-170.0-0.0","AN5WGHGM4BTJ2","img_art/17.jpg","1","","","","","","","","","","","","","","","","","","","","","","","","",""
"8558","","image-button-response","171","1639611","0.0-171.0-0.0","AN5WGHGM4BTJ2","img_art/17.jpg","0","","","","","","","","","","","","","","","","","","","","","","","","",""
"null","","html-keyboard-response","172","1640615","0.0-172.0","AN5WGHGM4BTJ2","<p style=""font-size: 48px;"">+</p>","","","","","null","allTrialResponses","1000","1","18","img_art/17.jpg","-31","Is a tree coming out of a wall? Is a painting coming to life?","Alicia,Brooke,Emma,Molly,Marissa,Nicole","Like this one, super creative, calming.,43,120,20","doorways and trees are pleasant,30,60,20","Love the colors and the movement,46,60,20","Wow, I haven't seen anything better than this.,40,340,20","This reminds me of spring,24,160,20","Feels nostalgic somehow,31,20,20","Marissa","This reminds me of spring,24,160,20","Brooke","doorways and trees are pleasant,30,60,20","Alicia","Like this one, super creative, calming.,43,120,20","0"
"46927","","survey-text","173","1687552","0.0-173.0-0.0","AN5WGHGM4BTJ2","","","","{""Q0"":""I recognize a teddy bear. I don't know what else I am looking at. I don't understand pieces like this.""}","","","","","","","","","","","","","","","","","","","","","","",""
"10308.899999976158","","image-slider-response","174","1697864","0.0-174.0","AN5WGHGM4BTJ2","","","","","-50","","","","","","","","","","","","","","","","","","","","","",""
"null","","image-button-response","175","1702872","0.0-175.0","AN5WGHGM4BTJ2","img_art/16.jpg","null","","","","","","","","","","","","","","","","","","","","","","","","",""
"7264","","image-button-response","176","1710140","0.0-176.0","AN5WGHGM4BTJ2","img_art/16.jpg","5","","","","","","","","","","","","","","","","","","","","","","","","",""
"2866","","image-button-response","177","1713011","0.0-177.0-0.0","AN5WGHGM4BTJ2","img_art/16.jpg","4","","","","","","","","","","","","","","","","","","","","","","","","",""
"10909","","image-button-response","178","1723925","0.0-178.0-0.0","AN5WGHGM4BTJ2","img_art/16.jpg","0","","","","","","","","","","","","","","","","","","","","","","","","",""
"null","","html-keyboard-response","179","1725430","0.0-179.0","AN5WGHGM4BTJ2","<p style=""font-size: 48px;"">+</p>","","","","","null","allTrialResponses","1500","1","19","img_art/16.jpg","-50","I recognize a teddy bear. I don't know what else I am looking at. I don't understand pieces like this.","Alicia,Brooke,Caitlin,Madison,Marissa,Caroline","Don't get it. Hate it. ugly.,-44,120,20","Don't like teddy bears in art. I could draw that house.,-20,60,20","It is sick to put a teddy bear and a gun on the same piece of canvas.,-40,80,20","Pop art, Tate Modern horse dung.,-50,60,20","I do not like this dark and twisted portrayal of childhood,-42,160,20","Did not like at all. I think something sinister going on in the background and the bear a diversion,-50,100,20","Caroline","Did not like at all. I think something sinister going on in the background and the bear a diversion,-50,100,20","Marissa","I do not like this dark and twisted portrayal of childhood,-42,160,20","Alicia","Don't get it. Hate it. ugly.,-44,120,20","0"
"26703","","survey-text","180","1752143","0.0-180.0-0.0","AN5WGHGM4BTJ2","","","","{""Q0"":""I don't know what I am looking at. I like the bright red but don't like that it is mixed with this putrid green color.""}","","","","","","","","","","","","","","","","","","","","","","",""
"5248.900000095367","","image-slider-response","181","1757395","0.0-181.0","AN5WGHGM4BTJ2","","","","","-46","","","","","","","","","","","","","","","","","","","","","",""
"null","","image-button-response","182","1762404","0.0-182.0","AN5WGHGM4BTJ2","img_art/2.jpg","null","","","","","","","","","","","","","","","","","","","","","","","","",""
"2488","","image-button-response","183","1764895","0.0-183.0","AN5WGHGM4BTJ2","img_art/2.jpg","3","","","","","","","","","","","","","","","","","","","","","","","","",""
"8327","","image-button-response","184","1773226","0.0-184.0-0.0","AN5WGHGM4BTJ2","img_art/2.jpg","0","","","","","","","","","","","","","","","","","","","","","","","","",""
"3848","","image-button-response","185","1777079","0.0-185.0-0.0","AN5WGHGM4BTJ2","img_art/2.jpg","1","","","","","","","","","","","","","","","","","","","","","","","","",""
"null","","html-keyboard-response","186","1778582","0.0-186.0","AN5WGHGM4BTJ2","<p style=""font-size: 48px;"">+</p>","","","","","null","allTrialResponses","1500","1","20","img_art/2.jpg","-46","I don't know what I am looking at. I like the bright red but don't like that it is mixed with this putrid green color.","Alicia,Crystal,Mikayla,Kelsey,Marissa,Caroline","retro, amateurish, not a fan of the colors together.,-10,120,20","Looks contrived and like someone tried to hard to make it abstract,-31,300,20","I love the colors in this.,29,300,20","i dont like it, no thank you,-28,240,20","I feel bothered by the dark and dingy choice of colors,-22,160,20","Colors are drab and cause a sense of blandness,-28,100,20","Kelsey","i dont like it, no thank you,-28,240,20","Alicia","retro, amateurish, not a fan of the colors together.,-10,120,20","Crystal","Looks contrived and like someone tried to hard to make it abstract,-31,300,20","0"
"3513","","survey-text","187","1782115","0.0-187.0-0.0","AN5WGHGM4BTJ2","","","","{""Q0"":""we""}","","","","","","","","","","","","","","","","","","","","","","",""
"36914","","survey-text","188","1819035","0.0-188.0-0.0","AN5WGHGM4BTJ2","","","","{""Q0"":""I don't quite know what I am looking at. Is there a woman in a bed? Is it a depiction of a fairytale""}","","","","","","","","","","","","","","","","","","","","","","",""
"3906.7999999523163","","image-slider-response","189","1822945","0.0-189.0","AN5WGHGM4BTJ2","","","","","-35","","","","","","","","","","","","","","","","","","","","","",""
"null","","image-button-response","190","1827954","0.0-190.0","AN5WGHGM4BTJ2","img_art/9.jpg","null","","","","","","","","","","","","","","","","","","","","","","","","",""
"10880","","image-button-response","191","1838838","0.0-191.0","AN5WGHGM4BTJ2","img_art/9.jpg","3","","","","","","","","","","","","","","","","","","","","","","","","",""
"6484","","image-button-response","192","1845326","0.0-192.0-0.0","AN5WGHGM4BTJ2","img_art/9.jpg","2","","","","","","","","","","","","","","","","","","","","","","","","",""
"10818","","image-button-response","193","1856150","0.0-193.0-0.0","AN5WGHGM4BTJ2","img_art/9.jpg","5","","","","","","","","","","","","","","","","","","","","","","","","",""
"null","","html-keyboard-response","194","1857156","0.0-194.0","AN5WGHGM4BTJ2","<p style=""font-size: 48px;"">+</p>","","","","","null","allTrialResponses","1000","1","21","img_art/9.jpg","-35","I don't quite know what I am looking at. Is there a woman in a bed? Is it a depiction of a fairytale","Alicia,Crystal,Katherine,Kelsey,Christina,Lindsey","Abstract titanic scene. It's nice though. I like how it makes me feel.,28,120,20","Evokes triumph of a mountain over powering a drowning sea,24,300,20","Idk what is in the middle but the blurry image makes it seem like the subject is of the painters interest,22,120,20","i like the colors but not the composition,-17,240,20","nice colors but it looks like it's from the 80s,10,240,20","Looks like my niece's doodles.,-50,400,20","Kelsey","i like the colors but not the composition,-17,240,20","Katherine","Idk what is in the middle but the blurry image makes it seem like the subject is of the painters interest,22,120,20","Lindsey","Looks like my niece's doodles.,-50,400,20","0"
"28671","","survey-text","195","1885837","0.0-195.0-0.0","AN5WGHGM4BTJ2","","","","{""Q0"":""I don't understand what the painter wanted to coney. I wouldn't want this on my wall.""}","","","","","","","","","","","","","","","","","","","","","","",""
"9328.400000095367","","image-slider-response","196","1895169","0.0-196.0","AN5WGHGM4BTJ2","","","","","-37","","","","","","","","","","","","","","","","","","","","","",""
"null","","image-button-response","197","1900177","0.0-197.0","AN5WGHGM4BTJ2","img_art/21.jpg","null","","","","","","","","","","","","","","","","","","","","","","","","",""
"8126","","image-button-response","198","1908307","0.0-198.0","AN5WGHGM4BTJ2","img_art/21.jpg","5","","","","","","","","","","","","","","","","","","","","","","","","",""
"9351","","image-button-response","199","1917662","0.0-199.0-0.0","AN5WGHGM4BTJ2","img_art/21.jpg","2","","","","","","","","","","","","","","","","","","","","","","","","",""
"3304","","image-button-response","200","1920971","0.0-200.0-0.0","AN5WGHGM4BTJ2","img_art/21.jpg","3","","","","","","","","","","","","","","","","","","","","","","","","",""
"null","","html-keyboard-response","201","1921978","0.0-201.0","AN5WGHGM4BTJ2","<p style=""font-size: 48px;"">+</p>","","","","","null","allTrialResponses","1000","1","22","img_art/21.jpg","-37","I don't understand what the painter wanted to coney. I wouldn't want this on my wall.","Leah,Cassidy,Katherine,Kelsey,Katie,Lindsey","Love the colors, uplifting and stormy at the same time,32,360,20","I really like these colors together and their placement. The dabs of white are a nice contrast to the soft blending,10,140,20","I can't explain why this struck me as absolutely gorgeous. Like the clashing between 2 different worlds,43,120,20","i like watercolor,22,240,20","Immediately a positive response! I like the muted colors. the blurriness calms me. It's serene,40,160,20","I like this piece more the more I look at. Still wouldn't want it in my home, though.,8,400,20","Lindsey","I like this piece more the more I look at. Still wouldn't want it in my home, though.,8,400,20","Katherine","I can't explain why this struck me as absolutely gorgeous. Like the clashing between 2 different worlds,43,120,20","Kelsey","i like watercolor,22,240,20","0"
"41333","","survey-text","202","1963321","0.0-202.0-0.0","AN5WGHGM4BTJ2","","","","{""Q0"":""I don't know whether this painting is coming or going. I don't care for the use of lines. Is it a weird twisted highway?""}","","","","","","","","","","","","","","","","","","","","","","",""
"2904","","image-slider-response","203","1966228","0.0-203.0","AN5WGHGM4BTJ2","","","","","-41","","","","","","","","","","","","","","","","","","","","","",""
"null","","image-button-response","204","1971234","0.0-204.0","AN5WGHGM4BTJ2","img_art/11.jpg","null","","","","","","","","","","","","","","","","","","","","","","","","",""
"2987","","image-button-response","205","1974226","0.0-205.0","AN5WGHGM4BTJ2","img_art/11.jpg","1","","","","","","","","","","","","","","","","","","","","","","","","",""
"2394","","image-button-response","206","1976625","0.0-206.0-0.0","AN5WGHGM4BTJ2","img_art/11.jpg","3","","","","","","","","","","","","","","","","","","","","","","","","",""
"2447","","image-button-response","207","1979076","0.0-207.0-0.0","AN5WGHGM4BTJ2","img_art/11.jpg","2","","","","","","","","","","","","","","","","","","","","","","","","",""
"null","","html-keyboard-response","208","1980079","0.0-208.0","AN5WGHGM4BTJ2","<p style=""font-size: 48px;"">+</p>","","","","","null","allTrialResponses","1000","1","23","img_art/11.jpg","-41","I don't know whether this painting is coming or going. I don't care for the use of lines. Is it a weird twisted highway?","Dominique,Alexis,Katherine,Kelsey,Brianna,Lindsey","Looks like a familiar area,31,400,20","Don't like cityscapes, which this picture reminds me of,-29,100,20","Makes me feel like my vision is breaking,19,120,20","its like telephone wires, or mountains,-17,240,20","I like dark colors.,31,20,20","Not a fan of the colors but it looks interesting.,-31,400,20","Alexis","Don't like cityscapes, which this picture reminds me of,-29,100,20","Kelsey","its like telephone wires, or mountains,-17,240,20","Katherine","Makes me feel like my vision is breaking,19,120,20","0"
"45060","","survey-text","209","2025148","0.0-209.0-0.0","AN5WGHGM4BTJ2","","","","{""Q0"":""This is not a favorite. There is paintbrush in the middle. An egg yolk too? What is happening?""}","","","","","","","","","","","","","","","","","","","","","","",""
"9341.300000071526","","image-slider-response","210","2034493","0.0-210.0","AN5WGHGM4BTJ2","","","","","-47","","","","","","","","","","","","","","","","","","","","","",""
"null","","image-button-response","211","2039498","0.0-211.0","AN5WGHGM4BTJ2","img_art/29.jpg","null","","","","","","","","","","","","","","","","","","","","","","","","",""
"2954","","image-button-response","212","2042455","0.0-212.0","AN5WGHGM4BTJ2","img_art/29.jpg","3","","","","","","","","","","","","","","","","","","","","","","","","",""
"2238","","image-button-response","213","2044698","0.0-213.0-0.0","AN5WGHGM4BTJ2","img_art/29.jpg","4","","","","","","","","","","","","","","","","","","","","","","","","",""
"14465","","image-button-response","214","2059169","0.0-214.0-0.0","AN5WGHGM4BTJ2","img_art/29.jpg","1","","","","","","","","","","","","","","","","","","","","","","","","",""
"null","","html-keyboard-response","215","2059672","0.0-215.0","AN5WGHGM4BTJ2","<p style=""font-size: 48px;"">+</p>","","","","","null","allTrialResponses","500","1","24","img_art/29.jpg","-47","This is not a favorite. There is paintbrush in the middle. An egg yolk too? What is happening?","Isabella,Alexis,Katherine,Kelsey,Destiny,Laura","Darkness and torment,-50,280,20","The black color is great, but I'm really not a fan of this hectic style,-40,100,20","I think the grey and red inspire negative feelings but it's not the worst thing.,13,120,20","dont like this one,-20,240,20","is this supposed to be edgy,-21,360,20","this is not art to me - it's random collage,-45,320,20","Kelsey","dont like this one,-20,240,20","Destiny","is this supposed to be edgy,-21,360,20","Alexis","The black color is great, but I'm really not a fan of this hectic style,-40,100,20","0"
"33622","","survey-text","216","2093303","0.0-216.0-0.0","AN5WGHGM4BTJ2","","","","{""Q0"":""I don't know what I am looking at. I wouldn't want this on my wall. I don't care for the colors used.""}","","","","","","","","","","","","","","","","","","","","","","",""
"5520.5","","image-slider-response","217","2098827","0.0-217.0","AN5WGHGM4BTJ2","","","","","-48","","","","","","","","","","","","","","","","","","","","","",""
"null","","image-button-response","218","2103832","0.0-218.0","AN5WGHGM4BTJ2","img_art/28.jpg","null","","","","","","","","","","","","","","","","","","","","","","","","",""
"5368","","image-button-response","219","2109202","0.0-219.0","AN5WGHGM4BTJ2","img_art/28.jpg","5","","","","","","","","","","","","","","","","","","","","","","","","",""
"5762","","image-button-response","220","2114969","0.0-220.0-0.0","AN5WGHGM4BTJ2","img_art/28.jpg","2","","","","","","","","","","","","","","","","","","","","","","","","",""
"8453","","image-button-response","221","2123426","0.0-221.0-0.0","AN5WGHGM4BTJ2","img_art/28.jpg","1","","","","","","","","","","","","","","","","","","","","","","","","",""
"null","","html-keyboard-response","222","2123931","0.0-222.0","AN5WGHGM4BTJ2","<p style=""font-size: 48px;"">+</p>","","","","","null","allTrialResponses","500","1","25","img_art/28.jpg","-48","I don't know what I am looking at. I wouldn't want this on my wall. I don't care for the colors used.","Chloe,Alexis,Abigail,Kelsey,Destiny,Morgan","Evocative but a little dreary.,20,220,20","Interesting. I like the ""old woman"" on the left. Lots of different entities to look at,21,100,20","A messy bed room,-7,20,20","this one is rather disturbing,-22,240,20","I wish I knew why I liked it, maybes its the pinky tones,36,360,20","Apartment throw up.,-5,380,20","Morgan","Apartment throw up.,-5,380,20","Abigail","A messy bed room,-7,20,20","Alexis","Interesting. I like the ""old woman"" on the left. Lots of different entities to look at,21,100,20","0"
"3985","","survey-text","223","2127934","0.0-223.0-0.0","AN5WGHGM4BTJ2","","","","{""Q0"":""table""}","","","","","","","","","","","","","","","","","","","","","","",""
"22213","","survey-text","224","2150150","0.0-224.0-0.0","AN5WGHGM4BTJ2","","","","{""Q0"":""Some kind of twisted scenic drive?""}","","","","","","","","","","","","","","","","","","","","","","",""
"5776.600000023842","","image-slider-response","225","2155932","0.0-225.0","AN5WGHGM4BTJ2","","","","","-46","","","","","","","","","","","","","","","","","","","","","",""
"3850","","image-button-response","226","2160940","0.0-226.0","AN5WGHGM4BTJ2","img_art/10.jpg","1","","","","","","","","","","","","","","","","","","","","","","","","",""
"1725","","image-button-response","227","2162668","0.0-227.0","AN5WGHGM4BTJ2","img_art/10.jpg","1","","","","","","","","","","","","","","","","","","","","","","","","",""
"4112","","image-button-response","228","2166784","0.0-228.0-0.0","AN5WGHGM4BTJ2","img_art/10.jpg","5","","","","","","","","","","","","","","","","","","","","","","","","",""
"6174","","image-button-response","229","2172963","0.0-229.0-0.0","AN5WGHGM4BTJ2","img_art/10.jpg","2","","","","","","","","","","","","","","","","","","","","","","","","",""
"null","","html-keyboard-response","230","2173970","0.0-230.0","AN5WGHGM4BTJ2","<p style=""font-size: 48px;"">+</p>","","","","","null","allTrialResponses","1000","1","26","img_art/10.jpg","-46","Some kind of twisted scenic drive?","Shelby,Alexis,Abigail,Makayla,Tiffany,Morgan","Love the monotonal texture,20,240,20","Too abstract and it doesn't really remind me of anything,-40,100,20","Looks gross and messy,-39,20,20","I don't hate but don't like it because it looks like a oil slick,2,80,20","I feel little to no emotion looking at this painting.,0,360,20","Roller coaster on an island.,9,380,20","Alexis","Too abstract and it doesn't really remind me of anything,-40,100,20","Morgan","Roller coaster on an island.,9,380,20","Abigail","Looks gross and messy,-39,20,20","0"
"22887","","survey-text","231","2196867","0.0-231.0-0.0","AN5WGHGM4BTJ2","","","","{""Q0"":""I think there is a true painted in blue. Is this a neighborhood scene? I don't really like it.""}","","","","","","","","","","","","","","","","","","","","","","",""
"3813.5","","image-slider-response","232","2200684","0.0-232.0","AN5WGHGM4BTJ2","","","","","-40","","","","","","","","","","","","","","","","","","","","","",""
"null","","image-button-response","233","2205694","0.0-233.0","AN5WGHGM4BTJ2","img_art/26.jpg","null","","","","","","","","","","","","","","","","","","","","","","","","",""
"6067","","image-button-response","234","2211765","0.0-234.0","AN5WGHGM4BTJ2","img_art/26.jpg","5","","","","","","","","","","","","","","","","","","","","","","","","",""
"1529","","image-button-response","235","2213299","0.0-235.0-0.0","AN5WGHGM4BTJ2","img_art/26.jpg","3","","","","","","","","","","","","","","","","","","","","","","","","",""
"2665","","image-button-response","236","2215968","0.0-236.0-0.0","AN5WGHGM4BTJ2","img_art/26.jpg","2","","","","","","","","","","","","","","","","","","","","","","","","",""
"null","","html-keyboard-response","237","2216475","0.0-237.0","AN5WGHGM4BTJ2","<p style=""font-size: 48px;"">+</p>","","","","","null","allTrialResponses","500","1","27","img_art/26.jpg","-40","I think there is a true painted in blue. Is this a neighborhood scene? I don't really like it.","Jacqueline,Alexis,Abigail,Andrea,Maria,Morgan","I don't really see the point in this painting.,-16,300,20","Much too simple and without color for my taste,-33,100,20","Reminds me of walks in my dads city when I was little,22,20,20","I get the feeling of a small old world street.,24,240,20","fairly neutral, really,8,120,20","Confusing park picture.,8,380,20","Morgan","Confusing park picture.,8,380,20","Andrea","I get the feeling of a small old world street.,24,240,20","Abigail","Reminds me of walks in my dads city when I was little,22,20,20","0"
"19530","","survey-text","238","2236015","0.0-238.0-0.0","AN5WGHGM4BTJ2","","","","{""Q0"":""I like the bright red. I like the gold. I have no idea though what I am looking at.""}","","","","","","","","","","","","","","","","","","","","","","",""
"6851","","image-slider-response","239","2242869","0.0-239.0","AN5WGHGM4BTJ2","","","","","-36","","","","","","","","","","","","","","","","","","","","","",""
"null","","image-button-response","240","2247875","0.0-240.0","AN5WGHGM4BTJ2","img_art/4.jpg","null","","","","","","","","","","","","","","","","","","","","","","","","",""
"10137","","image-button-response","241","2258016","0.0-241.0","AN5WGHGM4BTJ2","img_art/4.jpg","4","","","","","","","","","","","","","","","","","","","","","","","","",""
"4535","","image-button-response","242","2262555","0.0-242.0-0.0","AN5WGHGM4BTJ2","img_art/4.jpg","2","","","","","","","","","","","","","","","","","","","","","","","","",""
"9709","","image-button-response","243","2272270","0.0-243.0-0.0","AN5WGHGM4BTJ2","img_art/4.jpg","3","","","","","","","","","","","","","","","","","","","","","","","","",""
"null","","html-keyboard-response","244","2273278","0.0-244.0","AN5WGHGM4BTJ2","<p style=""font-size: 48px;"">+</p>","","","","","null","allTrialResponses","1000","1","28","img_art/4.jpg","-36","I like the bright red. I like the gold. I have no idea though what I am looking at.","Monica,Michaela,Abigail,Andrea,Julia,Morgan","The dark yellow color makes me think of mustard, which I dislike,-27,360,20","It reminds me of something a kid would make for their parents,13,260,20","A hand reaching for something it cannot obtain,-9,20,20","I think it speaks to familial closeness but the tonality is offputting to me.,-10,240,20","it reminds me of McDonalds, and not in a good way.,-34,40,20","Pretzel noodles.,7,380,20","Julia","it reminds me of McDonalds, and not in a good way.,-34,40,20","Abigail","A hand reaching for something it cannot obtain,-9,20,20","Andrea","I think it speaks to familial closeness but the tonality is offputting to me.,-10,240,20","0"
"19294","","survey-text","245","2292585","0.0-245.0-0.0","AN5WGHGM4BTJ2","","","","{""Q0"":""This is very simple. Am I looking at a sparse landscape with a tree?""}","","","","","","","","","","","","","","","","","","","","","","",""
"4879.5","","image-slider-response","246","2297467","0.0-246.0","AN5WGHGM4BTJ2","","","","","-40","","","","","","","","","","","","","","","","","","","","","",""
"4213","","image-button-response","247","2302474","0.0-247.0","AN5WGHGM4BTJ2","img_art/6.jpg","1","","","","","","","","","","","","","","","","","","","","","","","","",""
"1594","","image-button-response","248","2304071","0.0-248.0","AN5WGHGM4BTJ2","img_art/6.jpg","1","","","","","","","","","","","","","","","","","","","","","","","","",""
"1092","","image-button-response","249","2305167","0.0-249.0-0.0","AN5WGHGM4BTJ2","img_art/6.jpg","3","","","","","","","","","","","","","","","","","","","","","","","","",""
"16471","","image-button-response","250","2321643","0.0-250.0-0.0","AN5WGHGM4BTJ2","img_art/6.jpg","5","","","","","","","","","","","","","","","","","","","","","","","","",""
"null","","html-keyboard-response","251","2323146","0.0-251.0","AN5WGHGM4BTJ2","<p style=""font-size: 48px;"">+</p>","","","","","null","allTrialResponses","1500","1","29","img_art/6.jpg","-40","This is very simple. Am I looking at a sparse landscape with a tree?","Melissa,Samantha,Abigail,Andrea,Julia,Savannah","composition is engaging,28,240,20","It isnt bad but sort of too bland,0,140,20","This picture is weird,-6,20,20","So forlorn, and beauty amid desolation.,25,240,20","this is too simple for me,-34,40,20","Despite how simple it is, this piece has clear meaning.,34,200,20","Samantha","It isnt bad but sort of too bland,0,140,20","Andrea","So forlorn, and beauty amid desolation.,25,240,20","Savannah","Despite how simple it is, this piece has clear meaning.,34,200,20","0"
"33157","","survey-text","252","2356316","0.0-252.0-0.0","AN5WGHGM4BTJ2","","","","{""Q0"":""I think it is a picture of something growing out of the ground? I don't like pictures that I have no idea what I am looking at.""}","","","","","","","","","","","","","","","","","","","","","","",""
"4970.700000047684","","image-slider-response","253","2361290","0.0-253.0","AN5WGHGM4BTJ2","","","","","-40","","","","","","","","","","","","","","","","","","","","","",""
"null","","image-button-response","254","2366299","0.0-254.0","AN5WGHGM4BTJ2","img_art/14.jpg","null","","","","","","","","","","","","","","","","","","","","","","","","",""
"5597","","image-button-response","255","2371900","0.0-255.0","AN5WGHGM4BTJ2","img_art/14.jpg","4","","","","","","","","","","","","","","","","","","","","","","","","",""
"9112","","image-button-response","256","2381016","0.0-256.0-0.0","AN5WGHGM4BTJ2","img_art/14.jpg","1","","","","","","","","","","","","","","","","","","","","","","","","",""
"8014","","image-button-response","257","2389036","0.0-257.0-0.0","AN5WGHGM4BTJ2","img_art/14.jpg","3","","","","","","","","","","","","","","","","","","","","","","","","",""
"null","","html-keyboard-response","258","2390541","0.0-258.0","AN5WGHGM4BTJ2","<p style=""font-size: 48px;"">+</p>","","","","","null","allTrialResponses","1500","1","30","img_art/14.jpg","-40","I think it is a picture of something growing out of the ground? I don't like pictures that I have no idea what I am looking at.","Jennifer,Samantha,Courtney,Andrea,Haley,Savannah","This piece is average compared to the others.,1,380,20","I love the feeling of the tree and people. Makes me happy,50,140,20","The pirates ship is sinking.,27,280,20","Cute little plant.,15,240,20","I like the colors in the background, but not the bottom/center. It almost looks sloppy.,-20,220,20","Again. This is pretty neutral, leaning dislike.,-18,200,20","Haley","I like the colors in the background, but not the bottom/center. It almost looks sloppy.,-20,220,20","Samantha","I love the feeling of the tree and people. Makes me happy,50,140,20","Andrea","Cute little plant.,15,240,20","0"
"3316","","image-button-response_instructions","259","2393868","0.0-259.0","AN5WGHGM4BTJ2","","0","instructions","","","","","","","","","","","","","","","","","","","","","","","",""
"1707","","image-button-response","260","2395586","0.0-260.0","AN5WGHGM4BTJ2","","0","","","","","","","","","","","","","","","","","","","","","","","","",""
