"rt","url","trial_type","trial_index","time_elapsed","internal_node_id","participant_id","stimulus","button_pressed","Name","responses","response","key_press","variableName","fixationTime","condition","trial","photo","subjectRating","subjectResponse","agentsNames","agent_1_Response","agent_2_Response","agent_3_Response","agent_4_Response","agent_5_Response","agent_6_Response","kept_1_name","kept_1_response","kept_2_name","kept_2_response","kept_3_name","kept_3_response","errorCounter"
"1045062","external_page_harvard.html","external-html","0","1045291","0.0-0.0","ANUA9X7BFPTR8","","","","","","","","","","","","","","","","","","","","","","","","","","",""
"2274","","image-button-response","1","1047568","0.0-1.0","ANUA9X7BFPTR8","","1","","","","","","","","","","","","","","","","","","","","","","","","",""
"2506","","image-button-response","2","1050081","0.0-2.0-0.0","ANUA9X7BFPTR8","","1","phone","","","","","","","","","","","","","","","","","","","","","","","",""
"6205","","survey-text","3","1056289","0.0-3.0-0.0","ANUA9X7BFPTR8","","","","{""Q0"":""ANUA9X7BFPTR8""}","","","","","","","","","","","","","","","","","","","","","","",""
"77867","","image-button-response_instructions","4","1134161","0.0-4.0","ANUA9X7BFPTR8","","0","instructions","","","","","","","","","","","","","","","","","","","","","","","",""
"29734","","image-button-response_instructions","5","1163897","0.0-5.0","ANUA9X7BFPTR8","img_art/ins/popularity/ins1.png","0","instructions","","","","","","","","","","","","","","","","","","","","","","","",""
"6555","","image-button-response_instructions","6","1170453","0.0-6.0","ANUA9X7BFPTR8","img_art/ins/popularity/ins2.png","0","instructions","","","","","","","","","","","","","","","","","","","","","","","",""
"3256","","image-button-response_instructions","7","1173710","0.0-7.0","ANUA9X7BFPTR8","img_art/ins/popularity/ins2Extreme.png","0","instructions","","","","","","","","","","","","","","","","","","","","","","","",""
"32863","","image-button-response_instructions","8","1206575","0.0-8.0","ANUA9X7BFPTR8","img_art/ins/popularity/ins3KEEPpop.PNG","0","instructions","","","","","","","","","","","","","","","","","","","","","","","",""
"3570","","image-button-response_instructions","9","1210145","0.0-9.0","ANUA9X7BFPTR8","img_art/ins/popularity/ins3ANamepop.PNG","0","instructions","","","","","","","","","","","","","","","","","","","","","","","",""
"3320","","image-button-response_instructions","10","1213466","0.0-10.0","ANUA9X7BFPTR8","img_art/ins/popularity/ins3ARatingpop.png","0","instructions","","","","","","","","","","","","","","","","","","","","","","","",""
"2552","","image-button-response_instructions","11","1216020","0.0-11.0","ANUA9X7BFPTR8","img_art/ins/popularity/ins3ATextpop.png","0","instructions","","","","","","","","","","","","","","","","","","","","","","","",""
"7068","","image-button-response_instructions","12","1223088","0.0-12.0","ANUA9X7BFPTR8","img_art/ins/popularity/ins3ALikespop.png","0","instructions","","","","","","","","","","","","","","","","","","","","","","","",""
"421301","","image-button-response_instructions","13","1644392","0.0-13.0","ANUA9X7BFPTR8","img_art/ins/popularity/ins3KEEPpop.PNG","0","instructions","","","","","","","","","","","","","","","","","","","","","","","",""
"13928","","image-button-response_instructions","14","1658322","0.0-14.0","ANUA9X7BFPTR8","img_art/ins/popularity/ins3_5RED.png","0","instructions","","","","","","","","","","","","","","","","","","","","","","","",""
"5596","","image-button-response_instructions","15","1663919","0.0-15.0","ANUA9X7BFPTR8","img_art/ins/popularity/ins3KEEPpop.PNG","0","instructions","","","","","","","","","","","","","","","","","","","","","","","",""
"7339","","image-button-response_instructions","16","1671260","0.0-16.0","ANUA9X7BFPTR8","img_art/ins/popularity/ins4KEEPpop.PNG","0","instructions","","","","","","","","","","","","","","","","","","","","","","","",""
"5136","","image-button-response_instructions","17","1676397","0.0-17.0","ANUA9X7BFPTR8","img_art/ins/popularity/ins5KEEPpop.PNG","0","instructions","","","","","","","","","","","","","","","","","","","","","","","",""
"1299","","image-button-response_instructions","18","1677697","0.0-18.0","ANUA9X7BFPTR8","","0","instructions","","","","","","","","","","","","","","","","","","","","","","","",""
"7186","","survey-text","19","1684909","0.0-19.0-0.0","ANUA9X7BFPTR8","","","","{""Q0"":""but""}","","","","","","","","","","","","","","","","","","","","","","",""
"17493","","survey-text","20","1702403","0.0-20.0-0.0","ANUA9X7BFPTR8","","","","{""Q0"":""I can't tell if this was made by a child or an adult""}","","","","","","","","","","","","","","","","","","","","","","",""
"5312.800000071526","","image-slider-response","21","1707719","0.0-21.0","ANUA9X7BFPTR8","","","","","6","","","","","","","","","","","","","","","","","","","","","",""
"null","","image-button-response","22","1712738","0.0-22.0","ANUA9X7BFPTR8","img_art/ins/1.jpg","null","","","","","","","","","","","","","","","","","","","","","","","","",""
"19818","","image-button-response","23","1732558","0.0-23.0","ANUA9X7BFPTR8","img_art/ins/1.jpg","3","","","","","","","","","","","","","","","","","","","","","","","","",""
"11398","","image-button-response","24","1743960","0.0-24.0-0.0","ANUA9X7BFPTR8","img_art/ins/1.jpg","4","","","","","","","","","","","","","","","","","","","","","","","","",""
"1258","","image-button-response","25","1745221","0.0-25.0-0.0","ANUA9X7BFPTR8","img_art/ins/1.jpg","2","","","","","","","","","","","","","","","","","","","","","","","","",""
"null","","html-keyboard-response","26","1746723","0.0-26.0","ANUA9X7BFPTR8","<p style=""font-size: 48px;"">+</p>","","","","","null","allTrialResponses","1500","1","-2","img_art/ins/1.jpg","6","I can't tell if this was made by a child or an adult","Allison,Ashley,Beth,Dora,Erika,Jen","looks like a lot of things going on in the mist,20,20,20","I just don't get why these type of art would be popular,-32,40,20","This color reminds me of poo,-46,60,20","looks like what my niece in 3rd grade did this afternoon,-50,80,20","I like the sophisticated brushwork,40,100,20","It reminds me of a candy land dream I had,36,120,20","Dora","looks like what my niece in 3rd grade did this afternoon,-50,80,20","Erika","I like the sophisticated brushwork,40,100,20","Beth","This color reminds me of poo,-46,60,20","0"
"27167","","survey-text","27","1773899","0.0-27.0-0.0","ANUA9X7BFPTR8","","","","{""Q0"":""These color combinations are amazing""}","","","","","","","","","","","","","","","","","","","","","","",""
"81125.29999995232","","image-slider-response","28","1855029","0.0-28.0","ANUA9X7BFPTR8","","","","","45","","","","","","","","","","","","","","","","","","","","","",""
"null","","image-button-response","29","1860034","0.0-29.0","ANUA9X7BFPTR8","img_art/ins/2.jpg","null","","","","","","","","","","","","","","","","","","","","","","","","",""
"8096","","image-button-response","30","1868132","0.0-30.0","ANUA9X7BFPTR8","img_art/ins/2.jpg","4","","","","","","","","","","","","","","","","","","","","","","","","",""
"1660","","image-button-response","31","1869793","0.0-31.0-0.0","ANUA9X7BFPTR8","img_art/ins/2.jpg","0","","","","","","","","","","","","","","","","","","","","","","","","",""
"9794","","image-button-response","32","1879592","0.0-32.0-0.0","ANUA9X7BFPTR8","img_art/ins/2.jpg","3","","","","","","","","","","","","","","","","","","","","","","","","",""
"null","","html-keyboard-response","33","1880596","0.0-33.0","ANUA9X7BFPTR8","<p style=""font-size: 48px;"">+</p>","","","","","null","allTrialResponses","1000","1","-1","img_art/ins/2.jpg","45","These color combinations are amazing","Kara,Jenna,Beth,Dora,Erika,Katie","I like the blocks of color arrangements,30,160,20","One of my pet peevs,-48,140,20","meaningless painting,-45,60,20","looks too angry,-50,80,20","I would never be able to compose a sophisticated pallete like this,48,100,20","too much color!,-28,180,20","Erika","I would never be able to compose a sophisticated pallete like this,48,100,20","Kara","I like the blocks of color arrangements,30,160,20","Dora","looks too angry,-50,80,20","0"
"14193","","survey-text","34","1894805","0.0-34.0-0.0","ANUA9X7BFPTR8","","","","{""Q0"":""The soft colors are very relaxing""}","","","","","","","","","","","","","","","","","","","","","","",""
"22960.5","","image-slider-response","35","1917769","0.0-35.0","ANUA9X7BFPTR8","","","","","43","","","","","","","","","","","","","","","","","","","","","",""
"null","","image-button-response","36","1922773","0.0-36.0","ANUA9X7BFPTR8","img_art/ins/3.jpg","null","","","","","","","","","","","","","","","","","","","","","","","","",""
"12034","","image-button-response","37","1934808","0.0-37.0","ANUA9X7BFPTR8","img_art/ins/3.jpg","0","","","","","","","","","","","","","","","","","","","","","","","","",""
"2860","","image-button-response","38","1937670","0.0-38.0-0.0","ANUA9X7BFPTR8","img_art/ins/3.jpg","3","","","","","","","","","","","","","","","","","","","","","","","","",""
"1203","","image-button-response","39","1938875","0.0-39.0-0.0","ANUA9X7BFPTR8","img_art/ins/3.jpg","2","","","","","","","","","","","","","","","","","","","","","","","","",""
"null","","html-keyboard-response","40","1940377","0.0-40.0","ANUA9X7BFPTR8","<p style=""font-size: 48px;"">+</p>","","","","","null","allTrialResponses","1500","1","0","img_art/ins/3.jpg","43","The soft colors are very relaxing","Kara,Mary,Leslie,Dora,Erika,Rose","calming blue is very nice,36,160,20","I like the overlapping of brushes,41,220,20","It's an alright work,15,200,20","My worst nightmare,-42,80,20","I feel connected to the artist,40,100,20","My daily routine, it's depressing,-20,240,20","Kara","calming blue is very nice,36,160,20","Dora","My worst nightmare,-42,80,20","Leslie","It's an alright work,15,200,20","0"
"4136","","image-button-response_instructions","41","1944519","0.0-41.0","ANUA9X7BFPTR8","","0","instructions","","","","","","","","","","","","","","","","","","","","","","","",""
"8625","","survey-likert","42","1953146","0.0-42.0-0.0","ANUA9X7BFPTR8","","","","{""Q0"":"""",""Q1"":0,""Q2"":1}","","","","","","","","","","","","","","","","","","","","","","",""
"4829","","survey-text","43","1957981","0.0-43.0-0.0","ANUA9X7BFPTR8","","","","{""Q0"":""rock""}","","","","","","","","","","","","","","","","","","","","","","",""
"14661","","survey-text","44","1972645","0.0-44.0-0.0","ANUA9X7BFPTR8","","","","{""Q0"":""This is too depressing""}","","","","","","","","","","","","","","","","","","","","","","",""
"4911.300000071526","","image-slider-response","45","1977559","0.0-45.0","ANUA9X7BFPTR8","","","","","-15","","","","","","","","","","","","","","","","","","","","","",""
"null","","image-button-response","46","1982593","0.0-46.0","ANUA9X7BFPTR8","img_art/12.jpg","null","","","","","","","","","","","","","","","","","","","","","","","","",""
"4084","","image-button-response","47","1986679","0.0-47.0","ANUA9X7BFPTR8","img_art/12.jpg","2","","","","","","","","","","","","","","","","","","","","","","","","",""
"6501","","image-button-response","48","1993183","0.0-48.0-0.0","ANUA9X7BFPTR8","img_art/12.jpg","4","","","","","","","","","","","","","","","","","","","","","","","","",""
"4824","","image-button-response","49","1998010","0.0-49.0-0.0","ANUA9X7BFPTR8","img_art/12.jpg","0","","","","","","","","","","","","","","","","","","","","","","","","",""
"null","","html-keyboard-response","50","1999512","0.0-50.0","ANUA9X7BFPTR8","<p style=""font-size: 48px;"">+</p>","","","","","null","allTrialResponses","1500","1","1","img_art/12.jpg","-15","This is too depressing","Kylie,Madison,Kaylee,Caroline,Tiffany,Amanda","Night and day, light and dark,35,300,20","Different enough to be memorable. The gradient of hues is appealing and appeasing.,32,60,20","wtf is that i dont get it,-50,200,20","I like the colors in both sections, brights compared to neutrals. Each block has a different view. I think of the future,11,100,20","The painting makes me uncomfortable. The smears in the boxes feel like a giant mess.,-16,360,20","The colors are beautiful and it has great composition,50,180,20","Kaylee","wtf is that i dont get it,-50,200,20","Tiffany","The painting makes me uncomfortable. The smears in the boxes feel like a giant mess.,-16,360,20","Kylie","Night and day, light and dark,35,300,20","0"
"23679","","survey-text","51","2023195","0.0-51.0-0.0","ANUA9X7BFPTR8","","","","{""Q0"":""I can't make out what the round shape in the middle is""}","","","","","","","","","","","","","","","","","","","","","","",""
"6416.5","","image-slider-response","52","2029613","0.0-52.0","ANUA9X7BFPTR8","","","","","13","","","","","","","","","","","","","","","","","","","","","",""
"null","","image-button-response","53","2034631","0.0-53.0","ANUA9X7BFPTR8","img_art/22.jpg","null","","","","","","","","","","","","","","","","","","","","","","","","",""
"2651","","image-button-response","54","2037284","0.0-54.0","ANUA9X7BFPTR8","img_art/22.jpg","2","","","","","","","","","","","","","","","","","","","","","","","","",""
"3635","","image-button-response","55","2040920","0.0-55.0-0.0","ANUA9X7BFPTR8","img_art/22.jpg","4","","","","","","","","","","","","","","","","","","","","","","","","",""
"3543","","image-button-response","56","2044465","0.0-56.0-0.0","ANUA9X7BFPTR8","img_art/22.jpg","0","","","","","","","","","","","","","","","","","","","","","","","","",""
"null","","html-keyboard-response","57","2045978","0.0-57.0","ANUA9X7BFPTR8","<p style=""font-size: 48px;"">+</p>","","","","","null","allTrialResponses","1500","1","2","img_art/22.jpg","13","I can't make out what the round shape in the middle is","Kylie,Catherine,Kaylee,Erika,Tiffany,Angela","Climate change in a big city,35,300,20","Scary monsters lurking causing confusion.,-40,160,20","its just ugly for me,-50,200,20","Beautiful forms, using color to define shape,14,100,20","The painting makes me feel a little sad.,12,360,20","Like the colors. I enjoy looking at this one.,15,260,20","Kaylee","its just ugly for me,-50,200,20","Tiffany","The painting makes me feel a little sad.,12,360,20","Kylie","Climate change in a big city,35,300,20","0"
"19506","","survey-text","58","2065490","0.0-58.0-0.0","ANUA9X7BFPTR8","","","","{""Q0"":""This reminds me of a rainy window""}","","","","","","","","","","","","","","","","","","","","","","",""
"2750.1999999284744","","image-slider-response","59","2068242","0.0-59.0","ANUA9X7BFPTR8","","","","","29","","","","","","","","","","","","","","","","","","","","","",""
"4313","","image-button-response","60","2073258","0.0-60.0","ANUA9X7BFPTR8","img_art/13.jpg","1","","","","","","","","","","","","","","","","","","","","","","","","",""
"1339","","image-button-response","61","2074600","0.0-61.0","ANUA9X7BFPTR8","img_art/13.jpg","1","","","","","","","","","","","","","","","","","","","","","","","","",""
"3987","","image-button-response","62","2078589","0.0-62.0-0.0","ANUA9X7BFPTR8","img_art/13.jpg","5","","","","","","","","","","","","","","","","","","","","","","","","",""
"736","","image-button-response","63","2079328","0.0-63.0-0.0","ANUA9X7BFPTR8","img_art/13.jpg","2","","","","","","","","","","","","","","","","","","","","","","","","",""
"null","","html-keyboard-response","64","2080329","0.0-64.0","ANUA9X7BFPTR8","<p style=""font-size: 48px;"">+</p>","","","","","null","allTrialResponses","1000","1","3","img_art/13.jpg","29","This reminds me of a rainy window","Kylie,Andrea,Kaylee,Chloe,Tiffany,Margaret","Very abstract and soothing,40,300,20","Raindrops on a window. Makes me feel like traveling.,31,240,20","its crazy to the point that i cant get it,-28,200,20","Industrial Jackson Pollock knock-off,-20,220,20","The painting makes me feel awe and like I am very little. Like I am alone at the bottom of the ocean.,41,360,20","i like the splatters and the colors,21,100,20","Andrea","Raindrops on a window. Makes me feel like traveling.,31,240,20","Margaret","i like the splatters and the colors,21,100,20","Kaylee","its crazy to the point that i cant get it,-28,200,20","0"
"211699","","survey-text","65","2292032","0.0-65.0-0.0","ANUA9X7BFPTR8","","","","{""Q0"":""I feel like I am up in the sky looking down on a castle""}","","","","","","","","","","","","","","","","","","","","","","",""
"2693","","image-slider-response","66","2294728","0.0-66.0","ANUA9X7BFPTR8","","","","","26","","","","","","","","","","","","","","","","","","","","","",""
"null","","image-button-response","67","2299744","0.0-67.0","ANUA9X7BFPTR8","img_art/8.jpg","null","","","","","","","","","","","","","","","","","","","","","","","","",""
"3976","","image-button-response","68","2303721","0.0-68.0","ANUA9X7BFPTR8","img_art/8.jpg","4","","","","","","","","","","","","","","","","","","","","","","","","",""
"1778","","image-button-response","69","2305503","0.0-69.0-0.0","ANUA9X7BFPTR8","img_art/8.jpg","2","","","","","","","","","","","","","","","","","","","","","","","","",""
"1838","","image-button-response","70","2307343","0.0-70.0-0.0","ANUA9X7BFPTR8","img_art/8.jpg","5","","","","","","","","","","","","","","","","","","","","","","","","",""
"null","","html-keyboard-response","71","2307846","0.0-71.0","ANUA9X7BFPTR8","<p style=""font-size: 48px;"">+</p>","","","","","null","allTrialResponses","500","1","4","img_art/8.jpg","26","I feel like I am up in the sky looking down on a castle","Kristen,Andrea,Kaylee,Ashley,Julia,Margaret","mothe nature/godess, watching over you,21,280,20","The face makes me think its a statement of the almighty of big brother watching us. onfuCsion limits my enjoyment.,6,240,20","beautiful buildings,32,200,20","Escher? Dali? Could be their lovechild?,50,320,20","it's a little too classical for my tastes,-25,40,20","its pretty exciting to look at, there is alot going on,15,100,20","Julia","it's a little too classical for my tastes,-25,40,20","Kaylee","beautiful buildings,32,200,20","Margaret","its pretty exciting to look at, there is alot going on,15,100,20","0"
"20836","","survey-text","72","2328695","0.0-72.0-0.0","ANUA9X7BFPTR8","","","","{""Q0"":""This looks like something out of a nightmare""}","","","","","","","","","","","","","","","","","","","","","","",""
"19653.399999976158","","image-slider-response","73","2348350","0.0-73.0","ANUA9X7BFPTR8","","","","","-16","","","","","","","","","","","","","","","","","","","","","",""
"null","","image-button-response","74","2353352","0.0-74.0","ANUA9X7BFPTR8","img_art/20.jpg","null","","","","","","","","","","","","","","","","","","","","","","","","",""
"1928","","image-button-response","75","2355282","0.0-75.0","ANUA9X7BFPTR8","img_art/20.jpg","2","","","","","","","","","","","","","","","","","","","","","","","","",""
"3202","","image-button-response","76","2358486","0.0-76.0-0.0","ANUA9X7BFPTR8","img_art/20.jpg","1","","","","","","","","","","","","","","","","","","","","","","","","",""
"1790","","image-button-response","77","2360278","0.0-77.0-0.0","ANUA9X7BFPTR8","img_art/20.jpg","3","","","","","","","","","","","","","","","","","","","","","","","","",""
"null","","html-keyboard-response","78","2361279","0.0-78.0","ANUA9X7BFPTR8","<p style=""font-size: 48px;"">+</p>","","","","","null","allTrialResponses","1000","1","5","img_art/20.jpg","-16","This looks like something out of a nightmare","Diana,Jacqueline,Kaylee,Makayla,Julia,Margaret","I'm not sure why this reminds me of surrealism. It might be the colors used.,16,380,20","Looks like a refinery dumping shit into the water.,-40,300,20","i can see a car crash,13,200,20","Little picturesque town that I would like to visit,19,80,20","The colors are nice, and the shapes conjure the decay of the city in the face of natural entropy,19,40,20","It seems to be a neutral cool toned art piece. Gives me alamo/desert vibes,2,100,20","Kaylee","i can see a car crash,13,200,20","Jacqueline","Looks like a refinery dumping shit into the water.,-40,300,20","Makayla","Little picturesque town that I would like to visit,19,80,20","0"
"4093","","survey-text","79","2365381","0.0-79.0-0.0","ANUA9X7BFPTR8","","","","{""Q0"":""sky""}","","","","","","","","","","","","","","","","","","","","","","",""
"22892","","survey-text","80","2388275","0.0-80.0-0.0","ANUA9X7BFPTR8","","","","{""Q0"":""This looks like something a young child drew""}","","","","","","","","","","","","","","","","","","","","","","",""
"4000.7000000476837","","image-slider-response","81","2392278","0.0-81.0","ANUA9X7BFPTR8","","","","","-8","","","","","","","","","","","","","","","","","","","","","",""
"1557","","image-button-response","82","2397280","0.0-82.0","ANUA9X7BFPTR8","img_art/3.jpg","0","","","","","","","","","","","","","","","","","","","","","","","","",""
"986","","image-button-response","83","2398268","0.0-83.0","ANUA9X7BFPTR8","img_art/3.jpg","1","","","","","","","","","","","","","","","","","","","","","","","","",""
"1196","","image-button-response","84","2399466","0.0-84.0-0.0","ANUA9X7BFPTR8","img_art/3.jpg","0","","","","","","","","","","","","","","","","","","","","","","","","",""
"5448","","image-button-response","85","2404916","0.0-85.0-0.0","ANUA9X7BFPTR8","img_art/3.jpg","2","","","","","","","","","","","","","","","","","","","","","","","","",""
"null","","html-keyboard-response","86","2406430","0.0-86.0","ANUA9X7BFPTR8","<p style=""font-size: 48px;"">+</p>","","","","","null","allTrialResponses","1500","1","6","img_art/3.jpg","-8","This looks like something a young child drew","Angelica,Jacqueline,Kaylee,Makayla,Marissa,Natalie","This is angry and childish looking.,-49,280,20","Looks like a bloody head with teeth.,-16,300,20","i really cant get it,-44,200,20","Looks like blood scribbled on walls,-20,80,20","It feels like a half assed and failed imitation of Japanese signatures on old paintings,-22,160,20","my response to the picture is a lot of red, danger,,-21,400,20","Jacqueline","Looks like a bloody head with teeth.,-16,300,20","Angelica","This is angry and childish looking.,-49,280,20","Kaylee","i really cant get it,-44,200,20","0"
"24988","","survey-text","87","2431423","0.0-87.0-0.0","ANUA9X7BFPTR8","","","","{""Q0"":""Pretty colors although I can't make out what is going on here""}","","","","","","","","","","","","","","","","","","","","","","",""
"2620.100000023842","","image-slider-response","88","2434044","0.0-88.0","ANUA9X7BFPTR8","","","","","19","","","","","","","","","","","","","","","","","","","","","",""
"null","","image-button-response","89","2439060","0.0-89.0","ANUA9X7BFPTR8","img_art/14.jpg","null","","","","","","","","","","","","","","","","","","","","","","","","",""
"10601","","image-button-response","90","2449663","0.0-90.0","ANUA9X7BFPTR8","img_art/14.jpg","2","","","","","","","","","","","","","","","","","","","","","","","","",""
"2482","","image-button-response","91","2452147","0.0-91.0-0.0","ANUA9X7BFPTR8","img_art/14.jpg","1","","","","","","","","","","","","","","","","","","","","","","","","",""
"1236","","image-button-response","92","2453386","0.0-92.0-0.0","ANUA9X7BFPTR8","img_art/14.jpg","3","","","","","","","","","","","","","","","","","","","","","","","","",""
"null","","html-keyboard-response","93","2454387","0.0-93.0","ANUA9X7BFPTR8","<p style=""font-size: 48px;"">+</p>","","","","","null","allTrialResponses","1000","1","7","img_art/14.jpg","19","Pretty colors although I can't make out what is going on here","Angelica,Jacqueline,Kaylee,Jasmine,Laura,Breanna","This is poorly done and not aesthetically appealing.,-2,280,20","It kind of looks like a tree but I feel very netural.,0,300,20","it looks like a tree on desert,23,200,20","The colors are nice and it reminds me of a shrub or tree,10,340,20","feels incomplete, poorly planned/executed,-34,320,20","Makes me feel good,30,380,20","Kaylee","it looks like a tree on desert,23,200,20","Jacqueline","It kind of looks like a tree but I feel very netural.,0,300,20","Jasmine","The colors are nice and it reminds me of a shrub or tree,10,340,20","0"
"24732","","survey-text","94","2479123","0.0-94.0-0.0","ANUA9X7BFPTR8","","","","{""Q0"":""It reminds me of a Hershey's kiss in a gold wrapper""}","","","","","","","","","","","","","","","","","","","","","","",""
"14570.299999952316","","image-slider-response","95","2493696","0.0-95.0","ANUA9X7BFPTR8","","","","","3","","","","","","","","","","","","","","","","","","","","","",""
"3754","","image-button-response","96","2498699","0.0-96.0","ANUA9X7BFPTR8","img_art/5.jpg","1","","","","","","","","","","","","","","","","","","","","","","","","",""
"910","","image-button-response","97","2499611","0.0-97.0","ANUA9X7BFPTR8","img_art/5.jpg","1","","","","","","","","","","","","","","","","","","","","","","","","",""
"737","","image-button-response","98","2500351","0.0-98.0-0.0","ANUA9X7BFPTR8","img_art/5.jpg","2","","","","","","","","","","","","","","","","","","","","","","","","",""
"3071","","image-button-response","99","2503425","0.0-99.0-0.0","ANUA9X7BFPTR8","img_art/5.jpg","4","","","","","","","","","","","","","","","","","","","","","","","","",""
"null","","html-keyboard-response","100","2504942","0.0-100.0","ANUA9X7BFPTR8","<p style=""font-size: 48px;"">+</p>","","","","","null","allTrialResponses","1500","1","8","img_art/5.jpg","3","It reminds me of a Hershey's kiss in a gold wrapper","Jamie,Jacqueline,Kaylee,Jasmine,Taylor,Erin","Don't really see it and yellow/pink don't go well together,-35,320,20","Seems very basic and uninteresting.,-15,300,20","a volcano erruption,21,200,20","Not sure what to say about this piece honestly. It's okay I guess.,0,340,20","Doesn't make me think anything,-1,340,20","Flame, candle, wind,30,120,20","Jacqueline","Seems very basic and uninteresting.,-15,300,20","Kaylee","a volcano erruption,21,200,20","Taylor","Doesn't make me think anything,-1,340,20","0"
"35932","","survey-text","101","2540878","0.0-101.0-0.0","ANUA9X7BFPTR8","","","","{""Q0"":""It looks similar to one I've seen before but not as pretty and bright""}","","","","","","","","","","","","","","","","","","","","","","",""
"4212","","image-slider-response","102","2545093","0.0-102.0","ANUA9X7BFPTR8","","","","","6","","","","","","","","","","","","","","","","","","","","","",""
"null","","image-button-response","103","2550097","0.0-103.0","ANUA9X7BFPTR8","img_art/1.jpg","null","","","","","","","","","","","","","","","","","","","","","","","","",""
"6420","","image-button-response","104","2556518","0.0-104.0","ANUA9X7BFPTR8","img_art/1.jpg","4","","","","","","","","","","","","","","","","","","","","","","","","",""
"2443","","image-button-response","105","2558963","0.0-105.0-0.0","ANUA9X7BFPTR8","img_art/1.jpg","1","","","","","","","","","","","","","","","","","","","","","","","","",""
"650","","image-button-response","106","2559615","0.0-106.0-0.0","ANUA9X7BFPTR8","img_art/1.jpg","2","","","","","","","","","","","","","","","","","","","","","","","","",""
"null","","html-keyboard-response","107","2560616","0.0-107.0","ANUA9X7BFPTR8","<p style=""font-size: 48px;"">+</p>","","","","","null","allTrialResponses","1000","1","9","img_art/1.jpg","6","It looks similar to one I've seen before but not as pretty and bright","Leah,Jacqueline,Kaylee,Monica,Taylor,Sydney","Pretty intermeshing of colors, happy,32,360,20","It's alright but lacks any depth.,-5,300,20","a colorful piece of art,25,200,20","I like the yellow and purple but the large red spot reminds me of blood and isn't great,6,360,20","Makes me think of a bad thunderstorm,11,340,20","I like the way that the colors blend.,35,320,20","Taylor","Makes me think of a bad thunderstorm,11,340,20","Jacqueline","It's alright but lacks any depth.,-5,300,20","Kaylee","a colorful piece of art,25,200,20","0"
"17133","","survey-text","108","2577755","0.0-108.0-0.0","ANUA9X7BFPTR8","","","","{""Q0"":""This looks neat and detailed""}","","","","","","","","","","","","","","","","","","","","","","",""
"2573","","image-slider-response","109","2580329","0.0-109.0","ANUA9X7BFPTR8","","","","","16","","","","","","","","","","","","","","","","","","","","","",""
"null","","image-button-response","110","2585333","0.0-110.0","ANUA9X7BFPTR8","img_art/24.jpg","null","","","","","","","","","","","","","","","","","","","","","","","","",""
"278","","image-button-response","111","2585612","0.0-111.0","ANUA9X7BFPTR8","img_art/24.jpg","2","","","","","","","","","","","","","","","","","","","","","","","","",""
"1896","","image-button-response","112","2587511","0.0-112.0-0.0","ANUA9X7BFPTR8","img_art/24.jpg","3","","","","","","","","","","","","","","","","","","","","","","","","",""
"1644","","image-button-response","113","2589159","0.0-113.0-0.0","ANUA9X7BFPTR8","img_art/24.jpg","4","","","","","","","","","","","","","","","","","","","","","","","","",""
"null","","html-keyboard-response","114","2590165","0.0-114.0","ANUA9X7BFPTR8","<p style=""font-size: 48px;"">+</p>","","","","","null","allTrialResponses","1000","1","10","img_art/24.jpg","16","This looks neat and detailed","Katelyn,Jacqueline,Kaylee,Paige,Taylor,Mariah","Love the colors and contrast. Feels peaceful.,33,100,20","This one isn't that abstract. It clearly looks like a waterfall.,31,300,20","lovely forest vibes,36,200,20","somewhat happy. I like the colors,38,60,20","Makes me think of a couple of hikes that I've taken,50,340,20","It is like a really bad impressionist painting.,-40,140,20","Kaylee","lovely forest vibes,36,200,20","Paige","somewhat happy. I like the colors,38,60,20","Taylor","Makes me think of a couple of hikes that I've taken,50,340,20","0"
"3095","","survey-text","115","2593269","0.0-115.0-0.0","ANUA9X7BFPTR8","","","","{""Q0"":""our""}","","","","","","","","","","","","","","","","","","","","","","",""
"35073","","survey-text","116","2628343","0.0-116.0-0.0","ANUA9X7BFPTR8","","","","{""Q0"":""This has to be a child's drawing or a painting a child drew on""}","","","","","","","","","","","","","","","","","","","","","","",""
"5112.100000023842","","image-slider-response","117","2633457","0.0-117.0","ANUA9X7BFPTR8","","","","","7","","","","","","","","","","","","","","","","","","","","","",""
"null","","image-button-response","118","2638472","0.0-118.0","ANUA9X7BFPTR8","img_art/27.jpg","null","","","","","","","","","","","","","","","","","","","","","","","","",""
"2146","","image-button-response","119","2640621","0.0-119.0","ANUA9X7BFPTR8","img_art/27.jpg","3","","","","","","","","","","","","","","","","","","","","","","","","",""
"2626","","image-button-response","120","2643249","0.0-120.0-0.0","ANUA9X7BFPTR8","img_art/27.jpg","4","","","","","","","","","","","","","","","","","","","","","","","","",""
"424","","image-button-response","121","2643675","0.0-121.0-0.0","ANUA9X7BFPTR8","img_art/27.jpg","5","","","","","","","","","","","","","","","","","","","","","","","","",""
"null","","html-keyboard-response","122","2645177","0.0-122.0","ANUA9X7BFPTR8","<p style=""font-size: 48px;"">+</p>","","","","","null","allTrialResponses","1500","1","11","img_art/27.jpg","7","This has to be a child's drawing or a painting a child drew on","Olivia,Hannah,Kaylee,Paige,Taylor,Chelsea","city at sunset brings happyness,10,40,20","Reminds me of something I'd see in a gold frame from the Eighties.,-9,240,20","nice firestorm on desert,23,200,20","Pleased. Reminds me of a child drawing,46,60,20","Reminds me of a town on fire,-15,340,20","The green lines look like a child drew over a painting.,-36,180,20","Paige","Pleased. Reminds me of a child drawing,46,60,20","Taylor","Reminds me of a town on fire,-15,340,20","Chelsea","The green lines look like a child drew over a painting.,-36,180,20","0"
"23489","","survey-text","123","2668670","0.0-123.0-0.0","ANUA9X7BFPTR8","","","","{""Q0"":""This looks like something one might see while tripping. Very hippie like""}","","","","","","","","","","","","","","","","","","","","","","",""
"3447.899999976158","","image-slider-response","124","2672121","0.0-124.0","ANUA9X7BFPTR8","","","","","16","","","","","","","","","","","","","","","","","","","","","",""
"4759","","image-button-response","125","2677124","0.0-125.0","ANUA9X7BFPTR8","img_art/23.jpg","1","","","","","","","","","","","","","","","","","","","","","","","","",""
"3506","","image-button-response","126","2680632","0.0-126.0","ANUA9X7BFPTR8","img_art/23.jpg","2","","","","","","","","","","","","","","","","","","","","","","","","",""
"3048","","image-button-response","127","2683682","0.0-127.0-0.0","ANUA9X7BFPTR8","img_art/23.jpg","4","","","","","","","","","","","","","","","","","","","","","","","","",""
"1664","","image-button-response","128","2685349","0.0-128.0-0.0","ANUA9X7BFPTR8","img_art/23.jpg","3","","","","","","","","","","","","","","","","","","","","","","","","",""
"null","","html-keyboard-response","129","2685851","0.0-129.0","ANUA9X7BFPTR8","<p style=""font-size: 48px;"">+</p>","","","","","null","allTrialResponses","500","1","12","img_art/23.jpg","16","This looks like something one might see while tripping. Very hippie like","Maria,Michelle,Miranda,Paige,Taylor,Chelsea","the pattern of colours imbues in me a sense of infinity, which I find soothing,10,120,20","This is nice, the colorful background is fun and the white looks like dancing figures,5,280,20","It's very colorful and different, the white looks like people dancing,26,320,20","Does not incite any emotional response,1,60,20","The color contrast makes me happy,40,340,20","I like the royal colors.,38,180,20","Miranda","It's very colorful and different, the white looks like people dancing,26,320,20","Taylor","The color contrast makes me happy,40,340,20","Paige","Does not incite any emotional response,1,60,20","0"
"54952","","survey-text","130","2740808","0.0-130.0-0.0","ANUA9X7BFPTR8","","","","{""Q0"":""The red reminds me of snakes""}","","","","","","","","","","","","","","","","","","","","","","",""
"2482.2000000476837","","image-slider-response","131","2743292","0.0-131.0","ANUA9X7BFPTR8","","","","","-16","","","","","","","","","","","","","","","","","","","","","",""
"2948","","image-button-response","132","2748310","0.0-132.0","ANUA9X7BFPTR8","img_art/30.jpg","0","","","","","","","","","","","","","","","","","","","","","","","","",""
"3540","","image-button-response","133","2751853","0.0-133.0","ANUA9X7BFPTR8","img_art/30.jpg","4","","","","","","","","","","","","","","","","","","","","","","","","",""
"3224","","image-button-response","134","2755078","0.0-134.0-0.0","ANUA9X7BFPTR8","img_art/30.jpg","0","","","","","","","","","","","","","","","","","","","","","","","","",""
"3489","","image-button-response","135","2758570","0.0-135.0-0.0","ANUA9X7BFPTR8","img_art/30.jpg","2","","","","","","","","","","","","","","","","","","","","","","","","",""
"null","","html-keyboard-response","136","2759572","0.0-136.0","ANUA9X7BFPTR8","<p style=""font-size: 48px;"">+</p>","","","","","null","allTrialResponses","1000","1","13","img_art/30.jpg","-16","The red reminds me of snakes","Gabrielle,Emma,Miranda,Paige,Taylor,Christina","looks very childish, like your kid did it,-33,160,20","Like the design, not a big fan of the colors,20,60,20","It looks like it was made by pre-k students.,-30,320,20","Happy. Makes me think of childhood finger painting,49,60,20","It's a really interesting piece,20,340,20","it looks like some thing I could make it my garage,-18,240,20","Taylor","It's a really interesting piece,20,340,20","Gabrielle","looks very childish, like your kid did it,-33,160,20","Miranda","It looks like it was made by pre-k students.,-30,320,20","0"
"16265","","survey-text","137","2775843","0.0-137.0-0.0","ANUA9X7BFPTR8","","","","{""Q0"":""It looks messy. Like a junkyard""}","","","","","","","","","","","","","","","","","","","","","","",""
"9501.699999928474","","image-slider-response","138","2785347","0.0-138.0","ANUA9X7BFPTR8","","","","","-18","","","","","","","","","","","","","","","","","","","","","",""
"null","","image-button-response","139","2790363","0.0-139.0","ANUA9X7BFPTR8","img_art/28.jpg","null","","","","","","","","","","","","","","","","","","","","","","","","",""
"2524","","image-button-response","140","2792889","0.0-140.0","ANUA9X7BFPTR8","img_art/28.jpg","4","","","","","","","","","","","","","","","","","","","","","","","","",""
"5739","","image-button-response","141","2798633","0.0-141.0-0.0","ANUA9X7BFPTR8","img_art/28.jpg","0","","","","","","","","","","","","","","","","","","","","","","","","",""
"2717","","image-button-response","142","2801353","0.0-142.0-0.0","ANUA9X7BFPTR8","img_art/28.jpg","0","","","","","","","","","","","","","","","","","","","","","","","","",""
"765","","image-button-response","143","2805339","0.0-142.1-0.1","ANUA9X7BFPTR8","img_art/28.jpg","1","","","","","","","","","","","","","","","","","","","","","","","","",""
"null","","html-keyboard-response","144","2806341","0.0-143.0","ANUA9X7BFPTR8","<p style=""font-size: 48px;"">+</p>","","","","","null","allTrialResponses","1000","1","14","img_art/28.jpg","-18","It looks messy. Like a junkyard","Gabrielle,Sara,Miranda,Dominique,Taylor,Shannon","bland coloring but pattern interesting,2,160,20","This swirly drawing i snot my type I get confused and dizzy,-20,160,20","This one looks very dark and seems like it has a lot of depth to it.,31,320,20","This is one of my favorites. It says to me to take time for people,37,400,20","Doesn't give me an emotional response,0,340,20","I don't like the way the colors look; I think very disgusting colors were used.,-20,220,20","Taylor","Doesn't give me an emotional response,0,340,20","Gabrielle","bland coloring but pattern interesting,2,160,20","Sara","This swirly drawing i snot my type I get confused and dizzy,-20,160,20","2"
"32087","","survey-text","145","2838442","0.0-144.0-0.0","ANUA9X7BFPTR8","","","","{""Q0"":""It makes me think of post apocalyptic city with very few people remaining""}","","","","","","","","","","","","","","","","","","","","","","",""
"2855.2000000476837","","image-slider-response","146","2841299","0.0-145.0","ANUA9X7BFPTR8","","","","","7","","","","","","","","","","","","","","","","","","","","","",""
"null","","image-button-response","147","2846722","0.0-146.0","ANUA9X7BFPTR8","img_art/19.jpg","null","","","","","","","","","","","","","","","","","","","","","","","","",""
"6611","","image-button-response","148","2853336","0.0-147.0","ANUA9X7BFPTR8","img_art/19.jpg","1","","","","","","","","","","","","","","","","","","","","","","","","",""
"2492","","image-button-response","149","2855831","0.0-148.0-0.0","ANUA9X7BFPTR8","img_art/19.jpg","3","","","","","","","","","","","","","","","","","","","","","","","","",""
"2145","","image-button-response","150","2857978","0.0-149.0-0.0","ANUA9X7BFPTR8","img_art/19.jpg","4","","","","","","","","","","","","","","","","","","","","","","","","",""
"null","","html-keyboard-response","151","2858481","0.0-150.0","ANUA9X7BFPTR8","<p style=""font-size: 48px;"">+</p>","","","","","null","allTrialResponses","500","1","15","img_art/19.jpg","7","It makes me think of post apocalyptic city with very few people remaining","Gabrielle,Sara,Haley,Amber,Taylor,Destiny","not professional looking but not bad either,13,160,20","I like the vibrant color blocks,13,160,20","I like this as a whole, but the longer I look at it, the less it pleases me,-10,220,20","Reminds me of a busy village.,16,200,20","It reminds me of sitting at a cafe on the side of a river.,45,340,20","this flow I just really like how everything blends but also doesn't,45,360,20","Sara","I like the vibrant color blocks,13,160,20","Amber","Reminds me of a busy village.,16,200,20","Taylor","It reminds me of sitting at a cafe on the side of a river.,45,340,20","2"
"4498","","survey-text","152","2862992","0.0-151.0-0.0","ANUA9X7BFPTR8","","","","{""Q0"":""course""}","","","","","","","","","","","","","","","","","","","","","","",""
"16616","","survey-text","153","2879609","0.0-152.0-0.0","ANUA9X7BFPTR8","","","","{""Q0"":""This looks more like a photo than a painting""}","","","","","","","","","","","","","","","","","","","","","","",""
"2293.2000000476837","","image-slider-response","154","2881904","0.0-153.0","ANUA9X7BFPTR8","","","","","7","","","","","","","","","","","","","","","","","","","","","",""
"4107","","image-button-response","155","2886907","0.0-154.0","ANUA9X7BFPTR8","img_art/7.jpg","1","","","","","","","","","","","","","","","","","","","","","","","","",""
"3691","","image-button-response","156","2890600","0.0-155.0","ANUA9X7BFPTR8","img_art/7.jpg","4","","","","","","","","","","","","","","","","","","","","","","","","",""
"1775","","image-button-response","157","2892378","0.0-156.0-0.0","ANUA9X7BFPTR8","img_art/7.jpg","3","","","","","","","","","","","","","","","","","","","","","","","","",""
"1303","","image-button-response","158","2893682","0.0-157.0-0.0","ANUA9X7BFPTR8","img_art/7.jpg","2","","","","","","","","","","","","","","","","","","","","","","","","",""
"null","","html-keyboard-response","159","2895195","0.0-158.0","ANUA9X7BFPTR8","<p style=""font-size: 48px;"">+</p>","","","","","null","allTrialResponses","1500","1","16","img_art/7.jpg","7","This looks more like a photo than a painting","Jessica,Sara,Erica,Amber,Taylor,Morgan","Looks like a natural texture, reminds me of rocks.,0,400,20","It feels cold and hard,-40,160,20","No not cause many emotions,1,80,20","Dull and confusing,-24,200,20","It makes me think of new archaeology discoveries,15,340,20","Dead bugs on an insect battleground.,-10,380,20","Taylor","It makes me think of new archaeology discoveries,15,340,20","Amber","Dull and confusing,-24,200,20","Erica","No not cause many emotions,1,80,20","2"
"18189","","survey-text","160","2913391","0.0-159.0-0.0","ANUA9X7BFPTR8","","","","{""Q0"":""It looks like a shrub. I like the color contrast""}","","","","","","","","","","","","","","","","","","","","","","",""
"2589.3000000715256","","image-slider-response","161","2915983","0.0-160.0","ANUA9X7BFPTR8","","","","","28","","","","","","","","","","","","","","","","","","","","","",""
"4776","","image-button-response","162","2920987","0.0-161.0","ANUA9X7BFPTR8","img_art/15.jpg","1","","","","","","","","","","","","","","","","","","","","","","","","",""
"2669","","image-button-response","163","2923659","0.0-162.0","ANUA9X7BFPTR8","img_art/15.jpg","3","","","","","","","","","","","","","","","","","","","","","","","","",""
"1527","","image-button-response","164","2925188","0.0-163.0-0.0","ANUA9X7BFPTR8","img_art/15.jpg","4","","","","","","","","","","","","","","","","","","","","","","","","",""
"3789","","image-button-response","165","2928979","0.0-164.0-0.0","ANUA9X7BFPTR8","img_art/15.jpg","2","","","","","","","","","","","","","","","","","","","","","","","","",""
"null","","html-keyboard-response","166","2929981","0.0-165.0","ANUA9X7BFPTR8","<p style=""font-size: 48px;"">+</p>","","","","","null","allTrialResponses","1000","1","17","img_art/15.jpg","28","It looks like a shrub. I like the color contrast","Sophia,Leslie,Erica,Amber,Taylor,Autumn","I feel like there's ski jumping going on here.,2,280,20","This elicits no reaction in me.,0,380,20","dark and I can not see a meaning behind it,-31,80,20","Reminds me of blueberry bushes.,7,200,20","The blues are soothing,21,340,20","Simple but not good,-34,340,20","Amber","Reminds me of blueberry bushes.,7,200,20","Taylor","The blues are soothing,21,340,20","Erica","dark and I can not see a meaning behind it,-31,80,20","2"
"33823","","survey-text","167","2963809","0.0-166.0-0.0","ANUA9X7BFPTR8","","","","{""Q0"":""I think I see a woman sleeping on a bed. Maybe it is supposed to be the Sleeping Beauty""}","","","","","","","","","","","","","","","","","","","","","","",""
"2822","","image-slider-response","168","2966632","0.0-167.0","ANUA9X7BFPTR8","","","","","5","","","","","","","","","","","","","","","","","","","","","",""
"null","","image-button-response","169","2971646","0.0-168.0","ANUA9X7BFPTR8","img_art/9.jpg","null","","","","","","","","","","","","","","","","","","","","","","","","",""
"640","","image-button-response","170","2972288","0.0-169.0","ANUA9X7BFPTR8","img_art/9.jpg","2","","","","","","","","","","","","","","","","","","","","","","","","",""
"1800","","image-button-response","171","2974090","0.0-170.0-0.0","ANUA9X7BFPTR8","img_art/9.jpg","3","","","","","","","","","","","","","","","","","","","","","","","","",""
"4116","","image-button-response","172","2978209","0.0-171.0-0.0","ANUA9X7BFPTR8","img_art/9.jpg","1","","","","","","","","","","","","","","","","","","","","","","","","",""
"null","","html-keyboard-response","173","2979219","0.0-172.0","ANUA9X7BFPTR8","<p style=""font-size: 48px;"">+</p>","","","","","null","allTrialResponses","1000","1","18","img_art/9.jpg","5","I think I see a woman sleeping on a bed. Maybe it is supposed to be the Sleeping Beauty","Katherine,Cynthia,Erica,Amber,Taylor,Cassidy","Idk what is in the middle but the blurry image makes it seem like the subject is of the painters interest,22,120,20","curious and unsure,12,320,20","Looks very relaxing; someone laying in a meadow,13,80,20","looks like sleeping beauty in a garden,10,200,20","The peacock theme gives me negative connotations of my ex-sister-in-law,-10,340,20","The colors are okay, but this looks like someone scribbled with a crayon,1,140,20","Erica","Looks very relaxing; someone laying in a meadow,13,80,20","Amber","looks like sleeping beauty in a garden,10,200,20","Cynthia","curious and unsure,12,320,20","2"
"32634","","survey-text","174","3011860","0.0-173.0-0.0","ANUA9X7BFPTR8","","","","{""Q0"":""It looks like a lady making a painting of trees""}","","","","","","","","","","","","","","","","","","","","","","",""
"3159.8000000715256","","image-slider-response","175","3015022","0.0-174.0","ANUA9X7BFPTR8","","","","","8","","","","","","","","","","","","","","","","","","","","","",""
"3017","","image-button-response","176","3020025","0.0-175.0","ANUA9X7BFPTR8","img_art/26.jpg","1","","","","","","","","","","","","","","","","","","","","","","","","",""
"3518","","image-button-response","177","3023545","0.0-176.0","ANUA9X7BFPTR8","img_art/26.jpg","5","","","","","","","","","","","","","","","","","","","","","","","","",""
"571","","image-button-response","178","3024117","0.0-177.0-0.0","ANUA9X7BFPTR8","img_art/26.jpg","4","","","","","","","","","","","","","","","","","","","","","","","","",""
"1785","","image-button-response","179","3025904","0.0-178.0-0.0","ANUA9X7BFPTR8","img_art/26.jpg","1","","","","","","","","","","","","","","","","","","","","","","","","",""
"null","","html-keyboard-response","180","3027406","0.0-179.0","ANUA9X7BFPTR8","<p style=""font-size: 48px;"">+</p>","","","","","null","allTrialResponses","1500","1","19","img_art/26.jpg","8","It looks like a lady making a painting of trees","Elizabeth,Cynthia,Erica,Amber,Emily,Savannah","Like the soft blend of colors,26,20,20","dull and boring,-6,320,20","very relaxing and easy going,22,80,20","The colors are muted.,1,200,20","Not much skil went into this one either.,-41,40,20","Appears childish and unfinished.,-20,200,20","Savannah","Appears childish and unfinished.,-20,200,20","Emily","Not much skil went into this one either.,-41,40,20","Cynthia","dull and boring,-6,320,20","2"
"42780","","survey-text","181","3070190","0.0-180.0-0.0","ANUA9X7BFPTR8","","","","{""Q0"":""It looks like the colors were unintentionally smeared.""}","","","","","","","","","","","","","","","","","","","","","","",""
"3471.5999999046326","","image-slider-response","182","3073664","0.0-181.0","ANUA9X7BFPTR8","","","","","-21","","","","","","","","","","","","","","","","","","","","","",""
"null","","image-button-response","183","3078677","0.0-182.0","ANUA9X7BFPTR8","img_art/10.jpg","null","","","","","","","","","","","","","","","","","","","","","","","","",""
"2353","","image-button-response","184","3081032","0.0-183.0","ANUA9X7BFPTR8","img_art/10.jpg","4","","","","","","","","","","","","","","","","","","","","","","","","",""
"1954","","image-button-response","185","3082987","0.0-184.0-0.0","ANUA9X7BFPTR8","img_art/10.jpg","3","","","","","","","","","","","","","","","","","","","","","","","","",""
"1487","","image-button-response","186","3084476","0.0-185.0-0.0","ANUA9X7BFPTR8","img_art/10.jpg","1","","","","","","","","","","","","","","","","","","","","","","","","",""
"null","","html-keyboard-response","187","3085982","0.0-186.0","ANUA9X7BFPTR8","<p style=""font-size: 48px;"">+</p>","","","","","null","allTrialResponses","1500","1","20","img_art/10.jpg","-21","It looks like the colors were unintentionally smeared.","Mackenzie,Cynthia,Anna,Alicia,Emily,Savannah","The design is very fluid and fun to interpret,35,20,20","cultural with a symphony,40,320,20","I like how simple but intricate it is.,30,300,20","It's art. (for some),7,120,20","Ugly and low skill. I wouldn't want it.,-50,40,20","This is a scribble of a mad man. Appears low effort.,-33,200,20","Emily","Ugly and low skill. I wouldn't want it.,-50,40,20","Alicia","It's art. (for some),7,120,20","Cynthia","cultural with a symphony,40,320,20","2"
"6989","","survey-text","188","3092992","0.0-187.0-0.0","ANUA9X7BFPTR8","","","","{""Q0"":""we""}","","","","","","","","","","","","","","","","","","","","","","",""
"565533","","survey-text","189","3658527","0.0-188.0-0.0","ANUA9X7BFPTR8","","","","{""Q0"":""I love these colors and the image makes me think of some mythical figure""}","","","","","","","","","","","","","","","","","","","","","","",""
"2750.4000000953674","","image-slider-response","190","3661280","0.0-189.0","ANUA9X7BFPTR8","","","","","32","","","","","","","","","","","","","","","","","","","","","",""
"null","","image-button-response","191","3666285","0.0-190.0","ANUA9X7BFPTR8","img_art/25.jpg","null","","","","","","","","","","","","","","","","","","","","","","","","",""
"1851","","image-button-response","192","3668139","0.0-191.0","ANUA9X7BFPTR8","img_art/25.jpg","0","","","","","","","","","","","","","","","","","","","","","","","","",""
"2187","","image-button-response","193","3670329","0.0-192.0-0.0","ANUA9X7BFPTR8","img_art/25.jpg","2","","","","","","","","","","","","","","","","","","","","","","","","",""
"1146","","image-button-response","194","3671478","0.0-193.0-0.0","ANUA9X7BFPTR8","img_art/25.jpg","3","","","","","","","","","","","","","","","","","","","","","","","","",""
"null","","html-keyboard-response","195","3672980","0.0-194.0","ANUA9X7BFPTR8","<p style=""font-size: 48px;"">+</p>","","","","","null","allTrialResponses","1500","1","21","img_art/25.jpg","32","I love these colors and the image makes me think of some mythical figure","Caitlin,Cynthia,Courtney,Alicia,Emily,Samantha","Wish I was that thin.,-5,80,20","Somewhat feel protected by a messenger,33,320,20","That on i find a bit creapy.,-19,280,20","death. childish nightmare.,-29,120,20","Low skill not impressed.,-14,40,20","It is interesting but too creapy for me,-29,140,20","Caitlin","Wish I was that thin.,-5,80,20","Courtney","That on i find a bit creapy.,-19,280,20","Alicia","death. childish nightmare.,-29,120,20","2"
"11139","","survey-text","196","3684146","0.0-195.0-0.0","ANUA9X7BFPTR8","","","","{""Q0"":""It looks like a busy city.""}","","","","","","","","","","","","","","","","","","","","","","",""
"2181.7999999523163","","image-slider-response","197","3686330","0.0-196.0","ANUA9X7BFPTR8","","","","","17","","","","","","","","","","","","","","","","","","","","","",""
"1983","","image-button-response","198","3691334","0.0-197.0","ANUA9X7BFPTR8","img_art/11.jpg","0","","","","","","","","","","","","","","","","","","","","","","","","",""
"562","","image-button-response","199","3691898","0.0-198.0","ANUA9X7BFPTR8","img_art/11.jpg","0","","","","","","","","","","","","","","","","","","","","","","","","",""
"3439","","image-button-response","200","3695338","0.0-199.0-0.0","ANUA9X7BFPTR8","img_art/11.jpg","5","","","","","","","","","","","","","","","","","","","","","","","","",""
"1041","","image-button-response","201","3696382","0.0-200.0-0.0","ANUA9X7BFPTR8","img_art/11.jpg","3","","","","","","","","","","","","","","","","","","","","","","","","",""
"null","","html-keyboard-response","202","3697386","0.0-201.0","ANUA9X7BFPTR8","<p style=""font-size: 48px;"">+</p>","","","","","null","allTrialResponses","1000","1","22","img_art/11.jpg","17","It looks like a busy city.","Caitlin,Vanessa,Courtney,Alicia,Jenna,Brittany","Busy, busy oceanside city.,-10,80,20","It makes me think of a rainy day and I like the colors. Also like the wavy lines.,22,380,20","Thats a creepy old rollercoasters abandoned,-2,280,20","dna, odd but nice.,25,120,20","makes me think of city highways & bridges on a rainy, foggy day. I like the melancholy it evokes.,43,360,20","It reminds me of telephone wires.,1,40,20","Caitlin","Busy, busy oceanside city.,-10,80,20","Brittany","It reminds me of telephone wires.,1,40,20","Alicia","dna, odd but nice.,25,120,20","2"
"15944","","survey-text","203","3713340","0.0-202.0-0.0","ANUA9X7BFPTR8","","","","{""Q0"":""No clue what is going on here. Almost like an unfinished painting job""}","","","","","","","","","","","","","","","","","","","","","","",""
"3925.2000000476837","","image-slider-response","204","3717267","0.0-203.0","ANUA9X7BFPTR8","","","","","-27","","","","","","","","","","","","","","","","","","","","","",""
"null","","image-button-response","205","3722271","0.0-204.0","ANUA9X7BFPTR8","img_art/29.jpg","null","","","","","","","","","","","","","","","","","","","","","","","","",""
"108","","image-button-response","206","3722383","0.0-205.0","ANUA9X7BFPTR8","img_art/29.jpg","0","","","","","","","","","","","","","","","","","","","","","","","","",""
"1034","","image-button-response","207","3723419","0.0-206.0-0.0","ANUA9X7BFPTR8","img_art/29.jpg","1","","","","","","","","","","","","","","","","","","","","","","","","",""
"2457","","image-button-response","208","3725879","0.0-207.0-0.0","ANUA9X7BFPTR8","img_art/29.jpg","5","","","","","","","","","","","","","","","","","","","","","","","","",""
"null","","html-keyboard-response","209","3726880","0.0-208.0","ANUA9X7BFPTR8","<p style=""font-size: 48px;"">+</p>","","","","","null","allTrialResponses","1000","1","23","img_art/29.jpg","-27","No clue what is going on here. Almost like an unfinished painting job","Caitlin,Kayla,Crystal,Alicia,Cheyenne,Brittany","I would give up and give it a red X too.,-5,80,20","It looks like graffiti in a subway tunnel- destruction.,-20,180,20","Reminiscent of Jackson Pollock with a hint of abstract structure with the bordering.,32,300,20","easy, too abstract for me, don't get it.,-25,120,20","Really enjoy everything about this one.,50,200,20","It looks likes there's a lot going on, but they don't fit together.,2,40,20","Caitlin","I would give up and give it a red X too.,-5,80,20","Kayla","It looks like graffiti in a subway tunnel- destruction.,-20,180,20","Brittany","It looks likes there's a lot going on, but they don't fit together.,2,40,20","2"
"18017","","survey-text","210","3744903","0.0-209.0-0.0","ANUA9X7BFPTR8","","","","{""Q0"":""It looks unfinished and like someone bled on it""}","","","","","","","","","","","","","","","","","","","","","","",""
"2266.3000000715256","","image-slider-response","211","3747171","0.0-210.0","ANUA9X7BFPTR8","","","","","-29","","","","","","","","","","","","","","","","","","","","","",""
"null","","image-button-response","212","3752173","0.0-211.0","ANUA9X7BFPTR8","img_art/21.jpg","null","","","","","","","","","","","","","","","","","","","","","","","","",""
"2804","","image-button-response","213","3754979","0.0-212.0","ANUA9X7BFPTR8","img_art/21.jpg","5","","","","","","","","","","","","","","","","","","","","","","","","",""
"3045","","image-button-response","214","3758025","0.0-213.0-0.0","ANUA9X7BFPTR8","img_art/21.jpg","2","","","","","","","","","","","","","","","","","","","","","","","","",""
"3253","","image-button-response","215","3761281","0.0-214.0-0.0","ANUA9X7BFPTR8","img_art/21.jpg","0","","","","","","","","","","","","","","","","","","","","","","","","",""
"null","","html-keyboard-response","216","3762294","0.0-215.0","ANUA9X7BFPTR8","<p style=""font-size: 48px;"">+</p>","","","","","null","allTrialResponses","1000","1","24","img_art/21.jpg","-29","It looks unfinished and like someone bled on it","Caitlin,Kayla,Bailey,Katie,Rachel,Brittany","Remove the rocks(?) on the lower right.,5,80,20","I like that it reminds me of an abstract version of a Bob Ross painting.,36,180,20","Looks like two ships on fire. Cool image.,12,360,20","Immediately a positive response! I like the muted colors. the blurriness calms me. It's serene,40,160,20","Looks like a body of water during a sunset. I like this piece.,21,80,20","Alright. I like the colors.,5,40,20","Brittany","Alright. I like the colors.,5,40,20","Bailey","Looks like two ships on fire. Cool image.,12,360,20","Caitlin","Remove the rocks(?) on the lower right.,5,80,20","2"
"17838","","survey-text","217","3780138","0.0-216.0-0.0","ANUA9X7BFPTR8","","","","{""Q0"":""This is cute but kind of childish""}","","","","","","","","","","","","","","","","","","","","","","",""
"2754.899999976158","","image-slider-response","218","3782895","0.0-217.0","ANUA9X7BFPTR8","","","","","9","","","","","","","","","","","","","","","","","","","","","",""
"null","","image-button-response","219","3787898","0.0-218.0","ANUA9X7BFPTR8","img_art/16.jpg","null","","","","","","","","","","","","","","","","","","","","","","","","",""
"2549","","image-button-response","220","3790451","0.0-219.0","ANUA9X7BFPTR8","img_art/16.jpg","4","","","","","","","","","","","","","","","","","","","","","","","","",""
"3124","","image-button-response","221","3793578","0.0-220.0-0.0","ANUA9X7BFPTR8","img_art/16.jpg","1","","","","","","","","","","","","","","","","","","","","","","","","",""
"1099","","image-button-response","222","3794680","0.0-221.0-0.0","ANUA9X7BFPTR8","img_art/16.jpg","2","","","","","","","","","","","","","","","","","","","","","","","","",""
"null","","html-keyboard-response","223","3795183","0.0-222.0","ANUA9X7BFPTR8","<p style=""font-size: 48px;"">+</p>","","","","","null","allTrialResponses","500","1","25","img_art/16.jpg","9","This is cute but kind of childish","Caitlin,Allison,Bailey,Alexis,Brianna,Brittany","It is sick to put a teddy bear and a gun on the same piece of canvas.,-40,80,20","Hard contrast, but no emotions towards any of the objects.,-6,140,20","Creeps me out. Like..really creeps me out.,-48,360,20","Don't like this technique. Too serial killer.,-50,100,20","It is interesting to say the least,0,20,20","Kind of dull, colors and drawings are not really interesting.,0,40,20","Brianna","It is interesting to say the least,0,20,20","Allison","Hard contrast, but no emotions towards any of the objects.,-6,140,20","Bailey","Creeps me out. Like..really creeps me out.,-48,360,20","2"
"3661","","survey-text","224","3798860","0.0-223.0-0.0","ANUA9X7BFPTR8","","","","{""Q0"":""table""}","","","","","","","","","","","","","","","","","","","","","","",""
"17751","","survey-text","225","3816613","0.0-224.0-0.0","ANUA9X7BFPTR8","","","","{""Q0"":""This looks really artsy and skilled""}","","","","","","","","","","","","","","","","","","","","","","",""
"2610.2999999523163","","image-slider-response","226","3819225","0.0-225.0","ANUA9X7BFPTR8","","","","","15","","","","","","","","","","","","","","","","","","","","","",""
"4454","","image-button-response","227","3824227","0.0-226.0","ANUA9X7BFPTR8","img_art/17.jpg","0","","","","","","","","","","","","","","","","","","","","","","","","",""
"2724","","image-button-response","228","3826952","0.0-227.0","ANUA9X7BFPTR8","img_art/17.jpg","4","","","","","","","","","","","","","","","","","","","","","","","","",""
"835","","image-button-response","229","3827789","0.0-228.0-0.0","ANUA9X7BFPTR8","img_art/17.jpg","3","","","","","","","","","","","","","","","","","","","","","","","","",""
"4471","","image-button-response","230","3832262","0.0-229.0-0.0","ANUA9X7BFPTR8","img_art/17.jpg","1","","","","","","","","","","","","","","","","","","","","","","","","",""
"null","","html-keyboard-response","231","3833279","0.0-230.0","ANUA9X7BFPTR8","<p style=""font-size: 48px;"">+</p>","","","","","null","allTrialResponses","1000","1","26","img_art/17.jpg","15","This looks really artsy and skilled","Kathryn,Allison,Bailey,Brooke,Brianna,Gabriela","Reminds me of the modern art museum in Rome. I didn't ""get"" many pieces, but had a positive cultural experience overall.,20,140,20","Very washed out.,-10,140,20","I like the artistic sketching pattern.,24,360,20","doorways and trees are pleasant,30,60,20","It's nice and realistic looking.,12,20,20","This makes me feel inspired and happy. I love everything about this portrait,45,140,20","Brianna","It's nice and realistic looking.,12,20,20","Brooke","doorways and trees are pleasant,30,60,20","Allison","Very washed out.,-10,140,20","2"
"17364","","survey-text","232","3850648","0.0-231.0-0.0","ANUA9X7BFPTR8","","","","{""Q0"":""Another childlike piece but I do like the colors""}","","","","","","","","","","","","","","","","","","","","","","",""
"2683.8000000715256","","image-slider-response","233","3853334","0.0-232.0","ANUA9X7BFPTR8","","","","","13","","","","","","","","","","","","","","","","","","","","","",""
"null","","image-button-response","234","3858349","0.0-233.0","ANUA9X7BFPTR8","img_art/2.jpg","null","","","","","","","","","","","","","","","","","","","","","","","","",""
"845","","image-button-response","235","3859195","0.0-234.0","ANUA9X7BFPTR8","img_art/2.jpg","0","","","","","","","","","","","","","","","","","","","","","","","","",""
"812","","image-button-response","236","3860009","0.0-235.0-0.0","ANUA9X7BFPTR8","img_art/2.jpg","1","","","","","","","","","","","","","","","","","","","","","","","","",""
"1193","","image-button-response","237","3861204","0.0-236.0-0.0","ANUA9X7BFPTR8","img_art/2.jpg","2","","","","","","","","","","","","","","","","","","","","","","","","",""
"null","","html-keyboard-response","238","3862209","0.0-237.0","ANUA9X7BFPTR8","<p style=""font-size: 48px;"">+</p>","","","","","null","allTrialResponses","1000","1","27","img_art/2.jpg","13","Another childlike piece but I do like the colors","Kimberly,Allison,Alexandria,Brooke,Brianna,Grace","I like the green,13,260,20","Hate the vomit green.,-31,140,20","too abstract and confusing,-19,80,20","Ugly version of that park painting.,-31,60,20","The only parts I like is the light blue, red and black. The green color isn't very flattering.,11,20,20","Like the colors but reminds me of a kids show done in cubism.,0,180,20","Kimberly","I like the green,13,260,20","Allison","Hate the vomit green.,-31,140,20","Alexandria","too abstract and confusing,-19,80,20","2"
"24846","","survey-text","239","3887064","0.0-238.0-0.0","ANUA9X7BFPTR8","","","","{""Q0"":""The horseman of the apocalypse. Scary""}","","","","","","","","","","","","","","","","","","","","","","",""
"2500","","image-slider-response","240","3889565","0.0-239.0","ANUA9X7BFPTR8","","","","","10","","","","","","","","","","","","","","","","","","","","","",""
"2563","","image-button-response","241","3894569","0.0-240.0","ANUA9X7BFPTR8","img_art/18.jpg","1","","","","","","","","","","","","","","","","","","","","","","","","",""
"2340","","image-button-response","242","3896911","0.0-241.0","ANUA9X7BFPTR8","img_art/18.jpg","3","","","","","","","","","","","","","","","","","","","","","","","","",""
"2430","","image-button-response","243","3899343","0.0-242.0-0.0","ANUA9X7BFPTR8","img_art/18.jpg","1","","","","","","","","","","","","","","","","","","","","","","","","",""
"479","","image-button-response","244","3899825","0.0-243.0-0.0","ANUA9X7BFPTR8","img_art/18.jpg","0","","","","","","","","","","","","","","","","","","","","","","","","",""
"null","","html-keyboard-response","245","3900830","0.0-244.0","ANUA9X7BFPTR8","<p style=""font-size: 48px;"">+</p>","","","","","null","allTrialResponses","1000","1","28","img_art/18.jpg","10","The horseman of the apocalypse. Scary","Kimberly,Allison,Alexandria,Briana,Melissa,Victoria","I enjoy the detailed line work in this one,21,260,20","Colors are okay. Reminds me of cavalry.,10,140,20","the harsh lines with the smooth lines makes me think of wild animals,20,80,20","Two people fighting with one watching,17,400,20","creamy color, feels like organized chaos,23,240,20","Makes me think of stormy oceans,20,400,20","Briana","Two people fighting with one watching,17,400,20","Allison","Colors are okay. Reminds me of cavalry.,10,140,20","Kimberly","I enjoy the detailed line work in this one,21,260,20","2"
"15948","","survey-text","246","3916788","0.0-245.0-0.0","ANUA9X7BFPTR8","","","","{""Q0"":""It looks like a hand that got demolished""}","","","","","","","","","","","","","","","","","","","","","","",""
"2661.3000000715256","","image-slider-response","247","3919451","0.0-246.0","ANUA9X7BFPTR8","","","","","-19","","","","","","","","","","","","","","","","","","","","","",""
"null","","image-button-response","248","3924459","0.0-247.0","ANUA9X7BFPTR8","img_art/4.jpg","null","","","","","","","","","","","","","","","","","","","","","","","","",""
"1511","","image-button-response","249","3925972","0.0-248.0","ANUA9X7BFPTR8","img_art/4.jpg","3","","","","","","","","","","","","","","","","","","","","","","","","",""
"1985","","image-button-response","250","3927959","0.0-249.0-0.0","ANUA9X7BFPTR8","img_art/4.jpg","1","","","","","","","","","","","","","","","","","","","","","","","","",""
"1381","","image-button-response","251","3929343","0.0-250.0-0.0","ANUA9X7BFPTR8","img_art/4.jpg","4","","","","","","","","","","","","","","","","","","","","","","","","",""
"null","","html-keyboard-response","252","3930854","0.0-251.0","ANUA9X7BFPTR8","<p style=""font-size: 48px;"">+</p>","","","","","null","allTrialResponses","1500","1","29","img_art/4.jpg","-19","It looks like a hand that got demolished","Kimberly,Allison,Kaitlin,Briana,Jordan,Lindsey","It's ok, theres nothing that draws me away from it I guess,0,260,20","McDonald's French Fries.,-10,140,20","heart symbol - this tells a story of hidden love,30,60,20","Fingerpaint of a hand?,-30,400,20","The colors remind me of mcdonalds,-33,20,20","Looks like feces smeared on the canvas. I hate it.,-50,400,20","Briana","Fingerpaint of a hand?,-30,400,20","Allison","McDonald's French Fries.,-10,140,20","Jordan","The colors remind me of mcdonalds,-33,20,20","2"
"16749","","survey-text","253","3947609","0.0-252.0-0.0","ANUA9X7BFPTR8","","","","{""Q0"":""A crow on the beach. Gives me lonesome feeling""}","","","","","","","","","","","","","","","","","","","","","","",""
"2338.7999999523163","","image-slider-response","254","3949950","0.0-253.0","ANUA9X7BFPTR8","","","","","17","","","","","","","","","","","","","","","","","","","","","",""
"null","","image-button-response","255","3954954","0.0-254.0","ANUA9X7BFPTR8","img_art/6.jpg","null","","","","","","","","","","","","","","","","","","","","","","","","",""
"414","","image-button-response","256","3955369","0.0-255.0","ANUA9X7BFPTR8","img_art/6.jpg","1","","","","","","","","","","","","","","","","","","","","","","","","",""
"1180","","image-button-response","257","3956552","0.0-256.0-0.0","ANUA9X7BFPTR8","img_art/6.jpg","4","","","","","","","","","","","","","","","","","","","","","","","","",""
"1624","","image-button-response","258","3958178","0.0-257.0-0.0","ANUA9X7BFPTR8","img_art/6.jpg","2","","","","","","","","","","","","","","","","","","","","","","","","",""
"null","","html-keyboard-response","259","3958679","0.0-258.0","ANUA9X7BFPTR8","<p style=""font-size: 48px;"">+</p>","","","","","null","allTrialResponses","500","1","30","img_art/6.jpg","17","A crow on the beach. Gives me lonesome feeling","Sarah,Allison,Sierra,Briana,Jordan,Alyssa","it's interesting but I don't love it,10,180,20","Simple desert scene.,5,140,20","simplistic. i love orange and green and i love the subject,50,260,20","Close up peach? Hate it,-16,400,20","This is interesting, I feel solitude, and loneliness from this.,13,20,20","It makes me stop and think about what the artist is trying to say.It creates a feeling of solitude and tranqulity,30,160,20","Allison","Simple desert scene.,5,140,20","Jordan","This is interesting, I feel solitude, and loneliness from this.,13,20,20","Sierra","simplistic. i love orange and green and i love the subject,50,260,20","2"
"2840","","image-button-response_instructions","260","3961528","0.0-259.0","ANUA9X7BFPTR8","","0","instructions","","","","","","","","","","","","","","","","","","","","","","","",""
"859","","image-button-response","261","3962395","0.0-260.0","ANUA9X7BFPTR8","","0","","","","","","","","","","","","","","","","","","","","","","","","",""
