"rt","url","trial_type","trial_index","time_elapsed","internal_node_id","participant_id","stimulus","button_pressed","Name","responses","response","key_press","variableName","fixationTime","condition","trial","photo","subjectRating","subjectResponse","agentsNames","agent_1_Response","agent_2_Response","agent_3_Response","agent_4_Response","agent_5_Response","agent_6_Response","kept_1_name","kept_1_response","kept_2_name","kept_2_response","kept_3_name","kept_3_response","errorCounter"
"11856","external_page_harvard.html","external-html","0","12046","0.0-0.0","AO71E3MTYDM8L","","","","","","","","","","","","","","","","","","","","","","","","","","",""
"1556","","image-button-response","1","13603","0.0-1.0","AO71E3MTYDM8L","","1","","","","","","","","","","","","","","","","","","","","","","","","",""
"1577","","image-button-response","2","15185","0.0-2.0-0.0","AO71E3MTYDM8L","","1","phone","","","","","","","","","","","","","","","","","","","","","","","",""
"5549","","survey-text","3","20737","0.0-3.0-0.0","AO71E3MTYDM8L","","","","{""Q0"":""AO71E3MTYDM8L""}","","","","","","","","","","","","","","","","","","","","","","",""
"5199","","image-button-response_instructions","4","25937","0.0-4.0","AO71E3MTYDM8L","","0","instructions","","","","","","","","","","","","","","","","","","","","","","","",""
"7488","","image-button-response_instructions","5","33427","0.0-5.0","AO71E3MTYDM8L","img_art/ins/popularity/ins1.png","0","instructions","","","","","","","","","","","","","","","","","","","","","","","",""
"3157","","image-button-response_instructions","6","36585","0.0-6.0","AO71E3MTYDM8L","img_art/ins/popularity/ins2.png","0","instructions","","","","","","","","","","","","","","","","","","","","","","","",""
"3322","","image-button-response_instructions","7","39909","0.0-7.0","AO71E3MTYDM8L","img_art/ins/popularity/ins2Extreme.png","0","instructions","","","","","","","","","","","","","","","","","","","","","","","",""
"16579","","image-button-response_instructions","8","56490","0.0-8.0","AO71E3MTYDM8L","img_art/ins/popularity/ins3KEEPpop.PNG","0","instructions","","","","","","","","","","","","","","","","","","","","","","","",""
"2642","","image-button-response_instructions","9","59134","0.0-9.0","AO71E3MTYDM8L","img_art/ins/popularity/ins3ANamepop.PNG","0","instructions","","","","","","","","","","","","","","","","","","","","","","","",""
"2187","","image-button-response_instructions","10","61323","0.0-10.0","AO71E3MTYDM8L","img_art/ins/popularity/ins3ARatingpop.png","0","instructions","","","","","","","","","","","","","","","","","","","","","","","",""
"4078","","image-button-response_instructions","11","65403","0.0-11.0","AO71E3MTYDM8L","img_art/ins/popularity/ins3ATextpop.png","0","instructions","","","","","","","","","","","","","","","","","","","","","","","",""
"5004","","image-button-response_instructions","12","70407","0.0-12.0","AO71E3MTYDM8L","img_art/ins/popularity/ins3ALikespop.png","0","instructions","","","","","","","","","","","","","","","","","","","","","","","",""
"10280","","image-button-response_instructions","13","80690","0.0-13.0","AO71E3MTYDM8L","img_art/ins/popularity/ins3KEEPpop.PNG","0","instructions","","","","","","","","","","","","","","","","","","","","","","","",""
"5976","","image-button-response_instructions","14","86667","0.0-14.0","AO71E3MTYDM8L","img_art/ins/popularity/ins3_5RED.png","0","instructions","","","","","","","","","","","","","","","","","","","","","","","",""
"2954","","image-button-response_instructions","15","89623","0.0-15.0","AO71E3MTYDM8L","img_art/ins/popularity/ins3KEEPpop.PNG","0","instructions","","","","","","","","","","","","","","","","","","","","","","","",""
"12157","","image-button-response_instructions","16","101781","0.0-16.0","AO71E3MTYDM8L","img_art/ins/popularity/ins4KEEPpop.PNG","0","instructions","","","","","","","","","","","","","","","","","","","","","","","",""
"2296","","image-button-response_instructions","17","104078","0.0-17.0","AO71E3MTYDM8L","img_art/ins/popularity/ins5KEEPpop.PNG","0","instructions","","","","","","","","","","","","","","","","","","","","","","","",""
"1697","","image-button-response_instructions","18","105777","0.0-18.0","AO71E3MTYDM8L","","0","instructions","","","","","","","","","","","","","","","","","","","","","","","",""
"7864","","survey-text","19","113664","0.0-19.0-0.0","AO71E3MTYDM8L","","","","{""Q0"":""but""}","","","","","","","","","","","","","","","","","","","","","","",""
"16944","","survey-text","20","130611","0.0-20.0-0.0","AO71E3MTYDM8L","","","","{""Q0"":""looks like a field of flowers""}","","","","","","","","","","","","","","","","","","","","","","",""
"6064.699999928474","","image-slider-response","21","136678","0.0-21.0","AO71E3MTYDM8L","","","","","11","","","","","","","","","","","","","","","","","","","","","",""
"null","","image-button-response","22","141686","0.0-22.0","AO71E3MTYDM8L","img_art/ins/1.jpg","null","","","","","","","","","","","","","","","","","","","","","","","","",""
"3247","","image-button-response","23","144937","0.0-23.0","AO71E3MTYDM8L","img_art/ins/1.jpg","5","","","","","","","","","","","","","","","","","","","","","","","","",""
"2454","","image-button-response","24","147395","0.0-24.0-0.0","AO71E3MTYDM8L","img_art/ins/1.jpg","3","","","","","","","","","","","","","","","","","","","","","","","","",""
"4752","","image-button-response","25","152150","0.0-25.0-0.0","AO71E3MTYDM8L","img_art/ins/1.jpg","1","","","","","","","","","","","","","","","","","","","","","","","","",""
"null","","html-keyboard-response","26","152652","0.0-26.0","AO71E3MTYDM8L","<p style=""font-size: 48px;"">+</p>","","","","","null","allTrialResponses","500","1","-2","img_art/ins/1.jpg","11","looks like a field of flowers","Allison,Ashley,Beth,Dora,Erika,Jen","looks like a lot of things going on in the mist,20,20,20","I just don't get why these type of art would be popular,-32,40,20","This color reminds me of poo,-46,60,20","looks like what my niece in 3rd grade did this afternoon,-50,80,20","I like the sophisticated brushwork,40,100,20","It reminds me of a candy land dream I had,36,120,20","Jen","It reminds me of a candy land dream I had,36,120,20","Dora","looks like what my niece in 3rd grade did this afternoon,-50,80,20","Ashley","I just don't get why these type of art would be popular,-32,40,20","0"
"14902","","survey-text","27","167559","0.0-27.0-0.0","AO71E3MTYDM8L","","","","{""Q0"":""looks like buildings""}","","","","","","","","","","","","","","","","","","","","","","",""
"3751.7999999523163","","image-slider-response","28","171313","0.0-28.0","AO71E3MTYDM8L","","","","","2","","","","","","","","","","","","","","","","","","","","","",""
"null","","image-button-response","29","176320","0.0-29.0","AO71E3MTYDM8L","img_art/ins/2.jpg","null","","","","","","","","","","","","","","","","","","","","","","","","",""
"5319","","image-button-response","30","181642","0.0-30.0","AO71E3MTYDM8L","img_art/ins/2.jpg","1","","","","","","","","","","","","","","","","","","","","","","","","",""
"5091","","image-button-response","31","186736","0.0-31.0-0.0","AO71E3MTYDM8L","img_art/ins/2.jpg","5","","","","","","","","","","","","","","","","","","","","","","","","",""
"2262","","image-button-response","32","189000","0.0-32.0-0.0","AO71E3MTYDM8L","img_art/ins/2.jpg","3","","","","","","","","","","","","","","","","","","","","","","","","",""
"null","","html-keyboard-response","33","190004","0.0-33.0","AO71E3MTYDM8L","<p style=""font-size: 48px;"">+</p>","","","","","null","allTrialResponses","1000","1","-1","img_art/ins/2.jpg","2","looks like buildings","Jenna,Ashley,Katie,Dora,Kara,Jen","One of my pet peevs,-48,140,20","Idk, it is just annoying,-32,40,20","too much color!,-28,180,20","looks too angry,-50,80,20","I like the blocks of color arrangements,30,160,20","It reminds me of a fireplace,36,120,20","Ashley","Idk, it is just annoying,-32,40,20","Jen","It reminds me of a fireplace,36,120,20","Dora","looks too angry,-50,80,20","0"
"15427","","survey-text","34","205436","0.0-34.0-0.0","AO71E3MTYDM8L","","","","{""Q0"":""like the blue color like the ocean""}","","","","","","","","","","","","","","","","","","","","","","",""
"4564.5","","image-slider-response","35","210002","0.0-35.0","AO71E3MTYDM8L","","","","","32","","","","","","","","","","","","","","","","","","","","","",""
"null","","image-button-response","36","215009","0.0-36.0","AO71E3MTYDM8L","img_art/ins/3.jpg","null","","","","","","","","","","","","","","","","","","","","","","","","",""
"4272","","image-button-response","37","219282","0.0-37.0","AO71E3MTYDM8L","img_art/ins/3.jpg","5","","","","","","","","","","","","","","","","","","","","","","","","",""
"2246","","image-button-response","38","221531","0.0-38.0-0.0","AO71E3MTYDM8L","img_art/ins/3.jpg","4","","","","","","","","","","","","","","","","","","","","","","","","",""
"5087","","image-button-response","39","226621","0.0-39.0-0.0","AO71E3MTYDM8L","img_art/ins/3.jpg","0","","","","","","","","","","","","","","","","","","","","","","","","",""
"null","","html-keyboard-response","40","228124","0.0-40.0","AO71E3MTYDM8L","<p style=""font-size: 48px;"">+</p>","","","","","null","allTrialResponses","1500","1","0","img_art/ins/3.jpg","32","like the blue color like the ocean","Leslie,Ashley,Rose,Dora,Mary,Jen","It's an alright work,15,200,20","It looks like a playground for bats,-36,40,20","My daily routine, it's depressing,-20,240,20","My worst nightmare,-42,80,20","I like the overlapping of brushes,41,220,20","I can feel a rainy day from this painting,18,120,20","Jen","I can feel a rainy day from this painting,18,120,20","Mary","I like the overlapping of brushes,41,220,20","Leslie","It's an alright work,15,200,20","0"
"4704","","image-button-response_instructions","41","232834","0.0-41.0","AO71E3MTYDM8L","","0","instructions","","","","","","","","","","","","","","","","","","","","","","","",""
"13462","","survey-likert","42","246297","0.0-42.0-0.0","AO71E3MTYDM8L","","","","{""Q0"":"""",""Q1"":0,""Q2"":1}","","","","","","","","","","","","","","","","","","","","","","",""
"4164","","survey-text","43","250466","0.0-43.0-0.0","AO71E3MTYDM8L","","","","{""Q0"":""rock""}","","","","","","","","","","","","","","","","","","","","","","",""
"15349","","survey-text","44","265817","0.0-44.0-0.0","AO71E3MTYDM8L","","","","{""Q0"":""looks like two people in a library""}","","","","","","","","","","","","","","","","","","","","","","",""
"4256.200000047684","","image-slider-response","45","270075","0.0-45.0","AO71E3MTYDM8L","","","","","-7","","","","","","","","","","","","","","","","","","","","","",""
"null","","image-button-response","46","275103","0.0-46.0","AO71E3MTYDM8L","img_art/28.jpg","null","","","","","","","","","","","","","","","","","","","","","","","","",""
"6306","","image-button-response","47","281411","0.0-47.0","AO71E3MTYDM8L","img_art/28.jpg","3","","","","","","","","","","","","","","","","","","","","","","","","",""
"677","","image-button-response","48","282091","0.0-48.0-0.0","AO71E3MTYDM8L","img_art/28.jpg","5","","","","","","","","","","","","","","","","","","","","","","","","",""
"8229","","image-button-response","49","290323","0.0-49.0-0.0","AO71E3MTYDM8L","img_art/28.jpg","1","","","","","","","","","","","","","","","","","","","","","","","","",""
"null","","html-keyboard-response","50","291829","0.0-50.0","AO71E3MTYDM8L","<p style=""font-size: 48px;"">+</p>","","","","","null","allTrialResponses","1500","1","1","img_art/28.jpg","-7","looks like two people in a library","Mackenzie,Rebecca,Katelyn,Michelle,Haley,Diana","The muted tones aren't my favorite.,-10,20,20","the color scheme is very well matched but i just didn't like it,-6,100,20","Just all blurs together for me. No substance.,-23,100,20","This piece is depressing to me, reminds me of German paintings,-6,280,20","I can't explain why, but I really love this one,50,220,20","I think this piece is interesting. I love the faces drawn into it.,29,380,20","Michelle","This piece is depressing to me, reminds me of German paintings,-6,280,20","Diana","I think this piece is interesting. I love the faces drawn into it.,29,380,20","Rebecca","the color scheme is very well matched but i just didn't like it,-6,100,20","0"
"14709","","survey-text","51","306544","0.0-51.0-0.0","AO71E3MTYDM8L","","","","{""Q0"":""Looks like highways I like it""}","","","","","","","","","","","","","","","","","","","","","","",""
"2863.5999999046326","","image-slider-response","52","309410","0.0-52.0","AO71E3MTYDM8L","","","","","38","","","","","","","","","","","","","","","","","","","","","",""
"null","","image-button-response","53","314413","0.0-53.0","AO71E3MTYDM8L","img_art/11.jpg","null","","","","","","","","","","","","","","","","","","","","","","","","",""
"9071","","image-button-response","54","323486","0.0-54.0","AO71E3MTYDM8L","img_art/11.jpg","4","","","","","","","","","","","","","","","","","","","","","","","","",""
"2056","","image-button-response","55","325545","0.0-55.0-0.0","AO71E3MTYDM8L","img_art/11.jpg","0","","","","","","","","","","","","","","","","","","","","","","","","",""
"385","","image-button-response","56","325932","0.0-56.0-0.0","AO71E3MTYDM8L","img_art/11.jpg","1","","","","","","","","","","","","","","","","","","","","","","","","",""
"null","","html-keyboard-response","57","327439","0.0-57.0","AO71E3MTYDM8L","<p style=""font-size: 48px;"">+</p>","","","","","null","allTrialResponses","1500","1","2","img_art/11.jpg","38","Looks like highways I like it","Tiffany,Rebecca,Bailey,Michelle,Cassandra,Diana","I feel excited, like I'm in the middle of a bustling city.,26,360,20","to me, perfect reflection of the modern commute,32,100,20","Kind of bizzare in that I can imagine ships or something from it.,11,360,20","I think this is a city but I'm not sure, very abstract,18,280,20","I liked it it looked like an roller coasters at an amusment park.,16,120,20","It makes my head feel dizzy. So I rated it lower.,-25,380,20","Cassandra","I liked it it looked like an roller coasters at an amusment park.,16,120,20","Tiffany","I feel excited, like I'm in the middle of a bustling city.,26,360,20","Rebecca","to me, perfect reflection of the modern commute,32,100,20","0"
"16249","","survey-text","58","343693","0.0-58.0-0.0","AO71E3MTYDM8L","","","","{""Q0"":""A hand but reminds me of french fries""}","","","","","","","","","","","","","","","","","","","","","","",""
"3123.0999999046326","","image-slider-response","59","346818","0.0-59.0","AO71E3MTYDM8L","","","","","-31","","","","","","","","","","","","","","","","","","","","","",""
"null","","image-button-response","60","351825","0.0-60.0","AO71E3MTYDM8L","img_art/4.jpg","null","","","","","","","","","","","","","","","","","","","","","","","","",""
"5468","","image-button-response","61","357296","0.0-61.0","AO71E3MTYDM8L","img_art/4.jpg","4","","","","","","","","","","","","","","","","","","","","","","","","",""
"663","","image-button-response","62","357961","0.0-62.0-0.0","AO71E3MTYDM8L","img_art/4.jpg","5","","","","","","","","","","","","","","","","","","","","","","","","",""
"5471","","image-button-response","63","363435","0.0-63.0-0.0","AO71E3MTYDM8L","img_art/4.jpg","0","","","","","","","","","","","","","","","","","","","","","","","","",""
"null","","html-keyboard-response","64","364939","0.0-64.0","AO71E3MTYDM8L","<p style=""font-size: 48px;"">+</p>","","","","","null","allTrialResponses","1500","1","3","img_art/4.jpg","-31","A hand but reminds me of french fries","Tiffany,Rebecca,Christina,Courtney,Cassandra,Brooke","The sickly looking colors make me feel very uncomfortable.,-35,360,20","no sorry i can't really understand,-18,100,20","not enough color and too yellow for me. Not my favorite colors,-10,240,20","A leaning trophy,-9,280,20","I don't like this...a mustardy scibble.,-47,120,20","Looks like the roomba got into dog poop,-30,60,20","Cassandra","I don't like this...a mustardy scibble.,-47,120,20","Brooke","Looks like the roomba got into dog poop,-30,60,20","Tiffany","The sickly looking colors make me feel very uncomfortable.,-35,360,20","0"
"10999","","survey-text","65","375942","0.0-65.0-0.0","AO71E3MTYDM8L","","","","{""Q0"":""Looks graphic I don't like it""}","","","","","","","","","","","","","","","","","","","","","","",""
"2539.5999999046326","","image-slider-response","66","378484","0.0-66.0","AO71E3MTYDM8L","","","","","-41","","","","","","","","","","","","","","","","","","","","","",""
"null","","image-button-response","67","383492","0.0-67.0","AO71E3MTYDM8L","img_art/3.jpg","null","","","","","","","","","","","","","","","","","","","","","","","","",""
"2276","","image-button-response","68","385770","0.0-68.0","AO71E3MTYDM8L","img_art/3.jpg","0","","","","","","","","","","","","","","","","","","","","","","","","",""
"915","","image-button-response","69","386688","0.0-69.0-0.0","AO71E3MTYDM8L","img_art/3.jpg","5","","","","","","","","","","","","","","","","","","","","","","","","",""
"3519","","image-button-response","70","390210","0.0-70.0-0.0","AO71E3MTYDM8L","img_art/3.jpg","1","","","","","","","","","","","","","","","","","","","","","","","","",""
"null","","html-keyboard-response","71","390712","0.0-71.0","AO71E3MTYDM8L","<p style=""font-size: 48px;"">+</p>","","","","","null","allTrialResponses","500","1","4","img_art/3.jpg","-41","Looks graphic I don't like it","Tiffany,Erica,Kaitlin,Sarah,Cassandra,Brooke","I feel uncomfortable, like I am looking at a crime scene.,-17,360,20","Associates with blood and crime scene,-12,80,20","good choice of color,12,60,20","the red is impactful but the work overall doesn't say anything to me,-8,180,20","I hate this...just a scribble of red.,-50,120,20","kid scribbled on the wall again,-35,60,20","Tiffany","I feel uncomfortable, like I am looking at a crime scene.,-17,360,20","Brooke","kid scribbled on the wall again,-35,60,20","Erica","Associates with blood and crime scene,-12,80,20","0"
"13330","","survey-text","72","404047","0.0-72.0-0.0","AO71E3MTYDM8L","","","","{""Q0"":""A simple flower drawing""}","","","","","","","","","","","","","","","","","","","","","","",""
"2347.2000000476837","","image-slider-response","73","406396","0.0-73.0","AO71E3MTYDM8L","","","","","18","","","","","","","","","","","","","","","","","","","","","",""
"null","","image-button-response","74","411403","0.0-74.0","AO71E3MTYDM8L","img_art/14.jpg","null","","","","","","","","","","","","","","","","","","","","","","","","",""
"14227","","image-button-response","75","425633","0.0-75.0","AO71E3MTYDM8L","img_art/14.jpg","3","","","","","","","","","","","","","","","","","","","","","","","","",""
"1055","","image-button-response","76","426691","0.0-76.0-0.0","AO71E3MTYDM8L","img_art/14.jpg","4","","","","","","","","","","","","","","","","","","","","","","","","",""
"621","","image-button-response","77","427315","0.0-77.0-0.0","AO71E3MTYDM8L","img_art/14.jpg","5","","","","","","","","","","","","","","","","","","","","","","","","",""
"null","","html-keyboard-response","78","428317","0.0-78.0","AO71E3MTYDM8L","<p style=""font-size: 48px;"">+</p>","","","","","null","allTrialResponses","1000","1","5","img_art/14.jpg","18","A simple flower drawing","Tiffany,Erica,Brianna,Anna,Stephanie,Brooke","I feel uncomfortable looking at this painting, it is a mess that needs to be cleaned up.,-16,360,20","positive colours, makes me to look at it and investigate what is going on,27,80,20","It uses interesting techniques on this picture, but I have no feelings for or against.,1,20,20","It reminds me of a tree in the desert.,15,300,20","Late Winter when things are just starting to bloom.,21,300,20","cotton candy skies. pretty.,35,60,20","Anna","It reminds me of a tree in the desert.,15,300,20","Stephanie","Late Winter when things are just starting to bloom.,21,300,20","Brooke","cotton candy skies. pretty.,35,60,20","0"
"3812","","survey-text","79","432137","0.0-79.0-0.0","AO71E3MTYDM8L","","","","{""Q0"":""sky""}","","","","","","","","","","","","","","","","","","","","","","",""
"13037","","survey-text","80","445175","0.0-80.0-0.0","AO71E3MTYDM8L","","","","{""Q0"":""Some paint thrown at a canvas""}","","","","","","","","","","","","","","","","","","","","","","",""
"3305.100000023842","","image-slider-response","81","448483","0.0-81.0","AO71E3MTYDM8L","","","","","-14","","","","","","","","","","","","","","","","","","","","","",""
"null","","image-button-response","82","453488","0.0-82.0","AO71E3MTYDM8L","img_art/13.jpg","null","","","","","","","","","","","","","","","","","","","","","","","","",""
"3806","","image-button-response","83","457296","0.0-83.0","AO71E3MTYDM8L","img_art/13.jpg","5","","","","","","","","","","","","","","","","","","","","","","","","",""
"993","","image-button-response","84","458292","0.0-84.0-0.0","AO71E3MTYDM8L","img_art/13.jpg","4","","","","","","","","","","","","","","","","","","","","","","","","",""
"1325","","image-button-response","85","459620","0.0-85.0-0.0","AO71E3MTYDM8L","img_art/13.jpg","3","","","","","","","","","","","","","","","","","","","","","","","","",""
"null","","html-keyboard-response","86","461127","0.0-86.0","AO71E3MTYDM8L","<p style=""font-size: 48px;"">+</p>","","","","","null","allTrialResponses","1500","1","6","img_art/13.jpg","-14","Some paint thrown at a canvas","Victoria,Heather,Angela,Anna,Stephanie,Brooke","reminds me of rain,36,400,20","rain in blue black and white,1,260,20","It's okay. Feels like a blander take on a Jackson Pollack,11,260,20","It reminds me of a window on a rainy day.,40,300,20","Raindrops splashing on the window.,50,300,20","Like the use of color, not a fan of the splatter,29,60,20","Brooke","Like the use of color, not a fan of the splatter,29,60,20","Stephanie","Raindrops splashing on the window.,50,300,20","Anna","It reminds me of a window on a rainy day.,40,300,20","0"
"10984","","survey-text","87","472116","0.0-87.0-0.0","AO71E3MTYDM8L","","","","{""Q0"":""People having a party""}","","","","","","","","","","","","","","","","","","","","","","",""
"2912","","image-slider-response","88","475030","0.0-88.0","AO71E3MTYDM8L","","","","","11","","","","","","","","","","","","","","","","","","","","","",""
"null","","image-button-response","89","480034","0.0-89.0","AO71E3MTYDM8L","img_art/23.jpg","null","","","","","","","","","","","","","","","","","","","","","","","","",""
"5338","","image-button-response","90","485375","0.0-90.0","AO71E3MTYDM8L","img_art/23.jpg","2","","","","","","","","","","","","","","","","","","","","","","","","",""
"3389","","image-button-response","91","488765","0.0-91.0-0.0","AO71E3MTYDM8L","img_art/23.jpg","4","","","","","","","","","","","","","","","","","","","","","","","","",""
"637","","image-button-response","92","489405","0.0-92.0-0.0","AO71E3MTYDM8L","img_art/23.jpg","3","","","","","","","","","","","","","","","","","","","","","","","","",""
"null","","html-keyboard-response","93","490911","0.0-93.0","AO71E3MTYDM8L","<p style=""font-size: 48px;"">+</p>","","","","","null","allTrialResponses","1500","1","7","img_art/23.jpg","11","People having a party","Kaylee,Jennifer,Kristen,Anna,Stephanie,Brooke","i completely dont get it,-47,200,20","The cluster of white silhouettes against the colorful background makes me feel uneasy for some reason,-36,380,20","fsiries, happy, spiritual,16,280,20","I love the colors and the contrast.,50,300,20","This makes me think of an orchestra playing a forth of july song,12,300,20","looks like those paper chain things.,0,60,20","Kristen","fsiries, happy, spiritual,16,280,20","Stephanie","This makes me think of an orchestra playing a forth of july song,12,300,20","Anna","I love the colors and the contrast.,50,300,20","0"
"17803","","survey-text","94","508719","0.0-94.0-0.0","AO71E3MTYDM8L","","","","{""Q0"":""A lot going on but I like it""}","","","","","","","","","","","","","","","","","","","","","","",""
"2797","","image-slider-response","95","511519","0.0-95.0","AO71E3MTYDM8L","","","","","20","","","","","","","","","","","","","","","","","","","","","",""
"null","","image-button-response","96","516524","0.0-96.0","AO71E3MTYDM8L","img_art/29.jpg","null","","","","","","","","","","","","","","","","","","","","","","","","",""
"4193","","image-button-response","97","520719","0.0-97.0","AO71E3MTYDM8L","img_art/29.jpg","1","","","","","","","","","","","","","","","","","","","","","","","","",""
"970","","image-button-response","98","521691","0.0-98.0-0.0","AO71E3MTYDM8L","img_art/29.jpg","3","","","","","","","","","","","","","","","","","","","","","","","","",""
"3843","","image-button-response","99","525537","0.0-99.0-0.0","AO71E3MTYDM8L","img_art/29.jpg","0","","","","","","","","","","","","","","","","","","","","","","","","",""
"null","","html-keyboard-response","100","526542","0.0-100.0","AO71E3MTYDM8L","<p style=""font-size: 48px;"">+</p>","","","","","null","allTrialResponses","1000","1","8","img_art/29.jpg","20","A lot going on but I like it","Chelsea,Emily,Kristen,Anna,Stephanie,Chloe","It is intriguing but I don't like the red X.,6,180,20","Looks literally like garbage.,-45,40,20","danger, crime scene,,10,280,20","I like the texture and colors and how it makes me feel. I like how it's different from other abstract art.,45,300,20","Looks like a murder,-50,300,20","Looks muddy and sticky,-31,220,20","Emily","Looks literally like garbage.,-45,40,20","Anna","I like the texture and colors and how it makes me feel. I like how it's different from other abstract art.,45,300,20","Chelsea","It is intriguing but I don't like the red X.,6,180,20","0"
"15537","","survey-text","101","542082","0.0-101.0-0.0","AO71E3MTYDM8L","","","","{""Q0"":""Looks like something a kid would make""}","","","","","","","","","","","","","","","","","","","","","","",""
"2179.7999999523163","","image-slider-response","102","544264","0.0-102.0","AO71E3MTYDM8L","","","","","-32","","","","","","","","","","","","","","","","","","","","","",""
"null","","image-button-response","103","549270","0.0-103.0","AO71E3MTYDM8L","img_art/22.jpg","null","","","","","","","","","","","","","","","","","","","","","","","","",""
"2148","","image-button-response","104","551421","0.0-104.0","AO71E3MTYDM8L","img_art/22.jpg","3","","","","","","","","","","","","","","","","","","","","","","","","",""
"2040","","image-button-response","105","553464","0.0-105.0-0.0","AO71E3MTYDM8L","img_art/22.jpg","0","","","","","","","","","","","","","","","","","","","","","","","","",""
"6390","","image-button-response","106","559856","0.0-106.0-0.0","AO71E3MTYDM8L","img_art/22.jpg","4","","","","","","","","","","","","","","","","","","","","","","","","",""
"null","","html-keyboard-response","107","560862","0.0-107.0","AO71E3MTYDM8L","<p style=""font-size: 48px;"">+</p>","","","","","null","allTrialResponses","1000","1","9","img_art/22.jpg","-32","Looks like something a kid would make","Chelsea,Emily,Alexa,Anna,Jessica,Katherine","The colors clash, and I don't know what is happening.,-23,180,20","There is some flow and organization.,10,40,20","Really pretty. Love the colors.,30,40,20","Boring, typical abstract art,-30,300,20","I like the mixing of the primary colors.,8,400,20","Cool squares but what's the circle?,38,120,20","Anna","Boring, typical abstract art,-30,300,20","Chelsea","The colors clash, and I don't know what is happening.,-23,180,20","Jessica","I like the mixing of the primary colors.,8,400,20","0"
"15113","","survey-text","108","575980","0.0-108.0-0.0","AO71E3MTYDM8L","","","","{""Q0"":""Watercolor of a town""}","","","","","","","","","","","","","","","","","","","","","","",""
"2575.5999999046326","","image-slider-response","109","578558","0.0-109.0","AO71E3MTYDM8L","","","","","-37","","","","","","","","","","","","","","","","","","","","","",""
"4427","","image-button-response","110","583565","0.0-110.0","AO71E3MTYDM8L","img_art/26.jpg","5","","","","","","","","","","","","","","","","","","","","","","","","",""
"2211","","image-button-response","111","585778","0.0-111.0","AO71E3MTYDM8L","img_art/26.jpg","5","","","","","","","","","","","","","","","","","","","","","","","","",""
"9094","","image-button-response","112","594875","0.0-112.0-0.0","AO71E3MTYDM8L","img_art/26.jpg","1","","","","","","","","","","","","","","","","","","","","","","","","",""
"1637","","image-button-response","113","596515","0.0-113.0-0.0","AO71E3MTYDM8L","img_art/26.jpg","4","","","","","","","","","","","","","","","","","","","","","","","","",""
"null","","html-keyboard-response","114","597019","0.0-114.0","AO71E3MTYDM8L","<p style=""font-size: 48px;"">+</p>","","","","","null","allTrialResponses","500","1","10","img_art/26.jpg","-37","Watercolor of a town","Chelsea,Sydney,Isabella,Anna,Jessica,Laura","I wish it were more pastel but I think it is relaxing to look at.,30,180,20","I wish there was more detail, but I really like this simple piece.,35,320,20","Colors are full and reminds me of a messy room,-9,280,20","It looks like a watercolor I did when I was 6.,-30,300,20","It doesn't look so vibrant, I'm not sure what feelings they were trying to capture,-41,400,20","juvenile, faint and weak,-41,320,20","Laura","juvenile, faint and weak,-41,320,20","Sydney","I wish there was more detail, but I really like this simple piece.,35,320,20","Jessica","It doesn't look so vibrant, I'm not sure what feelings they were trying to capture,-41,400,20","0"
"3325","","survey-text","115","600353","0.0-115.0-0.0","AO71E3MTYDM8L","","","","{""Q0"":""our""}","","","","","","","","","","","","","","","","","","","","","","",""
"13396","","survey-text","116","613751","0.0-116.0-0.0","AO71E3MTYDM8L","","","","{""Q0"":""A kid stuck their fingers in some paint""}","","","","","","","","","","","","","","","","","","","","","","",""
"2826.8000000715256","","image-slider-response","117","616580","0.0-117.0","AO71E3MTYDM8L","","","","","-35","","","","","","","","","","","","","","","","","","","","","",""
"null","","image-button-response","118","621582","0.0-118.0","AO71E3MTYDM8L","img_art/30.jpg","null","","","","","","","","","","","","","","","","","","","","","","","","",""
"6246","","image-button-response","119","627830","0.0-119.0","AO71E3MTYDM8L","img_art/30.jpg","5","","","","","","","","","","","","","","","","","","","","","","","","",""
"527","","image-button-response","120","628360","0.0-120.0-0.0","AO71E3MTYDM8L","img_art/30.jpg","4","","","","","","","","","","","","","","","","","","","","","","","","",""
"867","","image-button-response","121","629230","0.0-121.0-0.0","AO71E3MTYDM8L","img_art/30.jpg","3","","","","","","","","","","","","","","","","","","","","","","","","",""
"null","","html-keyboard-response","122","630736","0.0-122.0","AO71E3MTYDM8L","<p style=""font-size: 48px;"">+</p>","","","","","null","allTrialResponses","1500","1","11","img_art/30.jpg","-35","A kid stuck their fingers in some paint","Marissa,Sydney,Jamie,Leslie,Jessica,Laura","I really like the broad and colorful strokes,21,160,20","I love the colors, the style, and the uniqueness in this piece. I love everything.,50,320,20","Cool design and contrast of colors,30,320,20","The brush strokes are appealing, and make me want to look at this longer.,11,380,20","Looks cool , but no meaning,1,400,20","sloppy, unintentional,-20,320,20","Laura","sloppy, unintentional,-20,320,20","Jessica","Looks cool , but no meaning,1,400,20","Leslie","The brush strokes are appealing, and make me want to look at this longer.,11,380,20","0"
"11737","","survey-text","123","642478","0.0-123.0-0.0","AO71E3MTYDM8L","","","","{""Q0"":""I can't tell whats going on""}","","","","","","","","","","","","","","","","","","","","","","",""
"4849.5","","image-slider-response","124","647330","0.0-124.0","AO71E3MTYDM8L","","","","","3","","","","","","","","","","","","","","","","","","","","","",""
"null","","image-button-response","125","652337","0.0-125.0","AO71E3MTYDM8L","img_art/9.jpg","null","","","","","","","","","","","","","","","","","","","","","","","","",""
"4477","","image-button-response","126","656817","0.0-126.0","AO71E3MTYDM8L","img_art/9.jpg","5","","","","","","","","","","","","","","","","","","","","","","","","",""
"9310","","image-button-response","127","666130","0.0-127.0-0.0","AO71E3MTYDM8L","img_art/9.jpg","2","","","","","","","","","","","","","","","","","","","","","","","","",""
"1743","","image-button-response","128","667876","0.0-128.0-0.0","AO71E3MTYDM8L","img_art/9.jpg","3","","","","","","","","","","","","","","","","","","","","","","","","",""
"null","","html-keyboard-response","129","668379","0.0-129.0","AO71E3MTYDM8L","<p style=""font-size: 48px;"">+</p>","","","","","null","allTrialResponses","500","1","12","img_art/9.jpg","3","I can't tell whats going on","Caroline,Amber,Amy,Leslie,Jessica,Laura","Stirs up emotions of watching someone sleep which is relaxing,11,100,20","looks like sleeping beauty in a garden,10,200,20","The busyness and harsh nature of the lines in this painting  mute my emotional response.,-10,220,20","The colors are pretty, and remind me of a circus.,5,380,20","So I don't really like this style but it looks somewhat okay,3,400,20","autopsy, morgue, dead corpses - don't like the flesh tones,-43,320,20","Laura","autopsy, morgue, dead corpses - don't like the flesh tones,-43,320,20","Amy","The busyness and harsh nature of the lines in this painting  mute my emotional response.,-10,220,20","Leslie","The colors are pretty, and remind me of a circus.,5,380,20","0"
"12502","","survey-text","130","680886","0.0-130.0-0.0","AO71E3MTYDM8L","","","","{""Q0"":""Can't make out anything""}","","","","","","","","","","","","","","","","","","","","","","",""
"1689.0999999046326","","image-slider-response","131","682577","0.0-131.0","AO71E3MTYDM8L","","","","","-32","","","","","","","","","","","","","","","","","","","","","",""
"null","","image-button-response","132","687584","0.0-132.0","AO71E3MTYDM8L","img_art/1.jpg","null","","","","","","","","","","","","","","","","","","","","","","","","",""
"10249","","image-button-response","133","697835","0.0-133.0","AO71E3MTYDM8L","img_art/1.jpg","2","","","","","","","","","","","","","","","","","","","","","","","","",""
"2370","","image-button-response","134","700207","0.0-134.0-0.0","AO71E3MTYDM8L","img_art/1.jpg","5","","","","","","","","","","","","","","","","","","","","","","","","",""
"1392","","image-button-response","135","701601","0.0-135.0-0.0","AO71E3MTYDM8L","img_art/1.jpg","3","","","","","","","","","","","","","","","","","","","","","","","","",""
"null","","html-keyboard-response","136","703106","0.0-136.0","AO71E3MTYDM8L","<p style=""font-size: 48px;"">+</p>","","","","","null","allTrialResponses","1500","1","13","img_art/1.jpg","-32","Can't make out anything","Samantha,Jenna,Amy,Leslie,Kelsey,Laura","Love the colors but it makes me feel like someone is looking at me through it,38,140,20","beautiful colors and brush strokes,47,360,20","Unpleasing palette. I see a figure but it seems incongrous to the highly abstract background.,-20,220,20","The use of reds, blues, and yellows together reminds me of fire. Very interesting to look at.,40,380,20","this ones alright,10,240,20","soft and touchable, muddled,15,320,20","Amy","Unpleasing palette. I see a figure but it seems incongrous to the highly abstract background.,-20,220,20","Laura","soft and touchable, muddled,15,320,20","Leslie","The use of reds, blues, and yellows together reminds me of fire. Very interesting to look at.,40,380,20","0"
"13904","","survey-text","137","717015","0.0-137.0-0.0","AO71E3MTYDM8L","","","","{""Q0"":""Looks like a wallpaper""}","","","","","","","","","","","","","","","","","","","","","","",""
"2714","","image-slider-response","138","719731","0.0-138.0","AO71E3MTYDM8L","","","","","-9","","","","","","","","","","","","","","","","","","","","","",""
"null","","image-button-response","139","724736","0.0-139.0","AO71E3MTYDM8L","img_art/12.jpg","null","","","","","","","","","","","","","","","","","","","","","","","","",""
"761","","image-button-response","140","725499","0.0-140.0","AO71E3MTYDM8L","img_art/12.jpg","1","","","","","","","","","","","","","","","","","","","","","","","","",""
"1081","","image-button-response","141","726584","0.0-141.0-0.0","AO71E3MTYDM8L","img_art/12.jpg","4","","","","","","","","","","","","","","","","","","","","","","","","",""
"1751","","image-button-response","142","728336","0.0-142.0-0.0","AO71E3MTYDM8L","img_art/12.jpg","3","","","","","","","","","","","","","","","","","","","","","","","","",""
"null","","html-keyboard-response","143","729338","0.0-143.0","AO71E3MTYDM8L","<p style=""font-size: 48px;"">+</p>","","","","","null","allTrialResponses","1000","1","14","img_art/12.jpg","-9","Looks like a wallpaper","Savannah,Molly,Amy,Leslie,Gabriela,Laura","Almost natural flowing between abstract sections.,27,200,20","Seems to be puzzles.,25,340,20","Quite lovely with depth and possibility.,21,220,20","This elicits no reaction in me.,0,380,20","In my opinion, this photo has an old school vibe,22,140,20","angry, disturbed and sharp,-25,320,20","Molly","Seems to be puzzles.,25,340,20","Gabriela","In my opinion, this photo has an old school vibe,22,140,20","Leslie","This elicits no reaction in me.,0,380,20","0"
"18325","","survey-text","144","747669","0.0-144.0-0.0","AO71E3MTYDM8L","","","","{""Q0"":""A soldier and a horse with a ghost""}","","","","","","","","","","","","","","","","","","","","","","",""
"2289.8000000715256","","image-slider-response","145","749961","0.0-145.0","AO71E3MTYDM8L","","","","","10","","","","","","","","","","","","","","","","","","","","","",""
"null","","image-button-response","146","754968","0.0-146.0","AO71E3MTYDM8L","img_art/18.jpg","null","","","","","","","","","","","","","","","","","","","","","","","","",""
"4878","","image-button-response","147","759850","0.0-147.0","AO71E3MTYDM8L","img_art/18.jpg","5","","","","","","","","","","","","","","","","","","","","","","","","",""
"8211","","image-button-response","148","768063","0.0-148.0-0.0","AO71E3MTYDM8L","img_art/18.jpg","3","","","","","","","","","","","","","","","","","","","","","","","","",""
"843","","image-button-response","149","768909","0.0-149.0-0.0","AO71E3MTYDM8L","img_art/18.jpg","4","","","","","","","","","","","","","","","","","","","","","","","","",""
"null","","html-keyboard-response","150","770414","0.0-150.0","AO71E3MTYDM8L","<p style=""font-size: 48px;"">+</p>","","","","","null","allTrialResponses","1500","1","15","img_art/18.jpg","10","A soldier and a horse with a ghost","Katie,Molly,Cassidy,Leslie,Gabriela,Kathryn","Looks messy. Reminds me of a battle or war. I have an unpleasant feeling the more I look.,-20,160,20","White and yellow look awesome and the picture's dynamics are wonderful.,30,340,20","nice balance of color. The different sizes and types of strokes give a lot to look at,18,140,20","This is a very energetic painting, and brings to mind scenes of battle.,50,380,20","It's possibly of a mermaid luring in a ship,15,140,20","Like riding into battle. A sense of confidence, but also trepidation for what's coming. Could be a personification of death.,-10,140,20","Kathryn","Like riding into battle. A sense of confidence, but also trepidation for what's coming. Could be a personification of death.,-10,140,20","Leslie","This is a very energetic painting, and brings to mind scenes of battle.,50,380,20","Gabriela","It's possibly of a mermaid luring in a ship,15,140,20","0"
"3558","","survey-text","151","773980","0.0-151.0-0.0","AO71E3MTYDM8L","","","","{""Q0"":""course""}","","","","","","","","","","","","","","","","","","","","","","",""
"27052","","survey-text","152","801034","0.0-152.0-0.0","AO71E3MTYDM8L","","","","{""Q0"":""Looks to have a deeper meaning""}","","","","","","","","","","","","","","","","","","","","","","",""
"2559.600000023842","","image-slider-response","153","803596","0.0-153.0","AO71E3MTYDM8L","","","","","-5","","","","","","","","","","","","","","","","","","","","","",""
"null","","image-button-response","154","808603","0.0-154.0","AO71E3MTYDM8L","img_art/8.jpg","null","","","","","","","","","","","","","","","","","","","","","","","","",""
"2132","","image-button-response","155","810737","0.0-155.0","AO71E3MTYDM8L","img_art/8.jpg","0","","","","","","","","","","","","","","","","","","","","","","","","",""
"5412","","image-button-response","156","816151","0.0-156.0-0.0","AO71E3MTYDM8L","img_art/8.jpg","2","","","","","","","","","","","","","","","","","","","","","","","","",""
"1487","","image-button-response","157","817641","0.0-157.0-0.0","AO71E3MTYDM8L","img_art/8.jpg","0","","","","","","","","","","","","","","","","","","","","","","","","",""
"3990","","image-button-response","158","825911","0.0-157.1-0.1","AO71E3MTYDM8L","img_art/8.jpg","5","","","","","","","","","","","","","","","","","","","","","","","","",""
"null","","html-keyboard-response","159","826914","0.0-158.0","AO71E3MTYDM8L","<p style=""font-size: 48px;"">+</p>","","","","","null","allTrialResponses","1000","1","16","img_art/8.jpg","-5","Looks to have a deeper meaning","Caitlin,Erika,Jacqueline,Leslie,Gabriela,Kathryn","And I'll huff and I'll puff and I'll blow your town down!!,20,80,20","Striking, but not my taste,20,100,20","This is kind of neat. I really like how things are oriented and the shapes used.,18,300,20","The stylized faces remind me of German expressionism in a very good way.,40,380,20","I like that it sort of looks like a cityscape,9,140,20","The angle makes it kind of disorienting but I enjoy the fantastical colors and imagery. It's like a dream.,10,140,20","Caitlin","And I'll huff and I'll puff and I'll blow your town down!!,20,80,20","Jacqueline","This is kind of neat. I really like how things are oriented and the shapes used.,18,300,20","Kathryn","The angle makes it kind of disorienting but I enjoy the fantastical colors and imagery. It's like a dream.,10,140,20","2"
"15229","","survey-text","160","842151","0.0-159.0-0.0","AO71E3MTYDM8L","","","","{""Q0"":""Like it creepy in some way""}","","","","","","","","","","","","","","","","","","","","","","",""
"3393.899999976158","","image-slider-response","161","845547","0.0-160.0","AO71E3MTYDM8L","","","","","37","","","","","","","","","","","","","","","","","","","","","",""
"null","","image-button-response","162","850554","0.0-161.0","AO71E3MTYDM8L","img_art/16.jpg","null","","","","","","","","","","","","","","","","","","","","","","","","",""
"11497","","image-button-response","163","862054","0.0-162.0","AO71E3MTYDM8L","img_art/16.jpg","2","","","","","","","","","","","","","","","","","","","","","","","","",""
"1482","","image-button-response","164","863539","0.0-163.0-0.0","AO71E3MTYDM8L","img_art/16.jpg","0","","","","","","","","","","","","","","","","","","","","","","","","",""
"741","","image-button-response","165","864283","0.0-164.0-0.0","AO71E3MTYDM8L","img_art/16.jpg","5","","","","","","","","","","","","","","","","","","","","","","","","",""
"null","","html-keyboard-response","166","865789","0.0-165.0","AO71E3MTYDM8L","<p style=""font-size: 48px;"">+</p>","","","","","null","allTrialResponses","1500","1","17","img_art/16.jpg","37","Like it creepy in some way","Caitlin,Makayla,Jacqueline,Cheyenne,Megan,Kathryn","It is sick to put a teddy bear and a gun on the same piece of canvas.,-40,80,20","It's a little unsettling,2,80,20","Seems very twisted and dark.,-35,300,20","Cute but there's a lot going on.,7,200,20","Ugly, broken up and mismatched,-50,200,20","I see something that is supposed to be comforting but it's been discarded and lost.,-20,140,20","Jacqueline","Seems very twisted and dark.,-35,300,20","Caitlin","It is sick to put a teddy bear and a gun on the same piece of canvas.,-40,80,20","Kathryn","I see something that is supposed to be comforting but it's been discarded and lost.,-20,140,20","2"
"9774","","survey-text","167","875569","0.0-166.0-0.0","AO71E3MTYDM8L","","","","{""Q0"":""A waterfall like the colors""}","","","","","","","","","","","","","","","","","","","","","","",""
"2689.4000000953674","","image-slider-response","168","878261","0.0-167.0","AO71E3MTYDM8L","","","","","36","","","","","","","","","","","","","","","","","","","","","",""
"null","","image-button-response","169","883265","0.0-168.0","AO71E3MTYDM8L","img_art/24.jpg","null","","","","","","","","","","","","","","","","","","","","","","","","",""
"2953","","image-button-response","170","886221","0.0-169.0","AO71E3MTYDM8L","img_art/24.jpg","1","","","","","","","","","","","","","","","","","","","","","","","","",""
"3572","","image-button-response","171","889795","0.0-170.0-0.0","AO71E3MTYDM8L","img_art/24.jpg","5","","","","","","","","","","","","","","","","","","","","","","","","",""
"1103","","image-button-response","172","890901","0.0-171.0-0.0","AO71E3MTYDM8L","img_art/24.jpg","4","","","","","","","","","","","","","","","","","","","","","","","","",""
"null","","html-keyboard-response","173","891403","0.0-172.0","AO71E3MTYDM8L","<p style=""font-size: 48px;"">+</p>","","","","","null","allTrialResponses","500","1","18","img_art/24.jpg","36","A waterfall like the colors","Caitlin,Alyssa,Jacqueline,Allison,Alexandria,Kathryn","I actually like this one. You can tell what it is.,25,80,20","Beautiful.Nice use of colors and invokes feelings of serene and peace,40,160,20","This one isn't that abstract. It clearly looks like a waterfall.,31,300,20","I appreciate the earth tones. Soothing.,5,140,20","very colorful and intricate and makes me feel at peace,50,80,20","This is clear and healthy. It makes me think of unspoiled nature.,20,140,20","Alyssa","Beautiful.Nice use of colors and invokes feelings of serene and peace,40,160,20","Kathryn","This is clear and healthy. It makes me think of unspoiled nature.,20,140,20","Alexandria","very colorful and intricate and makes me feel at peace,50,80,20","2"
"9907","","survey-text","174","901317","0.0-173.0-0.0","AO71E3MTYDM8L","","","","{""Q0"":""I don't know what this is""}","","","","","","","","","","","","","","","","","","","","","","",""
"3154.899999976158","","image-slider-response","175","904473","0.0-174.0","AO71E3MTYDM8L","","","","","-27","","","","","","","","","","","","","","","","","","","","","",""
"null","","image-button-response","176","909478","0.0-175.0","AO71E3MTYDM8L","img_art/5.jpg","null","","","","","","","","","","","","","","","","","","","","","","","","",""
"3898","","image-button-response","177","913379","0.0-176.0","AO71E3MTYDM8L","img_art/5.jpg","3","","","","","","","","","","","","","","","","","","","","","","","","",""
"6760","","image-button-response","178","920142","0.0-177.0-0.0","AO71E3MTYDM8L","img_art/5.jpg","0","","","","","","","","","","","","","","","","","","","","","","","","",""
"2021","","image-button-response","179","922165","0.0-178.0-0.0","AO71E3MTYDM8L","img_art/5.jpg","4","","","","","","","","","","","","","","","","","","","","","","","","",""
"null","","html-keyboard-response","180","922668","0.0-179.0","AO71E3MTYDM8L","<p style=""font-size: 48px;"">+</p>","","","","","null","allTrialResponses","500","1","19","img_art/5.jpg","-27","I don't know what this is","Alexandra,Alyssa,Madison,Kaitlyn,Alexandria,Kathryn","This looks like a twelve year old did it,-40,60,20","It has a sense of vague familiarity that i like.Like a stick starting a fire at a campsite.,30,160,20","Bright and luminous,31,60,20","Wish the background had been kept clean; distracts from main object,11,80,20","no clear emotion,-16,80,20","I see a sign advising me to be cautious.,-20,140,20","Kaitlyn","Wish the background had been kept clean; distracts from main object,11,80,20","Alexandra","This looks like a twelve year old did it,-40,60,20","Alexandria","no clear emotion,-16,80,20","2"
"7700","","survey-text","181","930373","0.0-180.0-0.0","AO71E3MTYDM8L","","","","{""Q0"":""A storm at sea""}","","","","","","","","","","","","","","","","","","","","","","",""
"2115.7999999523163","","image-slider-response","182","932491","0.0-181.0","AO71E3MTYDM8L","","","","","6","","","","","","","","","","","","","","","","","","","","","",""
"null","","image-button-response","183","937498","0.0-182.0","AO71E3MTYDM8L","img_art/21.jpg","null","","","","","","","","","","","","","","","","","","","","","","","","",""
"3181","","image-button-response","184","940681","0.0-183.0","AO71E3MTYDM8L","img_art/21.jpg","0","","","","","","","","","","","","","","","","","","","","","","","","",""
"3225","","image-button-response","185","943908","0.0-184.0-0.0","AO71E3MTYDM8L","img_art/21.jpg","2","","","","","","","","","","","","","","","","","","","","","","","","",""
"3252","","image-button-response","186","947163","0.0-185.0-0.0","AO71E3MTYDM8L","img_art/21.jpg","4","","","","","","","","","","","","","","","","","","","","","","","","",""
"null","","html-keyboard-response","187","947666","0.0-186.0","AO71E3MTYDM8L","<p style=""font-size: 48px;"">+</p>","","","","","null","allTrialResponses","500","1","20","img_art/21.jpg","6","A storm at sea","Alexandra,Paige,Alicia,Kaitlyn,Alexandria,Autumn","This one is nice, it reminds me of the sky,42,60,20","the picture is boring,1,60,20","Don't know why I like it, cant describe, maybe many landscapes?,47,120,20","The division in the picture is pleasing but the random white dots are distracting,12,80,20","the vast colors make me happy,15,80,20","Amazing colors.,34,340,20","Alexandra","This one is nice, it reminds me of the sky,42,60,20","Alicia","Don't know why I like it, cant describe, maybe many landscapes?,47,120,20","Alexandria","the vast colors make me happy,15,80,20","2"
"2958","","survey-text","188","950634","0.0-187.0-0.0","AO71E3MTYDM8L","","","","{""Q0"":""we""}","","","","","","","","","","","","","","","","","","","","","","",""
"8800","","survey-text","189","959435","0.0-188.0-0.0","AO71E3MTYDM8L","","","","{""Q0"":""A crow""}","","","","","","","","","","","","","","","","","","","","","","",""
"2617.6999999284744","","image-slider-response","190","962055","0.0-189.0","AO71E3MTYDM8L","","","","","-6","","","","","","","","","","","","","","","","","","","","","",""
"null","","image-button-response","191","967063","0.0-190.0","AO71E3MTYDM8L","img_art/6.jpg","null","","","","","","","","","","","","","","","","","","","","","","","","",""
"637","","image-button-response","192","967703","0.0-191.0","AO71E3MTYDM8L","img_art/6.jpg","5","","","","","","","","","","","","","","","","","","","","","","","","",""
"1876","","image-button-response","193","969581","0.0-192.0-0.0","AO71E3MTYDM8L","img_art/6.jpg","1","","","","","","","","","","","","","","","","","","","","","","","","",""
"534","","image-button-response","194","970117","0.0-193.0-0.0","AO71E3MTYDM8L","img_art/6.jpg","2","","","","","","","","","","","","","","","","","","","","","","","","",""
"null","","html-keyboard-response","195","971622","0.0-194.0","AO71E3MTYDM8L","<p style=""font-size: 48px;"">+</p>","","","","","null","allTrialResponses","1500","1","21","img_art/6.jpg","-6","A crow","Alexandra,Amanda,Alicia,Kelly,Alexandria,Alexis","this is interesting and unique,11,60,20","Makes me feel lonely,-22,180,20","kids book cover, uninteresting.,-10,120,20","Simple and pretty.,18,220,20","i like it but it is very neutral,9,80,20","The feeling of isolation with so little objects. Great,20,100,20","Alexis","The feeling of isolation with so little objects. Great,20,100,20","Amanda","Makes me feel lonely,-22,180,20","Alicia","kids book cover, uninteresting.,-10,120,20","2"
"9529","","survey-text","196","981156","0.0-195.0-0.0","AO71E3MTYDM8L","","","","{""Q0"":""Looks like a kid got some markers""}","","","","","","","","","","","","","","","","","","","","","","",""
"1739.6000000238419","","image-slider-response","197","982898","0.0-196.0","AO71E3MTYDM8L","","","","","-28","","","","","","","","","","","","","","","","","","","","","",""
"null","","image-button-response","198","987905","0.0-197.0","AO71E3MTYDM8L","img_art/27.jpg","null","","","","","","","","","","","","","","","","","","","","","","","","",""
"2259","","image-button-response","199","990166","0.0-198.0","AO71E3MTYDM8L","img_art/27.jpg","1","","","","","","","","","","","","","","","","","","","","","","","","",""
"1890","","image-button-response","200","992058","0.0-199.0-0.0","AO71E3MTYDM8L","img_art/27.jpg","2","","","","","","","","","","","","","","","","","","","","","","","","",""
"761","","image-button-response","201","992822","0.0-200.0-0.0","AO71E3MTYDM8L","img_art/27.jpg","5","","","","","","","","","","","","","","","","","","","","","","","","",""
"null","","html-keyboard-response","202","994323","0.0-201.0","AO71E3MTYDM8L","<p style=""font-size: 48px;"">+</p>","","","","","null","allTrialResponses","1500","1","22","img_art/27.jpg","-28","Looks like a kid got some markers","Dominique,Amanda,Alicia,Destiny,Nicole,Alexis","A beautiful day full of Hope and Inspiritation. The warmth of hot cocoa with the family gathering around,33,400,20","I love the childish aspect to it,37,180,20","dont like it, don't hate it, meh.,2,120,20","demon vs angel brawl over lemon lime sprite,-10,360,20","Very cool colors and I like the contrast of lights and darks,30,20,20","Too abstract, doesn't remind me of anything,-42,100,20","Amanda","I love the childish aspect to it,37,180,20","Alicia","dont like it, don't hate it, meh.,2,120,20","Alexis","Too abstract, doesn't remind me of anything,-42,100,20","2"
"19995","","survey-text","203","1014325","0.0-202.0-0.0","AO71E3MTYDM8L","","","","{""Q0"":""Reminds me of a festival""}","","","","","","","","","","","","","","","","","","","","","","",""
"1925.6000000238419","","image-slider-response","204","1016253","0.0-203.0","AO71E3MTYDM8L","","","","","7","","","","","","","","","","","","","","","","","","","","","",""
"4463","","image-button-response","205","1021258","0.0-204.0","AO71E3MTYDM8L","img_art/19.jpg","2","","","","","","","","","","","","","","","","","","","","","","","","",""
"1127","","image-button-response","206","1022387","0.0-205.0","AO71E3MTYDM8L","img_art/19.jpg","1","","","","","","","","","","","","","","","","","","","","","","","","",""
"1670","","image-button-response","207","1024058","0.0-206.0-0.0","AO71E3MTYDM8L","img_art/19.jpg","0","","","","","","","","","","","","","","","","","","","","","","","","",""
"600","","image-button-response","208","1024661","0.0-207.0-0.0","AO71E3MTYDM8L","img_art/19.jpg","2","","","","","","","","","","","","","","","","","","","","","","","","",""
"null","","html-keyboard-response","209","1026164","0.0-208.0","AO71E3MTYDM8L","<p style=""font-size: 48px;"">+</p>","","","","","null","allTrialResponses","1500","1","23","img_art/19.jpg","7","Reminds me of a festival","Crystal,Amanda,Alicia,Elizabeth,Natalie,Alexis","It is an interesting piece but there are too many muted tones,22,300,20","Its just a nice painting, nothing too special but nothing negative,25,180,20","calming, like the drips,25,120,20","Like the painting strokes,39,20,20","the picture gave me anxiety,-38,400,20","Not a fan of the blobbiness,-22,100,20","Amanda","Its just a nice painting, nothing too special but nothing negative,25,180,20","Crystal","It is an interesting piece but there are too many muted tones,22,300,20","Alicia","calming, like the drips,25,120,20","2"
"13732","","survey-text","210","1039902","0.0-209.0-0.0","AO71E3MTYDM8L","","","","{""Q0"":""Reminds me of the ocean and also an orchestra""}","","","","","","","","","","","","","","","","","","","","","","",""
"2243.7999999523163","","image-slider-response","211","1042148","0.0-210.0","AO71E3MTYDM8L","","","","","20","","","","","","","","","","","","","","","","","","","","","",""
"null","","image-button-response","212","1047154","0.0-211.0","AO71E3MTYDM8L","img_art/10.jpg","null","","","","","","","","","","","","","","","","","","","","","","","","",""
"4772","","image-button-response","213","1051929","0.0-212.0","AO71E3MTYDM8L","img_art/10.jpg","1","","","","","","","","","","","","","","","","","","","","","","","","",""
"1379","","image-button-response","214","1053311","0.0-213.0-0.0","AO71E3MTYDM8L","img_art/10.jpg","5","","","","","","","","","","","","","","","","","","","","","","","","",""
"1278","","image-button-response","215","1054592","0.0-214.0-0.0","AO71E3MTYDM8L","img_art/10.jpg","4","","","","","","","","","","","","","","","","","","","","","","","","",""
"null","","html-keyboard-response","216","1055596","0.0-215.0","AO71E3MTYDM8L","<p style=""font-size: 48px;"">+</p>","","","","","null","allTrialResponses","1000","1","24","img_art/10.jpg","20","Reminds me of the ocean and also an orchestra","Crystal,Amanda,Alicia,Shannon,Michaela,Emma","The contrast between the messy dots/dabs vs the straight affluent lines is unappealing,-20,300,20","Reminds me of a beautiful ship wreck,36,180,20","It's art. (for some),7,120,20","I can't tell what this picture is supposed to mean and I think the colors are lacking variety.,-42,220,20","It looks like it's sinking but it could also be a view from above,40,260,20","Feels musical .....,40,60,20","Amanda","Reminds me of a beautiful ship wreck,36,180,20","Emma","Feels musical .....,40,60,20","Michaela","It looks like it's sinking but it could also be a view from above,40,260,20","2"
"12813","","survey-text","217","1068415","0.0-216.0-0.0","AO71E3MTYDM8L","","","","{""Q0"":""Looks like salvador dali""}","","","","","","","","","","","","","","","","","","","","","","",""
"2168.899999976158","","image-slider-response","218","1070585","0.0-217.0","AO71E3MTYDM8L","","","","","10","","","","","","","","","","","","","","","","","","","","","",""
"null","","image-button-response","219","1075591","0.0-218.0","AO71E3MTYDM8L","img_art/20.jpg","null","","","","","","","","","","","","","","","","","","","","","","","","",""
"5579","","image-button-response","220","1081171","0.0-219.0","AO71E3MTYDM8L","img_art/20.jpg","1","","","","","","","","","","","","","","","","","","","","","","","","",""
"2275","","image-button-response","221","1083448","0.0-220.0-0.0","AO71E3MTYDM8L","img_art/20.jpg","3","","","","","","","","","","","","","","","","","","","","","","","","",""
"803","","image-button-response","222","1084254","0.0-221.0-0.0","AO71E3MTYDM8L","img_art/20.jpg","5","","","","","","","","","","","","","","","","","","","","","","","","",""
"null","","html-keyboard-response","223","1084756","0.0-222.0","AO71E3MTYDM8L","<p style=""font-size: 48px;"">+</p>","","","","","null","allTrialResponses","500","1","25","img_art/20.jpg","10","Looks like salvador dali","Grace,Amanda,Angelica,Madeline,Michaela,Emma","Reminds me of Georgia O'Keefe.,11,180,20","Too negative looks like a car and plane crash,-50,180,20","It's too brash and loud and ugly.,-21,280,20","Looks somewhat dark and emotional,-10,40,20","I can't tell what's going on but I like the colors,12,260,20","I like the distortion of the objects, good colors,20,60,20","Amanda","Too negative looks like a car and plane crash,-50,180,20","Madeline","Looks somewhat dark and emotional,-10,40,20","Emma","I like the distortion of the objects, good colors,20,60,20","2"
"2731","","survey-text","224","1087498","0.0-223.0-0.0","AO71E3MTYDM8L","","","","{""Q0"":""table""}","","","","","","","","","","","","","","","","","","","","","","",""
"7520","","survey-text","225","1095020","0.0-224.0-0.0","AO71E3MTYDM8L","","","","{""Q0"":""Like the green""}","","","","","","","","","","","","","","","","","","","","","","",""
"2811.7999999523163","","image-slider-response","226","1097834","0.0-225.0","AO71E3MTYDM8L","","","","","3","","","","","","","","","","","","","","","","","","","","","",""
"4934","","image-button-response","227","1102839","0.0-226.0","AO71E3MTYDM8L","img_art/2.jpg","3","","","","","","","","","","","","","","","","","","","","","","","","",""
"992","","image-button-response","228","1103834","0.0-227.0","AO71E3MTYDM8L","img_art/2.jpg","2","","","","","","","","","","","","","","","","","","","","","","","","",""
"2916","","image-button-response","229","1106752","0.0-228.0-0.0","AO71E3MTYDM8L","img_art/2.jpg","1","","","","","","","","","","","","","","","","","","","","","","","","",""
"814","","image-button-response","230","1107570","0.0-229.0-0.0","AO71E3MTYDM8L","img_art/2.jpg","3","","","","","","","","","","","","","","","","","","","","","","","","",""
"null","","html-keyboard-response","231","1108576","0.0-230.0","AO71E3MTYDM8L","<p style=""font-size: 48px;"">+</p>","","","","","null","allTrialResponses","1000","1","26","img_art/2.jpg","3","Like the green","Mikayla,Amanda,Kayla,Madeline,Ashley,Emma","I love the colors in this.,29,300,20","Very simple and childish,40,180,20","Different cultures. I like that it brings differences together.,4,180,20","I don't really like this style,-5,40,20","I think I can make out a face in there.,25,320,20","Don't love the colors,-30,60,20","Kayla","Different cultures. I like that it brings differences together.,4,180,20","Amanda","Very simple and childish,40,180,20","Madeline","I don't really like this style,-5,40,20","2"
"11239","","survey-text","232","1119820","0.0-231.0-0.0","AO71E3MTYDM8L","","","","{""Q0"":""Simple like flower buds""}","","","","","","","","","","","","","","","","","","","","","","",""
"1603.7999999523163","","image-slider-response","233","1121426","0.0-232.0","AO71E3MTYDM8L","","","","","19","","","","","","","","","","","","","","","","","","","","","",""
"null","","image-button-response","234","1126433","0.0-233.0","AO71E3MTYDM8L","img_art/15.jpg","null","","","","","","","","","","","","","","","","","","","","","","","","",""
"3686","","image-button-response","235","1130122","0.0-234.0","AO71E3MTYDM8L","img_art/15.jpg","2","","","","","","","","","","","","","","","","","","","","","","","","",""
"2530","","image-button-response","236","1132655","0.0-235.0-0.0","AO71E3MTYDM8L","img_art/15.jpg","0","","","","","","","","","","","","","","","","","","","","","","","","",""
"2652","","image-button-response","237","1135310","0.0-236.0-0.0","AO71E3MTYDM8L","img_art/15.jpg","4","","","","","","","","","","","","","","","","","","","","","","","","",""
"null","","html-keyboard-response","238","1136313","0.0-237.0","AO71E3MTYDM8L","<p style=""font-size: 48px;"">+</p>","","","","","null","allTrialResponses","1000","1","27","img_art/15.jpg","19","Simple like flower buds","Hannah,Amanda,Kayla,Madeline,Danielle,Shelby","Like this for the colors and arrangement.,11,240,20","It triggers my tripophobia,-50,180,20","Bushes, good! Life, good!,12,180,20","Simple but needs some more detail somehow,-3,40,20","This is pretty nice, reminds me of dark peacock feathers, or perhaps a bush with berries in it?,15,340,20","This painting gives a calm vibe but no stronger emotions than that,10,240,20","Kayla","Bushes, good! Life, good!,12,180,20","Hannah","Like this for the colors and arrangement.,11,240,20","Danielle","This is pretty nice, reminds me of dark peacock feathers, or perhaps a bush with berries in it?,15,340,20","2"
"10052","","survey-text","239","1146371","0.0-238.0-0.0","AO71E3MTYDM8L","","","","{""Q0"":""An underwater ghost""}","","","","","","","","","","","","","","","","","","","","","","",""
"3709.899999976158","","image-slider-response","240","1150084","0.0-239.0","AO71E3MTYDM8L","","","","","33","","","","","","","","","","","","","","","","","","","","","",""
"null","","image-button-response","241","1155088","0.0-240.0","AO71E3MTYDM8L","img_art/25.jpg","null","","","","","","","","","","","","","","","","","","","","","","","","",""
"4113","","image-button-response","242","1159204","0.0-241.0","AO71E3MTYDM8L","img_art/25.jpg","2","","","","","","","","","","","","","","","","","","","","","","","","",""
"717","","image-button-response","243","1159923","0.0-242.0-0.0","AO71E3MTYDM8L","img_art/25.jpg","0","","","","","","","","","","","","","","","","","","","","","","","","",""
"4175","","image-button-response","244","1164100","0.0-243.0-0.0","AO71E3MTYDM8L","img_art/25.jpg","4","","","","","","","","","","","","","","","","","","","","","","","","",""
"null","","html-keyboard-response","245","1165604","0.0-244.0","AO71E3MTYDM8L","<p style=""font-size: 48px;"">+</p>","","","","","null","allTrialResponses","1500","1","28","img_art/25.jpg","33","An underwater ghost","Hannah,Hailey,Kayla,Catherine,Danielle,Andrea","Looks like a voodoo figure in a New Orleans cemetery at night.,-5,240,20","ugly color and very sad old lady,-45,200,20","Ghosts are NOT my thing.,-13,180,20","culture, tradition. Village people with an honored elder.,40,160,20","I like it, a bit cryptic and obscene, I enjoy that,30,340,20","Looks like Burning Man, dont care for the colors.,-5,240,20","Kayla","Ghosts are NOT my thing.,-13,180,20","Hannah","Looks like a voodoo figure in a New Orleans cemetery at night.,-5,240,20","Danielle","I like it, a bit cryptic and obscene, I enjoy that,30,340,20","2"
"10249","","survey-text","246","1175862","0.0-245.0-0.0","AO71E3MTYDM8L","","","","{""Q0"":""A blossoming tree""}","","","","","","","","","","","","","","","","","","","","","","",""
"2578.2000000476837","","image-slider-response","247","1178442","0.0-246.0","AO71E3MTYDM8L","","","","","16","","","","","","","","","","","","","","","","","","","","","",""
"null","","image-button-response","248","1183445","0.0-247.0","AO71E3MTYDM8L","img_art/17.jpg","null","","","","","","","","","","","","","","","","","","","","","","","","",""
"815","","image-button-response","249","1184262","0.0-248.0","AO71E3MTYDM8L","img_art/17.jpg","0","","","","","","","","","","","","","","","","","","","","","","","","",""
"4088","","image-button-response","250","1188352","0.0-249.0-0.0","AO71E3MTYDM8L","img_art/17.jpg","1","","","","","","","","","","","","","","","","","","","","","","","","",""
"897","","image-button-response","251","1189252","0.0-250.0-0.0","AO71E3MTYDM8L","img_art/17.jpg","2","","","","","","","","","","","","","","","","","","","","","","","","",""
"null","","html-keyboard-response","252","1189755","0.0-251.0","AO71E3MTYDM8L","<p style=""font-size: 48px;"">+</p>","","","","","null","allTrialResponses","500","1","29","img_art/17.jpg","16","A blossoming tree","Hannah,Abigail,Kayla,Olivia,Danielle,Briana","Looks like an abandoned building that is being overtaken by nature.,-10,240,20","Really love the branches. The bottom made it not perfect,42,20,20","I like the way the forest is taking over the buildings.,21,180,20","muted tones brings me down,-13,40,20","It's alright, nothing I particularly like but it's just fine,-10,340,20","It looks unfinished,-7,400,20","Hannah","Looks like an abandoned building that is being overtaken by nature.,-10,240,20","Abigail","Really love the branches. The bottom made it not perfect,42,20,20","Kayla","I like the way the forest is taking over the buildings.,21,180,20","2"
"7578","","survey-text","253","1197337","0.0-252.0-0.0","AO71E3MTYDM8L","","","","{""Q0"":""Looks like the moon""}","","","","","","","","","","","","","","","","","","","","","","",""
"1705.8999999761581","","image-slider-response","254","1199045","0.0-253.0","AO71E3MTYDM8L","","","","","-11","","","","","","","","","","","","","","","","","","","","","",""
"null","","image-button-response","255","1204050","0.0-254.0","AO71E3MTYDM8L","img_art/7.jpg","null","","","","","","","","","","","","","","","","","","","","","","","","",""
"5065","","image-button-response","256","1209116","0.0-255.0","AO71E3MTYDM8L","img_art/7.jpg","2","","","","","","","","","","","","","","","","","","","","","","","","",""
"2172","","image-button-response","257","1211291","0.0-256.0-0.0","AO71E3MTYDM8L","img_art/7.jpg","0","","","","","","","","","","","","","","","","","","","","","","","","",""
"3810","","image-button-response","258","1215104","0.0-257.0-0.0","AO71E3MTYDM8L","img_art/7.jpg","4","","","","","","","","","","","","","","","","","","","","","","","","",""
"null","","html-keyboard-response","259","1216106","0.0-258.0","AO71E3MTYDM8L","<p style=""font-size: 48px;"">+</p>","","","","","null","allTrialResponses","1000","1","30","img_art/7.jpg","-11","Looks like the moon","Hannah,Abigail,Kayla,Meghan,Lindsey,Erin","Looks almost like a photograph of nature.,11,240,20","Looks like a skin disease,-31,20,20","Dinosaur bones. Death.,-14,180,20","I don't like the texture,-49,220,20","It's dirty. I don't mind the colors so much as the way they are put together in this dirty-looking pattern.,-41,400,20","Color is bland and looks damaged,-37,120,20","Kayla","Dinosaur bones. Death.,-14,180,20","Hannah","Looks almost like a photograph of nature.,11,240,20","Lindsey","It's dirty. I don't mind the colors so much as the way they are put together in this dirty-looking pattern.,-41,400,20","2"
"4641","","image-button-response_instructions","260","1220754","0.0-259.0","AO71E3MTYDM8L","","0","instructions","","","","","","","","","","","","","","","","","","","","","","","",""
"1398","","image-button-response","261","1222158","0.0-260.0","AO71E3MTYDM8L","","0","","","","","","","","","","","","","","","","","","","","","","","","",""
