"rt","url","trial_type","trial_index","time_elapsed","internal_node_id","participant_id","stimulus","button_pressed","Name","responses","response","key_press","variableName","fixationTime","condition","trial","photo","subjectRating","subjectResponse","agentsNames","agent_1_Response","agent_2_Response","agent_3_Response","agent_4_Response","agent_5_Response","agent_6_Response","kept_1_name","kept_1_response","kept_2_name","kept_2_response","kept_3_name","kept_3_response","errorCounter"
"32663","external_page_harvard.html","external-html","0","33423","0.0-0.0","AOJRP10FWOFA9","","","","","","","","","","","","","","","","","","","","","","","","","","",""
"1911","","image-button-response","1","35340","0.0-1.0","AOJRP10FWOFA9","","1","","","","","","","","","","","","","","","","","","","","","","","","",""
"2858","","image-button-response","2","38212","0.0-2.0-0.0","AOJRP10FWOFA9","","1","phone","","","","","","","","","","","","","","","","","","","","","","","",""
"7291","","survey-text","3","45510","0.0-3.0-0.0","AOJRP10FWOFA9","","","","{""Q0"":""AOJRP10FWOFA9""}","","","","","","","","","","","","","","","","","","","","","","",""
"5634","","image-button-response_instructions","4","51149","0.0-4.0","AOJRP10FWOFA9","","0","instructions","","","","","","","","","","","","","","","","","","","","","","","",""
"32587","","image-button-response_instructions","5","83740","0.0-5.0","AOJRP10FWOFA9","img_art/ins/popularity/ins1.png","0","instructions","","","","","","","","","","","","","","","","","","","","","","","",""
"8739","","image-button-response_instructions","6","92484","0.0-6.0","AOJRP10FWOFA9","img_art/ins/popularity/ins2.png","0","instructions","","","","","","","","","","","","","","","","","","","","","","","",""
"7682","","image-button-response_instructions","7","100172","0.0-7.0","AOJRP10FWOFA9","img_art/ins/popularity/ins2Extreme.png","0","instructions","","","","","","","","","","","","","","","","","","","","","","","",""
"20546","","image-button-response_instructions","8","120723","0.0-8.0","AOJRP10FWOFA9","img_art/ins/popularity/ins3KEEPpop.PNG","0","instructions","","","","","","","","","","","","","","","","","","","","","","","",""
"3987","","image-button-response_instructions","9","124715","0.0-9.0","AOJRP10FWOFA9","img_art/ins/popularity/ins3ANamepop.PNG","0","instructions","","","","","","","","","","","","","","","","","","","","","","","",""
"3893","","image-button-response_instructions","10","128612","0.0-10.0","AOJRP10FWOFA9","img_art/ins/popularity/ins3ARatingpop.png","0","instructions","","","","","","","","","","","","","","","","","","","","","","","",""
"1749","","image-button-response_instructions","11","130363","0.0-11.0","AOJRP10FWOFA9","img_art/ins/popularity/ins3ATextpop.png","0","instructions","","","","","","","","","","","","","","","","","","","","","","","",""
"4460","","image-button-response_instructions","12","134827","0.0-12.0","AOJRP10FWOFA9","img_art/ins/popularity/ins3ALikespop.png","0","instructions","","","","","","","","","","","","","","","","","","","","","","","",""
"12990","","image-button-response_instructions","13","147819","0.0-13.0","AOJRP10FWOFA9","img_art/ins/popularity/ins3KEEPpop.PNG","0","instructions","","","","","","","","","","","","","","","","","","","","","","","",""
"10733","","image-button-response_instructions","14","158555","0.0-14.0","AOJRP10FWOFA9","img_art/ins/popularity/ins3_5RED.png","0","instructions","","","","","","","","","","","","","","","","","","","","","","","",""
"2660","","image-button-response_instructions","15","161219","0.0-15.0","AOJRP10FWOFA9","img_art/ins/popularity/ins3KEEPpop.PNG","0","instructions","","","","","","","","","","","","","","","","","","","","","","","",""
"13797","","image-button-response_instructions","16","175019","0.0-16.0","AOJRP10FWOFA9","img_art/ins/popularity/ins4KEEPpop.PNG","0","instructions","","","","","","","","","","","","","","","","","","","","","","","",""
"7693","","image-button-response_instructions","17","182715","0.0-17.0","AOJRP10FWOFA9","img_art/ins/popularity/ins5KEEPpop.PNG","0","instructions","","","","","","","","","","","","","","","","","","","","","","","",""
"2734","","image-button-response_instructions","18","185451","0.0-18.0","AOJRP10FWOFA9","","0","instructions","","","","","","","","","","","","","","","","","","","","","","","",""
"8033","","survey-text","19","193532","0.0-19.0-0.0","AOJRP10FWOFA9","","","","{""Q0"":""but""}","","","","","","","","","","","","","","","","","","","","","","",""
"32532","","survey-text","20","226066","0.0-20.0-0.0","AOJRP10FWOFA9","","","","{""Q0"":""It doesn't look like anything that I can understand.""}","","","","","","","","","","","","","","","","","","","","","","",""
"6409","","image-slider-response","21","232483","0.0-21.0","AOJRP10FWOFA9","","","","","-46","","","","","","","","","","","","","","","","","","","","","",""
"null","","image-button-response","22","237490","0.0-22.0","AOJRP10FWOFA9","img_art/ins/1.jpg","null","","","","","","","","","","","","","","","","","","","","","","","","",""
"5047","","image-button-response","23","242539","0.0-23.0","AOJRP10FWOFA9","img_art/ins/1.jpg","1","","","","","","","","","","","","","","","","","","","","","","","","",""
"4075","","image-button-response","24","246619","0.0-24.0-0.0","AOJRP10FWOFA9","img_art/ins/1.jpg","2","","","","","","","","","","","","","","","","","","","","","","","","",""
"4945","","image-button-response","25","251571","0.0-25.0-0.0","AOJRP10FWOFA9","img_art/ins/1.jpg","3","","","","","","","","","","","","","","","","","","","","","","","","",""
"null","","html-keyboard-response","26","252578","0.0-26.0","AOJRP10FWOFA9","<p style=""font-size: 48px;"">+</p>","","","","","null","allTrialResponses","1000","1","-2","img_art/ins/1.jpg","-46","It doesn't look like anything that I can understand.","Allison,Ashley,Beth,Dora,Erika,Jen","looks like a lot of things going on in the mist,20,20,20","I just don't get why these type of art would be popular,-32,40,20","This color reminds me of poo,-46,60,20","looks like what my niece in 3rd grade did this afternoon,-50,80,20","I like the sophisticated brushwork,40,100,20","It reminds me of a candy land dream I had,36,120,20","Ashley","I just don't get why these type of art would be popular,-32,40,20","Beth","This color reminds me of poo,-46,60,20","Dora","looks like what my niece in 3rd grade did this afternoon,-50,80,20","0"
"16974","","survey-text","27","269563","0.0-27.0-0.0","AOJRP10FWOFA9","","","","{""Q0"":""I don't know why anyone would buy this.""}","","","","","","","","","","","","","","","","","","","","","","",""
"5075","","image-slider-response","28","274643","0.0-28.0","AOJRP10FWOFA9","","","","","-48","","","","","","","","","","","","","","","","","","","","","",""
"null","","image-button-response","29","279648","0.0-29.0","AOJRP10FWOFA9","img_art/ins/2.jpg","null","","","","","","","","","","","","","","","","","","","","","","","","",""
"1505","","image-button-response","30","281156","0.0-30.0","AOJRP10FWOFA9","img_art/ins/2.jpg","2","","","","","","","","","","","","","","","","","","","","","","","","",""
"4116","","image-button-response","31","285275","0.0-31.0-0.0","AOJRP10FWOFA9","img_art/ins/2.jpg","1","","","","","","","","","","","","","","","","","","","","","","","","",""
"9484","","image-button-response","32","294763","0.0-32.0-0.0","AOJRP10FWOFA9","img_art/ins/2.jpg","3","","","","","","","","","","","","","","","","","","","","","","","","",""
"null","","html-keyboard-response","33","295268","0.0-33.0","AOJRP10FWOFA9","<p style=""font-size: 48px;"">+</p>","","","","","null","allTrialResponses","500","1","-1","img_art/ins/2.jpg","-48","I don't know why anyone would buy this.","Jenna,Ashley,Beth,Dora,Kara,Katie","One of my pet peevs,-48,140,20","Idk, it is just annoying,-32,40,20","meaningless painting,-45,60,20","looks too angry,-50,80,20","I like the blocks of color arrangements,30,160,20","too much color!,-28,180,20","Beth","meaningless painting,-45,60,20","Ashley","Idk, it is just annoying,-32,40,20","Dora","looks too angry,-50,80,20","0"
"25222","","survey-text","34","320498","0.0-34.0-0.0","AOJRP10FWOFA9","","","","{""Q0"":""This looks like something a 2 year old could do.""}","","","","","","","","","","","","","","","","","","","","","","",""
"5405","","image-slider-response","35","325907","0.0-35.0","AOJRP10FWOFA9","","","","","-50","","","","","","","","","","","","","","","","","","","","","",""
"3260","","image-button-response","36","330911","0.0-36.0","AOJRP10FWOFA9","img_art/ins/3.jpg","1","","","","","","","","","","","","","","","","","","","","","","","","",""
"1370","","image-button-response","37","332283","0.0-37.0","AOJRP10FWOFA9","img_art/ins/3.jpg","2","","","","","","","","","","","","","","","","","","","","","","","","",""
"1148","","image-button-response","38","333435","0.0-38.0-0.0","AOJRP10FWOFA9","img_art/ins/3.jpg","1","","","","","","","","","","","","","","","","","","","","","","","","",""
"7221","","image-button-response","39","340661","0.0-39.0-0.0","AOJRP10FWOFA9","img_art/ins/3.jpg","3","","","","","","","","","","","","","","","","","","","","","","","","",""
"null","","html-keyboard-response","40","341665","0.0-40.0","AOJRP10FWOFA9","<p style=""font-size: 48px;"">+</p>","","","","","null","allTrialResponses","1000","1","0","img_art/ins/3.jpg","-50","This looks like something a 2 year old could do.","Leslie,Ashley,Beth,Dora,Mary,Rose","It's an alright work,15,200,20","It looks like a playground for bats,-36,40,20","This thing gives me anxiety,-41,60,20","My worst nightmare,-42,80,20","I like the overlapping of brushes,41,220,20","My daily routine, it's depressing,-20,240,20","Beth","This thing gives me anxiety,-41,60,20","Ashley","It looks like a playground for bats,-36,40,20","Dora","My worst nightmare,-42,80,20","0"
"8843","","image-button-response_instructions","41","350514","0.0-41.0","AOJRP10FWOFA9","","0","instructions","","","","","","","","","","","","","","","","","","","","","","","",""
"38689","","survey-likert","42","389208","0.0-42.0-0.0","AOJRP10FWOFA9","","","","{""Q0"":"""",""Q1"":1,""Q2"":1}","","","","","","","","","","","","","","","","","","","","","","",""
"7251","","survey-likert","43","401573","0.0-42.1-0.1","AOJRP10FWOFA9","","","","{""Q0"":"""",""Q1"":0,""Q2"":""""}","","","","","","","","","","","","","","","","","","","","","","",""
"8563","","survey-likert","44","414999","0.0-42.2-0.2","AOJRP10FWOFA9","","","","{""Q0"":"""",""Q1"":1,""Q2"":1}","","","","","","","","","","","","","","","","","","","","","","",""
"5217","","survey-likert","45","426412","0.0-42.3-0.3","AOJRP10FWOFA9","","","","{""Q0"":"""",""Q1"":0,""Q2"":1}","","","","","","","","","","","","","","","","","","","","","","",""
"4588","","survey-text","46","431018","0.0-43.0-0.0","AOJRP10FWOFA9","","","","{""Q0"":""rock""}","","","","","","","","","","","","","","","","","","","","","","",""
"17526","","survey-text","47","448546","0.0-44.0-0.0","AOJRP10FWOFA9","","","","{""Q0"":""I really don't understand the painting.""}","","","","","","","","","","","","","","","","","","","","","","",""
"3380","","image-slider-response","48","451930","0.0-45.0","AOJRP10FWOFA9","","","","","-50","","","","","","","","","","","","","","","","","","","","","",""
"null","","image-button-response","49","456956","0.0-46.0","AOJRP10FWOFA9","img_art/21.jpg","null","","","","","","","","","","","","","","","","","","","","","","","","",""
"5533","","image-button-response","50","462491","0.0-47.0","AOJRP10FWOFA9","img_art/21.jpg","3","","","","","","","","","","","","","","","","","","","","","","","","",""
"1052","","image-button-response","51","463547","0.0-48.0-0.0","AOJRP10FWOFA9","img_art/21.jpg","4","","","","","","","","","","","","","","","","","","","","","","","","",""
"10644","","image-button-response","52","474195","0.0-49.0-0.0","AOJRP10FWOFA9","img_art/21.jpg","5","","","","","","","","","","","","","","","","","","","","","","","","",""
"null","","html-keyboard-response","53","474698","0.0-50.0","AOJRP10FWOFA9","<p style=""font-size: 48px;"">+</p>","","","","","null","allTrialResponses","500","1","1","img_art/21.jpg","-50","I really don't understand the painting.","Makayla,Sabrina,Sierra,Kelly,Briana,Brittany","I like the two sides meeting, like a movie scene,15,80,20","I like the representation of love and hate in this,43,120,20","i like the way the colors divide the canvas.,16,260,20","It actually reminded me of a place I've been to. So I had a positive reaction to it.,22,220,20","Unfinished. Confusing to look at,-12,400,20","Alright. I like the colors.,5,40,20","Kelly","It actually reminded me of a place I've been to. So I had a positive reaction to it.,22,220,20","Briana","Unfinished. Confusing to look at,-12,400,20","Brittany","Alright. I like the colors.,5,40,20","3"
"18610","","survey-text","54","493316","0.0-51.0-0.0","AOJRP10FWOFA9","","","","{""Q0"":""it is kind of sad to me and needs more color.""}","","","","","","","","","","","","","","","","","","","","","","",""
"4221","","image-slider-response","55","497538","0.0-52.0","AOJRP10FWOFA9","","","","","-46","","","","","","","","","","","","","","","","","","","","","",""
"null","","image-button-response","56","502543","0.0-53.0","AOJRP10FWOFA9","img_art/9.jpg","null","","","","","","","","","","","","","","","","","","","","","","","","",""
"1338","","image-button-response","57","503882","0.0-54.0","AOJRP10FWOFA9","img_art/9.jpg","2","","","","","","","","","","","","","","","","","","","","","","","","",""
"1972","","image-button-response","58","505858","0.0-55.0-0.0","AOJRP10FWOFA9","img_art/9.jpg","1","","","","","","","","","","","","","","","","","","","","","","","","",""
"2028","","image-button-response","59","507891","0.0-56.0-0.0","AOJRP10FWOFA9","img_art/9.jpg","3","","","","","","","","","","","","","","","","","","","","","","","","",""
"null","","html-keyboard-response","60","508394","0.0-57.0","AOJRP10FWOFA9","<p style=""font-size: 48px;"">+</p>","","","","","null","allTrialResponses","500","1","2","img_art/9.jpg","-46","it is kind of sad to me and needs more color.","Kaitlyn,Kimberly,Katherine,Kelly,Briana,Brittany","Focal point is interesting,2,80,20","It's too all over the place,-37,260,20","Idk what is in the middle but the blurry image makes it seem like the subject is of the painters interest,22,120,20","It looks like a child drew it.,-28,220,20","I see a foot. Idk colors are pleasant,12,400,20","It reminds me of an illustration for a fairy tale.,19,40,20","Katherine","Idk what is in the middle but the blurry image makes it seem like the subject is of the painters interest,22,120,20","Kimberly","It's too all over the place,-37,260,20","Kelly","It looks like a child drew it.,-28,220,20","3"
"17698","","survey-text","61","526098","0.0-58.0-0.0","AOJRP10FWOFA9","","","","{""Q0"":""It looks like a little town.""}","","","","","","","","","","","","","","","","","","","","","","",""
"4397","","image-slider-response","62","530499","0.0-59.0","AOJRP10FWOFA9","","","","","-37","","","","","","","","","","","","","","","","","","","","","",""
"null","","image-button-response","63","535503","0.0-60.0","AOJRP10FWOFA9","img_art/19.jpg","null","","","","","","","","","","","","","","","","","","","","","","","","",""
"3018","","image-button-response","64","538522","0.0-61.0","AOJRP10FWOFA9","img_art/19.jpg","5","","","","","","","","","","","","","","","","","","","","","","","","",""
"7003","","image-button-response","65","545530","0.0-62.0-0.0","AOJRP10FWOFA9","img_art/19.jpg","2","","","","","","","","","","","","","","","","","","","","","","","","",""
"2341","","image-button-response","66","547875","0.0-63.0-0.0","AOJRP10FWOFA9","img_art/19.jpg","0","","","","","","","","","","","","","","","","","","","","","","","","",""
"null","","html-keyboard-response","67","548378","0.0-64.0","AOJRP10FWOFA9","<p style=""font-size: 48px;"">+</p>","","","","","null","allTrialResponses","500","1","3","img_art/19.jpg","-37","It looks like a little town.","Andrea,Kimberly,Katherine,Kelly,Morgan,Alexandra","Feels like a cafe in Paris.,35,240,20","The blue makes it look like it has depth,11,260,20","I dig the not being able to tell what anything is but knowing everything is supposed to be something,46,120,20","TOo much brown.,-24,220,20","Messy pantry full of food.,5,380,20","This photo has too much going on.,-19,60,20","Alexandra","This photo has too much going on.,-19,60,20","Katherine","I dig the not being able to tell what anything is but knowing everything is supposed to be something,46,120,20","Andrea","Feels like a cafe in Paris.,35,240,20","3"
"20656","","survey-text","68","569042","0.0-65.0-0.0","AOJRP10FWOFA9","","","","{""Q0"":""It looks to me like a polluted lake.""}","","","","","","","","","","","","","","","","","","","","","","",""
"3190","","image-slider-response","69","572236","0.0-66.0","AOJRP10FWOFA9","","","","","-50","","","","","","","","","","","","","","","","","","","","","",""
"1644","","image-button-response","70","577241","0.0-67.0","AOJRP10FWOFA9","img_art/29.jpg","1","","","","","","","","","","","","","","","","","","","","","","","","",""
"7216","","image-button-response","71","584459","0.0-68.0","AOJRP10FWOFA9","img_art/29.jpg","2","","","","","","","","","","","","","","","","","","","","","","","","",""
"2612","","image-button-response","72","587075","0.0-69.0-0.0","AOJRP10FWOFA9","img_art/29.jpg","5","","","","","","","","","","","","","","","","","","","","","","","","",""
"5164","","image-button-response","73","592243","0.0-70.0-0.0","AOJRP10FWOFA9","img_art/29.jpg","1","","","","","","","","","","","","","","","","","","","","","","","","",""
"null","","html-keyboard-response","74","592746","0.0-71.0","AOJRP10FWOFA9","<p style=""font-size: 48px;"">+</p>","","","","","null","allTrialResponses","500","1","4","img_art/29.jpg","-50","It looks to me like a polluted lake.","Andrea,Abigail,Katherine,Mary,Emily,Alexandra","Bottomless pit and prison. Feels like its saying time is precious.,11,240,20","Messy and disorganized, to odark,-31,20,20","I think the grey and red inspire negative feelings but it's not the worst thing.,13,120,20","I love the angry emotion to this art. I feel very drawn to it.,18,180,20","Looks literally like garbage.,-45,40,20","I don't like this. It is ugly and dark,-29,60,20","Katherine","I think the grey and red inspire negative feelings but it's not the worst thing.,13,120,20","Alexandra","I don't like this. It is ugly and dark,-29,60,20","Abigail","Messy and disorganized, to odark,-31,20,20","3"
"11929","","survey-text","75","604682","0.0-72.0-0.0","AOJRP10FWOFA9","","","","{""Q0"":""What is this really supposed to be.""}","","","","","","","","","","","","","","","","","","","","","","",""
"3188","","image-slider-response","76","607874","0.0-73.0","AOJRP10FWOFA9","","","","","-49","","","","","","","","","","","","","","","","","","","","","",""
"1957","","image-button-response","77","612878","0.0-74.0","AOJRP10FWOFA9","img_art/15.jpg","3","","","","","","","","","","","","","","","","","","","","","","","","",""
"11291","","image-button-response","78","624171","0.0-75.0","AOJRP10FWOFA9","img_art/15.jpg","5","","","","","","","","","","","","","","","","","","","","","","","","",""
"4564","","image-button-response","79","628738","0.0-76.0-0.0","AOJRP10FWOFA9","img_art/15.jpg","4","","","","","","","","","","","","","","","","","","","","","","","","",""
"1245","","image-button-response","80","629987","0.0-77.0-0.0","AOJRP10FWOFA9","img_art/15.jpg","3","","","","","","","","","","","","","","","","","","","","","","","","",""
"null","","html-keyboard-response","81","631490","0.0-78.0","AOJRP10FWOFA9","<p style=""font-size: 48px;"">+</p>","","","","","null","allTrialResponses","1500","1","5","img_art/15.jpg","-49","What is this really supposed to be.","Claire,Abigail,Katherine,Gabriela,Samantha,Alexandra","it's alright but a little cluttered,14,260,20","This also has nice contrast,34,20,20","black dots too ant-like,-25,120,20","it is dark and gloomy,-9,140,20","Not interesting enough. Boring,-37,140,20","This is sort of ugly, but I do like the design.,10,60,20","Alexandra","This is sort of ugly, but I do like the design.,10,60,20","Samantha","Not interesting enough. Boring,-37,140,20","Gabriela","it is dark and gloomy,-9,140,20","3"
"5137","","survey-text","82","636643","0.0-79.0-0.0","AOJRP10FWOFA9","","","","{""Q0"":""sky""}","","","","","","","","","","","","","","","","","","","","","","",""
"20893","","survey-text","83","657538","0.0-80.0-0.0","AOJRP10FWOFA9","","","","{""Q0"":""Appears to be some kind of small plant.""}","","","","","","","","","","","","","","","","","","","","","","",""
"3450","","image-slider-response","84","660994","0.0-81.0","AOJRP10FWOFA9","","","","","-50","","","","","","","","","","","","","","","","","","","","","",""
"3220","","image-button-response","85","665997","0.0-82.0","AOJRP10FWOFA9","img_art/4.jpg","1","","","","","","","","","","","","","","","","","","","","","","","","",""
"3020","","image-button-response","86","669019","0.0-83.0","AOJRP10FWOFA9","img_art/4.jpg","5","","","","","","","","","","","","","","","","","","","","","","","","",""
"2902","","image-button-response","87","671922","0.0-84.0-0.0","AOJRP10FWOFA9","img_art/4.jpg","1","","","","","","","","","","","","","","","","","","","","","","","","",""
"3035","","image-button-response","88","674963","0.0-85.0-0.0","AOJRP10FWOFA9","img_art/4.jpg","0","","","","","","","","","","","","","","","","","","","","","","","","",""
"null","","html-keyboard-response","89","676465","0.0-86.0","AOJRP10FWOFA9","<p style=""font-size: 48px;"">+</p>","","","","","null","allTrialResponses","1500","1","6","img_art/4.jpg","-50","Appears to be some kind of small plant.","Anna,Shannon,Laura,Gabriela,Samantha,Alexandra","It doesn't make me feel anything it just looks like a kid did it.,-30,300,20","I think that this picture is too boring in terms of color and it looks ugly.,-41,220,20","spontaneous, without hesitation,22,320,20","The bold colors are exciting. It looks like a statue on someone's mantle.,18,140,20","I domt like the yellow black blended smear,-50,140,20","This artwork looks like a child did it,-41,60,20","Alexandra","This artwork looks like a child did it,-41,60,20","Shannon","I think that this picture is too boring in terms of color and it looks ugly.,-41,220,20","Anna","It doesn't make me feel anything it just looks like a kid did it.,-30,300,20","3"
"23817","","survey-text","90","700290","0.0-87.0-0.0","AOJRP10FWOFA9","","","","{""Q0"":""It kind of reminds me of railway cars.""}","","","","","","","","","","","","","","","","","","","","","","",""
"4764","","image-slider-response","91","705058","0.0-88.0","AOJRP10FWOFA9","","","","","-48","","","","","","","","","","","","","","","","","","","","","",""
"3939","","image-button-response","92","710063","0.0-89.0","AOJRP10FWOFA9","img_art/11.jpg","1","","","","","","","","","","","","","","","","","","","","","","","","",""
"1305","","image-button-response","93","711370","0.0-90.0","AOJRP10FWOFA9","img_art/11.jpg","2","","","","","","","","","","","","","","","","","","","","","","","","",""
"8332","","image-button-response","94","719707","0.0-91.0-0.0","AOJRP10FWOFA9","img_art/11.jpg","4","","","","","","","","","","","","","","","","","","","","","","","","",""
"9514","","image-button-response","95","729226","0.0-92.0-0.0","AOJRP10FWOFA9","img_art/11.jpg","1","","","","","","","","","","","","","","","","","","","","","","","","",""
"null","","html-keyboard-response","96","730230","0.0-93.0","AOJRP10FWOFA9","<p style=""font-size: 48px;"">+</p>","","","","","null","allTrialResponses","1000","1","7","img_art/11.jpg","-48","It kind of reminds me of railway cars.","Anna,Shannon,Rachel,Mariah,Mikayla,Alexandra","It makes me think of a coastal sea town.,50,300,20","This looks like a bridge that has plenty of color.,10,220,20","Makes me think of a futuristic scene of vehicles flying in the sky in a city.,36,80,20","The colors are lovely. February getting ready to yield to March.,41,140,20","Scary again. Not a fan.,-23,300,20","I normally would not like this photo, but the design is nice.,21,60,20","Rachel","Makes me think of a futuristic scene of vehicles flying in the sky in a city.,36,80,20","Mikayla","Scary again. Not a fan.,-23,300,20","Shannon","This looks like a bridge that has plenty of color.,10,220,20","3"
"33323","","survey-text","97","763561","0.0-94.0-0.0","AOJRP10FWOFA9","","","","{""Q0"":""I think of the native people in the winter.""}","","","","","","","","","","","","","","","","","","","","","","",""
"2691","","image-slider-response","98","766258","0.0-95.0","AOJRP10FWOFA9","","","","","-46","","","","","","","","","","","","","","","","","","","","","",""
"null","","image-button-response","99","771262","0.0-96.0","AOJRP10FWOFA9","img_art/18.jpg","null","","","","","","","","","","","","","","","","","","","","","","","","",""
"5163","","image-button-response","100","776426","0.0-97.0","AOJRP10FWOFA9","img_art/18.jpg","3","","","","","","","","","","","","","","","","","","","","","","","","",""
"3230","","image-button-response","101","779658","0.0-98.0-0.0","AOJRP10FWOFA9","img_art/18.jpg","5","","","","","","","","","","","","","","","","","","","","","","","","",""
"4507","","image-button-response","102","784170","0.0-99.0-0.0","AOJRP10FWOFA9","img_art/18.jpg","1","","","","","","","","","","","","","","","","","","","","","","","","",""
"null","","html-keyboard-response","103","785673","0.0-100.0","AOJRP10FWOFA9","<p style=""font-size: 48px;"">+</p>","","","","","null","allTrialResponses","1500","1","8","img_art/18.jpg","-46","I think of the native people in the winter.","Olivia,Shannon,Rachel,Katelyn,Mikayla,Katie","death rides in life,-25,40,20","I think its supposed to be a boat and the boat looks kind of interesting to me.,10,220,20","This one seems rather ghoulish to me.,-41,80,20","It reminds me of ghosts on a boat. Makes me nervous.,-27,100,20","Kinda boring. Not my favorite,-34,300,20","Looks messy. Reminds me of a battle or war. I have an unpleasant feeling the more I look.,-20,160,20","Katelyn","It reminds me of ghosts on a boat. Makes me nervous.,-27,100,20","Katie","Looks messy. Reminds me of a battle or war. I have an unpleasant feeling the more I look.,-20,160,20","Shannon","I think its supposed to be a boat and the boat looks kind of interesting to me.,10,220,20","3"
"26240","","survey-text","104","811921","0.0-101.0-0.0","AOJRP10FWOFA9","","","","{""Q0"":""It seems to be a happy picture but I don't like it.""}","","","","","","","","","","","","","","","","","","","","","","",""
"3180","","image-slider-response","105","815105","0.0-102.0","AOJRP10FWOFA9","","","","","-49","","","","","","","","","","","","","","","","","","","","","",""
"3301","","image-button-response","106","820109","0.0-103.0","AOJRP10FWOFA9","img_art/27.jpg","1","","","","","","","","","","","","","","","","","","","","","","","","",""
"3001","","image-button-response","107","823113","0.0-104.0","AOJRP10FWOFA9","img_art/27.jpg","3","","","","","","","","","","","","","","","","","","","","","","","","",""
"5597","","image-button-response","108","828714","0.0-105.0-0.0","AOJRP10FWOFA9","img_art/27.jpg","0","","","","","","","","","","","","","","","","","","","","","","","","",""
"4045","","image-button-response","109","832763","0.0-106.0-0.0","AOJRP10FWOFA9","img_art/27.jpg","1","","","","","","","","","","","","","","","","","","","","","","","","",""
"null","","html-keyboard-response","110","833265","0.0-107.0","AOJRP10FWOFA9","<p style=""font-size: 48px;"">+</p>","","","","","null","allTrialResponses","500","1","9","img_art/27.jpg","-49","It seems to be a happy picture but I don't like it.","Erin,Shannon,Chloe,Katelyn,Nicole,Katie","Looks like someone vandalized the original piece with a marker,-36,120,20","This image could do a better job of showing what is going on and it could use more colors.,-42,220,20","Like the movement of the lines and dripping paint.,30,220,20","Doesnt look like anything to me. Doesnt capture my attention.,-25,100,20","Very cool colors and I like the contrast of lights and darks,30,20,20","Fire, explosion. Red/orange colors are fire/explosion. White is smoke. Makes me worried/scared/anxious,-20,160,20","Katelyn","Doesnt look like anything to me. Doesnt capture my attention.,-25,100,20","Erin","Looks like someone vandalized the original piece with a marker,-36,120,20","Shannon","This image could do a better job of showing what is going on and it could use more colors.,-42,220,20","3"
"40127","","survey-text","111","873401","0.0-108.0-0.0","AOJRP10FWOFA9","","","","{""Q0"":""Looks like a tree in front of a business.""}","","","","","","","","","","","","","","","","","","","","","","",""
"3420","","image-slider-response","112","876825","0.0-109.0","AOJRP10FWOFA9","","","","","-22","","","","","","","","","","","","","","","","","","","","","",""
"3924","","image-button-response","113","881830","0.0-110.0","AOJRP10FWOFA9","img_art/17.jpg","1","","","","","","","","","","","","","","","","","","","","","","","","",""
"937","","image-button-response","114","882770","0.0-111.0","AOJRP10FWOFA9","img_art/17.jpg","1","","","","","","","","","","","","","","","","","","","","","","","","",""
"15006","","image-button-response","115","897779","0.0-112.0-0.0","AOJRP10FWOFA9","img_art/17.jpg","5","","","","","","","","","","","","","","","","","","","","","","","","",""
"1242","","image-button-response","116","899026","0.0-113.0-0.0","AOJRP10FWOFA9","img_art/17.jpg","0","","","","","","","","","","","","","","","","","","","","","","","","",""
"null","","html-keyboard-response","117","899529","0.0-114.0","AOJRP10FWOFA9","<p style=""font-size: 48px;"">+</p>","","","","","null","allTrialResponses","500","1","10","img_art/17.jpg","-22","Looks like a tree in front of a business.","Erin,Shannon,Alexa,Katelyn,Sara,Alexandria","Windows indoor tree, weird palette,-11,120,20","I like the way the colors were used behind the tree. Makes the image colorful and interesting.,30,220,20","The colors are beautiful and the painting itself is magnificent,50,40,20","Doesnt completely turn me off but wouldnt look twice,-3,100,20","Beautiful patterns but evokes sad emotions in me due to the color shades,31,160,20","it looks very intricate and colorful,50,80,20","Shannon","I like the way the colors were used behind the tree. Makes the image colorful and interesting.,30,220,20","Alexandria","it looks very intricate and colorful,50,80,20","Erin","Windows indoor tree, weird palette,-11,120,20","3"
"4273","","survey-text","118","903826","0.0-115.0-0.0","AOJRP10FWOFA9","","","","{""Q0"":""our""}","","","","","","","","","","","","","","","","","","","","","","",""
"17172","","survey-text","119","921002","0.0-116.0-0.0","AOJRP10FWOFA9","","","","{""Q0"":""This makes me think of a bird.""}","","","","","","","","","","","","","","","","","","","","","","",""
"3372","","image-slider-response","120","924377","0.0-117.0","AOJRP10FWOFA9","","","","","-33","","","","","","","","","","","","","","","","","","","","","",""
"4219","","image-button-response","121","929382","0.0-118.0","AOJRP10FWOFA9","img_art/6.jpg","1","","","","","","","","","","","","","","","","","","","","","","","","",""
"584","","image-button-response","122","929969","0.0-119.0","AOJRP10FWOFA9","img_art/6.jpg","1","","","","","","","","","","","","","","","","","","","","","","","","",""
"2485","","image-button-response","123","932458","0.0-120.0-0.0","AOJRP10FWOFA9","img_art/6.jpg","0","","","","","","","","","","","","","","","","","","","","","","","","",""
"1724","","image-button-response","124","934185","0.0-121.0-0.0","AOJRP10FWOFA9","img_art/6.jpg","0","","","","","","","","","","","","","","","","","","","","","","","","",""
"3664","","image-button-response","125","943257","0.0-121.1-0.1","AOJRP10FWOFA9","img_art/6.jpg","3","","","","","","","","","","","","","","","","","","","","","","","","",""
"null","","html-keyboard-response","126","944260","0.0-122.0","AOJRP10FWOFA9","<p style=""font-size: 48px;"">+</p>","","","","","null","allTrialResponses","1000","1","11","img_art/6.jpg","-33","This makes me think of a bird.","Erin,Shannon,Dominique,Taylor,Haley,Alexandria","Blackbird in the desert,27,120,20","I can't tell what this image is, but it's boring because of lack of color variety and nothing in it,-41,220,20","Calm and catching,30,400,20","Reminds me of my friend's bird,21,340,20","I like the color and the gradient,10,220,20","i like it but it is very neutral,9,80,20","Shannon","I can't tell what this image is, but it's boring because of lack of color variety and nothing in it,-41,220,20","Erin","Blackbird in the desert,27,120,20","Taylor","Reminds me of my friend's bird,21,340,20","5"
"20285","","survey-text","127","964553","0.0-123.0-0.0","AOJRP10FWOFA9","","","","{""Q0"":""It looks like a business district with trees.""}","","","","","","","","","","","","","","","","","","","","","","",""
"2596","","image-slider-response","128","967153","0.0-124.0","AOJRP10FWOFA9","","","","","-31","","","","","","","","","","","","","","","","","","","","","",""
"3117","","image-button-response","129","972158","0.0-125.0","AOJRP10FWOFA9","img_art/26.jpg","1","","","","","","","","","","","","","","","","","","","","","","","","",""
"705","","image-button-response","130","972865","0.0-126.0","AOJRP10FWOFA9","img_art/26.jpg","1","","","","","","","","","","","","","","","","","","","","","","","","",""
"2614","","image-button-response","131","975481","0.0-127.0-0.0","AOJRP10FWOFA9","img_art/26.jpg","0","","","","","","","","","","","","","","","","","","","","","","","","",""
"3092","","image-button-response","132","978577","0.0-128.0-0.0","AOJRP10FWOFA9","img_art/26.jpg","3","","","","","","","","","","","","","","","","","","","","","","","","",""
"null","","html-keyboard-response","133","979081","0.0-129.0","AOJRP10FWOFA9","<p style=""font-size: 48px;"">+</p>","","","","","null","allTrialResponses","500","1","12","img_art/26.jpg","-31","It looks like a business district with trees.","Erin,Shannon,Kayla,Taylor,Jessica,Catherine","City scene in a park,23,120,20","I like that it looks like an actual picture and isn't just random colors.,25,220,20","Looks like the suburbs. I live in those.,13,180,20","Makes me want to walk down a cool street,20,340,20","It doesn't look so vibrant, I'm not sure what feelings they were trying to capture,-41,400,20","Incomplete, The artist painted his impression of somthing he was thinking of,0,160,20","Shannon","I like that it looks like an actual picture and isn't just random colors.,25,220,20","Erin","City scene in a park,23,120,20","Taylor","Makes me want to walk down a cool street,20,340,20","5"
"31536","","survey-text","134","1010625","0.0-130.0-0.0","AOJRP10FWOFA9","","","","{""Q0"":""It feels kind of evil to me.""}","","","","","","","","","","","","","","","","","","","","","","",""
"3403","","image-slider-response","135","1014033","0.0-131.0","AOJRP10FWOFA9","","","","","-35","","","","","","","","","","","","","","","","","","","","","",""
"3876","","image-button-response","136","1019037","0.0-132.0","AOJRP10FWOFA9","img_art/25.jpg","0","","","","","","","","","","","","","","","","","","","","","","","","",""
"1281","","image-button-response","137","1020322","0.0-133.0","AOJRP10FWOFA9","img_art/25.jpg","2","","","","","","","","","","","","","","","","","","","","","","","","",""
"1117","","image-button-response","138","1021442","0.0-134.0-0.0","AOJRP10FWOFA9","img_art/25.jpg","0","","","","","","","","","","","","","","","","","","","","","","","","",""
"2185","","image-button-response","139","1023633","0.0-135.0-0.0","AOJRP10FWOFA9","img_art/25.jpg","4","","","","","","","","","","","","","","","","","","","","","","","","",""
"null","","html-keyboard-response","140","1024136","0.0-136.0","AOJRP10FWOFA9","<p style=""font-size: 48px;"">+</p>","","","","","null","allTrialResponses","500","1","13","img_art/25.jpg","-35","It feels kind of evil to me.","Erin,Shannon,Victoria,Taylor,Sophia,Stephanie","Looks like glow in the dark halloween decoration,-38,120,20","I like the way the persons clothes look, there could be more color though.,10,220,20","makes me think of a scary movie,-20,400,20","It makes me feel a little uneasy, but I like the painting,11,340,20","This one just has a dark feeling to me.,-50,280,20","It made me think of healing.,22,300,20","Victoria","makes me think of a scary movie,-20,400,20","Erin","Looks like glow in the dark halloween decoration,-38,120,20","Sophia","This one just has a dark feeling to me.,-50,280,20","5"
"26655","","survey-text","141","1050801","0.0-137.0-0.0","AOJRP10FWOFA9","","","","{""Q0"":""I don't like it but it's colorful.""}","","","","","","","","","","","","","","","","","","","","","","",""
"3557","","image-slider-response","142","1054362","0.0-138.0","AOJRP10FWOFA9","","","","","-44","","","","","","","","","","","","","","","","","","","","","",""
"null","","image-button-response","143","1059367","0.0-139.0","AOJRP10FWOFA9","img_art/1.jpg","null","","","","","","","","","","","","","","","","","","","","","","","","",""
"4937","","image-button-response","144","1064306","0.0-140.0","AOJRP10FWOFA9","img_art/1.jpg","0","","","","","","","","","","","","","","","","","","","","","","","","",""
"6868","","image-button-response","145","1071177","0.0-141.0-0.0","AOJRP10FWOFA9","img_art/1.jpg","5","","","","","","","","","","","","","","","","","","","","","","","","",""
"1925","","image-button-response","146","1073106","0.0-142.0-0.0","AOJRP10FWOFA9","img_art/1.jpg","2","","","","","","","","","","","","","","","","","","","","","","","","",""
"null","","html-keyboard-response","147","1074109","0.0-143.0","AOJRP10FWOFA9","<p style=""font-size: 48px;"">+</p>","","","","","null","allTrialResponses","1000","1","14","img_art/1.jpg","-44","I don't like it but it's colorful.","Erin,Crystal,Victoria,Lauren,Sophia,Cynthia","Love the coloration and abstract figures,18,120,20","Interesting color scheme but to bled to me,11,300,20","love how the colors blend,42,400,20","This image doesn't invoke much in me.,0,340,20","This is a great piece that has a lot more going on the longer you look at it. I like it!,30,280,20","fishing on the lake surrounded by trees,42,320,20","Erin","Love the coloration and abstract figures,18,120,20","Cynthia","fishing on the lake surrounded by trees,42,320,20","Victoria","love how the colors blend,42,400,20","5"
"22989","","survey-text","148","1097105","0.0-144.0-0.0","AOJRP10FWOFA9","","","","{""Q0"":""Reminds me of a waterfall.""}","","","","","","","","","","","","","","","","","","","","","","",""
"5451","","image-slider-response","149","1102561","0.0-145.0","AOJRP10FWOFA9","","","","","29","","","","","","","","","","","","","","","","","","","","","",""
"1555","","image-button-response","150","1107567","0.0-146.0","AOJRP10FWOFA9","img_art/24.jpg","2","","","","","","","","","","","","","","","","","","","","","","","","",""
"136","","image-button-response","151","1107705","0.0-147.0","AOJRP10FWOFA9","img_art/24.jpg","1","","","","","","","","","","","","","","","","","","","","","","","","",""
"2069","","image-button-response","152","1109778","0.0-148.0-0.0","AOJRP10FWOFA9","img_art/24.jpg","3","","","","","","","","","","","","","","","","","","","","","","","","",""
"3579","","image-button-response","153","1113361","0.0-149.0-0.0","AOJRP10FWOFA9","img_art/24.jpg","4","","","","","","","","","","","","","","","","","","","","","","","","",""
"null","","html-keyboard-response","154","1114365","0.0-150.0","AOJRP10FWOFA9","<p style=""font-size: 48px;"">+</p>","","","","","null","allTrialResponses","1000","1","15","img_art/24.jpg","29","Reminds me of a waterfall.","Erin,Gabrielle,Victoria,Courtney,Cheyenne,Cynthia","Too literal, not abstract,-29,120,20","flowing water part is good, some of the rest is ok but dark,14,160,20","very peaceful and serene,47,400,20","What a nice refreshing waterfall.,39,280,20","I like how the colors mix in this one.,20,200,20","Interested in visiting this place,18,320,20","Gabrielle","flowing water part is good, some of the rest is ok but dark,14,160,20","Courtney","What a nice refreshing waterfall.,39,280,20","Cheyenne","I like how the colors mix in this one.,20,200,20","5"
"5405","","survey-text","155","1119785","0.0-151.0-0.0","AOJRP10FWOFA9","","","","{""Q0"":""course""}","","","","","","","","","","","","","","","","","","","","","","",""
"18037","","survey-text","156","1137825","0.0-152.0-0.0","AOJRP10FWOFA9","","","","{""Q0"":""This appears to be a desert scene.""}","","","","","","","","","","","","","","","","","","","","","","",""
"4684","","image-slider-response","157","1142513","0.0-153.0","AOJRP10FWOFA9","","","","","-10","","","","","","","","","","","","","","","","","","","","","",""
"3101","","image-button-response","158","1147518","0.0-154.0","AOJRP10FWOFA9","img_art/7.jpg","1","","","","","","","","","","","","","","","","","","","","","","","","",""
"2458","","image-button-response","159","1149978","0.0-155.0","AOJRP10FWOFA9","img_art/7.jpg","2","","","","","","","","","","","","","","","","","","","","","","","","",""
"2778","","image-button-response","160","1152761","0.0-156.0-0.0","AOJRP10FWOFA9","img_art/7.jpg","5","","","","","","","","","","","","","","","","","","","","","","","","",""
"5348","","image-button-response","161","1158114","0.0-157.0-0.0","AOJRP10FWOFA9","img_art/7.jpg","3","","","","","","","","","","","","","","","","","","","","","","","","",""
"null","","html-keyboard-response","162","1159117","0.0-158.0","AOJRP10FWOFA9","<p style=""font-size: 48px;"">+</p>","","","","","null","allTrialResponses","1000","1","16","img_art/7.jpg","-10","This appears to be a desert scene.","Margaret,Gabrielle,Jacqueline,Courtney,Cheyenne,Isabella","looks like a close up of irritated skin under a microscope,-49,100,20","looks like wallpaper,-6,160,20","Just looks like rocks or some kind of mineral.,0,300,20","That a desert floor,16,280,20","Nice realistic feel but nothing stands out.,4,200,20","Dessert like almost like dry land,4,280,20","Jacqueline","Just looks like rocks or some kind of mineral.,0,300,20","Isabella","Dessert like almost like dry land,4,280,20","Courtney","That a desert floor,16,280,20","5"
"24298","","survey-text","163","1183425","0.0-159.0-0.0","AOJRP10FWOFA9","","","","{""Q0"":""I don't like the colors but it seems to be a house.""}","","","","","","","","","","","","","","","","","","","","","","",""
"3454","","image-slider-response","164","1186881","0.0-160.0","AOJRP10FWOFA9","","","","","-44","","","","","","","","","","","","","","","","","","","","","",""
"2179","","image-button-response","165","1191887","0.0-161.0","AOJRP10FWOFA9","img_art/2.jpg","1","","","","","","","","","","","","","","","","","","","","","","","","",""
"581","","image-button-response","166","1192473","0.0-162.0","AOJRP10FWOFA9","img_art/2.jpg","0","","","","","","","","","","","","","","","","","","","","","","","","",""
"1030","","image-button-response","167","1193506","0.0-163.0-0.0","AOJRP10FWOFA9","img_art/2.jpg","2","","","","","","","","","","","","","","","","","","","","","","","","",""
"722","","image-button-response","168","1194234","0.0-164.0-0.0","AOJRP10FWOFA9","img_art/2.jpg","1","","","","","","","","","","","","","","","","","","","","","","","","",""
"null","","html-keyboard-response","169","1194737","0.0-165.0","AOJRP10FWOFA9","<p style=""font-size: 48px;"">+</p>","","","","","null","allTrialResponses","500","1","17","img_art/2.jpg","-44","I don't like the colors but it seems to be a house.","Vanessa,Amanda,Jacqueline,Courtney,Caroline,Isabella","I don't like the abstract nature of this painting or the colors used.,-50,380,20","Very simple and childish,40,180,20","A bit ugly with the greens.,-20,300,20","That looks look a cartoon character of some kind.,11,280,20","Colors are drab and cause a sense of blandness,-28,100,20","Feels like a playground or park vibe,27,280,20","Vanessa","I don't like the abstract nature of this painting or the colors used.,-50,380,20","Jacqueline","A bit ugly with the greens.,-20,300,20","Amanda","Very simple and childish,40,180,20","5"
"21222","","survey-text","170","1215969","0.0-166.0-0.0","AOJRP10FWOFA9","","","","{""Q0"":""It don't like the colors or the picture.""}","","","","","","","","","","","","","","","","","","","","","","",""
"2549","","image-slider-response","171","1218522","0.0-167.0","AOJRP10FWOFA9","","","","","-50","","","","","","","","","","","","","","","","","","","","","",""
"null","","image-button-response","172","1223525","0.0-168.0","AOJRP10FWOFA9","img_art/10.jpg","null","","","","","","","","","","","","","","","","","","","","","","","","",""
"5882","","image-button-response","173","1229408","0.0-169.0","AOJRP10FWOFA9","img_art/10.jpg","3","","","","","","","","","","","","","","","","","","","","","","","","",""
"4374","","image-button-response","174","1233785","0.0-170.0-0.0","AOJRP10FWOFA9","img_art/10.jpg","2","","","","","","","","","","","","","","","","","","","","","","","","",""
"1852","","image-button-response","175","1235641","0.0-171.0-0.0","AOJRP10FWOFA9","img_art/10.jpg","1","","","","","","","","","","","","","","","","","","","","","","","","",""
"null","","html-keyboard-response","176","1237144","0.0-172.0","AOJRP10FWOFA9","<p style=""font-size: 48px;"">+</p>","","","","","null","allTrialResponses","1500","1","18","img_art/10.jpg","-50","It don't like the colors or the picture.","Vanessa,Amanda,Jacqueline,Megan,Madison,Sarah","It's interesting and my eyes keep being drawn to different parts of the picture.,11,380,20","Reminds me of a beautiful ship wreck,36,180,20","Seems more harmonic with the strokes and colors.,31,300,20","Music visualized with subtle color,17,200,20","In proper lighting I might enjoy this,11,60,20","i like this, the mix of brush textures is cool,24,180,20","Megan","Music visualized with subtle color,17,200,20","Jacqueline","Seems more harmonic with the strokes and colors.,31,300,20","Amanda","Reminds me of a beautiful ship wreck,36,180,20","5"
"22470","","survey-text","177","1259625","0.0-173.0-0.0","AOJRP10FWOFA9","","","","{""Q0"":""This a teddy bear with a person looking at it.""}","","","","","","","","","","","","","","","","","","","","","","",""
"4133","","image-slider-response","178","1263761","0.0-174.0","AOJRP10FWOFA9","","","","","17","","","","","","","","","","","","","","","","","","","","","",""
"null","","image-button-response","179","1268765","0.0-175.0","AOJRP10FWOFA9","img_art/16.jpg","null","","","","","","","","","","","","","","","","","","","","","","","","",""
"6490","","image-button-response","180","1275257","0.0-176.0","AOJRP10FWOFA9","img_art/16.jpg","5","","","","","","","","","","","","","","","","","","","","","","","","",""
"2316","","image-button-response","181","1277577","0.0-177.0-0.0","AOJRP10FWOFA9","img_art/16.jpg","2","","","","","","","","","","","","","","","","","","","","","","","","",""
"1284","","image-button-response","182","1278866","0.0-178.0-0.0","AOJRP10FWOFA9","img_art/16.jpg","1","","","","","","","","","","","","","","","","","","","","","","","","",""
"null","","html-keyboard-response","183","1279868","0.0-179.0","AOJRP10FWOFA9","<p style=""font-size: 48px;"">+</p>","","","","","null","allTrialResponses","1000","1","19","img_art/16.jpg","17","This a teddy bear with a person looking at it.","Marissa,Amanda,Jacqueline,Megan,Natalie,Madeline","I do not like this dark and twisted portrayal of childhood,-42,160,20","Very modern, reminds me of bansky,43,180,20","Seems very twisted and dark.,-35,300,20","Ugly, broken up and mismatched,-50,200,20","my reaction is that the picture is creepy,-19,400,20","That bear looks unfitting!,-8,40,20","Madeline","That bear looks unfitting!,-8,40,20","Jacqueline","Seems very twisted and dark.,-35,300,20","Amanda","Very modern, reminds me of bansky,43,180,20","5"
"14865","","survey-text","184","1294745","0.0-180.0-0.0","AOJRP10FWOFA9","","","","{""Q0"":""Why would anyone take time to do this.""}","","","","","","","","","","","","","","","","","","","","","","",""
"4108","","image-slider-response","185","1298857","0.0-181.0","AOJRP10FWOFA9","","","","","-50","","","","","","","","","","","","","","","","","","","","","",""
"2077","","image-button-response","186","1303862","0.0-182.0","AOJRP10FWOFA9","img_art/30.jpg","2","","","","","","","","","","","","","","","","","","","","","","","","",""
"5809","","image-button-response","187","1309673","0.0-183.0","AOJRP10FWOFA9","img_art/30.jpg","4","","","","","","","","","","","","","","","","","","","","","","","","",""
"1293","","image-button-response","188","1310969","0.0-184.0-0.0","AOJRP10FWOFA9","img_art/30.jpg","5","","","","","","","","","","","","","","","","","","","","","","","","",""
"2332","","image-button-response","189","1313306","0.0-185.0-0.0","AOJRP10FWOFA9","img_art/30.jpg","2","","","","","","","","","","","","","","","","","","","","","","","","",""
"null","","html-keyboard-response","190","1314809","0.0-186.0","AOJRP10FWOFA9","<p style=""font-size: 48px;"">+</p>","","","","","null","allTrialResponses","1500","1","20","img_art/30.jpg","-50","Why would anyone take time to do this.","Mackenzie,Amanda,Jacqueline,Sydney,Julia,Madeline","I like the forefront design.,10,20,20","Love how the red stands out,20,180,20","Too dark and ugly with all the black smears,-20,300,20","I love the colors, the style, and the uniqueness in this piece. I love everything.,50,320,20","this is probably part of a neat series, but the abstraction doesn't speak to me,-17,40,20","A bit haphazard looking and lacking in vision,2,40,20","Julia","this is probably part of a neat series, but the abstraction doesn't speak to me,-17,40,20","Madeline","A bit haphazard looking and lacking in vision,2,40,20","Jacqueline","Too dark and ugly with all the black smears,-20,300,20","5"
"3835","","survey-text","191","1318665","0.0-187.0-0.0","AOJRP10FWOFA9","","","","{""Q0"":""we""}","","","","","","","","","","","","","","","","","","","","","","",""
"40038","","survey-text","192","1358705","0.0-188.0-0.0","AOJRP10FWOFA9","","","","{""Q0"":""I have no idea what this is.""}","","","","","","","","","","","","","","","","","","","","","","",""
"4212","","image-slider-response","193","1362921","0.0-189.0","AOJRP10FWOFA9","","","","","-33","","","","","","","","","","","","","","","","","","","","","",""
"2837","","image-button-response","194","1367925","0.0-190.0","AOJRP10FWOFA9","img_art/14.jpg","1","","","","","","","","","","","","","","","","","","","","","","","","",""
"1028","","image-button-response","195","1368954","0.0-191.0","AOJRP10FWOFA9","img_art/14.jpg","2","","","","","","","","","","","","","","","","","","","","","","","","",""
"5877","","image-button-response","196","1374834","0.0-192.0-0.0","AOJRP10FWOFA9","img_art/14.jpg","4","","","","","","","","","","","","","","","","","","","","","","","","",""
"1612","","image-button-response","197","1376449","0.0-193.0-0.0","AOJRP10FWOFA9","img_art/14.jpg","1","","","","","","","","","","","","","","","","","","","","","","","","",""
"null","","html-keyboard-response","198","1377452","0.0-194.0","AOJRP10FWOFA9","<p style=""font-size: 48px;"">+</p>","","","","","null","allTrialResponses","1000","1","21","img_art/14.jpg","-33","I have no idea what this is.","Alexis,Jasmine,Jacqueline,Cassandra,Julia,Madeline","Don't like the colors on this. Too simple,-20,100,20","The colors are nice and it reminds me of a shrub or tree,10,340,20","It kind of looks like a tree but I feel very netural.,0,300,20","I kind of like it...I like the white back ground,11,120,20","I don't care for the style,-38,40,20","It looks nice colorwise but detail is lacking,18,40,20","Jacqueline","It kind of looks like a tree but I feel very netural.,0,300,20","Julia","I don't care for the style,-38,40,20","Jasmine","The colors are nice and it reminds me of a shrub or tree,10,340,20","5"
"16452","","survey-text","199","1393913","0.0-195.0-0.0","AOJRP10FWOFA9","","","","{""Q0"":""Looks liks a flower garden.""}","","","","","","","","","","","","","","","","","","","","","","",""
"2508","","image-slider-response","200","1396425","0.0-196.0","AOJRP10FWOFA9","","","","","32","","","","","","","","","","","","","","","","","","","","","",""
"3109","","image-button-response","201","1401429","0.0-197.0","AOJRP10FWOFA9","img_art/23.jpg","2","","","","","","","","","","","","","","","","","","","","","","","","",""
"266","","image-button-response","202","1401698","0.0-198.0","AOJRP10FWOFA9","img_art/23.jpg","0","","","","","","","","","","","","","","","","","","","","","","","","",""
"5356","","image-button-response","203","1407058","0.0-199.0-0.0","AOJRP10FWOFA9","img_art/23.jpg","3","","","","","","","","","","","","","","","","","","","","","","","","",""
"2828","","image-button-response","204","1409889","0.0-200.0-0.0","AOJRP10FWOFA9","img_art/23.jpg","5","","","","","","","","","","","","","","","","","","","","","","","","",""
"null","","html-keyboard-response","205","1410392","0.0-201.0","AOJRP10FWOFA9","<p style=""font-size: 48px;"">+</p>","","","","","null","allTrialResponses","500","1","22","img_art/23.jpg","32","Looks liks a flower garden.","Diana,Jasmine,Jacqueline,Jenna,Julia,Angela","I thought this art was exciting and it reminded me of dancing people.,12,380,20","Mostly neutral but a bit too guady with the brash colors,-6,340,20","It's kind of neat with the white slash marks.,13,300,20","awesome colors. love the white drawing the eye to the center. oddly comforting.,50,360,20","this looks like a pop rock album cover,-10,40,20","Like the background colors and the energy, but the white bits ruin it for me,-7,260,20","Diana","I thought this art was exciting and it reminded me of dancing people.,12,380,20","Jenna","awesome colors. love the white drawing the eye to the center. oddly comforting.,50,360,20","Angela","Like the background colors and the energy, but the white bits ruin it for me,-7,260,20","5"
"22950","","survey-text","206","1433353","0.0-202.0-0.0","AOJRP10FWOFA9","","","","{""Q0"":""There is a lot going on in this painting.""}","","","","","","","","","","","","","","","","","","","","","","",""
"3580","","image-slider-response","207","1436937","0.0-203.0","AOJRP10FWOFA9","","","","","-31","","","","","","","","","","","","","","","","","","","","","",""
"null","","image-button-response","208","1441942","0.0-204.0","AOJRP10FWOFA9","img_art/8.jpg","null","","","","","","","","","","","","","","","","","","","","","","","","",""
"712","","image-button-response","209","1442658","0.0-205.0","AOJRP10FWOFA9","img_art/8.jpg","0","","","","","","","","","","","","","","","","","","","","","","","","",""
"2358","","image-button-response","210","1445018","0.0-206.0-0.0","AOJRP10FWOFA9","img_art/8.jpg","3","","","","","","","","","","","","","","","","","","","","","","","","",""
"2156","","image-button-response","211","1447178","0.0-207.0-0.0","AOJRP10FWOFA9","img_art/8.jpg","5","","","","","","","","","","","","","","","","","","","","","","","","",""
"null","","html-keyboard-response","212","1448181","0.0-208.0","AOJRP10FWOFA9","<p style=""font-size: 48px;"">+</p>","","","","","null","allTrialResponses","1000","1","23","img_art/8.jpg","-31","There is a lot going on in this painting.","Diana,Elizabeth,Melissa,Jenna,Destiny,Angela","I don't care for the piece, but I appreciate the talent that it took to create it.,22,380,20","Very unique and different,31,20,20","crisp shapes, find more things the longer you look,17,240,20","beautiful colors & details. love the surrealism & strange angle. the faces are interesting.,50,360,20","a cute little cute with some protectors,25,360,20","Like the colors and the energy, but the face feels jarring to me,13,260,20","Diana","I don't care for the piece, but I appreciate the talent that it took to create it.,22,380,20","Jenna","beautiful colors & details. love the surrealism & strange angle. the faces are interesting.,50,360,20","Angela","Like the colors and the energy, but the face feels jarring to me,13,260,20","5"
"105857","","survey-text","213","1554049","0.0-209.0-0.0","AOJRP10FWOFA9","","","","{""Q0"":""I like the color and the design.""}","","","","","","","","","","","","","","","","","","","","","","",""
"3932","","image-slider-response","214","1557986","0.0-210.0","AOJRP10FWOFA9","","","","","23","","","","","","","","","","","","","","","","","","","","","",""
"null","","image-button-response","215","1562989","0.0-211.0","AOJRP10FWOFA9","img_art/12.jpg","null","","","","","","","","","","","","","","","","","","","","","","","","",""
"6619","","image-button-response","216","1569610","0.0-212.0","AOJRP10FWOFA9","img_art/12.jpg","3","","","","","","","","","","","","","","","","","","","","","","","","",""
"853","","image-button-response","217","1570465","0.0-213.0-0.0","AOJRP10FWOFA9","img_art/12.jpg","4","","","","","","","","","","","","","","","","","","","","","","","","",""
"1372","","image-button-response","218","1571841","0.0-214.0-0.0","AOJRP10FWOFA9","img_art/12.jpg","5","","","","","","","","","","","","","","","","","","","","","","","","",""
"null","","html-keyboard-response","219","1573344","0.0-215.0","AOJRP10FWOFA9","<p style=""font-size: 48px;"">+</p>","","","","","null","allTrialResponses","1500","1","24","img_art/12.jpg","23","I like the color and the design.","Diana,Miranda,Heather,Jenna,Amber,Angela","This is beautiful. It looks like 1,000 different sunrises and sunsets.,44,380,20","This is like going to a really old mcdoanlds in a tiny town and it's never been renovated so it's breaking down,-31,320,20","beautiful also reminds me of a quilt,1,260,20","interesting, but feels like someone cut up a picture and pasted it together wrong. want to see the original,15,360,20","Like how all the colors seem to blend together.,15,200,20","I like the colors in the bottom half of the painting,10,260,20","Jenna","interesting, but feels like someone cut up a picture and pasted it together wrong. want to see the original,15,360,20","Amber","Like how all the colors seem to blend together.,15,200,20","Angela","I like the colors in the bottom half of the painting,10,260,20","5"
"22245","","survey-text","220","1595601","0.0-216.0-0.0","AOJRP10FWOFA9","","","","{""Q0"":"" A picture of a whole lot of nothing.""}","","","","","","","","","","","","","","","","","","","","","","",""
"6387","","image-slider-response","221","1601992","0.0-217.0","AOJRP10FWOFA9","","","","","-43","","","","","","","","","","","","","","","","","","","","","",""
"4349","","image-button-response","222","1606997","0.0-218.0","AOJRP10FWOFA9","img_art/28.jpg","2","","","","","","","","","","","","","","","","","","","","","","","","",""
"385","","image-button-response","223","1607385","0.0-219.0","AOJRP10FWOFA9","img_art/28.jpg","2","","","","","","","","","","","","","","","","","","","","","","","","",""
"2883","","image-button-response","224","1610274","0.0-220.0-0.0","AOJRP10FWOFA9","img_art/28.jpg","4","","","","","","","","","","","","","","","","","","","","","","","","",""
"8318","","image-button-response","225","1618595","0.0-221.0-0.0","AOJRP10FWOFA9","img_art/28.jpg","3","","","","","","","","","","","","","","","","","","","","","","","","",""
"null","","html-keyboard-response","226","1620098","0.0-222.0","AOJRP10FWOFA9","<p style=""font-size: 48px;"">+</p>","","","","","null","allTrialResponses","1500","1","25","img_art/28.jpg","-43"," A picture of a whole lot of nothing.","Danielle,Kristen,Monica,Jenna,Amber,Angela","I enjoy the color themes, they seem gloomy and mysterious, and content in their own way, which I love.,20,340,20","almost reminds me of thomas becket getting his head cut off,21,280,20","The dark colors make it look dirty and the shapes make me uncomfortable,-50,360,20","looks like humanoid figures in distress. I like it, but makes me slightly uncomfortable,35,360,20","Colors are too dull.,-30,200,20","This reminds me of internal organs.,-10,260,20","Monica","The dark colors make it look dirty and the shapes make me uncomfortable,-50,360,20","Amber","Colors are too dull.,-30,200,20","Jenna","looks like humanoid figures in distress. I like it, but makes me slightly uncomfortable,35,360,20","5"
"6434","","survey-text","227","1626553","0.0-223.0-0.0","AOJRP10FWOFA9","","","","{""Q0"":""table""}","","","","","","","","","","","","","","","","","","","","","","",""
"21510","","survey-text","228","1648065","0.0-224.0-0.0","AOJRP10FWOFA9","","","","{""Q0"":""This looks like somthing a child painted.""}","","","","","","","","","","","","","","","","","","","","","","",""
"5916","","image-slider-response","229","1653985","0.0-225.0","AOJRP10FWOFA9","","","","","-48","","","","","","","","","","","","","","","","","","","","","",""
"2733","","image-button-response","230","1658990","0.0-226.0","AOJRP10FWOFA9","img_art/5.jpg","1","","","","","","","","","","","","","","","","","","","","","","","","",""
"514","","image-button-response","231","1659506","0.0-227.0","AOJRP10FWOFA9","img_art/5.jpg","4","","","","","","","","","","","","","","","","","","","","","","","","",""
"4678","","image-button-response","232","1664187","0.0-228.0-0.0","AOJRP10FWOFA9","img_art/5.jpg","5","","","","","","","","","","","","","","","","","","","","","","","","",""
"21346","","image-button-response","233","1685538","0.0-229.0-0.0","AOJRP10FWOFA9","img_art/5.jpg","3","","","","","","","","","","","","","","","","","","","","","","","","",""
"null","","html-keyboard-response","234","1686540","0.0-230.0","AOJRP10FWOFA9","<p style=""font-size: 48px;"">+</p>","","","","","null","allTrialResponses","1000","1","26","img_art/5.jpg","-48","This looks like somthing a child painted.","Paige,Molly,Monica,Jenna,Amber,Caitlin","I don't hate it but I can't relate to it,1,60,20","Very non-dynamic painting, dislike it.,-10,340,20","I like how simple it is and the pink brushstrokes are nice,27,360,20","it's okay. the colors are eye catching, but that's about it.,3,360,20","Missing something,-5,200,20","More kindergarten art class. Who buys this stuff?,-45,80,20","Amber","Missing something,-5,200,20","Caitlin","More kindergarten art class. Who buys this stuff?,-45,80,20","Jenna","it's okay. the colors are eye catching, but that's about it.,3,360,20","5"
"12993","","survey-text","235","1699545","0.0-231.0-0.0","AOJRP10FWOFA9","","","","{""Q0"":""Looks like a town on a lake.""}","","","","","","","","","","","","","","","","","","","","","","",""
"3963","","image-slider-response","236","1703513","0.0-232.0","AOJRP10FWOFA9","","","","","-36","","","","","","","","","","","","","","","","","","","","","",""
"2494","","image-button-response","237","1708517","0.0-233.0","AOJRP10FWOFA9","img_art/20.jpg","1","","","","","","","","","","","","","","","","","","","","","","","","",""
"1035","","image-button-response","238","1709553","0.0-234.0","AOJRP10FWOFA9","img_art/20.jpg","4","","","","","","","","","","","","","","","","","","","","","","","","",""
"1860","","image-button-response","239","1711417","0.0-235.0-0.0","AOJRP10FWOFA9","img_art/20.jpg","5","","","","","","","","","","","","","","","","","","","","","","","","",""
"2261","","image-button-response","240","1713681","0.0-236.0-0.0","AOJRP10FWOFA9","img_art/20.jpg","3","","","","","","","","","","","","","","","","","","","","","","","","",""
"null","","html-keyboard-response","241","1715186","0.0-237.0","AOJRP10FWOFA9","<p style=""font-size: 48px;"">+</p>","","","","","null","allTrialResponses","1500","1","27","img_art/20.jpg","-36","Looks like a town on a lake.","Michelle,Ashley,Kathryn,Jenna,Amber,Caitlin","Reminds me of Dali for some reason, whom I don't like,-7,280,20","Painting within a painting, abstract.,32,320,20","This looks like a ruin of what was once a thriving city.,-9,140,20","could look for hours. love the brush work. color choices look like a desert.,50,360,20","Bold strokes and colors.,6,200,20","Not bad for all the southwestern people.,15,80,20","Amber","Bold strokes and colors.,6,200,20","Caitlin","Not bad for all the southwestern people.,15,80,20","Jenna","could look for hours. love the brush work. color choices look like a desert.,50,360,20","5"
"14957","","survey-text","242","1730154","0.0-238.0-0.0","AOJRP10FWOFA9","","","","{""Q0"":""This is just scribble.""}","","","","","","","","","","","","","","","","","","","","","","",""
"5746","","image-slider-response","243","1735905","0.0-239.0","AOJRP10FWOFA9","","","","","-49","","","","","","","","","","","","","","","","","","","","","",""
"2843","","image-button-response","244","1740909","0.0-240.0","AOJRP10FWOFA9","img_art/3.jpg","1","","","","","","","","","","","","","","","","","","","","","","","","",""
"907","","image-button-response","245","1741818","0.0-241.0","AOJRP10FWOFA9","img_art/3.jpg","1","","","","","","","","","","","","","","","","","","","","","","","","",""
"685","","image-button-response","246","1742506","0.0-242.0-0.0","AOJRP10FWOFA9","img_art/3.jpg","2","","","","","","","","","","","","","","","","","","","","","","","","",""
"3363","","image-button-response","247","1745873","0.0-243.0-0.0","AOJRP10FWOFA9","img_art/3.jpg","4","","","","","","","","","","","","","","","","","","","","","","","","",""
"null","","html-keyboard-response","248","1746875","0.0-244.0","AOJRP10FWOFA9","<p style=""font-size: 48px;"">+</p>","","","","","null","allTrialResponses","1000","1","28","img_art/3.jpg","-49","This is just scribble.","Hailey,Tiffany,Autumn,Jenna,Amber,Caitlin","painted by a 2 year old. cold and boring,-30,200,20","I feel uncomfortable, like I am looking at a crime scene.,-17,360,20","Unfocused and rushed.,-28,340,20","unique & stylized. interesting. another one I could keep staring at.,50,360,20","seems to be a lot of angry scribble.,-20,200,20","Why kids with color crayons is called art is beyond me. People pay for this???,-40,80,20","Tiffany","I feel uncomfortable, like I am looking at a crime scene.,-17,360,20","Autumn","Unfocused and rushed.,-28,340,20","Amber","seems to be a lot of angry scribble.,-20,200,20","5"
"290778","","survey-text","249","2037665","0.0-245.0-0.0","AOJRP10FWOFA9","","","","{""Q0"":""I love the colors but don't know what it is.""}","","","","","","","","","","","","","","","","","","","","","","",""
"3339","","image-slider-response","250","2041009","0.0-246.0","AOJRP10FWOFA9","","","","","-46","","","","","","","","","","","","","","","","","","","","","",""
"null","","image-button-response","251","2046012","0.0-247.0","AOJRP10FWOFA9","img_art/22.jpg","null","","","","","","","","","","","","","","","","","","","","","","","","",""
"3627","","image-button-response","252","2049642","0.0-248.0","AOJRP10FWOFA9","img_art/22.jpg","4","","","","","","","","","","","","","","","","","","","","","","","","",""
"3860","","image-button-response","253","2053506","0.0-249.0-0.0","AOJRP10FWOFA9","img_art/22.jpg","1","","","","","","","","","","","","","","","","","","","","","","","","",""
"884","","image-button-response","254","2054393","0.0-250.0-0.0","AOJRP10FWOFA9","img_art/22.jpg","2","","","","","","","","","","","","","","","","","","","","","","","","",""
"null","","html-keyboard-response","255","2055897","0.0-251.0","AOJRP10FWOFA9","<p style=""font-size: 48px;"">+</p>","","","","","null","allTrialResponses","1500","1","29","img_art/22.jpg","-46","I love the colors but don't know what it is.","Savannah,Tiffany,Autumn,Erica,Amber,Maria","Seems too simple.,-19,200,20","The painting makes me feel a little sad.,12,360,20","Same az the last one?,-49,340,20","Picture is very relaxing,32,80,20","Colors are bright and cheerful.,5,200,20","displeasure - not a fan of the colour or the shapes,-18,120,20","Amber","Colors are bright and cheerful.,5,200,20","Tiffany","The painting makes me feel a little sad.,12,360,20","Autumn","Same az the last one?,-49,340,20","5"
"51301","","survey-text","256","2107209","0.0-252.0-0.0","AOJRP10FWOFA9","","","","{""Q0"":""I like the picture looks like branches.""}","","","","","","","","","","","","","","","","","","","","","","",""
"3635","","image-slider-response","257","2110848","0.0-253.0","AOJRP10FWOFA9","","","","","16","","","","","","","","","","","","","","","","","","","","","",""
"null","","image-button-response","258","2115853","0.0-254.0","AOJRP10FWOFA9","img_art/13.jpg","null","","","","","","","","","","","","","","","","","","","","","","","","",""
"818","","image-button-response","259","2116673","0.0-255.0","AOJRP10FWOFA9","img_art/13.jpg","1","","","","","","","","","","","","","","","","","","","","","","","","",""
"3565","","image-button-response","260","2120241","0.0-256.0-0.0","AOJRP10FWOFA9","img_art/13.jpg","4","","","","","","","","","","","","","","","","","","","","","","","","",""
"4237","","image-button-response","261","2124482","0.0-257.0-0.0","AOJRP10FWOFA9","img_art/13.jpg","2","","","","","","","","","","","","","","","","","","","","","","","","",""
"null","","html-keyboard-response","262","2124984","0.0-258.0","AOJRP10FWOFA9","<p style=""font-size: 48px;"">+</p>","","","","","null","allTrialResponses","500","1","30","img_art/13.jpg","16","I like the picture looks like branches.","Brianna,Tiffany,Autumn,Hannah,Amber,Erika","This is a very cool painting, something an art teacher or professor would own.,22,20,20","The painting makes me feel awe and like I am very little. Like I am alone at the bottom of the ocean.,41,360,20","Nice color abstractions.,21,340,20","Like this a lot and would hang in my house.,27,240,20","Reminds me of rain running down a window.,35,200,20","Gorgeous contrast and color choice, very pleasing,50,100,20","Tiffany","The painting makes me feel awe and like I am very little. Like I am alone at the bottom of the ocean.,41,360,20","Amber","Reminds me of rain running down a window.,35,200,20","Autumn","Nice color abstractions.,21,340,20","5"
"5652","","image-button-response_instructions","263","2130649","0.0-259.0","AOJRP10FWOFA9","","0","instructions","","","","","","","","","","","","","","","","","","","","","","","",""
