"rt","url","trial_type","trial_index","time_elapsed","internal_node_id","participant_id","stimulus","button_pressed","Name","responses","response","key_press","variableName","fixationTime","condition","trial","photo","subjectRating","subjectResponse","agentsNames","agent_1_Response","agent_2_Response","agent_3_Response","agent_4_Response","agent_5_Response","agent_6_Response","kept_1_name","kept_1_response","kept_2_name","kept_2_response","kept_3_name","kept_3_response","errorCounter"
"24179","external_page_harvard.html","external-html","0","24267","0.0-0.0","APL91ALK40HL6","","","","","","","","","","","","","","","","","","","","","","","","","","",""
"1406","","image-button-response","1","25673","0.0-1.0","APL91ALK40HL6","","1","","","","","","","","","","","","","","","","","","","","","","","","",""
"2405","","image-button-response","2","28081","0.0-2.0-0.0","APL91ALK40HL6","","1","phone","","","","","","","","","","","","","","","","","","","","","","","",""
"3751","","survey-text","3","31833","0.0-3.0-0.0","APL91ALK40HL6","","","","{""Q0"":""APL91ALK40HL6""}","","","","","","","","","","","","","","","","","","","","","","",""
"38967","","image-button-response_instructions","4","70801","0.0-4.0","APL91ALK40HL6","","0","instructions","","","","","","","","","","","","","","","","","","","","","","","",""
"9181","","image-button-response_instructions","5","79983","0.0-5.0","APL91ALK40HL6","img_art/ins/popularity/ins1.png","0","instructions","","","","","","","","","","","","","","","","","","","","","","","",""
"4987","","image-button-response_instructions","6","84971","0.0-6.0","APL91ALK40HL6","img_art/ins/popularity/ins2.png","0","instructions","","","","","","","","","","","","","","","","","","","","","","","",""
"8125","","image-button-response_instructions","7","93097","0.0-7.0","APL91ALK40HL6","img_art/ins/popularity/ins2Extreme.png","0","instructions","","","","","","","","","","","","","","","","","","","","","","","",""
"5041","","image-button-response_instructions","8","98139","0.0-8.0","APL91ALK40HL6","img_art/ins/popularity/ins3KEEPpop.PNG","0","instructions","","","","","","","","","","","","","","","","","","","","","","","",""
"3256","","image-button-response_instructions","9","101395","0.0-9.0","APL91ALK40HL6","img_art/ins/popularity/ins3ANamepop.PNG","0","instructions","","","","","","","","","","","","","","","","","","","","","","","",""
"3685","","image-button-response_instructions","10","105081","0.0-10.0","APL91ALK40HL6","img_art/ins/popularity/ins3ARatingpop.png","0","instructions","","","","","","","","","","","","","","","","","","","","","","","",""
"2313","","image-button-response_instructions","11","107395","0.0-11.0","APL91ALK40HL6","img_art/ins/popularity/ins3ATextpop.png","0","instructions","","","","","","","","","","","","","","","","","","","","","","","",""
"4735","","image-button-response_instructions","12","112131","0.0-12.0","APL91ALK40HL6","img_art/ins/popularity/ins3ALikespop.png","0","instructions","","","","","","","","","","","","","","","","","","","","","","","",""
"13955","","image-button-response_instructions","13","126087","0.0-13.0","APL91ALK40HL6","img_art/ins/popularity/ins3KEEPpop.PNG","0","instructions","","","","","","","","","","","","","","","","","","","","","","","",""
"7233","","image-button-response_instructions","14","133321","0.0-14.0","APL91ALK40HL6","img_art/ins/popularity/ins3_5RED.png","0","instructions","","","","","","","","","","","","","","","","","","","","","","","",""
"3591","","image-button-response_instructions","15","136913","0.0-15.0","APL91ALK40HL6","img_art/ins/popularity/ins3KEEPpop.PNG","0","instructions","","","","","","","","","","","","","","","","","","","","","","","",""
"5917","","image-button-response_instructions","16","142831","0.0-16.0","APL91ALK40HL6","img_art/ins/popularity/ins4KEEPpop.PNG","0","instructions","","","","","","","","","","","","","","","","","","","","","","","",""
"3404","","image-button-response_instructions","17","146235","0.0-17.0","APL91ALK40HL6","img_art/ins/popularity/ins5KEEPpop.PNG","0","instructions","","","","","","","","","","","","","","","","","","","","","","","",""
"1514","","image-button-response_instructions","18","147749","0.0-18.0","APL91ALK40HL6","","0","instructions","","","","","","","","","","","","","","","","","","","","","","","",""
"5184","","survey-text","19","152951","0.0-19.0-0.0","APL91ALK40HL6","","","","{""Q0"":""BUT""}","","","","","","","","","","","","","","","","","","","","","","",""
"2510","","survey-text","20","159029","0.0-19.1-0.1","APL91ALK40HL6","","","","{""Q0"":""but""}","","","","","","","","","","","","","","","","","","","","","","",""
"27279","","survey-text","21","186309","0.0-20.0-0.0","APL91ALK40HL6","","","","{""Q0"":""painting is not interesting, is just a bunch of paint strokes""}","","","","","","","","","","","","","","","","","","","","","","",""
"3332.2000000476837","","image-slider-response","22","189643","0.0-21.0","APL91ALK40HL6","","","","","-33","","","","","","","","","","","","","","","","","","","","","",""
"4307","","image-button-response","23","194646","0.0-22.0","APL91ALK40HL6","img_art/ins/1.jpg","1","","","","","","","","","","","","","","","","","","","","","","","","",""
"1614","","image-button-response","24","196263","0.0-23.0","APL91ALK40HL6","img_art/ins/1.jpg","1","","","","","","","","","","","","","","","","","","","","","","","","",""
"6147","","image-button-response","25","202411","0.0-24.0-0.0","APL91ALK40HL6","img_art/ins/1.jpg","3","","","","","","","","","","","","","","","","","","","","","","","","",""
"3692","","image-button-response","26","206105","0.0-25.0-0.0","APL91ALK40HL6","img_art/ins/1.jpg","2","","","","","","","","","","","","","","","","","","","","","","","","",""
"null","","html-keyboard-response","27","207612","0.0-26.0","APL91ALK40HL6","<p style=""font-size: 48px;"">+</p>","","","","","null","allTrialResponses","1500","1","-2","img_art/ins/1.jpg","-33","painting is not interesting, is just a bunch of paint strokes","Allison,Ashley,Beth,Dora,Erika,Jen","looks like a lot of things going on in the mist,20,20,20","I just don't get why these type of art would be popular,-32,40,20","This color reminds me of poo,-46,60,20","looks like what my niece in 3rd grade did this afternoon,-50,80,20","I like the sophisticated brushwork,40,100,20","It reminds me of a candy land dream I had,36,120,20","Ashley","I just don't get why these type of art would be popular,-32,40,20","Dora","looks like what my niece in 3rd grade did this afternoon,-50,80,20","Beth","This color reminds me of poo,-46,60,20","1"
"24803","","survey-text","28","232429","0.0-27.0-0.0","APL91ALK40HL6","","","","{""Q0"":""Colors and composition are interesting, looks like people having a picnic by the ocean""}","","","","","","","","","","","","","","","","","","","","","","",""
"2954.899999976158","","image-slider-response","29","235385","0.0-28.0","APL91ALK40HL6","","","","","22","","","","","","","","","","","","","","","","","","","","","",""
"null","","image-button-response","30","240388","0.0-29.0","APL91ALK40HL6","img_art/ins/2.jpg","null","","","","","","","","","","","","","","","","","","","","","","","","",""
"487","","image-button-response","31","240877","0.0-30.0","APL91ALK40HL6","img_art/ins/2.jpg","4","","","","","","","","","","","","","","","","","","","","","","","","",""
"7102","","image-button-response","32","247981","0.0-31.0-0.0","APL91ALK40HL6","img_art/ins/2.jpg","3","","","","","","","","","","","","","","","","","","","","","","","","",""
"2546","","image-button-response","33","250529","0.0-32.0-0.0","APL91ALK40HL6","img_art/ins/2.jpg","5","","","","","","","","","","","","","","","","","","","","","","","","",""
"null","","html-keyboard-response","34","252030","0.0-33.0","APL91ALK40HL6","<p style=""font-size: 48px;"">+</p>","","","","","null","allTrialResponses","1500","1","-1","img_art/ins/2.jpg","22","Colors and composition are interesting, looks like people having a picnic by the ocean","Jenna,Ashley,Beth,Dora,Kara,Katie","One of my pet peevs,-48,140,20","Idk, it is just annoying,-32,40,20","meaningless painting,-45,60,20","looks too angry,-50,80,20","I like the blocks of color arrangements,30,160,20","too much color!,-28,180,20","Kara","I like the blocks of color arrangements,30,160,20","Dora","looks too angry,-50,80,20","Katie","too much color!,-28,180,20","1"
"26656","","survey-text","35","278695","0.0-34.0-0.0","APL91ALK40HL6","","","","{""Q0"":""Very cool piece, reminds me of the movie The Birds""}","","","","","","","","","","","","","","","","","","","","","","",""
"5608.799999952316","","image-slider-response","36","284305","0.0-35.0","APL91ALK40HL6","","","","","28","","","","","","","","","","","","","","","","","","","","","",""
"null","","image-button-response","37","289307","0.0-36.0","APL91ALK40HL6","img_art/ins/3.jpg","null","","","","","","","","","","","","","","","","","","","","","","","","",""
"545","","image-button-response","38","289855","0.0-37.0","APL91ALK40HL6","img_art/ins/3.jpg","1","","","","","","","","","","","","","","","","","","","","","","","","",""
"2229","","image-button-response","39","292085","0.0-38.0-0.0","APL91ALK40HL6","img_art/ins/3.jpg","4","","","","","","","","","","","","","","","","","","","","","","","","",""
"1472","","image-button-response","40","293559","0.0-39.0-0.0","APL91ALK40HL6","img_art/ins/3.jpg","0","","","","","","","","","","","","","","","","","","","","","","","","",""
"null","","html-keyboard-response","41","294560","0.0-40.0","APL91ALK40HL6","<p style=""font-size: 48px;"">+</p>","","","","","null","allTrialResponses","1000","1","0","img_art/ins/3.jpg","28","Very cool piece, reminds me of the movie The Birds","Leslie,Mary,Rose,Dora,Kara,Katie","It's an alright work,15,200,20","I like the overlapping of brushes,41,220,20","My daily routine, it's depressing,-20,240,20","My worst nightmare,-42,80,20","calming blue is very nice,36,160,20","It looks depressing,-26,180,20","Mary","I like the overlapping of brushes,41,220,20","Kara","calming blue is very nice,36,160,20","Leslie","It's an alright work,15,200,20","1"
"5811","","image-button-response_instructions","42","300381","0.0-41.0","APL91ALK40HL6","","0","instructions","","","","","","","","","","","","","","","","","","","","","","","",""
"11100","","survey-likert","43","311483","0.0-42.0-0.0","APL91ALK40HL6","","","","{""Q0"":"""",""Q1"":0,""Q2"":1}","","","","","","","","","","","","","","","","","","","","","","",""
"3365","","survey-text","44","314850","0.0-43.0-0.0","APL91ALK40HL6","","","","{""Q0"":""rock""}","","","","","","","","","","","","","","","","","","","","","","",""
"23021","","survey-text","45","337872","0.0-44.0-0.0","APL91ALK40HL6","","","","{""Q0"":""Nothing special, just a bunch of random brush strokes""}","","","","","","","","","","","","","","","","","","","","","","",""
"2359","","image-slider-response","46","340232","0.0-45.0","APL91ALK40HL6","","","","","-30","","","","","","","","","","","","","","","","","","","","","",""
"4997","","image-button-response","47","345250","0.0-46.0","APL91ALK40HL6","img_art/30.jpg","0","","","","","","","","","","","","","","","","","","","","","","","","",""
"553","","image-button-response","48","345805","0.0-47.0","APL91ALK40HL6","img_art/30.jpg","0","","","","","","","","","","","","","","","","","","","","","","","","",""
"1379","","image-button-response","49","347185","0.0-48.0-0.0","APL91ALK40HL6","img_art/30.jpg","0","","","","","","","","","","","","","","","","","","","","","","","","",""
"2677","","image-button-response","50","352733","0.0-48.1-0.1","APL91ALK40HL6","img_art/30.jpg","3","","","","","","","","","","","","","","","","","","","","","","","","",""
"7808","","image-button-response","51","360543","0.0-49.0-0.0","APL91ALK40HL6","img_art/30.jpg","2","","","","","","","","","","","","","","","","","","","","","","","","",""
"null","","html-keyboard-response","52","361544","0.0-50.0","APL91ALK40HL6","<p style=""font-size: 48px;"">+</p>","","","","","null","allTrialResponses","1000","1","1","img_art/30.jpg","-30","Nothing special, just a bunch of random brush strokes","Destiny,Amber,Rachel,Kaylee,Bailey,Madison","literally stupid I made this with as seen on tv products when I was 7,-42,360,20","fresh and bold. outgoing.,15,200,20","I like this one because I am a mom and it reminds me of a child finger-painting.,20,80,20","i cant really get it,-35,200,20","No my favorite, but I do like the long strokes of color,11,360,20","Interesting brushstroke work, but not particularly memorable.,21,60,20","Destiny","literally stupid I made this with as seen on tv products when I was 7,-42,360,20","Kaylee","i cant really get it,-35,200,20","Rachel","I like this one because I am a mom and it reminds me of a child finger-painting.,20,80,20","3"
"34427","","survey-text","53","395981","0.0-51.0-0.0","APL91ALK40HL6","","","","{""Q0"":""strokes are too heavy for my taste, but at least you can tell something is spilling""}","","","","","","","","","","","","","","","","","","","","","","",""
"3492.7999999523163","","image-slider-response","54","399475","0.0-52.0","APL91ALK40HL6","","","","","-7","","","","","","","","","","","","","","","","","","","","","",""
"null","","image-button-response","55","404478","0.0-53.0","APL91ALK40HL6","img_art/24.jpg","null","","","","","","","","","","","","","","","","","","","","","","","","",""
"2081","","image-button-response","56","406561","0.0-54.0","APL91ALK40HL6","img_art/24.jpg","5","","","","","","","","","","","","","","","","","","","","","","","","",""
"555","","image-button-response","57","407117","0.0-55.0-0.0","APL91ALK40HL6","img_art/24.jpg","4","","","","","","","","","","","","","","","","","","","","","","","","",""
"9121","","image-button-response","58","416239","0.0-56.0-0.0","APL91ALK40HL6","img_art/24.jpg","0","","","","","","","","","","","","","","","","","","","","","","","","",""
"null","","html-keyboard-response","59","416741","0.0-57.0","APL91ALK40HL6","<p style=""font-size: 48px;"">+</p>","","","","","null","allTrialResponses","500","1","2","img_art/24.jpg","-7","strokes are too heavy for my taste, but at least you can tell something is spilling","Destiny,Elizabeth,Rachel,Kaylee,Mikayla,Cheyenne","brick wall waterfall girl you think you got it all,50,360,20","Evokes pleasant feelings,50,20,20","Looks like a beautiful stream rolling through terrain of rocks and flowers.,43,80,20","lovely forest vibes,36,200,20","Looks like a waterfall!,34,300,20","I like how the colors mix in this one.,20,200,20","Cheyenne","I like how the colors mix in this one.,20,200,20","Mikayla","Looks like a waterfall!,34,300,20","Destiny","brick wall waterfall girl you think you got it all,50,360,20","3"
"13816","","survey-text","60","430565","0.0-58.0-0.0","APL91ALK40HL6","","","","{""Q0"":""It reminds me of  a trip to the zoo""}","","","","","","","","","","","","","","","","","","","","","","",""
"2288.899999976158","","image-slider-response","61","432855","0.0-59.0","APL91ALK40HL6","","","","","34","","","","","","","","","","","","","","","","","","","","","",""
"null","","image-button-response","62","437860","0.0-60.0","APL91ALK40HL6","img_art/19.jpg","null","","","","","","","","","","","","","","","","","","","","","","","","",""
"589","","image-button-response","63","438451","0.0-61.0","APL91ALK40HL6","img_art/19.jpg","4","","","","","","","","","","","","","","","","","","","","","","","","",""
"4371","","image-button-response","64","442823","0.0-62.0-0.0","APL91ALK40HL6","img_art/19.jpg","5","","","","","","","","","","","","","","","","","","","","","","","","",""
"119994","","image-button-response","65","562819","0.0-63.0-0.0","APL91ALK40HL6","img_art/19.jpg","2","","","","","","","","","","","","","","","","","","","","","","","","",""
"null","","html-keyboard-response","66","564321","0.0-64.0","APL91ALK40HL6","<p style=""font-size: 48px;"">+</p>","","","","","null","allTrialResponses","1500","1","3","img_art/19.jpg","34","It reminds me of  a trip to the zoo","Destiny,Jenna,Katherine,Emma,Mikayla,Cheyenne","this flow I just really like how everything blends but also doesn't,45,360,20","love the muted colors and added sketchy lines. calming without being boring.,50,360,20","I dig the not being able to tell what anything is but knowing everything is supposed to be something,46,120,20","Interesting, leaves you wondering what it is,40,60,20","Very pretty and colorful.,23,300,20","Solid use of colors but wished it looked more realistic.,12,200,20","Mikayla","Very pretty and colorful.,23,300,20","Cheyenne","Solid use of colors but wished it looked more realistic.,12,200,20","Katherine","I dig the not being able to tell what anything is but knowing everything is supposed to be something,46,120,20","3"
"124731","","survey-text","67","689062","0.0-65.0-0.0","APL91ALK40HL6","","","","{""Q0"":""Very peaceful, nice harmony of colors""}","","","","","","","","","","","","","","","","","","","","","","",""
"2188.8000000715256","","image-slider-response","68","691252","0.0-66.0","APL91ALK40HL6","","","","","50","","","","","","","","","","","","","","","","","","","","","",""
"4687","","image-button-response","69","696255","0.0-67.0","APL91ALK40HL6","img_art/14.jpg","3","","","","","","","","","","","","","","","","","","","","","","","","",""
"1794","","image-button-response","70","698052","0.0-68.0","APL91ALK40HL6","img_art/14.jpg","3","","","","","","","","","","","","","","","","","","","","","","","","",""
"3533","","image-button-response","71","701587","0.0-69.0-0.0","APL91ALK40HL6","img_art/14.jpg","5","","","","","","","","","","","","","","","","","","","","","","","","",""
"462","","image-button-response","72","702050","0.0-70.0-0.0","APL91ALK40HL6","img_art/14.jpg","4","","","","","","","","","","","","","","","","","","","","","","","","",""
"null","","html-keyboard-response","73","702555","0.0-71.0","APL91ALK40HL6","<p style=""font-size: 48px;"">+</p>","","","","","null","allTrialResponses","500","1","4","img_art/14.jpg","50","Very peaceful, nice harmony of colors","Melissa,Monica,Katherine,Amy,Mikayla,Cheyenne","makes me feel sad,-2,240,20","Just don't like it, maybe it's the bleeding colors on the left of the tree-looking thing in the center or the faded background,-10,360,20","I don't like the color red,30,120,20","In others I might say the colors are garish. Here it works perfectly. The balance is wondrous and unlimiting.,25,220,20","The red looks like blood and im not a huge fan,15,300,20","I'm a fan of the background.,13,200,20","Amy","In others I might say the colors are garish. Here it works perfectly. The balance is wondrous and unlimiting.,25,220,20","Cheyenne","I'm a fan of the background.,13,200,20","Mikayla","The red looks like blood and im not a huge fan,15,300,20","3"
"9848","","survey-text","74","712412","0.0-72.0-0.0","APL91ALK40HL6","","","","{""Q0"":""Too modern and messy""}","","","","","","","","","","","","","","","","","","","","","","",""
"4766.800000071526","","image-slider-response","75","717180","0.0-73.0","APL91ALK40HL6","","","","","-50","","","","","","","","","","","","","","","","","","","","","",""
"4823","","image-button-response","76","722183","0.0-74.0","APL91ALK40HL6","img_art/23.jpg","0","","","","","","","","","","","","","","","","","","","","","","","","",""
"545","","image-button-response","77","722730","0.0-75.0","APL91ALK40HL6","img_art/23.jpg","0","","","","","","","","","","","","","","","","","","","","","","","","",""
"3811","","image-button-response","78","726542","0.0-76.0-0.0","APL91ALK40HL6","img_art/23.jpg","5","","","","","","","","","","","","","","","","","","","","","","","","",""
"2949","","image-button-response","79","729492","0.0-77.0-0.0","APL91ALK40HL6","img_art/23.jpg","1","","","","","","","","","","","","","","","","","","","","","","","","",""
"null","","html-keyboard-response","80","730995","0.0-78.0","APL91ALK40HL6","<p style=""font-size: 48px;"">+</p>","","","","","null","allTrialResponses","1500","1","5","img_art/23.jpg","-50","Too modern and messy","Vanessa,Jasmine,Rebecca,Amy,Mikayla,Cheyenne","This is ugly and weird.,-50,380,20","Mostly neutral but a bit too guady with the brash colors,-6,340,20","love the contrast (was this painted by a left-handed artist?),7,100,20","So exciting and full of the night.,20,220,20","So beautiful with the white accents.,50,300,20","Solid colors but the white throws it off for me.,4,200,20","Vanessa","This is ugly and weird.,-50,380,20","Cheyenne","Solid colors but the white throws it off for me.,4,200,20","Jasmine","Mostly neutral but a bit too guady with the brash colors,-6,340,20","3"
"13354","","survey-text","81","744364","0.0-79.0-0.0","APL91ALK40HL6","","","","{""Q0"":""sky""}","","","","","","","","","","","","","","","","","","","","","","",""
"15463","","survey-text","82","759829","0.0-80.0-0.0","APL91ALK40HL6","","","","{""Q0"":""colors are too bright, very messy for my taste""}","","","","","","","","","","","","","","","","","","","","","","",""
"4508.899999976158","","image-slider-response","83","764339","0.0-81.0","APL91ALK40HL6","","","","","-31","","","","","","","","","","","","","","","","","","","","","",""
"null","","image-button-response","84","769341","0.0-82.0","APL91ALK40HL6","img_art/22.jpg","null","","","","","","","","","","","","","","","","","","","","","","","","",""
"742","","image-button-response","85","770085","0.0-83.0","APL91ALK40HL6","img_art/22.jpg","0","","","","","","","","","","","","","","","","","","","","","","","","",""
"1202","","image-button-response","86","771289","0.0-84.0-0.0","APL91ALK40HL6","img_art/22.jpg","4","","","","","","","","","","","","","","","","","","","","","","","","",""
"923","","image-button-response","87","772213","0.0-85.0-0.0","APL91ALK40HL6","img_art/22.jpg","0","","","","","","","","","","","","","","","","","","","","","","","","",""
"530","","image-button-response","88","774833","0.0-85.1-0.1","APL91ALK40HL6","img_art/22.jpg","2","","","","","","","","","","","","","","","","","","","","","","","","",""
"null","","html-keyboard-response","89","775334","0.0-86.0","APL91ALK40HL6","<p style=""font-size: 48px;"">+</p>","","","","","null","allTrialResponses","500","1","6","img_art/22.jpg","-31","colors are too bright, very messy for my taste","Vanessa,Jasmine,Kelsey,Lauren,Amanda,Cheyenne","I don't like the colors or the way they've been arranged.,-20,380,20","I appreciate the artistic effort but it's not for me,0,340,20","its messy, like a child painted it,-14,240,20","This doesn't invoke anything, since I can't tell what the piece represents.,0,340,20","Very generic, seen many times before,-43,180,20","Didn't illicit any reaction,1,200,20","Vanessa","I don't like the colors or the way they've been arranged.,-20,380,20","Amanda","Very generic, seen many times before,-43,180,20","Kelsey","its messy, like a child painted it,-14,240,20","5"
"11232","","survey-text","90","786575","0.0-87.0-0.0","APL91ALK40HL6","","","","{""Q0"":""Seems like it was made by a child""}","","","","","","","","","","","","","","","","","","","","","","",""
"5190.799999952316","","image-slider-response","91","791767","0.0-88.0","APL91ALK40HL6","","","","","-36","","","","","","","","","","","","","","","","","","","","","",""
"null","","image-button-response","92","796770","0.0-89.0","APL91ALK40HL6","img_art/2.jpg","null","","","","","","","","","","","","","","","","","","","","","","","","",""
"1006","","image-button-response","93","797779","0.0-90.0","APL91ALK40HL6","img_art/2.jpg","2","","","","","","","","","","","","","","","","","","","","","","","","",""
"990","","image-button-response","94","798771","0.0-91.0-0.0","APL91ALK40HL6","img_art/2.jpg","1","","","","","","","","","","","","","","","","","","","","","","","","",""
"235","","image-button-response","95","799007","0.0-92.0-0.0","APL91ALK40HL6","img_art/2.jpg","0","","","","","","","","","","","","","","","","","","","","","","","","",""
"null","","html-keyboard-response","96","800521","0.0-93.0","APL91ALK40HL6","<p style=""font-size: 48px;"">+</p>","","","","","null","allTrialResponses","1500","1","7","img_art/2.jpg","-36","Seems like it was made by a child","Vanessa,Breanna,Kelsey,Angela,Amanda,Samantha","I don't like the abstract nature of this painting or the colors used.,-50,380,20","It's just a splash of paint on a canvas,-31,380,20","i dont like it, no thank you,-28,240,20","Only like the blues and teals in this. The rest is unappealing.,-15,260,20","Very simple and childish,40,180,20","Cute and happy,22,140,20","Kelsey","i dont like it, no thank you,-28,240,20","Breanna","It's just a splash of paint on a canvas,-31,380,20","Vanessa","I don't like the abstract nature of this painting or the colors used.,-50,380,20","5"
"17802","","survey-text","97","818332","0.0-94.0-0.0","APL91ALK40HL6","","","","{""Q0"":""Like the blue, but hate the white, looks nasty""}","","","","","","","","","","","","","","","","","","","","","","",""
"2187.1999999284744","","image-slider-response","98","820521","0.0-95.0","APL91ALK40HL6","","","","","-50","","","","","","","","","","","","","","","","","","","","","",""
"null","","image-button-response","99","825524","0.0-96.0","APL91ALK40HL6","img_art/13.jpg","null","","","","","","","","","","","","","","","","","","","","","","","","",""
"828","","image-button-response","100","826355","0.0-97.0","APL91ALK40HL6","img_art/13.jpg","4","","","","","","","","","","","","","","","","","","","","","","","","",""
"583","","image-button-response","101","826939","0.0-98.0-0.0","APL91ALK40HL6","img_art/13.jpg","3","","","","","","","","","","","","","","","","","","","","","","","","",""
"6828","","image-button-response","102","833769","0.0-99.0-0.0","APL91ALK40HL6","img_art/13.jpg","2","","","","","","","","","","","","","","","","","","","","","","","","",""
"null","","html-keyboard-response","103","834770","0.0-100.0","APL91ALK40HL6","<p style=""font-size: 48px;"">+</p>","","","","","null","allTrialResponses","1000","1","8","img_art/13.jpg","-50","Like the blue, but hate the white, looks nasty","Vanessa,Breanna,Kelsey,Sierra,Kathryn,Hannah","I love the colors and the contrast between the different blues.,21,380,20","Makes me feel nice and calm,18,380,20","its like the ocean,24,240,20","the blues are soothing but the splatters are too much,-3,260,20","Reminds me of depression anxiety, but negativity is dampened by motion. It's trying to release itself through expression.,-10,140,20","Like this a lot and would hang in my house.,27,240,20","Kathryn","Reminds me of depression anxiety, but negativity is dampened by motion. It's trying to release itself through expression.,-10,140,20","Sierra","the blues are soothing but the splatters are too much,-3,260,20","Kelsey","its like the ocean,24,240,20","5"
"17005","","survey-text","104","851784","0.0-101.0-0.0","APL91ALK40HL6","","","","{""Q0"":""Like the simplicity, and you can't tell if it is a girl or a tree""}","","","","","","","","","","","","","","","","","","","","","","",""
"3345","","image-slider-response","105","855130","0.0-102.0","APL91ALK40HL6","","","","","26","","","","","","","","","","","","","","","","","","","","","",""
"null","","image-button-response","106","860142","0.0-103.0","APL91ALK40HL6","img_art/6.jpg","null","","","","","","","","","","","","","","","","","","","","","","","","",""
"38282","","image-button-response","107","898427","0.0-104.0","APL91ALK40HL6","img_art/6.jpg","4","","","","","","","","","","","","","","","","","","","","","","","","",""
"2121","","image-button-response","108","900549","0.0-105.0-0.0","APL91ALK40HL6","img_art/6.jpg","3","","","","","","","","","","","","","","","","","","","","","","","","",""
"5629","","image-button-response","109","906179","0.0-106.0-0.0","APL91ALK40HL6","img_art/6.jpg","1","","","","","","","","","","","","","","","","","","","","","","","","",""
"null","","html-keyboard-response","110","906687","0.0-107.0","APL91ALK40HL6","<p style=""font-size: 48px;"">+</p>","","","","","null","allTrialResponses","500","1","9","img_art/6.jpg","26","Like the simplicity, and you can't tell if it is a girl or a tree","Emily,Stephanie,Kelsey,Sierra,Kathryn,Molly","Looks like a kid created it.,-50,40,20","Nevermore!  A black raven sitting on a pumpkin. Halloween,-35,300,20","its like a jalapeno,-28,240,20","simplistic. i love orange and green and i love the subject,50,260,20","This piece feels hopeful, like an oasis in the desert.,20,140,20","Nothing special.,-20,340,20","Kathryn","This piece feels hopeful, like an oasis in the desert.,20,140,20","Sierra","simplistic. i love orange and green and i love the subject,50,260,20","Stephanie","Nevermore!  A black raven sitting on a pumpkin. Halloween,-35,300,20","5"
"10953","","survey-text","111","917648","0.0-108.0-0.0","APL91ALK40HL6","","","","{""Q0"":""very messy and dull""}","","","","","","","","","","","","","","","","","","","","","","",""
"2364.899999976158","","image-slider-response","112","920014","0.0-109.0","APL91ALK40HL6","","","","","-26","","","","","","","","","","","","","","","","","","","","","",""
"null","","image-button-response","113","925020","0.0-110.0","APL91ALK40HL6","img_art/15.jpg","null","","","","","","","","","","","","","","","","","","","","","","","","",""
"858","","image-button-response","114","925881","0.0-111.0","APL91ALK40HL6","img_art/15.jpg","3","","","","","","","","","","","","","","","","","","","","","","","","",""
"719","","image-button-response","115","926600","0.0-112.0-0.0","APL91ALK40HL6","img_art/15.jpg","1","","","","","","","","","","","","","","","","","","","","","","","","",""
"227","","image-button-response","116","926828","0.0-113.0-0.0","APL91ALK40HL6","img_art/15.jpg","0","","","","","","","","","","","","","","","","","","","","","","","","",""
"null","","html-keyboard-response","117","927830","0.0-114.0","APL91ALK40HL6","<p style=""font-size: 48px;"">+</p>","","","","","null","allTrialResponses","1000","1","10","img_art/15.jpg","-26","very messy and dull","Lindsey,Stephanie,Meghan,Sierra,Kathryn,Sophia","Not a fan. This piece would only go with very specific decor in a modern home.,-35,400,20","This piece is too dark,-42,300,20","I like the pattern of it,11,220,20","i cant find somthing ilike about it,-31,260,20","This is looking at a forest from above. I can see water and some pathways throughout. Nature.,20,140,20","I feel like there's ski jumping going on here.,2,280,20","Sierra","i cant find somthing ilike about it,-31,260,20","Stephanie","This piece is too dark,-42,300,20","Lindsey","Not a fan. This piece would only go with very specific decor in a modern home.,-35,400,20","5"
"4276","","survey-text","118","932122","0.0-115.0-0.0","APL91ALK40HL6","","","","{""Q0"":""our""}","","","","","","","","","","","","","","","","","","","","","","",""
"12917","","survey-text","119","945040","0.0-116.0-0.0","APL91ALK40HL6","","","","{""Q0"":""Too abstract for my taste""}","","","","","","","","","","","","","","","","","","","","","","",""
"3426.7999999523163","","image-slider-response","120","948468","0.0-117.0","APL91ALK40HL6","","","","","-42","","","","","","","","","","","","","","","","","","","","","",""
"null","","image-button-response","121","953478","0.0-118.0","APL91ALK40HL6","img_art/9.jpg","null","","","","","","","","","","","","","","","","","","","","","","","","",""
"42134","","image-button-response","122","995614","0.0-119.0","APL91ALK40HL6","img_art/9.jpg","1","","","","","","","","","","","","","","","","","","","","","","","","",""
"1521","","image-button-response","123","997136","0.0-120.0-0.0","APL91ALK40HL6","img_art/9.jpg","0","","","","","","","","","","","","","","","","","","","","","","","","",""
"743","","image-button-response","124","997880","0.0-121.0-0.0","APL91ALK40HL6","img_art/9.jpg","2","","","","","","","","","","","","","","","","","","","","","","","","",""
"null","","html-keyboard-response","125","999382","0.0-122.0","APL91ALK40HL6","<p style=""font-size: 48px;"">+</p>","","","","","null","allTrialResponses","1500","1","11","img_art/9.jpg","-42","Too abstract for my taste","Lindsey,Stephanie,Maria,Sierra,Gabriela,Christina","Looks like my niece's doodles.,-50,400,20","Someone sleeping in a cave. Dont like the scribble look.,-30,300,20","while I don't dispute the art, it feels childish,-20,120,20","it looks like a lady resting. it is soothing.,4,260,20","This photo make me feel peaceful. It looks like a woman sleeping in a garden,42,140,20","nice colors but it looks like it's from the 80s,10,240,20","Stephanie","Someone sleeping in a cave. Dont like the scribble look.,-30,300,20","Lindsey","Looks like my niece's doodles.,-50,400,20","Maria","while I don't dispute the art, it feels childish,-20,120,20","5"
"12892","","survey-text","126","1012282","0.0-123.0-0.0","APL91ALK40HL6","","","","{""Q0"":""Very simple cityscape""}","","","","","","","","","","","","","","","","","","","","","","",""
"2100.899999976158","","image-slider-response","127","1014384","0.0-124.0","APL91ALK40HL6","","","","","23","","","","","","","","","","","","","","","","","","","","","",""
"null","","image-button-response","128","1019395","0.0-125.0","APL91ALK40HL6","img_art/26.jpg","null","","","","","","","","","","","","","","","","","","","","","","","","",""
"41111","","image-button-response","129","1060508","0.0-126.0","APL91ALK40HL6","img_art/26.jpg","1","","","","","","","","","","","","","","","","","","","","","","","","",""
"2235","","image-button-response","130","1062744","0.0-127.0-0.0","APL91ALK40HL6","img_art/26.jpg","3","","","","","","","","","","","","","","","","","","","","","","","","",""
"1291","","image-button-response","131","1064036","0.0-128.0-0.0","APL91ALK40HL6","img_art/26.jpg","5","","","","","","","","","","","","","","","","","","","","","","","","",""
"null","","html-keyboard-response","132","1065550","0.0-129.0","APL91ALK40HL6","<p style=""font-size: 48px;"">+</p>","","","","","null","allTrialResponses","1500","1","12","img_art/26.jpg","23","Very simple cityscape","Lindsey,Stephanie,Maria,Shelby,Diana,Kimberly","I see a suburban neighborhood with townhouses and trees. Not a fan of the colors or style.,-16,400,20","Day just begun in the city and the stores are opening their doors.,41,300,20","fairly neutral, really,8,120,20","Very pleasent little scene,40,240,20","I'm not sure if this is the image of a furniture store or not.,-20,380,20","It looks like I'm staring out of the window of a nice house, but the house is mine,20,260,20","Stephanie","Day just begun in the city and the stores are opening their doors.,41,300,20","Shelby","Very pleasent little scene,40,240,20","Kimberly","It looks like I'm staring out of the window of a nice house, but the house is mine,20,260,20","5"
"16112","","survey-text","133","1081672","0.0-130.0-0.0","APL91ALK40HL6","","","","{""Q0"":""Love the colors and style, very deep""}","","","","","","","","","","","","","","","","","","","","","","",""
"1560.7999999523163","","image-slider-response","134","1083234","0.0-131.0","APL91ALK40HL6","","","","","50","","","","","","","","","","","","","","","","","","","","","",""
"3133","","image-button-response","135","1088241","0.0-132.0","APL91ALK40HL6","img_art/20.jpg","2","","","","","","","","","","","","","","","","","","","","","","","","",""
"612","","image-button-response","136","1088856","0.0-133.0","APL91ALK40HL6","img_art/20.jpg","1","","","","","","","","","","","","","","","","","","","","","","","","",""
"327","","image-button-response","137","1089184","0.0-134.0-0.0","APL91ALK40HL6","img_art/20.jpg","2","","","","","","","","","","","","","","","","","","","","","","","","",""
"4471","","image-button-response","138","1093656","0.0-135.0-0.0","APL91ALK40HL6","img_art/20.jpg","4","","","","","","","","","","","","","","","","","","","","","","","","",""
"null","","html-keyboard-response","139","1094673","0.0-136.0","APL91ALK40HL6","<p style=""font-size: 48px;"">+</p>","","","","","null","allTrialResponses","1000","1","13","img_art/20.jpg","50","Love the colors and style, very deep","Angelica,Stephanie,Alicia,Shelby,Isabella,Kimberly","It's too brash and loud and ugly.,-21,280,20","Looks like an old gold mining down now deserted.,11,300,20","Very cool, and calming (again) Love it.,47,120,20","Makes me think if a car crash or some sort of disaster,-20,240,20","Feels like a town destroyed,-19,280,20","Something bad has happened TO reality,-23,260,20","Stephanie","Looks like an old gold mining down now deserted.,11,300,20","Alicia","Very cool, and calming (again) Love it.,47,120,20","Isabella","Feels like a town destroyed,-19,280,20","5"
"53388","","survey-text","140","1148072","0.0-137.0-0.0","APL91ALK40HL6","","","","{""Q0"":""feels like a painting of desert soil""}","","","","","","","","","","","","","","","","","","","","","","",""
"1648.8999999761581","","image-slider-response","141","1149722","0.0-138.0","APL91ALK40HL6","","","","","-46","","","","","","","","","","","","","","","","","","","","","",""
"null","","image-button-response","142","1154728","0.0-139.0","APL91ALK40HL6","img_art/7.jpg","null","","","","","","","","","","","","","","","","","","","","","","","","",""
"5550","","image-button-response","143","1160280","0.0-140.0","APL91ALK40HL6","img_art/7.jpg","4","","","","","","","","","","","","","","","","","","","","","","","","",""
"1829","","image-button-response","144","1162110","0.0-141.0-0.0","APL91ALK40HL6","img_art/7.jpg","1","","","","","","","","","","","","","","","","","","","","","","","","",""
"999","","image-button-response","145","1163110","0.0-142.0-0.0","APL91ALK40HL6","img_art/7.jpg","4","","","","","","","","","","","","","","","","","","","","","","","","",""
"1638","","image-button-response","146","1166646","0.0-142.1-0.1","APL91ALK40HL6","img_art/7.jpg","2","","","","","","","","","","","","","","","","","","","","","","","","",""
"null","","html-keyboard-response","147","1167648","0.0-143.0","APL91ALK40HL6","<p style=""font-size: 48px;"">+</p>","","","","","null","allTrialResponses","1000","1","14","img_art/7.jpg","-46","feels like a painting of desert soil","Morgan,Stephanie,Alicia,Makayla,Isabella,Erika","Dead bugs on an insect battleground.,-10,380,20","This looks muddy and stomped on. I think of destruction.,-50,300,20","I don't get it. looks like a picture of the ground.,-42,120,20","It's just like sand from the beach,2,80,20","Dessert like almost like dry land,4,280,20","Detail oriented, like cracked paint wall,15,100,20","Isabella","Dessert like almost like dry land,4,280,20","Stephanie","This looks muddy and stomped on. I think of destruction.,-50,300,20","Alicia","I don't get it. looks like a picture of the ground.,-42,120,20","7"
"11594","","survey-text","148","1179252","0.0-144.0-0.0","APL91ALK40HL6","","","","{""Q0"":""ugly colors but pattern shape is cool""}","","","","","","","","","","","","","","","","","","","","","","",""
"2580.7000000476837","","image-slider-response","149","1181834","0.0-145.0","APL91ALK40HL6","","","","","-20","","","","","","","","","","","","","","","","","","","","","",""
"null","","image-button-response","150","1186836","0.0-146.0","APL91ALK40HL6","img_art/12.jpg","null","","","","","","","","","","","","","","","","","","","","","","","","",""
"8372","","image-button-response","151","1195210","0.0-147.0","APL91ALK40HL6","img_art/12.jpg","2","","","","","","","","","","","","","","","","","","","","","","","","",""
"1341","","image-button-response","152","1196552","0.0-148.0-0.0","APL91ALK40HL6","img_art/12.jpg","1","","","","","","","","","","","","","","","","","","","","","","","","",""
"2117","","image-button-response","153","1198670","0.0-149.0-0.0","APL91ALK40HL6","img_art/12.jpg","3","","","","","","","","","","","","","","","","","","","","","","","","",""
"null","","html-keyboard-response","154","1199672","0.0-150.0","APL91ALK40HL6","<p style=""font-size: 48px;"">+</p>","","","","","null","allTrialResponses","1000","1","15","img_art/12.jpg","-20","ugly colors but pattern shape is cool","Erica,Stephanie,Alicia,Michaela,Isabella,Miranda","good colours scheme; organised,17,80,20","I like the pattern to it.,31,300,20","it's ok, but blocky, looks old.,3,120,20","It looks like old lady upholstery,12,260,20","Something you would see in a government building hallway,3,280,20","This is like going to a really old mcdoanlds in a tiny town and it's never been renovated so it's breaking down,-31,320,20","Alicia","it's ok, but blocky, looks old.,3,120,20","Stephanie","I like the pattern to it.,31,300,20","Michaela","It looks like old lady upholstery,12,260,20","7"
"4060","","survey-text","155","1203752","0.0-151.0-0.0","APL91ALK40HL6","","","","{""Q0"":""course""}","","","","","","","","","","","","","","","","","","","","","","",""
"11987","","survey-text","156","1215740","0.0-152.0-0.0","APL91ALK40HL6","","","","{""Q0"":""very neat geometric shapes""}","","","","","","","","","","","","","","","","","","","","","","",""
"2236.8000000715256","","image-slider-response","157","1217978","0.0-153.0","APL91ALK40HL6","","","","","36","","","","","","","","","","","","","","","","","","","","","",""
"null","","image-button-response","158","1222994","0.0-154.0","APL91ALK40HL6","img_art/8.jpg","null","","","","","","","","","","","","","","","","","","","","","","","","",""
"12738","","image-button-response","159","1235734","0.0-155.0","APL91ALK40HL6","img_art/8.jpg","2","","","","","","","","","","","","","","","","","","","","","","","","",""
"2817","","image-button-response","160","1238553","0.0-156.0-0.0","APL91ALK40HL6","img_art/8.jpg","5","","","","","","","","","","","","","","","","","","","","","","","","",""
"3157","","image-button-response","161","1241710","0.0-157.0-0.0","APL91ALK40HL6","img_art/8.jpg","0","","","","","","","","","","","","","","","","","","","","","","","","",""
"null","","html-keyboard-response","162","1242712","0.0-158.0","APL91ALK40HL6","<p style=""font-size: 48px;"">+</p>","","","","","null","allTrialResponses","1000","1","16","img_art/8.jpg","36","very neat geometric shapes","Mackenzie,Stephanie,Alicia,Michaela,Courtney,Taylor","The different shapes are fun to look for.,30,20,20","I like the colors and geometrical shapes but the face in the sky makes it look scary,-10,300,20","wow. blocky, angled, neat colors. The faces are what makes it. love it.,45,120,20","It's too boxy for my taste,-10,260,20","Now that one is wild. Looks like maybe mother nature isnt happy.,28,280,20","Looks like it would be an interesting place to live,35,340,20","Alicia","wow. blocky, angled, neat colors. The faces are what makes it. love it.,45,120,20","Taylor","Looks like it would be an interesting place to live,35,340,20","Mackenzie","The different shapes are fun to look for.,30,20,20","7"
"17335","","survey-text","163","1260056","0.0-159.0-0.0","APL91ALK40HL6","","","","{""Q0"":""nice colors but just looks like kidneys""}","","","","","","","","","","","","","","","","","","","","","","",""
"1684.9000000953674","","image-slider-response","164","1261742","0.0-160.0","APL91ALK40HL6","","","","","-36","","","","","","","","","","","","","","","","","","","","","",""
"null","","image-button-response","165","1266744","0.0-161.0","APL91ALK40HL6","img_art/28.jpg","null","","","","","","","","","","","","","","","","","","","","","","","","",""
"610","","image-button-response","166","1267356","0.0-162.0","APL91ALK40HL6","img_art/28.jpg","2","","","","","","","","","","","","","","","","","","","","","","","","",""
"2111","","image-button-response","167","1269468","0.0-163.0-0.0","APL91ALK40HL6","img_art/28.jpg","0","","","","","","","","","","","","","","","","","","","","","","","","",""
"2853","","image-button-response","168","1272322","0.0-164.0-0.0","APL91ALK40HL6","img_art/28.jpg","4","","","","","","","","","","","","","","","","","","","","","","","","",""
"null","","html-keyboard-response","169","1273324","0.0-165.0","APL91ALK40HL6","<p style=""font-size: 48px;"">+</p>","","","","","null","allTrialResponses","1000","1","17","img_art/28.jpg","-36","nice colors but just looks like kidneys","Mackenzie,Kristen,Alicia,Sydney,Kaitlyn,Taylor","The muted tones aren't my favorite.,-10,20,20","almost reminds me of thomas becket getting his head cut off,21,280,20","bland busy ugly,-31,120,20","I enjoy the colors.,25,320,20","Not sure what way this picture is suppose to be oriented,-5,80,20","Doesn't give me an emotional response,0,340,20","Alicia","bland busy ugly,-31,120,20","Mackenzie","The muted tones aren't my favorite.,-10,20,20","Kaitlyn","Not sure what way this picture is suppose to be oriented,-5,80,20","7"
"13559","","survey-text","170","1286894","0.0-166.0-0.0","APL91ALK40HL6","","","","{""Q0"":""too \""artistic\"" for my taste""}","","","","","","","","","","","","","","","","","","","","","","",""
"2398.9000000953674","","image-slider-response","171","1289294","0.0-167.0","APL91ALK40HL6","","","","","-41","","","","","","","","","","","","","","","","","","","","","",""
"null","","image-button-response","172","1294307","0.0-168.0","APL91ALK40HL6","img_art/16.jpg","null","","","","","","","","","","","","","","","","","","","","","","","","",""
"663","","image-button-response","173","1294972","0.0-169.0","APL91ALK40HL6","img_art/16.jpg","1","","","","","","","","","","","","","","","","","","","","","","","","",""
"365","","image-button-response","174","1295338","0.0-170.0-0.0","APL91ALK40HL6","img_art/16.jpg","2","","","","","","","","","","","","","","","","","","","","","","","","",""
"847","","image-button-response","175","1296186","0.0-171.0-0.0","APL91ALK40HL6","img_art/16.jpg","3","","","","","","","","","","","","","","","","","","","","","","","","",""
"null","","html-keyboard-response","176","1297188","0.0-172.0","APL91ALK40HL6","<p style=""font-size: 48px;"">+</p>","","","","","null","allTrialResponses","1000","1","18","img_art/16.jpg","-41","too ""artistic"" for my taste","Mackenzie,Kelly,Alicia,Sara,Kaitlyn,Sabrina","I like the mixture of images,23,20,20","Looks like someone got really high and did a bad photoshop job.,-27,220,20","Don't get it. Hate it. ugly.,-44,120,20","This painting is too random,-30,160,20","The bear is a weird choice,-22,80,20","Kind of an edgy teenager vibe,32,120,20","Kelly","Looks like someone got really high and did a bad photoshop job.,-27,220,20","Alicia","Don't get it. Hate it. ugly.,-44,120,20","Sara","This painting is too random,-30,160,20","7"
"16708","","survey-text","177","1313906","0.0-173.0-0.0","APL91ALK40HL6","","","","{""Q0"":""ugly, just random brush strokes""}","","","","","","","","","","","","","","","","","","","","","","",""
"2197.3000000715256","","image-slider-response","178","1316104","0.0-174.0","APL91ALK40HL6","","","","","-50","","","","","","","","","","","","","","","","","","","","","",""
"null","","image-button-response","179","1321111","0.0-175.0","APL91ALK40HL6","img_art/3.jpg","null","","","","","","","","","","","","","","","","","","","","","","","","",""
"1481","","image-button-response","180","1322594","0.0-176.0","APL91ALK40HL6","img_art/3.jpg","1","","","","","","","","","","","","","","","","","","","","","","","","",""
"247","","image-button-response","181","1322842","0.0-177.0-0.0","APL91ALK40HL6","img_art/3.jpg","2","","","","","","","","","","","","","","","","","","","","","","","","",""
"553","","image-button-response","182","1323396","0.0-178.0-0.0","APL91ALK40HL6","img_art/3.jpg","3","","","","","","","","","","","","","","","","","","","","","","","","",""
"null","","html-keyboard-response","183","1324398","0.0-179.0","APL91ALK40HL6","<p style=""font-size: 48px;"">+</p>","","","","","null","allTrialResponses","1000","1","19","img_art/3.jpg","-50","ugly, just random brush strokes","Leslie,Kelly,Alicia,Sara,Mary,Abigail","It looks like the artist was trying too hard to make it chaotic and emotional.,-25,380,20","Reminds me of blood.,-28,220,20","scribbles in red. 2 minute piece.,-30,120,20","Random use of red and looks scary,-50,160,20","I usually don't like red. Red in this angry piece is very fitting.,19,180,20","Reminded me of blood or something bad,-21,20,20","Kelly","Reminds me of blood.,-28,220,20","Alicia","scribbles in red. 2 minute piece.,-30,120,20","Sara","Random use of red and looks scary,-50,160,20","7"
"20607","","survey-text","184","1345016","0.0-180.0-0.0","APL91ALK40HL6","","","","{""Q0"":""Interesting colors and a lot to look at""}","","","","","","","","","","","","","","","","","","","","","","",""
"2233","","image-slider-response","185","1347250","0.0-181.0","APL91ALK40HL6","","","","","29","","","","","","","","","","","","","","","","","","","","","",""
"null","","image-button-response","186","1352253","0.0-182.0","APL91ALK40HL6","img_art/18.jpg","null","","","","","","","","","","","","","","","","","","","","","","","","",""
"928","","image-button-response","187","1353183","0.0-183.0","APL91ALK40HL6","img_art/18.jpg","4","","","","","","","","","","","","","","","","","","","","","","","","",""
"2565","","image-button-response","188","1355749","0.0-184.0-0.0","APL91ALK40HL6","img_art/18.jpg","1","","","","","","","","","","","","","","","","","","","","","","","","",""
"307","","image-button-response","189","1356057","0.0-185.0-0.0","APL91ALK40HL6","img_art/18.jpg","2","","","","","","","","","","","","","","","","","","","","","","","","",""
"null","","html-keyboard-response","190","1357058","0.0-186.0","APL91ALK40HL6","<p style=""font-size: 48px;"">+</p>","","","","","null","allTrialResponses","1000","1","20","img_art/18.jpg","29","Interesting colors and a lot to look at","Laura,Kelly,Alicia,Sara,Nicole,Erin","afraid and anxious,21,320,20","It's interesting. I'm not sure how I feel about it, but i enjoy the ghostly apparitions.,10,220,20","Skeletons, death, bleak colors, still kinda like it.,16,120,20","Too abstract and swirly,-21,160,20","There's danger in this painting and it's awesome,40,20,20","See a weird horse,-22,120,20","Nicole","There's danger in this painting and it's awesome,40,20,20","Kelly","It's interesting. I'm not sure how I feel about it, but i enjoy the ghostly apparitions.,10,220,20","Alicia","Skeletons, death, bleak colors, still kinda like it.,16,120,20","7"
"3147","","survey-text","191","1360223","0.0-187.0-0.0","APL91ALK40HL6","","","","{""Q0"":""we""}","","","","","","","","","","","","","","","","","","","","","","",""
"12981","","survey-text","192","1373205","0.0-188.0-0.0","APL91ALK40HL6","","","","{""Q0"":""plain looking, at least technique is different""}","","","","","","","","","","","","","","","","","","","","","","",""
"3204.8000000715256","","image-slider-response","193","1376411","0.0-189.0","APL91ALK40HL6","","","","","-18","","","","","","","","","","","","","","","","","","","","","",""
"null","","image-button-response","194","1381418","0.0-190.0","APL91ALK40HL6","img_art/25.jpg","null","","","","","","","","","","","","","","","","","","","","","","","","",""
"591","","image-button-response","195","1382012","0.0-191.0","APL91ALK40HL6","img_art/25.jpg","0","","","","","","","","","","","","","","","","","","","","","","","","",""
"5321","","image-button-response","196","1387334","0.0-192.0-0.0","APL91ALK40HL6","img_art/25.jpg","4","","","","","","","","","","","","","","","","","","","","","","","","",""
"976","","image-button-response","197","1388312","0.0-193.0-0.0","APL91ALK40HL6","img_art/25.jpg","5","","","","","","","","","","","","","","","","","","","","","","","","",""
"null","","html-keyboard-response","198","1389825","0.0-194.0","APL91ALK40HL6","<p style=""font-size: 48px;"">+</p>","","","","","null","allTrialResponses","1500","1","21","img_art/25.jpg","-18","plain looking, at least technique is different","Michelle,Kelly,Alicia,Haley,Nicole,Brittany","I can get behind this but only because I like the green. it reminds me of a graveyard,11,280,20","I love the color. I don't know what exactly is going on but I like it.,24,220,20","death. childish nightmare.,-29,120,20","I like the design but the brightness of the color feels almost blinding to me.,-3,220,20","This painting is cool but it gives off an evil vibe,-10,20,20","It's a rather intriguing design,12,40,20","Michelle","I can get behind this but only because I like the green. it reminds me of a graveyard,11,280,20","Nicole","This painting is cool but it gives off an evil vibe,-10,20,20","Brittany","It's a rather intriguing design,12,40,20","7"
"9315","","survey-text","199","1399152","0.0-195.0-0.0","APL91ALK40HL6","","","","{""Q0"":""too plain, just random colors""}","","","","","","","","","","","","","","","","","","","","","","",""
"1796.5","","image-slider-response","200","1400949","0.0-196.0","APL91ALK40HL6","","","","","-26","","","","","","","","","","","","","","","","","","","","","",""
"null","","image-button-response","201","1405951","0.0-197.0","APL91ALK40HL6","img_art/21.jpg","null","","","","","","","","","","","","","","","","","","","","","","","","",""
"970","","image-button-response","202","1406924","0.0-198.0","APL91ALK40HL6","img_art/21.jpg","2","","","","","","","","","","","","","","","","","","","","","","","","",""
"4611","","image-button-response","203","1411536","0.0-199.0-0.0","APL91ALK40HL6","img_art/21.jpg","5","","","","","","","","","","","","","","","","","","","","","","","","",""
"670","","image-button-response","204","1412208","0.0-200.0-0.0","APL91ALK40HL6","img_art/21.jpg","0","","","","","","","","","","","","","","","","","","","","","","","","",""
"null","","html-keyboard-response","205","1412709","0.0-201.0","APL91ALK40HL6","<p style=""font-size: 48px;"">+</p>","","","","","null","allTrialResponses","500","1","22","img_art/21.jpg","-26","too plain, just random colors","Michelle,Caroline,Jennifer,Cassandra,Nicole,Brittany","The colors are very nice. I like the dots because they remind me of pearls,5,280,20","the colors are pretty but I did not feel any thing looking at it,33,100,20","Bland, this painting is my least favorite,-20,380,20","I liked it...it looked like a storm raging.,12,120,20","Makes me think of a natural disaster but I love how it looks. Makes you think,30,20,20","Alright. I like the colors.,5,40,20","Jennifer","Bland, this painting is my least favorite,-20,380,20","Brittany","Alright. I like the colors.,5,40,20","Michelle","The colors are very nice. I like the dots because they remind me of pearls,5,280,20","7"
"9916","","survey-text","206","1422637","0.0-202.0-0.0","APL91ALK40HL6","","","","{""Q0"":""ugly colors, reminds me of poop""}","","","","","","","","","","","","","","","","","","","","","","",""
"2520.6999999284744","","image-slider-response","207","1425159","0.0-203.0","APL91ALK40HL6","","","","","-50","","","","","","","","","","","","","","","","","","","","","",""
"null","","image-button-response","208","1430162","0.0-204.0","APL91ALK40HL6","img_art/4.jpg","null","","","","","","","","","","","","","","","","","","","","","","","","",""
"3995","","image-button-response","209","1434160","0.0-205.0","APL91ALK40HL6","img_art/4.jpg","5","","","","","","","","","","","","","","","","","","","","","","","","",""
"1323","","image-button-response","210","1435484","0.0-206.0-0.0","APL91ALK40HL6","img_art/4.jpg","2","","","","","","","","","","","","","","","","","","","","","","","","",""
"1270","","image-button-response","211","1436755","0.0-207.0-0.0","APL91ALK40HL6","img_art/4.jpg","1","","","","","","","","","","","","","","","","","","","","","","","","",""
"null","","html-keyboard-response","212","1437257","0.0-208.0","APL91ALK40HL6","<p style=""font-size: 48px;"">+</p>","","","","","null","allTrialResponses","500","1","23","img_art/4.jpg","-50","ugly colors, reminds me of poop","Michelle,Cassidy,Jennifer,Andrea,Ashley,Brittany","Looks like more paint smearing but at least there is structure,-5,280,20","Hate the color, and just do not get the point.,-13,140,20","Ugly and bland compared to the other pieces.,-33,380,20","I think it speaks to familial closeness but the tonality is offputting to me.,-10,240,20","It looks like a hand.,25,320,20","Rather boring design and colors.,-21,40,20","Brittany","Rather boring design and colors.,-21,40,20","Jennifer","Ugly and bland compared to the other pieces.,-33,380,20","Cassidy","Hate the color, and just do not get the point.,-13,140,20","7"
"8665","","survey-text","213","1445935","0.0-209.0-0.0","APL91ALK40HL6","","","","{""Q0"":""reminds me of a volcano""}","","","","","","","","","","","","","","","","","","","","","","",""
"2503","","image-slider-response","214","1448439","0.0-210.0","APL91ALK40HL6","","","","","12","","","","","","","","","","","","","","","","","","","","","",""
"null","","image-button-response","215","1453455","0.0-211.0","APL91ALK40HL6","img_art/5.jpg","null","","","","","","","","","","","","","","","","","","","","","","","","",""
"2440","","image-button-response","216","1455897","0.0-212.0","APL91ALK40HL6","img_art/5.jpg","5","","","","","","","","","","","","","","","","","","","","","","","","",""
"651","","image-button-response","217","1456549","0.0-213.0-0.0","APL91ALK40HL6","img_art/5.jpg","1","","","","","","","","","","","","","","","","","","","","","","","","",""
"3717","","image-button-response","218","1460267","0.0-214.0-0.0","APL91ALK40HL6","img_art/5.jpg","3","","","","","","","","","","","","","","","","","","","","","","","","",""
"null","","html-keyboard-response","219","1461769","0.0-215.0","APL91ALK40HL6","<p style=""font-size: 48px;"">+</p>","","","","","null","allTrialResponses","1500","1","24","img_art/5.jpg","12","reminds me of a volcano","Madeline,Cassidy,Jennifer,Autumn,Katie,Brittany","A bit too messy in my eyes,-4,40,20","I like these colors together and the tiny splatters, but what is this?,7,140,20","This piece doesn't really stand out.,0,380,20","Appealing but shapeless,24,340,20","I don't get it at all. But, maybe it is the top portion of a piece of fruit.,-50,160,20","Although it's very simple, there's something about the colors that really draws the eye.,11,40,20","Brittany","Although it's very simple, there's something about the colors that really draws the eye.,11,40,20","Cassidy","I like these colors together and the tiny splatters, but what is this?,7,140,20","Autumn","Appealing but shapeless,24,340,20","7"
"13709","","survey-text","220","1475491","0.0-216.0-0.0","APL91ALK40HL6","","","","{""Q0"":""random mess, nothing special""}","","","","","","","","","","","","","","","","","","","","","","",""
"1550.8999999761581","","image-slider-response","221","1477043","0.0-217.0","APL91ALK40HL6","","","","","-50","","","","","","","","","","","","","","","","","","","","","",""
"null","","image-button-response","222","1482045","0.0-218.0","APL91ALK40HL6","img_art/29.jpg","null","","","","","","","","","","","","","","","","","","","","","","","","",""
"676","","image-button-response","223","1482723","0.0-219.0","APL91ALK40HL6","img_art/29.jpg","0","","","","","","","","","","","","","","","","","","","","","","","","",""
"3357","","image-button-response","224","1486081","0.0-220.0-0.0","APL91ALK40HL6","img_art/29.jpg","5","","","","","","","","","","","","","","","","","","","","","","","","",""
"1033","","image-button-response","225","1487115","0.0-221.0-0.0","APL91ALK40HL6","img_art/29.jpg","1","","","","","","","","","","","","","","","","","","","","","","","","",""
"null","","html-keyboard-response","226","1487617","0.0-222.0","APL91ALK40HL6","<p style=""font-size: 48px;"">+</p>","","","","","null","allTrialResponses","500","1","25","img_art/29.jpg","-50","random mess, nothing special","Caitlin,Cassidy,Cynthia,Autumn,Claire,Brittany","I would give up and give it a red X too.,-5,80,20","I like the colors but it looks very amateur,1,140,20","makes me feel busy and unorganized,4,320,20","It's too messy.,-25,340,20","interesting, but I wouldn't put it on my wall,8,260,20","It looks likes there's a lot going on, but they don't fit together.,2,40,20","Caitlin","I would give up and give it a red X too.,-5,80,20","Brittany","It looks likes there's a lot going on, but they don't fit together.,2,40,20","Cassidy","I like the colors but it looks very amateur,1,140,20","7"
"3235","","survey-text","227","1490877","0.0-223.0-0.0","APL91ALK40HL6","","","","{""Q0"":""table""}","","","","","","","","","","","","","","","","","","","","","","",""
"14902","","survey-text","228","1505780","0.0-224.0-0.0","APL91ALK40HL6","","","","{""Q0"":""colors are ok, would have been better without the green""}","","","","","","","","","","","","","","","","","","","","","","",""
"1170.7999999523163","","image-slider-response","229","1506953","0.0-225.0","APL91ALK40HL6","","","","","-25","","","","","","","","","","","","","","","","","","","","","",""
"null","","image-button-response","230","1511955","0.0-226.0","APL91ALK40HL6","img_art/27.jpg","null","","","","","","","","","","","","","","","","","","","","","","","","",""
"4911","","image-button-response","231","1516869","0.0-227.0","APL91ALK40HL6","img_art/27.jpg","0","","","","","","","","","","","","","","","","","","","","","","","","",""
"2039","","image-button-response","232","1518909","0.0-228.0-0.0","APL91ALK40HL6","img_art/27.jpg","0","","","","","","","","","","","","","","","","","","","","","","","","",""
"539","","image-button-response","233","1522599","0.0-228.1-0.1","APL91ALK40HL6","img_art/27.jpg","3","","","","","","","","","","","","","","","","","","","","","","","","",""
"657","","image-button-response","234","1523257","0.0-229.0-0.0","APL91ALK40HL6","img_art/27.jpg","5","","","","","","","","","","","","","","","","","","","","","","","","",""
"null","","html-keyboard-response","235","1524258","0.0-230.0","APL91ALK40HL6","<p style=""font-size: 48px;"">+</p>","","","","","null","allTrialResponses","1000","1","26","img_art/27.jpg","-25","colors are ok, would have been better without the green","Caitlin,Cassidy,Shannon,Jessica,Jacqueline,Brittany","Looks like a child added his own interpretation with a black marker.,-5,80,20","doesn't look like any effort was put into this piece.,-19,140,20","This image could do a better job of showing what is going on and it could use more colors.,-42,220,20","Don't get the point of this piece that much, but it doesn't bug me,1,400,20","I don't really see anything to this art.,-5,300,20","The colors are put together in an interesting way.,-9,40,20","Caitlin","Looks like a child added his own interpretation with a black marker.,-5,80,20","Jessica","Don't get the point of this piece that much, but it doesn't bug me,1,400,20","Brittany","The colors are put together in an interesting way.,-9,40,20","9"
"10388","","survey-text","236","1534661","0.0-231.0-0.0","APL91ALK40HL6","","","","{""Q0"":""too colorful, don't see the point""}","","","","","","","","","","","","","","","","","","","","","","",""
"2412.6999999284744","","image-slider-response","237","1537074","0.0-232.0","APL91ALK40HL6","","","","","-18","","","","","","","","","","","","","","","","","","","","","",""
"null","","image-button-response","238","1542077","0.0-233.0","APL91ALK40HL6","img_art/1.jpg","null","","","","","","","","","","","","","","","","","","","","","","","","",""
"723","","image-button-response","239","1542803","0.0-234.0","APL91ALK40HL6","img_art/1.jpg","2","","","","","","","","","","","","","","","","","","","","","","","","",""
"377","","image-button-response","240","1543181","0.0-235.0-0.0","APL91ALK40HL6","img_art/1.jpg","0","","","","","","","","","","","","","","","","","","","","","","","","",""
"4849","","image-button-response","241","1548031","0.0-236.0-0.0","APL91ALK40HL6","img_art/1.jpg","3","","","","","","","","","","","","","","","","","","","","","","","","",""
"null","","html-keyboard-response","242","1549532","0.0-237.0","APL91ALK40HL6","<p style=""font-size: 48px;"">+</p>","","","","","null","allTrialResponses","1500","1","27","img_art/1.jpg","-18","too colorful, don't see the point","Caitlin,Brianna,Allison,Jessica,Megan,Brittany","Deja vu. Haven't I seen this one before? Not bad for those living in the backwoods.,10,80,20","It's very colorful, and I like it,11,20,20","Messy mix of primary colors.,-10,140,20","Looks like the same thing as the last piece shown to me,10,400,20","Nice colors with some 3D effects,15,200,20","It reminds me of a sunset I once saw.,16,40,20","Allison","Messy mix of primary colors.,-10,140,20","Caitlin","Deja vu. Haven't I seen this one before? Not bad for those living in the backwoods.,10,80,20","Jessica","Looks like the same thing as the last piece shown to me,10,400,20","9"
"17221","","survey-text","243","1566767","0.0-238.0-0.0","APL91ALK40HL6","","","","{""Q0"":""very nice combination of colors, seems to have some sense of shadow and light""}","","","","","","","","","","","","","","","","","","","","","","",""
"1806.7999999523163","","image-slider-response","244","1568575","0.0-239.0","APL91ALK40HL6","","","","","50","","","","","","","","","","","","","","","","","","","","","",""
"null","","image-button-response","245","1573577","0.0-240.0","APL91ALK40HL6","img_art/17.jpg","null","","","","","","","","","","","","","","","","","","","","","","","","",""
"910","","image-button-response","246","1574489","0.0-241.0","APL91ALK40HL6","img_art/17.jpg","4","","","","","","","","","","","","","","","","","","","","","","","","",""
"277","","image-button-response","247","1574767","0.0-242.0-0.0","APL91ALK40HL6","img_art/17.jpg","3","","","","","","","","","","","","","","","","","","","","","","","","",""
"377","","image-button-response","248","1575145","0.0-243.0-0.0","APL91ALK40HL6","img_art/17.jpg","5","","","","","","","","","","","","","","","","","","","","","","","","",""
"null","","html-keyboard-response","249","1576147","0.0-244.0","APL91ALK40HL6","<p style=""font-size: 48px;"">+</p>","","","","","null","allTrialResponses","1000","1","28","img_art/17.jpg","50","very nice combination of colors, seems to have some sense of shadow and light","Caitlin,Chloe,Allison,Jessica,Dominique,Margaret","Somewhat should trim the tree branches at the shopping mall.,10,80,20","Pretty but a little cheesy,-10,220,20","Very washed out.,-10,140,20","The way they painted the trees is so cool.,27,400,20","Another favorite a relaxing day with nature a day to take it all In,34,400,20","gentle watercolor vibes,12,100,20","Dominique","Another favorite a relaxing day with nature a day to take it all In,34,400,20","Jessica","The way they painted the trees is so cool.,27,400,20","Margaret","gentle watercolor vibes,12,100,20","9"
"15670","","survey-text","250","1591833","0.0-245.0-0.0","APL91ALK40HL6","","","","{""Q0"":""like the ink technique, but very messy""}","","","","","","","","","","","","","","","","","","","","","","",""
"1990.7999999523163","","image-slider-response","251","1593825","0.0-246.0","APL91ALK40HL6","","","","","15","","","","","","","","","","","","","","","","","","","","","",""
"null","","image-button-response","252","1598831","0.0-247.0","APL91ALK40HL6","img_art/10.jpg","null","","","","","","","","","","","","","","","","","","","","","","","","",""
"2519","","image-button-response","253","1601353","0.0-248.0","APL91ALK40HL6","img_art/10.jpg","4","","","","","","","","","","","","","","","","","","","","","","","","",""
"1571","","image-button-response","254","1602925","0.0-249.0-0.0","APL91ALK40HL6","img_art/10.jpg","2","","","","","","","","","","","","","","","","","","","","","","","","",""
"532","","image-button-response","255","1603459","0.0-250.0-0.0","APL91ALK40HL6","img_art/10.jpg","0","","","","","","","","","","","","","","","","","","","","","","","","",""
"null","","html-keyboard-response","256","1603961","0.0-251.0","APL91ALK40HL6","<p style=""font-size: 48px;"">+</p>","","","","","null","allTrialResponses","500","1","29","img_art/10.jpg","15","like the ink technique, but very messy","Anna,Alexis,Heather,Jessica,Dominique,Margaret","I like how simple but intricate it is.,30,300,20","Too abstract and it doesn't really remind me of anything,-40,100,20","for some reason reminds me of music,2,260,20","I feel like this has a cool concept behind it.,11,400,20","A very conversational piece could be of many different ideas,38,400,20","I think this was going to be a guitar but then the artist got mad and gave up,-4,100,20","Dominique","A very conversational piece could be of many different ideas,38,400,20","Heather","for some reason reminds me of music,2,260,20","Anna","I like how simple but intricate it is.,30,300,20","9"
"15143","","survey-text","257","1619119","0.0-252.0-0.0","APL91ALK40HL6","","","","{""Q0"":""very interesting, like the combination of colors""}","","","","","","","","","","","","","","","","","","","","","","",""
"4646.600000023842","","image-slider-response","258","1623766","0.0-253.0","APL91ALK40HL6","","","","","50","","","","","","","","","","","","","","","","","","","","","",""
"null","","image-button-response","259","1628768","0.0-254.0","APL91ALK40HL6","img_art/11.jpg","null","","","","","","","","","","","","","","","","","","","","","","","","",""
"1099","","image-button-response","260","1629871","0.0-255.0","APL91ALK40HL6","img_art/11.jpg","0","","","","","","","","","","","","","","","","","","","","","","","","",""
"1283","","image-button-response","261","1631155","0.0-256.0-0.0","APL91ALK40HL6","img_art/11.jpg","2","","","","","","","","","","","","","","","","","","","","","","","","",""
"2250","","image-button-response","262","1633407","0.0-257.0-0.0","APL91ALK40HL6","img_art/11.jpg","4","","","","","","","","","","","","","","","","","","","","","","","","",""
"null","","html-keyboard-response","263","1633915","0.0-258.0","APL91ALK40HL6","<p style=""font-size: 48px;"">+</p>","","","","","null","allTrialResponses","500","1","30","img_art/11.jpg","50","very interesting, like the combination of colors","Anna,Jamie,Heather,Victoria,Dominique,Natalie","It makes me think of a coastal sea town.,50,300,20","Looks like a cityscape,25,320,20","looks like highways and homes and lives intertwining.,27,260,20","reminds me of a rainy day in the city,32,400,20","Looks like a familiar area,31,400,20","pic looks alright,8,400,20","Anna","It makes me think of a coastal sea town.,50,300,20","Heather","looks like highways and homes and lives intertwining.,27,260,20","Dominique","Looks like a familiar area,31,400,20","9"
"38328","","image-button-response_instructions","264","1672258","0.0-259.0","APL91ALK40HL6","","0","instructions","","","","","","","","","","","","","","","","","","","","","","","",""
"1384","","image-button-response","265","1673647","0.0-260.0","APL91ALK40HL6","","0","","","","","","","","","","","","","","","","","","","","","","","","",""
