"rt","url","trial_type","trial_index","time_elapsed","internal_node_id","participant_id","stimulus","button_pressed","Name","responses","response","key_press","variableName","fixationTime","condition","trial","photo","subjectRating","subjectResponse","agentsNames","agent_1_Response","agent_2_Response","agent_3_Response","agent_4_Response","agent_5_Response","agent_6_Response","kept_1_name","kept_1_response","kept_2_name","kept_2_response","kept_3_name","kept_3_response","errorCounter"
"33003","external_page_harvard.html","external-html","0","33380","0.0-0.0","APU5AAZWI18EY","","","","","","","","","","","","","","","","","","","","","","","","","","",""
"2871","","image-button-response","1","36255","0.0-1.0","APU5AAZWI18EY","","1","","","","","","","","","","","","","","","","","","","","","","","","",""
"1992","","image-button-response","2","38269","0.0-2.0-0.0","APU5AAZWI18EY","","1","phone","","","","","","","","","","","","","","","","","","","","","","","",""
"16257","","survey-text","3","54542","0.0-3.0-0.0","APU5AAZWI18EY","","","","{""Q0"":""APU5AAZWI18EY""}","","","","","","","","","","","","","","","","","","","","","","",""
"22266","","image-button-response_instructions","4","76815","0.0-4.0","APU5AAZWI18EY","","0","instructions","","","","","","","","","","","","","","","","","","","","","","","",""
"293554","","image-button-response_instructions","5","370373","0.0-5.0","APU5AAZWI18EY","img_art/ins/popularity/ins1.png","0","instructions","","","","","","","","","","","","","","","","","","","","","","","",""
"4335","","image-button-response_instructions","6","374712","0.0-6.0","APU5AAZWI18EY","img_art/ins/popularity/ins2.png","0","instructions","","","","","","","","","","","","","","","","","","","","","","","",""
"4103","","image-button-response_instructions","7","378830","0.0-7.0","APU5AAZWI18EY","img_art/ins/popularity/ins2Extreme.png","0","instructions","","","","","","","","","","","","","","","","","","","","","","","",""
"7440","","image-button-response_instructions","8","386289","0.0-8.0","APU5AAZWI18EY","img_art/ins/popularity/ins3KEEPpop.PNG","0","instructions","","","","","","","","","","","","","","","","","","","","","","","",""
"4996","","image-button-response_instructions","9","391288","0.0-9.0","APU5AAZWI18EY","img_art/ins/popularity/ins3ANamepop.PNG","0","instructions","","","","","","","","","","","","","","","","","","","","","","","",""
"2734","","image-button-response_instructions","10","394030","0.0-10.0","APU5AAZWI18EY","img_art/ins/popularity/ins3ARatingpop.png","0","instructions","","","","","","","","","","","","","","","","","","","","","","","",""
"2444","","image-button-response_instructions","11","396492","0.0-11.0","APU5AAZWI18EY","img_art/ins/popularity/ins3ATextpop.png","0","instructions","","","","","","","","","","","","","","","","","","","","","","","",""
"4970","","image-button-response_instructions","12","401467","0.0-12.0","APU5AAZWI18EY","img_art/ins/popularity/ins3ALikespop.png","0","instructions","","","","","","","","","","","","","","","","","","","","","","","",""
"5553","","image-button-response_instructions","13","407022","0.0-13.0","APU5AAZWI18EY","img_art/ins/popularity/ins3KEEPpop.PNG","0","instructions","","","","","","","","","","","","","","","","","","","","","","","",""
"13961","","image-button-response_instructions","14","420997","0.0-14.0","APU5AAZWI18EY","img_art/ins/popularity/ins3_5RED.png","0","instructions","","","","","","","","","","","","","","","","","","","","","","","",""
"1006","","image-button-response_instructions","15","422007","0.0-15.0","APU5AAZWI18EY","img_art/ins/popularity/ins3KEEPpop.PNG","0","instructions","","","","","","","","","","","","","","","","","","","","","","","",""
"1330","","image-button-response_instructions","16","423351","0.0-16.0","APU5AAZWI18EY","img_art/ins/popularity/ins4KEEPpop.PNG","0","instructions","","","","","","","","","","","","","","","","","","","","","","","",""
"554","","image-button-response_instructions","17","423909","0.0-17.0","APU5AAZWI18EY","img_art/ins/popularity/ins5KEEPpop.PNG","0","instructions","","","","","","","","","","","","","","","","","","","","","","","",""
"243","","image-button-response_instructions","18","424154","0.0-18.0","APU5AAZWI18EY","","0","instructions","","","","","","","","","","","","","","","","","","","","","","","",""
"11809","","survey-text","19","436013","0.0-19.0-0.0","APU5AAZWI18EY","","","","{""Q0"":""but""}","","","","","","","","","","","","","","","","","","","","","","",""
"20246","","survey-text","20","456271","0.0-20.0-0.0","APU5AAZWI18EY","","","","{""Q0"":""Nasty painting""}","","","","","","","","","","","","","","","","","","","","","","",""
"3840","","image-slider-response","21","460121","0.0-21.0","APU5AAZWI18EY","","","","","41","","","","","","","","","","","","","","","","","","","","","",""
"4417","","image-button-response","22","465136","0.0-22.0","APU5AAZWI18EY","img_art/ins/1.jpg","0","","","","","","","","","","","","","","","","","","","","","","","","",""
"1071","","image-button-response","23","466214","0.0-23.0","APU5AAZWI18EY","img_art/ins/1.jpg","2","","","","","","","","","","","","","","","","","","","","","","","","",""
"4040","","image-button-response","24","470272","0.0-24.0-0.0","APU5AAZWI18EY","img_art/ins/1.jpg","5","","","","","","","","","","","","","","","","","","","","","","","","",""
"3308","","image-button-response","25","473591","0.0-25.0-0.0","APU5AAZWI18EY","img_art/ins/1.jpg","4","","","","","","","","","","","","","","","","","","","","","","","","",""
"null","","html-keyboard-response","26","474096","0.0-26.0","APU5AAZWI18EY","<p style=""font-size: 48px;"">+</p>","","","","","null","allTrialResponses","500","1","-2","img_art/ins/1.jpg","41","Nasty painting","Allison,Ashley,Beth,Dora,Erika,Jen","looks like a lot of things going on in the mist,20,20,20","I just don't get why these type of art would be popular,-32,40,20","This color reminds me of poo,-46,60,20","looks like what my niece in 3rd grade did this afternoon,-50,80,20","I like the sophisticated brushwork,40,100,20","It reminds me of a candy land dream I had,36,120,20","Beth","This color reminds me of poo,-46,60,20","Jen","It reminds me of a candy land dream I had,36,120,20","Erika","I like the sophisticated brushwork,40,100,20","0"
"36086","","survey-text","27","510201","0.0-27.0-0.0","APU5AAZWI18EY","","","","{""Q0"":""This is like nasty painting.""}","","","","","","","","","","","","","","","","","","","","","","",""
"6105","","image-slider-response","28","516313","0.0-28.0","APU5AAZWI18EY","","","","","35","","","","","","","","","","","","","","","","","","","","","",""
"2924","","image-button-response","29","521321","0.0-29.0","APU5AAZWI18EY","img_art/ins/2.jpg","1","","","","","","","","","","","","","","","","","","","","","","","","",""
"744","","image-button-response","30","522072","0.0-30.0","APU5AAZWI18EY","img_art/ins/2.jpg","1","","","","","","","","","","","","","","","","","","","","","","","","",""
"2642","","image-button-response","31","524716","0.0-31.0-0.0","APU5AAZWI18EY","img_art/ins/2.jpg","0","","","","","","","","","","","","","","","","","","","","","","","","",""
"2147","","image-button-response","32","526874","0.0-32.0-0.0","APU5AAZWI18EY","img_art/ins/2.jpg","3","","","","","","","","","","","","","","","","","","","","","","","","",""
"null","","html-keyboard-response","33","528377","0.0-33.0","APU5AAZWI18EY","<p style=""font-size: 48px;"">+</p>","","","","","null","allTrialResponses","1500","1","-1","img_art/ins/2.jpg","35","This is like nasty painting.","Katie,Kara,Beth,Jenna,Erika,Jen","too much color!,-28,180,20","I like the blocks of color arrangements,30,160,20","meaningless painting,-45,60,20","One of my pet peevs,-48,140,20","I would never be able to compose a sophisticated pallete like this,48,100,20","It reminds me of a fireplace,36,120,20","Kara","I like the blocks of color arrangements,30,160,20","Katie","too much color!,-28,180,20","Jenna","One of my pet peevs,-48,140,20","0"
"7074","","survey-text","34","535467","0.0-34.0-0.0","APU5AAZWI18EY","","","","{""Q0"":""This is like nasty painting.""}","","","","","","","","","","","","","","","","","","","","","","",""
"3238","","image-slider-response","35","538724","0.0-35.0","APU5AAZWI18EY","","","","","29","","","","","","","","","","","","","","","","","","","","","",""
"3006","","image-button-response","36","543732","0.0-36.0","APU5AAZWI18EY","img_art/ins/3.jpg","2","","","","","","","","","","","","","","","","","","","","","","","","",""
"725","","image-button-response","37","544480","0.0-37.0","APU5AAZWI18EY","img_art/ins/3.jpg","2","","","","","","","","","","","","","","","","","","","","","","","","",""
"2701","","image-button-response","38","547192","0.0-38.0-0.0","APU5AAZWI18EY","img_art/ins/3.jpg","1","","","","","","","","","","","","","","","","","","","","","","","","",""
"4999","","image-button-response","39","552205","0.0-39.0-0.0","APU5AAZWI18EY","img_art/ins/3.jpg","4","","","","","","","","","","","","","","","","","","","","","","","","",""
"null","","html-keyboard-response","40","553211","0.0-40.0","APU5AAZWI18EY","<p style=""font-size: 48px;"">+</p>","","","","","null","allTrialResponses","1000","1","0","img_art/ins/3.jpg","29","This is like nasty painting.","Katie,Kara,Leslie,Jenna,Mary,Rose","It looks depressing,-26,180,20","calming blue is very nice,36,160,20","It's an alright work,15,200,20","looks like a murder room,-35,140,20","I like the overlapping of brushes,41,220,20","My daily routine, it's depressing,-20,240,20","Leslie","It's an alright work,15,200,20","Kara","calming blue is very nice,36,160,20","Mary","I like the overlapping of brushes,41,220,20","0"
"8896","","image-button-response_instructions","41","562119","0.0-41.0","APU5AAZWI18EY","","0","instructions","","","","","","","","","","","","","","","","","","","","","","","",""
"17829","","survey-likert","42","579952","0.0-42.0-0.0","APU5AAZWI18EY","","","","{""Q0"":"""",""Q1"":1,""Q2"":1}","","","","","","","","","","","","","","","","","","","","","","",""
"4778","","survey-likert","43","587115","0.0-42.1-0.1","APU5AAZWI18EY","","","","{""Q0"":"""",""Q1"":1,""Q2"":0}","","","","","","","","","","","","","","","","","","","","","","",""
"7598","","survey-likert","44","596313","0.0-42.2-0.2","APU5AAZWI18EY","","","","{""Q0"":"""",""Q1"":0,""Q2"":1}","","","","","","","","","","","","","","","","","","","","","","",""
"6107","","survey-text","45","602429","0.0-43.0-0.0","APU5AAZWI18EY","","","","{""Q0"":""rock""}","","","","","","","","","","","","","","","","","","","","","","",""
"105859","","survey-text","46","708302","0.0-44.0-0.0","APU5AAZWI18EY","","","","{""Q0"":""The color segment was nice.""}","","","","","","","","","","","","","","","","","","","","","","",""
"4295","","image-slider-response","47","712612","0.0-45.0","APU5AAZWI18EY","","","","","31","","","","","","","","","","","","","","","","","","","","","",""
"null","","image-button-response","48","717706","0.0-46.0","APU5AAZWI18EY","img_art/13.jpg","null","","","","","","","","","","","","","","","","","","","","","","","","",""
"1674","","image-button-response","49","719392","0.0-47.0","APU5AAZWI18EY","img_art/13.jpg","3","","","","","","","","","","","","","","","","","","","","","","","","",""
"784","","image-button-response","50","720194","0.0-48.0-0.0","APU5AAZWI18EY","img_art/13.jpg","4","","","","","","","","","","","","","","","","","","","","","","","","",""
"1040","","image-button-response","51","721243","0.0-49.0-0.0","APU5AAZWI18EY","img_art/13.jpg","5","","","","","","","","","","","","","","","","","","","","","","","","",""
"null","","html-keyboard-response","52","722247","0.0-50.0","APU5AAZWI18EY","<p style=""font-size: 48px;"">+</p>","","","","","null","allTrialResponses","1000","1","1","img_art/13.jpg","31","The color segment was nice.","Kristen,Cheyenne,Alyssa,Natalie,Angela,Amber","happy, serenity,30,280,20","Like how realistic it looks.,33,200,20","Pretty and it reminds me of rain droplets running down a window on a rainy day.,40,160,20","I like the colors,7,400,20","It's okay. Feels like a blander take on a Jackson Pollack,11,260,20","Reminds me of rain running down a window.,35,200,20","Natalie","I like the colors,7,400,20","Angela","It's okay. Feels like a blander take on a Jackson Pollack,11,260,20","Amber","Reminds me of rain running down a window.,35,200,20","2"
"28892","","survey-text","53","751172","0.0-51.0-0.0","APU5AAZWI18EY","","","","{""Q0"":""The color segments are nice.""}","","","","","","","","","","","","","","","","","","","","","","",""
"5710","","image-slider-response","54","756896","0.0-52.0","APU5AAZWI18EY","","","","","49","","","","","","","","","","","","","","","","","","","","","",""
"null","","image-button-response","55","761899","0.0-53.0","APU5AAZWI18EY","img_art/6.jpg","null","","","","","","","","","","","","","","","","","","","","","","","","",""
"966","","image-button-response","56","762868","0.0-54.0","APU5AAZWI18EY","img_art/6.jpg","2","","","","","","","","","","","","","","","","","","","","","","","","",""
"1370","","image-button-response","57","764252","0.0-55.0-0.0","APU5AAZWI18EY","img_art/6.jpg","0","","","","","","","","","","","","","","","","","","","","","","","","",""
"1921","","image-button-response","58","766191","0.0-56.0-0.0","APU5AAZWI18EY","img_art/6.jpg","0","","","","","","","","","","","","","","","","","","","","","","","","",""
"2916","","image-button-response","59","774672","0.0-56.1-0.1","APU5AAZWI18EY","img_art/6.jpg","1","","","","","","","","","","","","","","","","","","","","","","","","",""
"null","","html-keyboard-response","60","775185","0.0-57.0","APU5AAZWI18EY","<p style=""font-size: 48px;"">+</p>","","","","","null","allTrialResponses","500","1","2","img_art/6.jpg","49","The color segments are nice.","Shannon,Savannah,Chloe,Natalie,Angela,Amber","I can't tell what this image is, but it's boring because of lack of color variety and nothing in it,-41,220,20","Despite how simple it is, this piece has clear meaning.,34,200,20","Cute and evocative,11,220,20","reminds me a giant peach,19,400,20","I like the orange color, and I don't know why but I like this piece.,22,260,20","Something very simplistic about it. The colors mesh well.,10,200,20","Chloe","Cute and evocative,11,220,20","Shannon","I can't tell what this image is, but it's boring because of lack of color variety and nothing in it,-41,220,20","Savannah","Despite how simple it is, this piece has clear meaning.,34,200,20","4"
"7276","","survey-text","61","782471","0.0-58.0-0.0","APU5AAZWI18EY","","","","{""Q0"":""This is like nasty painting.""}","","","","","","","","","","","","","","","","","","","","","","",""
"3435","","image-slider-response","62","785912","0.0-59.0","APU5AAZWI18EY","","","","","-21","","","","","","","","","","","","","","","","","","","","","",""
"3576","","image-button-response","63","790929","0.0-60.0","APU5AAZWI18EY","img_art/9.jpg","2","","","","","","","","","","","","","","","","","","","","","","","","",""
"933","","image-button-response","64","791880","0.0-61.0","APU5AAZWI18EY","img_art/9.jpg","1","","","","","","","","","","","","","","","","","","","","","","","","",""
"985","","image-button-response","65","792873","0.0-62.0-0.0","APU5AAZWI18EY","img_art/9.jpg","2","","","","","","","","","","","","","","","","","","","","","","","","",""
"2600","","image-button-response","66","795492","0.0-63.0-0.0","APU5AAZWI18EY","img_art/9.jpg","3","","","","","","","","","","","","","","","","","","","","","","","","",""
"null","","html-keyboard-response","67","797009","0.0-64.0","APU5AAZWI18EY","<p style=""font-size: 48px;"">+</p>","","","","","null","allTrialResponses","1500","1","3","img_art/9.jpg","-21","This is like nasty painting.","Shannon,Savannah,Chloe,Taylor,Destiny,Elizabeth","This looks like someone sleeping in a bed, and I think the colors make it look interesting.,20,220,20","Unfinished, weird composition.,-34,200,20","Cheesy. Looks unprofessional,-20,220,20","The peacock theme gives me negative connotations of my ex-sister-in-law,-10,340,20","is that sleeping beauty,33,360,20","Love the uniqueness,21,20,20","Savannah","Unfinished, weird composition.,-34,200,20","Chloe","Cheesy. Looks unprofessional,-20,220,20","Taylor","The peacock theme gives me negative connotations of my ex-sister-in-law,-10,340,20","4"
"25962","","survey-text","68","822995","0.0-65.0-0.0","APU5AAZWI18EY","","","","{""Q0"":""This is like nasty painting.""}","","","","","","","","","","","","","","","","","","","","","","",""
"3450","","image-slider-response","69","826464","0.0-66.0","APU5AAZWI18EY","","","","","48","","","","","","","","","","","","","","","","","","","","","",""
"2586","","image-button-response","70","831478","0.0-67.0","APU5AAZWI18EY","img_art/23.jpg","5","","","","","","","","","","","","","","","","","","","","","","","","",""
"700","","image-button-response","71","832184","0.0-68.0","APU5AAZWI18EY","img_art/23.jpg","5","","","","","","","","","","","","","","","","","","","","","","","","",""
"3791","","image-button-response","72","835980","0.0-69.0-0.0","APU5AAZWI18EY","img_art/23.jpg","2","","","","","","","","","","","","","","","","","","","","","","","","",""
"1018","","image-button-response","73","837013","0.0-70.0-0.0","APU5AAZWI18EY","img_art/23.jpg","1","","","","","","","","","","","","","","","","","","","","","","","","",""
"null","","html-keyboard-response","74","838024","0.0-71.0","APU5AAZWI18EY","<p style=""font-size: 48px;"">+</p>","","","","","null","allTrialResponses","1000","1","4","img_art/23.jpg","48","This is like nasty painting.","Amanda,Savannah,Chloe,Taylor,Kimberly,Andrea","One of my favorites, love the colors and how the white looks like humans,50,180,20","Very colorful. Nice contrasts.,26,200,20","Poster shop camp.,-40,220,20","The color contrast makes me happy,40,340,20","Look at all the dancers,26,260,20","I see souls in torment and that makes me feel uneasy.,-21,240,20","Andrea","I see souls in torment and that makes me feel uneasy.,-21,240,20","Chloe","Poster shop camp.,-40,220,20","Savannah","Very colorful. Nice contrasts.,26,200,20","4"
"9989","","survey-text","75","848028","0.0-72.0-0.0","APU5AAZWI18EY","","","","{""Q0"":""This is like nasty painting.""}","","","","","","","","","","","","","","","","","","","","","","",""
"3227","","image-slider-response","76","851261","0.0-73.0","APU5AAZWI18EY","","","","","50","","","","","","","","","","","","","","","","","","","","","",""
"2417","","image-button-response","77","856266","0.0-74.0","APU5AAZWI18EY","img_art/20.jpg","4","","","","","","","","","","","","","","","","","","","","","","","","",""
"1173","","image-button-response","78","857453","0.0-75.0","APU5AAZWI18EY","img_art/20.jpg","4","","","","","","","","","","","","","","","","","","","","","","","","",""
"3066","","image-button-response","79","860535","0.0-76.0-0.0","APU5AAZWI18EY","img_art/20.jpg","2","","","","","","","","","","","","","","","","","","","","","","","","",""
"4216","","image-button-response","80","864775","0.0-77.0-0.0","APU5AAZWI18EY","img_art/20.jpg","5","","","","","","","","","","","","","","","","","","","","","","","","",""
"null","","html-keyboard-response","81","865289","0.0-78.0","APU5AAZWI18EY","<p style=""font-size: 48px;"">+</p>","","","","","null","allTrialResponses","500","1","5","img_art/20.jpg","50","This is like nasty painting.","Alicia,Savannah,Chloe,Crystal,Shelby,Andrea","Very cool, and calming (again) Love it.,47,120,20","Lovely composition, colors, and message.,35,200,20","Mood setting if a little dreary,20,220,20","The pulling and sagging nature is very beautiful.,30,300,20","Makes me think if a car crash or some sort of disaster,-20,240,20","Reminds me of persistance of time (a favorite of mine).,30,240,20","Shelby","Makes me think if a car crash or some sort of disaster,-20,240,20","Chloe","Mood setting if a little dreary,20,220,20","Andrea","Reminds me of persistance of time (a favorite of mine).,30,240,20","4"
"8502","","survey-text","82","873812","0.0-79.0-0.0","APU5AAZWI18EY","","","","{""Q0"":""sky""}","","","","","","","","","","","","","","","","","","","","","","",""
"14521","","survey-text","83","888344","0.0-80.0-0.0","APU5AAZWI18EY","","","","{""Q0"":""This is like nasty painting.""}","","","","","","","","","","","","","","","","","","","","","","",""
"7141","","image-slider-response","84","895505","0.0-81.0","APU5AAZWI18EY","","","","","50","","","","","","","","","","","","","","","","","","","","","",""
"4607","","image-button-response","85","900524","0.0-82.0","APU5AAZWI18EY","img_art/30.jpg","3","","","","","","","","","","","","","","","","","","","","","","","","",""
"1744","","image-button-response","86","902274","0.0-83.0","APU5AAZWI18EY","img_art/30.jpg","3","","","","","","","","","","","","","","","","","","","","","","","","",""
"2661","","image-button-response","87","904949","0.0-84.0-0.0","APU5AAZWI18EY","img_art/30.jpg","5","","","","","","","","","","","","","","","","","","","","","","","","",""
"2145","","image-button-response","88","907114","0.0-85.0-0.0","APU5AAZWI18EY","img_art/30.jpg","2","","","","","","","","","","","","","","","","","","","","","","","","",""
"null","","html-keyboard-response","89","907633","0.0-86.0","APU5AAZWI18EY","<p style=""font-size: 48px;"">+</p>","","","","","null","allTrialResponses","500","1","6","img_art/30.jpg","50","This is like nasty painting.","Grace,Madeline,Chloe,Alexis,Shelby,Andrea","A little too dull. Would've liked brighter colors. Also looks washed out.,1,180,20","A bit haphazard looking and lacking in vision,2,40,20","Muddy, sloppy, unprofessional,-44,220,20","Too abstract, looks like something I could paint,-50,100,20","It's pleasent but otherwise unprovoking,8,240,20","It feels like graffiti and the dark colors do nothing for the mood.,-5,240,20","Alexis","Too abstract, looks like something I could paint,-50,100,20","Andrea","It feels like graffiti and the dark colors do nothing for the mood.,-5,240,20","Chloe","Muddy, sloppy, unprofessional,-44,220,20","4"
"12657","","survey-text","90","920307","0.0-87.0-0.0","APU5AAZWI18EY","","","","{""Q0"":""This is like nasty painting.""}","","","","","","","","","","","","","","","","","","","","","","",""
"3416","","image-slider-response","91","923738","0.0-88.0","APU5AAZWI18EY","","","","","50","","","","","","","","","","","","","","","","","","","","","",""
"4757","","image-button-response","92","928760","0.0-89.0","APU5AAZWI18EY","img_art/11.jpg","3","","","","","","","","","","","","","","","","","","","","","","","","",""
"794","","image-button-response","93","929560","0.0-90.0","APU5AAZWI18EY","img_art/11.jpg","3","","","","","","","","","","","","","","","","","","","","","","","","",""
"2035","","image-button-response","94","931600","0.0-91.0-0.0","APU5AAZWI18EY","img_art/11.jpg","1","","","","","","","","","","","","","","","","","","","","","","","","",""
"995","","image-button-response","95","932614","0.0-92.0-0.0","APU5AAZWI18EY","img_art/11.jpg","2","","","","","","","","","","","","","","","","","","","","","","","","",""
"null","","html-keyboard-response","96","933617","0.0-93.0","APU5AAZWI18EY","<p style=""font-size: 48px;"">+</p>","","","","","null","allTrialResponses","1000","1","7","img_art/11.jpg","50","This is like nasty painting.","Nicole,Brittany,Chloe,Alexis,Autumn,Andrea","Those vertical strokes are to die for and I love these colors !!!,50,20,20","It reminds me of telephone wires.,1,40,20","Like the movement but not the background colors.,21,220,20","Don't like cityscapes, which this picture reminds me of,-29,100,20","Good but not eye catching,14,340,20","My initial thought was roller coasters but I see ship masts on a cloudy day too.,35,240,20","Alexis","Don't like cityscapes, which this picture reminds me of,-29,100,20","Brittany","It reminds me of telephone wires.,1,40,20","Chloe","Like the movement but not the background colors.,21,220,20","4"
"30224","","survey-text","97","963853","0.0-94.0-0.0","APU5AAZWI18EY","","","","{""Q0"":""The color segment was nice.""}","","","","","","","","","","","","","","","","","","","","","","",""
"3410","","image-slider-response","98","967267","0.0-95.0","APU5AAZWI18EY","","","","","50","","","","","","","","","","","","","","","","","","","","","",""
"null","","image-button-response","99","972272","0.0-96.0","APU5AAZWI18EY","img_art/7.jpg","null","","","","","","","","","","","","","","","","","","","","","","","","",""
"1398","","image-button-response","100","973676","0.0-97.0","APU5AAZWI18EY","img_art/7.jpg","3","","","","","","","","","","","","","","","","","","","","","","","","",""
"1857","","image-button-response","101","975538","0.0-98.0-0.0","APU5AAZWI18EY","img_art/7.jpg","1","","","","","","","","","","","","","","","","","","","","","","","","",""
"1002","","image-button-response","102","976543","0.0-99.0-0.0","APU5AAZWI18EY","img_art/7.jpg","0","","","","","","","","","","","","","","","","","","","","","","","","",""
"null","","html-keyboard-response","103","977055","0.0-100.0","APU5AAZWI18EY","<p style=""font-size: 48px;"">+</p>","","","","","null","allTrialResponses","500","1","8","img_art/7.jpg","50","The color segment was nice.","Alexa,Brittany,Chloe,Alexis,Cassidy,Gabriela","Not a fan of the pattern or colors,-40,40,20","It looks like a wall, not really something I'd enjoy looking at.,-12,40,20","Like the tactile quality,30,220,20","Looks like bad wallpaper,-29,100,20","I like the texture,12,140,20","it looks like an ant farm,12,140,20","Alexis","Looks like bad wallpaper,-29,100,20","Brittany","It looks like a wall, not really something I'd enjoy looking at.,-12,40,20","Alexa","Not a fan of the pattern or colors,-40,40,20","4"
"6302","","survey-text","104","983366","0.0-101.0-0.0","APU5AAZWI18EY","","","","{""Q0"":""This is like nasty painting.""}","","","","","","","","","","","","","","","","","","","","","","",""
"3416","","image-slider-response","105","986785","0.0-102.0","APU5AAZWI18EY","","","","","49","","","","","","","","","","","","","","","","","","","","","",""
"3697","","image-button-response","106","991802","0.0-103.0","APU5AAZWI18EY","img_art/1.jpg","5","","","","","","","","","","","","","","","","","","","","","","","","",""
"696","","image-button-response","107","992509","0.0-104.0","APU5AAZWI18EY","img_art/1.jpg","5","","","","","","","","","","","","","","","","","","","","","","","","",""
"2357","","image-button-response","108","994879","0.0-105.0-0.0","APU5AAZWI18EY","img_art/1.jpg","4","","","","","","","","","","","","","","","","","","","","","","","","",""
"4045","","image-button-response","109","998937","0.0-106.0-0.0","APU5AAZWI18EY","img_art/1.jpg","3","","","","","","","","","","","","","","","","","","","","","","","","",""
"null","","html-keyboard-response","110","999445","0.0-107.0","APU5AAZWI18EY","<p style=""font-size: 48px;"">+</p>","","","","","null","allTrialResponses","500","1","9","img_art/1.jpg","49","This is like nasty painting.","Alexa,Brittany,Jennifer,Alexis,Catherine,Jasmine","The blend of colors are gorgeous and reminds me of fall,32,40,20","It reminds me of a sunset I once saw.,16,40,20","Bright and colorful without being overpowering,32,380,20","Taco Bell wallpaper. Doesn't really make me feel anything,3,100,20","confused,animal like brain fog,0,160,20","Too similar to some of the other pieces,-18,340,20","Jasmine","Too similar to some of the other pieces,-18,340,20","Catherine","confused,animal like brain fog,0,160,20","Alexis","Taco Bell wallpaper. Doesn't really make me feel anything,3,100,20","4"
"5597","","survey-text","111","1005077","0.0-108.0-0.0","APU5AAZWI18EY","","","","{""Q0"":""This is like nasty painting.""}","","","","","","","","","","","","","","","","","","","","","","",""
"5556","","image-slider-response","112","1010652","0.0-109.0","APU5AAZWI18EY","","","","","42","","","","","","","","","","","","","","","","","","","","","",""
"4757","","image-button-response","113","1015664","0.0-110.0","APU5AAZWI18EY","img_art/25.jpg","1","","","","","","","","","","","","","","","","","","","","","","","","",""
"998","","image-button-response","114","1016671","0.0-111.0","APU5AAZWI18EY","img_art/25.jpg","1","","","","","","","","","","","","","","","","","","","","","","","","",""
"2113","","image-button-response","115","1018787","0.0-112.0-0.0","APU5AAZWI18EY","img_art/25.jpg","3","","","","","","","","","","","","","","","","","","","","","","","","",""
"1309","","image-button-response","116","1020116","0.0-113.0-0.0","APU5AAZWI18EY","img_art/25.jpg","5","","","","","","","","","","","","","","","","","","","","","","","","",""
"null","","html-keyboard-response","117","1021631","0.0-114.0","APU5AAZWI18EY","<p style=""font-size: 48px;"">+</p>","","","","","null","allTrialResponses","1500","1","10","img_art/25.jpg","42","This is like nasty painting.","Diana,Jessica,Julia,Alexis,Catherine,Jasmine","This piece feels cultural. Like it represents something culturally.,22,380,20","I really like how the lines form this piece.,8,400,20","the color is pleasing and draws out the contrast of the lines,10,40,20","Reminds me of cave drawings,21,100,20","culture, tradition. Village people with an honored elder.,40,160,20","I liked it as it seems unique in a way,21,340,20","Jessica","I really like how the lines form this piece.,8,400,20","Alexis","Reminds me of cave drawings,21,100,20","Jasmine","I liked it as it seems unique in a way,21,340,20","4"
"9872","","survey-text","118","1031523","0.0-115.0-0.0","APU5AAZWI18EY","","","","{""Q0"":""our""}","","","","","","","","","","","","","","","","","","","","","","",""
"8854","","survey-text","119","1040381","0.0-116.0-0.0","APU5AAZWI18EY","","","","{""Q0"":""This is like nasty painting.""}","","","","","","","","","","","","","","","","","","","","","","",""
"2477","","image-slider-response","120","1042863","0.0-117.0","APU5AAZWI18EY","","","","","-15","","","","","","","","","","","","","","","","","","","","","",""
"4184","","image-button-response","121","1047870","0.0-118.0","APU5AAZWI18EY","img_art/29.jpg","2","","","","","","","","","","","","","","","","","","","","","","","","",""
"900","","image-button-response","122","1048782","0.0-119.0","APU5AAZWI18EY","img_art/29.jpg","1","","","","","","","","","","","","","","","","","","","","","","","","",""
"803","","image-button-response","123","1049602","0.0-120.0-0.0","APU5AAZWI18EY","img_art/29.jpg","0","","","","","","","","","","","","","","","","","","","","","","","","",""
"1995","","image-button-response","124","1051604","0.0-121.0-0.0","APU5AAZWI18EY","img_art/29.jpg","4","","","","","","","","","","","","","","","","","","","","","","","","",""
"null","","html-keyboard-response","125","1053109","0.0-122.0","APU5AAZWI18EY","<p style=""font-size: 48px;"">+</p>","","","","","null","allTrialResponses","1500","1","11","img_art/29.jpg","-15","This is like nasty painting.","Megan,Jessica,Claire,Alexis,Haley,Jasmine","Pinball meets a dark dream meets whale alien, drab,13,200,20","It looks cool but I don't really get what's going on, it looks too busy,0,400,20","interesting, but I wouldn't put it on my wall,8,260,20","The black color is great, but I'm really not a fan of this hectic style,-40,100,20","Looks messy, but not in appealing way,-20,220,20","I like the usage of blacks and greys in this,8,340,20","Jessica","It looks cool but I don't really get what's going on, it looks too busy,0,400,20","Megan","Pinball meets a dark dream meets whale alien, drab,13,200,20","Haley","Looks messy, but not in appealing way,-20,220,20","4"
"20475","","survey-text","126","1073607","0.0-123.0-0.0","APU5AAZWI18EY","","","","{""Q0"":""This looks awesome.""}","","","","","","","","","","","","","","","","","","","","","","",""
"4415","","image-slider-response","127","1078027","0.0-124.0","APU5AAZWI18EY","","","","","50","","","","","","","","","","","","","","","","","","","","","",""
"2449","","image-button-response","128","1083032","0.0-125.0","APU5AAZWI18EY","img_art/16.jpg","4","","","","","","","","","","","","","","","","","","","","","","","","",""
"474","","image-button-response","129","1083512","0.0-126.0","APU5AAZWI18EY","img_art/16.jpg","5","","","","","","","","","","","","","","","","","","","","","","","","",""
"977","","image-button-response","130","1084493","0.0-127.0-0.0","APU5AAZWI18EY","img_art/16.jpg","4","","","","","","","","","","","","","","","","","","","","","","","","",""
"2066","","image-button-response","131","1086563","0.0-128.0-0.0","APU5AAZWI18EY","img_art/16.jpg","2","","","","","","","","","","","","","","","","","","","","","","","","",""
"null","","html-keyboard-response","132","1087066","0.0-129.0","APU5AAZWI18EY","<p style=""font-size: 48px;"">+</p>","","","","","null","allTrialResponses","500","1","12","img_art/16.jpg","50","This looks awesome.","Megan,Jessica,Gabrielle,Mackenzie,Haley,Rebecca","Ugly, broken up and mismatched,-50,200,20","Cool but the bear creeps me out?,8,400,20","nonsense art, not really art,-44,160,20","I like the mixture of images,23,20,20","Makes me want to know more,5,220,20","don't know how to feel, I mean I respect it but I honestly don't know about this,-12,100,20","Rebecca","don't know how to feel, I mean I respect it but I honestly don't know about this,-12,100,20","Haley","Makes me want to know more,5,220,20","Gabrielle","nonsense art, not really art,-44,160,20","4"
"5887","","survey-text","133","1092964","0.0-130.0-0.0","APU5AAZWI18EY","","","","{""Q0"":""This is like nasty painting.""}","","","","","","","","","","","","","","","","","","","","","","",""
"6367","","image-slider-response","134","1099343","0.0-131.0","APU5AAZWI18EY","","","","","-46","","","","","","","","","","","","","","","","","","","","","",""
"2953","","image-button-response","135","1104350","0.0-132.0","APU5AAZWI18EY","img_art/3.jpg","4","","","","","","","","","","","","","","","","","","","","","","","","",""
"685","","image-button-response","136","1105055","0.0-133.0","APU5AAZWI18EY","img_art/3.jpg","4","","","","","","","","","","","","","","","","","","","","","","","","",""
"14742","","image-button-response","137","1119802","0.0-134.0-0.0","APU5AAZWI18EY","img_art/3.jpg","3","","","","","","","","","","","","","","","","","","","","","","","","",""
"2014","","image-button-response","138","1121833","0.0-135.0-0.0","APU5AAZWI18EY","img_art/3.jpg","2","","","","","","","","","","","","","","","","","","","","","","","","",""
"null","","html-keyboard-response","139","1122850","0.0-136.0","APU5AAZWI18EY","<p style=""font-size: 48px;"">+</p>","","","","","null","allTrialResponses","1000","1","13","img_art/3.jpg","-46","This is like nasty painting.","Hailey,Morgan,Gabrielle,Rachel,Haley,Rebecca","painted by a 2 year old. cold and boring,-30,200,20","Somewhere between a child's art and a poorly drawn battle map.,8,380,20","7th grade art, not much effort to do this.,-39,160,20","Too red and chaotic. Not calming.,-41,80,20","Too messy and structure-less,-10,220,20","sorry do not understand,-26,100,20","Haley","Too messy and structure-less,-10,220,20","Rachel","Too red and chaotic. Not calming.,-41,80,20","Gabrielle","7th grade art, not much effort to do this.,-39,160,20","4"
"6221","","survey-text","140","1129092","0.0-137.0-0.0","APU5AAZWI18EY","","","","{""Q0"":""This is like nasty painting.""}","","","","","","","","","","","","","","","","","","","","","","",""
"3934","","image-slider-response","141","1133034","0.0-138.0","APU5AAZWI18EY","","","","","-33","","","","","","","","","","","","","","","","","","","","","",""
"3046","","image-button-response","142","1138056","0.0-139.0","APU5AAZWI18EY","img_art/4.jpg","4","","","","","","","","","","","","","","","","","","","","","","","","",""
"1121","","image-button-response","143","1139183","0.0-140.0","APU5AAZWI18EY","img_art/4.jpg","4","","","","","","","","","","","","","","","","","","","","","","","","",""
"1592","","image-button-response","144","1140784","0.0-141.0-0.0","APU5AAZWI18EY","img_art/4.jpg","5","","","","","","","","","","","","","","","","","","","","","","","","",""
"2565","","image-button-response","145","1143363","0.0-142.0-0.0","APU5AAZWI18EY","img_art/4.jpg","2","","","","","","","","","","","","","","","","","","","","","","","","",""
"null","","html-keyboard-response","146","1143867","0.0-143.0","APU5AAZWI18EY","<p style=""font-size: 48px;"">+</p>","","","","","null","allTrialResponses","500","1","14","img_art/4.jpg","-33","This is like nasty painting.","Alexandria,Leslie,Gabrielle,Rachel,Haley,Alexandra","it looks like a simple finger painting, yet i liked the color choices,-12,80,20","This elicits no reaction in me.,0,380,20","too childish, not really art in my world,-50,160,20","Not a huge fan of the color story, but it reminds me of a child finger-painting.,12,80,20","This image doesn't invoke anything in me,-9,220,20","This artwork looks like a child did it,-41,60,20","Haley","This image doesn't invoke anything in me,-9,220,20","Alexandra","This artwork looks like a child did it,-41,60,20","Gabrielle","too childish, not really art in my world,-50,160,20","4"
"5499","","survey-text","147","1149388","0.0-144.0-0.0","APU5AAZWI18EY","","","","{""Q0"":""This is like nasty painting.""}","","","","","","","","","","","","","","","","","","","","","","",""
"2556","","image-slider-response","148","1151948","0.0-145.0","APU5AAZWI18EY","","","","","-25","","","","","","","","","","","","","","","","","","","","","",""
"4836","","image-button-response","149","1156960","0.0-146.0","APU5AAZWI18EY","img_art/10.jpg","3","","","","","","","","","","","","","","","","","","","","","","","","",""
"1468","","image-button-response","150","1158435","0.0-147.0","APU5AAZWI18EY","img_art/10.jpg","3","","","","","","","","","","","","","","","","","","","","","","","","",""
"2912","","image-button-response","151","1161363","0.0-148.0-0.0","APU5AAZWI18EY","img_art/10.jpg","1","","","","","","","","","","","","","","","","","","","","","","","","",""
"1829","","image-button-response","152","1163203","0.0-149.0-0.0","APU5AAZWI18EY","img_art/10.jpg","2","","","","","","","","","","","","","","","","","","","","","","","","",""
"null","","html-keyboard-response","153","1164710","0.0-150.0","APU5AAZWI18EY","<p style=""font-size: 48px;"">+</p>","","","","","null","allTrialResponses","1500","1","15","img_art/10.jpg","-25","This is like nasty painting.","Cassandra,Kaitlin,Gabrielle,Chelsea,Haley,Alexandra","I liked it...it looked somewhat like a guitar.,32,120,20","awww... this looks very nice,32,60,20","interesting portrayal of a violin?,10,160,20","It looks intricate.,15,180,20","Makes me want to know more about it, and potentially the artist.,20,220,20","The longer I looked at this, the more I liked it,33,60,20","Chelsea","It looks intricate.,15,180,20","Kaitlin","awww... this looks very nice,32,60,20","Gabrielle","interesting portrayal of a violin?,10,160,20","4"
"11496","","survey-text","154","1176234","0.0-151.0-0.0","APU5AAZWI18EY","","","","{""Q0"":""course""}","","","","","","","","","","","","","","","","","","","","","","",""
"6681","","survey-text","155","1182921","0.0-152.0-0.0","APU5AAZWI18EY","","","","{""Q0"":""This is like nasty painting.""}","","","","","","","","","","","","","","","","","","","","","","",""
"10909","","image-slider-response","156","1193843","0.0-153.0","APU5AAZWI18EY","","","","","22","","","","","","","","","","","","","","","","","","","","","",""
"4190","","image-button-response","157","1198849","0.0-154.0","APU5AAZWI18EY","img_art/28.jpg","3","","","","","","","","","","","","","","","","","","","","","","","","",""
"435","","image-button-response","158","1199291","0.0-155.0","APU5AAZWI18EY","img_art/28.jpg","3","","","","","","","","","","","","","","","","","","","","","","","","",""
"728","","image-button-response","159","1200036","0.0-156.0-0.0","APU5AAZWI18EY","img_art/28.jpg","4","","","","","","","","","","","","","","","","","","","","","","","","",""
"2142","","image-button-response","160","1202198","0.0-157.0-0.0","APU5AAZWI18EY","img_art/28.jpg","1","","","","","","","","","","","","","","","","","","","","","","","","",""
"null","","html-keyboard-response","161","1202710","0.0-158.0","APU5AAZWI18EY","<p style=""font-size: 48px;"">+</p>","","","","","null","allTrialResponses","500","1","16","img_art/28.jpg","22","This is like nasty painting.","Caitlin,Kaitlin,Gabrielle,Chelsea,Mikayla,Vanessa","Bug meets bug in a dark alley.,-20,80,20","i'm not too impressed with this one.,-10,60,20","bland coloring but pattern interesting,2,160,20","It is too messy.,-38,180,20","It gives me weird vibes.,-25,300,20","It's such a blah piece and way too abstract.,-50,380,20","Chelsea","It is too messy.,-38,180,20","Mikayla","It gives me weird vibes.,-25,300,20","Kaitlin","i'm not too impressed with this one.,-10,60,20","4"
"5006","","survey-text","162","1207741","0.0-159.0-0.0","APU5AAZWI18EY","","","","{""Q0"":""This is like nasty painting.""}","","","","","","","","","","","","","","","","","","","","","","",""
"2569","","image-slider-response","163","1210340","0.0-160.0","APU5AAZWI18EY","","","","","22","","","","","","","","","","","","","","","","","","","","","",""
"null","","image-button-response","164","1215755","0.0-161.0","APU5AAZWI18EY","img_art/19.jpg","null","","","","","","","","","","","","","","","","","","","","","","","","",""
"11217","","image-button-response","165","1226976","0.0-162.0","APU5AAZWI18EY","img_art/19.jpg","3","","","","","","","","","","","","","","","","","","","","","","","","",""
"899","","image-button-response","166","1227889","0.0-163.0-0.0","APU5AAZWI18EY","img_art/19.jpg","4","","","","","","","","","","","","","","","","","","","","","","","","",""
"2372","","image-button-response","167","1230267","0.0-164.0-0.0","APU5AAZWI18EY","img_art/19.jpg","5","","","","","","","","","","","","","","","","","","","","","","","","",""
"null","","html-keyboard-response","168","1231289","0.0-165.0","APU5AAZWI18EY","<p style=""font-size: 48px;"">+</p>","","","","","null","allTrialResponses","1000","1","17","img_art/19.jpg","22","This is like nasty painting.","Isabella,Kaitlin,Miranda,Chelsea,Mikayla,Hannah","A day in a small city,45,280,20","this looks like a busy city lifestyle,24,60,20","It looks cool but at the time looks like it was done by a talented 5 year old.,13,320,20","It is too busy.,-34,180,20","Very pretty and colorful.,23,300,20","Just don't like this one.,-9,240,20","Chelsea","It is too busy.,-34,180,20","Mikayla","Very pretty and colorful.,23,300,20","Hannah","Just don't like this one.,-9,240,20","4"
"5736","","survey-text","169","1237051","0.0-166.0-0.0","APU5AAZWI18EY","","","","{""Q0"":""This is like nasty painting.""}","","","","","","","","","","","","","","","","","","","","","","",""
"3746","","image-slider-response","170","1240799","0.0-167.0","APU5AAZWI18EY","","","","","-38","","","","","","","","","","","","","","","","","","","","","",""
"3849","","image-button-response","171","1245805","0.0-168.0","APU5AAZWI18EY","img_art/21.jpg","4","","","","","","","","","","","","","","","","","","","","","","","","",""
"1119","","image-button-response","172","1246942","0.0-169.0","APU5AAZWI18EY","img_art/21.jpg","4","","","","","","","","","","","","","","","","","","","","","","","","",""
"733","","image-button-response","173","1247682","0.0-170.0-0.0","APU5AAZWI18EY","img_art/21.jpg","5","","","","","","","","","","","","","","","","","","","","","","","","",""
"1087","","image-button-response","174","1248782","0.0-171.0-0.0","APU5AAZWI18EY","img_art/21.jpg","3","","","","","","","","","","","","","","","","","","","","","","","","",""
"null","","html-keyboard-response","175","1249787","0.0-172.0","APU5AAZWI18EY","<p style=""font-size: 48px;"">+</p>","","","","","null","allTrialResponses","1000","1","18","img_art/21.jpg","-38","This is like nasty painting.","Danielle,Cynthia,Emma,Chelsea,Mikayla,Hannah","I like it. It's some of war-scene, bloodshed and battle on the left, field of dispair on the right, dark and rich,40,340,20","mythical between good and evil,16,320,20","Pretty, good colors,30,60,20","I like the colors. It looks dramatic.,5,180,20","Nothing exciting in this one.,-36,300,20","Boring colors and look. Too much 1980s.,-20,240,20","Mikayla","Nothing exciting in this one.,-36,300,20","Hannah","Boring colors and look. Too much 1980s.,-20,240,20","Chelsea","I like the colors. It looks dramatic.,5,180,20","4"
"5437","","survey-text","176","1255244","0.0-173.0-0.0","APU5AAZWI18EY","","","","{""Q0"":""This is like nasty painting.""}","","","","","","","","","","","","","","","","","","","","","","",""
"2869","","image-slider-response","177","1258121","0.0-174.0","APU5AAZWI18EY","","","","","6","","","","","","","","","","","","","","","","","","","","","",""
"4380","","image-button-response","178","1263126","0.0-175.0","APU5AAZWI18EY","img_art/17.jpg","4","","","","","","","","","","","","","","","","","","","","","","","","",""
"367","","image-button-response","179","1263503","0.0-176.0","APU5AAZWI18EY","img_art/17.jpg","4","","","","","","","","","","","","","","","","","","","","","","","","",""
"734","","image-button-response","180","1264257","0.0-177.0-0.0","APU5AAZWI18EY","img_art/17.jpg","5","","","","","","","","","","","","","","","","","","","","","","","","",""
"3011","","image-button-response","181","1267276","0.0-178.0-0.0","APU5AAZWI18EY","img_art/17.jpg","0","","","","","","","","","","","","","","","","","","","","","","","","",""
"null","","html-keyboard-response","182","1268779","0.0-179.0","APU5AAZWI18EY","<p style=""font-size: 48px;"">+</p>","","","","","null","allTrialResponses","1500","1","19","img_art/17.jpg","6","This is like nasty painting.","Melissa,Marissa,Bailey,Chelsea,Mikayla,Hannah","impressive attention to subtleties,15,240,20","This reminds me of spring,24,160,20","I like the artistic sketching pattern.,24,360,20","The colors are soft.,32,180,20","Doesnt really do anythingb for me.,4,300,20","Looks like an abandoned building that is being overtaken by nature.,-10,240,20","Mikayla","Doesnt really do anythingb for me.,4,300,20","Hannah","Looks like an abandoned building that is being overtaken by nature.,-10,240,20","Melissa","impressive attention to subtleties,15,240,20","4"
"13990","","survey-text","183","1282792","0.0-180.0-0.0","APU5AAZWI18EY","","","","{""Q0"":""This is like nasty painting.""}","","","","","","","","","","","","","","","","","","","","","","",""
"3015","","image-slider-response","184","1285812","0.0-181.0","APU5AAZWI18EY","","","","","26","","","","","","","","","","","","","","","","","","","","","",""
"4315","","image-button-response","185","1290817","0.0-182.0","APU5AAZWI18EY","img_art/14.jpg","5","","","","","","","","","","","","","","","","","","","","","","","","",""
"1101","","image-button-response","186","1291924","0.0-183.0","APU5AAZWI18EY","img_art/14.jpg","5","","","","","","","","","","","","","","","","","","","","","","","","",""
"2555","","image-button-response","187","1294484","0.0-184.0-0.0","APU5AAZWI18EY","img_art/14.jpg","0","","","","","","","","","","","","","","","","","","","","","","","","",""
"1050","","image-button-response","188","1295538","0.0-185.0-0.0","APU5AAZWI18EY","img_art/14.jpg","2","","","","","","","","","","","","","","","","","","","","","","","","",""
"null","","html-keyboard-response","189","1296072","0.0-186.0","APU5AAZWI18EY","<p style=""font-size: 48px;"">+</p>","","","","","null","allTrialResponses","500","1","20","img_art/14.jpg","26","This is like nasty painting.","Melissa,Jenna,Sabrina,Lauren,Mikayla,Hannah","makes me feel sad,-2,240,20","love the colors. despite their brightness it seems sad somehow.,41,360,20","Love the assortment of colors and flowers, expressing gentle and caring,50,120,20","I like how balanced the piece is with its symmetrical design.,20,340,20","The red looks like blood and im not a huge fan,15,300,20","This doesn't speak to me on an emotional level,-6,240,20","Hannah","This doesn't speak to me on an emotional level,-6,240,20","Melissa","makes me feel sad,-2,240,20","Sabrina","Love the assortment of colors and flowers, expressing gentle and caring,50,120,20","4"
"4760","","survey-text","190","1300864","0.0-187.0-0.0","APU5AAZWI18EY","","","","{""Q0"":""we""}","","","","","","","","","","","","","","","","","","","","","","",""
"5690","","survey-text","191","1306558","0.0-188.0-0.0","APU5AAZWI18EY","","","","{""Q0"":""This is like nasty painting.""}","","","","","","","","","","","","","","","","","","","","","","",""
"2339","","image-slider-response","192","1308903","0.0-189.0","APU5AAZWI18EY","","","","","36","","","","","","","","","","","","","","","","","","","","","",""
"3649","","image-button-response","193","1313919","0.0-190.0","APU5AAZWI18EY","img_art/24.jpg","0","","","","","","","","","","","","","","","","","","","","","","","","",""
"585","","image-button-response","194","1314513","0.0-191.0","APU5AAZWI18EY","img_art/24.jpg","1","","","","","","","","","","","","","","","","","","","","","","","","",""
"1090","","image-button-response","195","1315617","0.0-192.0-0.0","APU5AAZWI18EY","img_art/24.jpg","0","","","","","","","","","","","","","","","","","","","","","","","","",""
"2441","","image-button-response","196","1318062","0.0-193.0-0.0","APU5AAZWI18EY","img_art/24.jpg","3","","","","","","","","","","","","","","","","","","","","","","","","",""
"null","","html-keyboard-response","197","1318564","0.0-194.0","APU5AAZWI18EY","<p style=""font-size: 48px;"">+</p>","","","","","null","allTrialResponses","500","1","21","img_art/24.jpg","36","This is like nasty painting.","Melissa,Emily,Sabrina,Mariah,Kathryn,Hannah","feels overdone, but still executed well,0,240,20","It's not super high uality  but there is some skill and talent in it I see.,15,40,20","Love the natural vibe,50,120,20","It is like a really bad impressionist painting.,-40,140,20","This is clear and healthy. It makes me think of unspoiled nature.,20,140,20","It's okay but don't love it.,7,240,20","Emily","It's not super high uality  but there is some skill and talent in it I see.,15,40,20","Melissa","feels overdone, but still executed well,0,240,20","Mariah","It is like a really bad impressionist painting.,-40,140,20","4"
"47330","","survey-text","198","1365913","0.0-195.0-0.0","APU5AAZWI18EY","","","","{""Q0"":""The structure of the painting was good.""}","","","","","","","","","","","","","","","","","","","","","","",""
"3398","","image-slider-response","199","1369322","0.0-196.0","APU5AAZWI18EY","","","","","50","","","","","","","","","","","","","","","","","","","","","",""
"3385","","image-button-response","200","1374337","0.0-197.0","APU5AAZWI18EY","img_art/15.jpg","3","","","","","","","","","","","","","","","","","","","","","","","","",""
"309","","image-button-response","201","1374651","0.0-198.0","APU5AAZWI18EY","img_art/15.jpg","4","","","","","","","","","","","","","","","","","","","","","","","","",""
"3649","","image-button-response","202","1378323","0.0-199.0-0.0","APU5AAZWI18EY","img_art/15.jpg","1","","","","","","","","","","","","","","","","","","","","","","","","",""
"795","","image-button-response","203","1379125","0.0-200.0-0.0","APU5AAZWI18EY","img_art/15.jpg","2","","","","","","","","","","","","","","","","","","","","","","","","",""
"null","","html-keyboard-response","204","1380132","0.0-201.0","APU5AAZWI18EY","<p style=""font-size: 48px;"">+</p>","","","","","null","allTrialResponses","1000","1","22","img_art/15.jpg","50","The structure of the painting was good.","Melissa,Emily,Makayla,Mariah,Katherine,Caroline","reminds me of birds in trees,14,240,20","Looks incomplete.,-19,40,20","It's just dots. Doesn't bring any positive or negative feelings,2,80,20","It is visually appealing, stark and simple but natural.,41,140,20","black dots too ant-like,-25,120,20","Makes me think of a bush and flowers and spring and happy warm times,25,100,20","Katherine","black dots too ant-like,-25,120,20","Emily","Looks incomplete.,-19,40,20","Makayla","It's just dots. Doesn't bring any positive or negative feelings,2,80,20","4"
"5650","","survey-text","205","1385807","0.0-202.0-0.0","APU5AAZWI18EY","","","","{""Q0"":""This is like nasty painting.""}","","","","","","","","","","","","","","","","","","","","","","",""
"3540","","image-slider-response","206","1389361","0.0-203.0","APU5AAZWI18EY","","","","","-18","","","","","","","","","","","","","","","","","","","","","",""
"4089","","image-button-response","207","1394363","0.0-204.0","APU5AAZWI18EY","img_art/22.jpg","0","","","","","","","","","","","","","","","","","","","","","","","","",""
"1032","","image-button-response","208","1395403","0.0-205.0","APU5AAZWI18EY","img_art/22.jpg","0","","","","","","","","","","","","","","","","","","","","","","","","",""
"2225","","image-button-response","209","1397645","0.0-206.0-0.0","APU5AAZWI18EY","img_art/22.jpg","3","","","","","","","","","","","","","","","","","","","","","","","","",""
"998","","image-button-response","210","1398664","0.0-207.0-0.0","APU5AAZWI18EY","img_art/22.jpg","5","","","","","","","","","","","","","","","","","","","","","","","","",""
"null","","html-keyboard-response","211","1399678","0.0-208.0","APU5AAZWI18EY","<p style=""font-size: 48px;"">+</p>","","","","","null","allTrialResponses","1000","1","23","img_art/22.jpg","-18","This is like nasty painting.","Kayla,Emily,Makayla,Kelsey,Katherine,Christina","I don't like that it looks like a person is there upside down.,-16,180,20","There is some flow and organization.,10,40,20","Just neutral no feelings,2,80,20","its messy, like a child painted it,-14,240,20","Cool squares but what's the circle?,38,120,20","i like the colors but it looks too 80s for me,7,240,20","Kayla","I don't like that it looks like a person is there upside down.,-16,180,20","Kelsey","its messy, like a child painted it,-14,240,20","Christina","i like the colors but it looks too 80s for me,7,240,20","4"
"12614","","survey-text","212","1412312","0.0-209.0-0.0","APU5AAZWI18EY","","","","{""Q0"":""This is like nasty painting.""}","","","","","","","","","","","","","","","","","","","","","","",""
"4693","","image-slider-response","213","1417009","0.0-210.0","APU5AAZWI18EY","","","","","40","","","","","","","","","","","","","","","","","","","","","",""
"4824","","image-button-response","214","1422031","0.0-211.0","APU5AAZWI18EY","img_art/26.jpg","5","","","","","","","","","","","","","","","","","","","","","","","","",""
"456","","image-button-response","215","1422509","0.0-212.0","APU5AAZWI18EY","img_art/26.jpg","4","","","","","","","","","","","","","","","","","","","","","","","","",""
"770","","image-button-response","216","1423285","0.0-213.0-0.0","APU5AAZWI18EY","img_art/26.jpg","5","","","","","","","","","","","","","","","","","","","","","","","","",""
"4861","","image-button-response","217","1428155","0.0-214.0-0.0","APU5AAZWI18EY","img_art/26.jpg","1","","","","","","","","","","","","","","","","","","","","","","","","",""
"null","","html-keyboard-response","218","1429660","0.0-215.0","APU5AAZWI18EY","<p style=""font-size: 48px;"">+</p>","","","","","null","allTrialResponses","1500","1","24","img_art/26.jpg","40","This is like nasty painting.","Kayla,Samantha,Madison,Kelsey,Lindsey,Christina","Looks like the suburbs. I live in those.,13,180,20","I like the colors and trees. Seems cheap vintage retail store art but i love it anyways,50,140,20","Colors look glum; photograph is not properly contrasted and does not reflect the appropriate amount of natural light.,-10,60,20","this is nice!! i like the muted colors,34,240,20","I see a suburban neighborhood with townhouses and trees. Not a fan of the colors or style.,-16,400,20","looks like a little kids painting,-17,240,20","Lindsey","I see a suburban neighborhood with townhouses and trees. Not a fan of the colors or style.,-16,400,20","Christina","looks like a little kids painting,-17,240,20","Samantha","I like the colors and trees. Seems cheap vintage retail store art but i love it anyways,50,140,20","4"
"5306","","survey-text","219","1434981","0.0-216.0-0.0","APU5AAZWI18EY","","","","{""Q0"":""This is like nasty painting.""}","","","","","","","","","","","","","","","","","","","","","","",""
"3806","","image-slider-response","220","1438803","0.0-217.0","APU5AAZWI18EY","","","","","-25","","","","","","","","","","","","","","","","","","","","","",""
"null","","image-button-response","221","1443832","0.0-218.0","APU5AAZWI18EY","img_art/18.jpg","null","","","","","","","","","","","","","","","","","","","","","","","","",""
"2013","","image-button-response","222","1445872","0.0-219.0","APU5AAZWI18EY","img_art/18.jpg","0","","","","","","","","","","","","","","","","","","","","","","","","",""
"3265","","image-button-response","223","1449156","0.0-220.0-0.0","APU5AAZWI18EY","img_art/18.jpg","4","","","","","","","","","","","","","","","","","","","","","","","","",""
"672","","image-button-response","224","1449832","0.0-221.0-0.0","APU5AAZWI18EY","img_art/18.jpg","5","","","","","","","","","","","","","","","","","","","","","","","","",""
"null","","html-keyboard-response","225","1450835","0.0-222.0","APU5AAZWI18EY","<p style=""font-size: 48px;"">+</p>","","","","","null","allTrialResponses","1000","1","25","img_art/18.jpg","-25","This is like nasty painting.","Katie,Samantha,Molly,Heather,Lindsey,Christina","Looks messy. Reminds me of a battle or war. I have an unpleasant feeling the more I look.,-20,160,20","Id love to see this piece closer. So much extra details hidden it it.,50,140,20","White and yellow look awesome and the picture's dynamics are wonderful.,30,340,20","i like the colors in the picture and can make out my own images,42,260,20","Interesting piece - gives you more the more you look at it. I like it but wouldn't buy it.,11,400,20","it looks dreary and not uplifting,-10,240,20","Katie","Looks messy. Reminds me of a battle or war. I have an unpleasant feeling the more I look.,-20,160,20","Lindsey","Interesting piece - gives you more the more you look at it. I like it but wouldn't buy it.,11,400,20","Christina","it looks dreary and not uplifting,-10,240,20","4"
"6504","","survey-text","226","1457364","0.0-223.0-0.0","APU5AAZWI18EY","","","","{""Q0"":""table""}","","","","","","","","","","","","","","","","","","","","","","",""
"5300","","survey-text","227","1462685","0.0-224.0-0.0","APU5AAZWI18EY","","","","{""Q0"":""This is like nasty painting.""}","","","","","","","","","","","","","","","","","","","","","","",""
"3065","","image-slider-response","228","1465762","0.0-225.0","APU5AAZWI18EY","","","","","25","","","","","","","","","","","","","","","","","","","","","",""
"3166","","image-button-response","229","1470765","0.0-226.0","APU5AAZWI18EY","img_art/12.jpg","5","","","","","","","","","","","","","","","","","","","","","","","","",""
"1074","","image-button-response","230","1471843","0.0-227.0","APU5AAZWI18EY","img_art/12.jpg","4","","","","","","","","","","","","","","","","","","","","","","","","",""
"788","","image-button-response","231","1472633","0.0-228.0-0.0","APU5AAZWI18EY","img_art/12.jpg","5","","","","","","","","","","","","","","","","","","","","","","","","",""
"2567","","image-button-response","232","1475223","0.0-229.0-0.0","APU5AAZWI18EY","img_art/12.jpg","1","","","","","","","","","","","","","","","","","","","","","","","","",""
"null","","html-keyboard-response","233","1476727","0.0-230.0","APU5AAZWI18EY","<p style=""font-size: 48px;"">+</p>","","","","","null","allTrialResponses","1500","1","26","img_art/12.jpg","25","This is like nasty painting.","Katie,Kaylee,Olivia,Erika,Lindsey,Christina","Squares are rigid. I'm ambivalent.,1,160,20","wtf is that i dont get it,-50,200,20","feels cluttered,-11,40,20","I don't like it, but I appreciate the effort and technique,11,100,20","Ugly colors and I'm just not too much a fan of cubist abstract art.,-50,400,20","way too 90s/80s for me,-9,240,20","Lindsey","Ugly colors and I'm just not too much a fan of cubist abstract art.,-50,400,20","Christina","way too 90s/80s for me,-9,240,20","Kaylee","wtf is that i dont get it,-50,200,20","4"
"6301","","survey-text","234","1483041","0.0-231.0-0.0","APU5AAZWI18EY","","","","{""Q0"":""This is like nasty painting.""}","","","","","","","","","","","","","","","","","","","","","","",""
"2454","","image-slider-response","235","1485521","0.0-232.0","APU5AAZWI18EY","","","","","22","","","","","","","","","","","","","","","","","","","","","",""
"2808","","image-button-response","236","1490527","0.0-233.0","APU5AAZWI18EY","img_art/8.jpg","5","","","","","","","","","","","","","","","","","","","","","","","","",""
"507","","image-button-response","237","1491042","0.0-234.0","APU5AAZWI18EY","img_art/8.jpg","0","","","","","","","","","","","","","","","","","","","","","","","","",""
"1681","","image-button-response","238","1492727","0.0-235.0-0.0","APU5AAZWI18EY","img_art/8.jpg","5","","","","","","","","","","","","","","","","","","","","","","","","",""
"1085","","image-button-response","239","1493844","0.0-236.0-0.0","APU5AAZWI18EY","img_art/8.jpg","3","","","","","","","","","","","","","","","","","","","","","","","","",""
"null","","html-keyboard-response","240","1495006","0.0-237.0","APU5AAZWI18EY","<p style=""font-size: 48px;"">+</p>","","","","","null","allTrialResponses","1000","1","27","img_art/8.jpg","22","This is like nasty painting.","Kelly,Kaylee,Briana,Kylie,Lindsey,Christina","Interesting, i really like the face and the moon. Realy detailed and you see something new with each look.,11,220,20","beautiful buildings,32,200,20","Its abstract and interesting,24,400,20","Very abstract and seems symbolic,45,300,20","Pleasant colors, lots of interest. Not sure what's going on but I like it.,20,400,20","it looks very 80's and kind of scary,-11,240,20","Kelly","Interesting, i really like the face and the moon. Realy detailed and you see something new with each look.,11,220,20","Christina","it looks very 80's and kind of scary,-11,240,20","Kylie","Very abstract and seems symbolic,45,300,20","4"
"5143","","survey-text","241","1500163","0.0-238.0-0.0","APU5AAZWI18EY","","","","{""Q0"":""This is like nasty painting.""}","","","","","","","","","","","","","","","","","","","","","","",""
"2759","","image-slider-response","242","1502932","0.0-239.0","APU5AAZWI18EY","","","","","20","","","","","","","","","","","","","","","","","","","","","",""
"2959","","image-button-response","243","1507945","0.0-240.0","APU5AAZWI18EY","img_art/2.jpg","4","","","","","","","","","","","","","","","","","","","","","","","","",""
"3503","","image-button-response","244","1511452","0.0-241.0","APU5AAZWI18EY","img_art/2.jpg","1","","","","","","","","","","","","","","","","","","","","","","","","",""
"561","","image-button-response","245","1512018","0.0-242.0-0.0","APU5AAZWI18EY","img_art/2.jpg","2","","","","","","","","","","","","","","","","","","","","","","","","",""
"733","","image-button-response","246","1512773","0.0-243.0-0.0","APU5AAZWI18EY","img_art/2.jpg","0","","","","","","","","","","","","","","","","","","","","","","","","",""
"null","","html-keyboard-response","247","1514275","0.0-244.0","APU5AAZWI18EY","<p style=""font-size: 48px;"">+</p>","","","","","null","allTrialResponses","1500","1","28","img_art/2.jpg","20","This is like nasty painting.","Kelly,Tiffany,Michaela,Kylie,Jamie,Christina","I cant tell whats happening here and that shade of green is just not my thing.,-17,220,20","I feel claustrophobic. I'm looking at a busy shop, but the simple shapes and continuous colors make it hectic.,-8,360,20","My immediate reaction was it looked like a class but then I saw a smile in the middle,11,260,20","Not very appealing,-5,300,20","Awful color coordination and design,-35,320,20","It looks like a little kids primary color picture,3,240,20","Tiffany","I feel claustrophobic. I'm looking at a busy shop, but the simple shapes and continuous colors make it hectic.,-8,360,20","Michaela","My immediate reaction was it looked like a class but then I saw a smile in the middle,11,260,20","Kelly","I cant tell whats happening here and that shade of green is just not my thing.,-17,220,20","4"
"4993","","survey-text","248","1519281","0.0-245.0-0.0","APU5AAZWI18EY","","","","{""Q0"":""This is like nasty painting.""}","","","","","","","","","","","","","","","","","","","","","","",""
"5431","","image-slider-response","249","1524721","0.0-246.0","APU5AAZWI18EY","","","","","27","","","","","","","","","","","","","","","","","","","","","",""
"4165","","image-button-response","250","1529763","0.0-247.0","APU5AAZWI18EY","img_art/27.jpg","1","","","","","","","","","","","","","","","","","","","","","","","","",""
"194","","image-button-response","251","1529976","0.0-248.0","APU5AAZWI18EY","img_art/27.jpg","0","","","","","","","","","","","","","","","","","","","","","","","","",""
"1169","","image-button-response","252","1531161","0.0-249.0-0.0","APU5AAZWI18EY","img_art/27.jpg","1","","","","","","","","","","","","","","","","","","","","","","","","",""
"2848","","image-button-response","253","1534015","0.0-250.0-0.0","APU5AAZWI18EY","img_art/27.jpg","4","","","","","","","","","","","","","","","","","","","","","","","","",""
"null","","html-keyboard-response","254","1535022","0.0-251.0","APU5AAZWI18EY","<p style=""font-size: 48px;"">+</p>","","","","","null","allTrialResponses","1000","1","29","img_art/27.jpg","27","This is like nasty painting.","Kelly,Tiffany,Michaela,Allison,Katelyn,Sophia","The green stick drawings or whatever they are ruin it for me.,-23,220,20","I feel peaceful and a little nervous at the same time.,11,360,20","It looks like a kid colored a picture and an adult added to it,19,260,20","Warn colors are pretty, but too blotchy for me.,3,140,20","Doesnt look like anything to me. Doesnt capture my attention.,-25,100,20","Yikes. I think I made this in kindergarten.,-20,280,20","Kelly","The green stick drawings or whatever they are ruin it for me.,-23,220,20","Tiffany","I feel peaceful and a little nervous at the same time.,11,360,20","Katelyn","Doesnt look like anything to me. Doesnt capture my attention.,-25,100,20","4"
"10345","","survey-text","255","1545400","0.0-252.0-0.0","APU5AAZWI18EY","","","","{""Q0"":""The color segment was nice.""}","","","","","","","","","","","","","","","","","","","","","","",""
"2977","","image-slider-response","256","1548392","0.0-253.0","APU5AAZWI18EY","","","","","36","","","","","","","","","","","","","","","","","","","","","",""
"3808","","image-button-response","257","1553397","0.0-254.0","APU5AAZWI18EY","img_art/5.jpg","4","","","","","","","","","","","","","","","","","","","","","","","","",""
"240","","image-button-response","258","1553643","0.0-255.0","APU5AAZWI18EY","img_art/5.jpg","4","","","","","","","","","","","","","","","","","","","","","","","","",""
"786","","image-button-response","259","1554442","0.0-256.0-0.0","APU5AAZWI18EY","img_art/5.jpg","5","","","","","","","","","","","","","","","","","","","","","","","","",""
"2075","","image-button-response","260","1556525","0.0-257.0-0.0","APU5AAZWI18EY","img_art/5.jpg","1","","","","","","","","","","","","","","","","","","","","","","","","",""
"null","","html-keyboard-response","261","1557528","0.0-258.0","APU5AAZWI18EY","<p style=""font-size: 48px;"">+</p>","","","","","null","allTrialResponses","1000","1","30","img_art/5.jpg","36","The color segment was nice.","Kelly,Tiffany,Brooke,Margaret,Katelyn,Sydney","It looks like daffy duck's leg with a random trail of pink.,-22,220,20","I feel nothing looking at this.,-5,360,20","No. What even is this? A mop?,-35,60,20","simple. love the color scheme,27,100,20","I just dont get it. Means very little to me,-22,100,20","I'm reminded of a volcano with weird colors.,-5,320,20","Katelyn","I just dont get it. Means very little to me,-22,100,20","Sydney","I'm reminded of a volcano with weird colors.,-5,320,20","Tiffany","I feel nothing looking at this.,-5,360,20","4"
"7698","","image-button-response_instructions","262","1565252","0.0-259.0","APU5AAZWI18EY","","0","instructions","","","","","","","","","","","","","","","","","","","","","","","",""
"2675","","image-button-response","263","1567954","0.0-260.0","APU5AAZWI18EY","","0","","","","","","","","","","","","","","","","","","","","","","","","",""
