"rt","url","trial_type","trial_index","time_elapsed","internal_node_id","participant_id","stimulus","button_pressed","Name","responses","response","key_press","variableName","fixationTime","condition","trial","photo","subjectRating","subjectResponse","agentsNames","agent_1_Response","agent_2_Response","agent_3_Response","agent_4_Response","agent_5_Response","agent_6_Response","kept_1_name","kept_1_response","kept_2_name","kept_2_response","kept_3_name","kept_3_response","errorCounter"
"47903","external_page_harvard.html","external-html","0","47967","0.0-0.0","APWB9BS1SONNS","","","","","","","","","","","","","","","","","","","","","","","","","","",""
"2118","","image-button-response","1","50087","0.0-1.0","APWB9BS1SONNS","","0","","","","","","","","","","","","","","","","","","","","","","","","",""
"4068","","image-button-response","2","54158","0.0-2.0-0.0","APWB9BS1SONNS","","1","phone","","","","","","","","","","","","","","","","","","","","","","","",""
"10933","","survey-text","3","65092","0.0-3.0-0.0","APWB9BS1SONNS","","","","{""Q0"":""APWB9BS1SONNS""}","","","","","","","","","","","","","","","","","","","","","","",""
"6540","","image-button-response_instructions","4","71635","0.0-4.0","APWB9BS1SONNS","","0","instructions","","","","","","","","","","","","","","","","","","","","","","","",""
"23198","","image-button-response_instructions","5","94833","0.0-5.0","APWB9BS1SONNS","img_art/ins/popularity/ins1.png","0","instructions","","","","","","","","","","","","","","","","","","","","","","","",""
"6402","","image-button-response_instructions","6","101236","0.0-6.0","APWB9BS1SONNS","img_art/ins/popularity/ins2.png","0","instructions","","","","","","","","","","","","","","","","","","","","","","","",""
"4155","","image-button-response_instructions","7","105392","0.0-7.0","APWB9BS1SONNS","img_art/ins/popularity/ins2Extreme.png","0","instructions","","","","","","","","","","","","","","","","","","","","","","","",""
"4727","","image-button-response_instructions","8","110121","0.0-8.0","APWB9BS1SONNS","img_art/ins/popularity/ins3KEEPpop.PNG","0","instructions","","","","","","","","","","","","","","","","","","","","","","","",""
"5008","","image-button-response_instructions","9","115130","0.0-9.0","APWB9BS1SONNS","img_art/ins/popularity/ins3ANamepop.PNG","0","instructions","","","","","","","","","","","","","","","","","","","","","","","",""
"5099","","image-button-response_instructions","10","120230","0.0-10.0","APWB9BS1SONNS","img_art/ins/popularity/ins3ARatingpop.png","0","instructions","","","","","","","","","","","","","","","","","","","","","","","",""
"3213","","image-button-response_instructions","11","123444","0.0-11.0","APWB9BS1SONNS","img_art/ins/popularity/ins3ATextpop.png","0","instructions","","","","","","","","","","","","","","","","","","","","","","","",""
"8000","","image-button-response_instructions","12","131445","0.0-12.0","APWB9BS1SONNS","img_art/ins/popularity/ins3ALikespop.png","0","instructions","","","","","","","","","","","","","","","","","","","","","","","",""
"13338","","image-button-response_instructions","13","144784","0.0-13.0","APWB9BS1SONNS","img_art/ins/popularity/ins3KEEPpop.PNG","0","instructions","","","","","","","","","","","","","","","","","","","","","","","",""
"7830","","image-button-response_instructions","14","152614","0.0-14.0","APWB9BS1SONNS","img_art/ins/popularity/ins3_5RED.png","0","instructions","","","","","","","","","","","","","","","","","","","","","","","",""
"5617","","image-button-response_instructions","15","158233","0.0-15.0","APWB9BS1SONNS","img_art/ins/popularity/ins3KEEPpop.PNG","0","instructions","","","","","","","","","","","","","","","","","","","","","","","",""
"6780","","image-button-response_instructions","16","165013","0.0-16.0","APWB9BS1SONNS","img_art/ins/popularity/ins4KEEPpop.PNG","0","instructions","","","","","","","","","","","","","","","","","","","","","","","",""
"11824","","image-button-response_instructions","17","176838","0.0-17.0","APWB9BS1SONNS","img_art/ins/popularity/ins5KEEPpop.PNG","0","instructions","","","","","","","","","","","","","","","","","","","","","","","",""
"2724","","image-button-response_instructions","18","179563","0.0-18.0","APWB9BS1SONNS","","0","instructions","","","","","","","","","","","","","","","","","","","","","","","",""
"10958","","survey-text","19","190537","0.0-19.0-0.0","APWB9BS1SONNS","","","","{""Q0"":""but""}","","","","","","","","","","","","","","","","","","","","","","",""
"26503","","survey-text","20","217042","0.0-20.0-0.0","APWB9BS1SONNS","","","","{""Q0"":""I am not blown away by this, I feel like even an amateur artist could create something like this.""}","","","","","","","","","","","","","","","","","","","","","","",""
"8321.600000023842","","image-slider-response","21","225365","0.0-21.0","APWB9BS1SONNS","","","","","-29","","","","","","","","","","","","","","","","","","","","","",""
"null","","image-button-response","22","230372","0.0-22.0","APWB9BS1SONNS","img_art/ins/1.jpg","null","","","","","","","","","","","","","","","","","","","","","","","","",""
"11569","","image-button-response","23","241942","0.0-23.0","APWB9BS1SONNS","img_art/ins/1.jpg","0","","","","","","","","","","","","","","","","","","","","","","","","",""
"12449","","image-button-response","24","254392","0.0-24.0-0.0","APWB9BS1SONNS","img_art/ins/1.jpg","3","","","","","","","","","","","","","","","","","","","","","","","","",""
"10873","","image-button-response","25","265267","0.0-25.0-0.0","APWB9BS1SONNS","img_art/ins/1.jpg","2","","","","","","","","","","","","","","","","","","","","","","","","",""
"null","","html-keyboard-response","26","266269","0.0-26.0","APWB9BS1SONNS","<p style=""font-size: 48px;"">+</p>","","","","","null","allTrialResponses","1000","1","-2","img_art/ins/1.jpg","-29","I am not blown away by this, I feel like even an amateur artist could create something like this.","Adam,Alex,Ben,Carl,Daniel,Jack","Seems like doodles,-20,20,20","very creative work.,36,40,20","This color reminds me of poo,-46,60,20","very calming artwork,42,80,20","It looks like a murder scene.,-48,100,20","I like the sophisticated brushwork,40,120,20","Adam","Seems like doodles,-20,20,20","Carl","very calming artwork,42,80,20","Ben","This color reminds me of poo,-46,60,20","0"
"44891","","survey-text","27","311182","0.0-27.0-0.0","APWB9BS1SONNS","","","","{""Q0"":""I do not understand what this piece is trying to convey.""}","","","","","","","","","","","","","","","","","","","","","","",""
"10840.399999976158","","image-slider-response","28","322024","0.0-28.0","APWB9BS1SONNS","","","","","-25","","","","","","","","","","","","","","","","","","","","","",""
"null","","image-button-response","29","327026","0.0-29.0","APWB9BS1SONNS","img_art/ins/2.jpg","null","","","","","","","","","","","","","","","","","","","","","","","","",""
"3277","","image-button-response","30","330304","0.0-30.0","APWB9BS1SONNS","img_art/ins/2.jpg","2","","","","","","","","","","","","","","","","","","","","","","","","",""
"7395","","image-button-response","31","337701","0.0-31.0-0.0","APWB9BS1SONNS","img_art/ins/2.jpg","0","","","","","","","","","","","","","","","","","","","","","","","","",""
"3213","","image-button-response","32","340916","0.0-32.0-0.0","APWB9BS1SONNS","img_art/ins/2.jpg","2","","","","","","","","","","","","","","","","","","","","","","","","",""
"1856","","image-button-response","33","347216","0.0-32.1-0.1","APWB9BS1SONNS","img_art/ins/2.jpg","0","","","","","","","","","","","","","","","","","","","","","","","","",""
"3848","","image-button-response","34","352969","0.0-32.2-0.2","APWB9BS1SONNS","img_art/ins/2.jpg","4","","","","","","","","","","","","","","","","","","","","","","","","",""
"null","","html-keyboard-response","35","353971","0.0-33.0","APWB9BS1SONNS","<p style=""font-size: 48px;"">+</p>","","","","","null","allTrialResponses","1000","1","-1","img_art/ins/2.jpg","-25","I do not understand what this piece is trying to convey.","Adam,James,Ben,Carl,John,Kyle","too much color,-18,20,20","looks too angry,-50,140,20","meaningless painting,-45,60,20","I can feel the artist's passion in it,45,80,20","love the texture of paint,48,160,20","Idk, it is just annoying,-32,180,20","Ben","meaningless painting,-45,60,20","Adam","too much color,-18,20,20","John","love the texture of paint,48,160,20","4"
"76754","","survey-text","36","430728","0.0-34.0-0.0","APWB9BS1SONNS","","","","{""Q0"":""I like this work.  It is sort of a disconnected Kanji character.  I feel the blue works well with it.""}","","","","","","","","","","","","","","","","","","","","","","",""
"12397.799999952316","","image-slider-response","37","443127","0.0-35.0","APWB9BS1SONNS","","","","","35","","","","","","","","","","","","","","","","","","","","","",""
"null","","image-button-response","38","448130","0.0-36.0","APWB9BS1SONNS","img_art/ins/3.jpg","null","","","","","","","","","","","","","","","","","","","","","","","","",""
"4528","","image-button-response","39","452659","0.0-37.0","APWB9BS1SONNS","img_art/ins/3.jpg","3","","","","","","","","","","","","","","","","","","","","","","","","",""
"5982","","image-button-response","40","458642","0.0-38.0-0.0","APWB9BS1SONNS","img_art/ins/3.jpg","5","","","","","","","","","","","","","","","","","","","","","","","","",""
"8856","","image-button-response","41","467499","0.0-39.0-0.0","APWB9BS1SONNS","img_art/ins/3.jpg","0","","","","","","","","","","","","","","","","","","","","","","","","",""
"null","","html-keyboard-response","42","468001","0.0-40.0","APWB9BS1SONNS","<p style=""font-size: 48px;"">+</p>","","","","","null","allTrialResponses","500","1","0","img_art/ins/3.jpg","35","I like this work.  It is sort of a disconnected Kanji character.  I feel the blue works well with it.","Adam,Ron,Ben,Mike,John,Sam","My daily routine, it's depressing,-20,20,20","It looks depressing,-26,220,20","This thing gives me anxiety,-41,60,20","enjoy the different shades of blue,22,200,20","I like the overlapping of brushes,41,160,20","I can feel a rainy day from this painting,18,240,20","Mike","enjoy the different shades of blue,22,200,20","Sam","I can feel a rainy day from this painting,18,240,20","Adam","My daily routine, it's depressing,-20,20,20","4"
"9131","","image-button-response_instructions","43","477144","0.0-41.0","APWB9BS1SONNS","","0","instructions","","","","","","","","","","","","","","","","","","","","","","","",""
"16225","","survey-likert","44","493371","0.0-42.0-0.0","APWB9BS1SONNS","","","","{""Q0"":"""",""Q1"":0,""Q2"":1}","","","","","","","","","","","","","","","","","","","","","","",""
"18710","","survey-text","45","512084","0.0-43.0-0.0","APWB9BS1SONNS","","","","{""Q0"":""rock""}","","","","","","","","","","","","","","","","","","","","","","",""
"20288","","survey-text","46","532373","0.0-44.0-0.0","APWB9BS1SONNS","","","","{""Q0"":""I feel this piece is a bid morbid, both in content and color scheme.""}","","","","","","","","","","","","","","","","","","","","","","",""
"4183.699999928474","","image-slider-response","47","536558","0.0-45.0","APWB9BS1SONNS","","","","","-10","","","","","","","","","","","","","","","","","","","","","",""
"4580","","image-button-response","48","541576","0.0-46.0","APWB9BS1SONNS","img_art/25.jpg","0","","","","","","","","","","","","","","","","","","","","","","","","",""
"2831","","image-button-response","49","544409","0.0-47.0","APWB9BS1SONNS","img_art/25.jpg","2","","","","","","","","","","","","","","","","","","","","","","","","",""
"7426","","image-button-response","50","551837","0.0-48.0-0.0","APWB9BS1SONNS","img_art/25.jpg","4","","","","","","","","","","","","","","","","","","","","","","","","",""
"1719","","image-button-response","51","553558","0.0-49.0-0.0","APWB9BS1SONNS","img_art/25.jpg","5","","","","","","","","","","","","","","","","","","","","","","","","",""
"null","","html-keyboard-response","52","555060","0.0-50.0","APWB9BS1SONNS","<p style=""font-size: 48px;"">+</p>","","","","","null","allTrialResponses","1500","1","1","img_art/25.jpg","-10","I feel this piece is a bid morbid, both in content and color scheme.","Hunter,Jake,Jeremy,Austin,Charles,Mitchell","do not like that color of green,-11,240,20","This is strange and poorly done.,-2,360,20","reminds me of ancient history which makes me happy,40,60,20","Love the color hues and the texture it creates,50,240,20","Cult-like, which to me makes it kind of creepy,-21,100,20","culture, tradition. Village people with an honored elder.,40,180,20","Jeremy","reminds me of ancient history which makes me happy,40,60,20","Charles","Cult-like, which to me makes it kind of creepy,-21,100,20","Mitchell","culture, tradition. Village people with an honored elder.,40,180,20","4"
"45853","","survey-text","53","600919","0.0-51.0-0.0","APWB9BS1SONNS","","","","{""Q0"":""I like this abstract depiction of a city.  The style is very unique.""}","","","","","","","","","","","","","","","","","","","","","","",""
"7624.799999952316","","image-slider-response","54","608545","0.0-52.0","APWB9BS1SONNS","","","","","20","","","","","","","","","","","","","","","","","","","","","",""
"3903","","image-button-response","55","613549","0.0-53.0","APWB9BS1SONNS","img_art/19.jpg","1","","","","","","","","","","","","","","","","","","","","","","","","",""
"1706","","image-button-response","56","615257","0.0-54.0","APWB9BS1SONNS","img_art/19.jpg","1","","","","","","","","","","","","","","","","","","","","","","","","",""
"8130","","image-button-response","57","623388","0.0-55.0-0.0","APWB9BS1SONNS","img_art/19.jpg","0","","","","","","","","","","","","","","","","","","","","","","","","",""
"2194","","image-button-response","58","625583","0.0-56.0-0.0","APWB9BS1SONNS","img_art/19.jpg","0","","","","","","","","","","","","","","","","","","","","","","","","",""
"876","","image-button-response","59","634758","0.0-56.1-0.1","APWB9BS1SONNS","img_art/19.jpg","4","","","","","","","","","","","","","","","","","","","","","","","","",""
"null","","html-keyboard-response","60","635260","0.0-57.0","APWB9BS1SONNS","<p style=""font-size: 48px;"">+</p>","","","","","null","allTrialResponses","500","1","2","img_art/19.jpg","20","I like this abstract depiction of a city.  The style is very unique.","Stephen,Paul,Jeremy,Antonio,Charles,Mitchell","Solid use of colors but wished it looked more realistic.,12,140,20","The shapes make me recall a city scene but it looks dirty,-22,300,20","it's too busy for me. Makes me feel stressed.,1,60,20","Chaotic. Too much going on in the picture,14,220,20","The blue makes it look like it has depth,11,100,20","Higher power looking down at its creation with a half smile and some hurt.,45,180,20","Paul","The shapes make me recall a city scene but it looks dirty,-22,300,20","Stephen","Solid use of colors but wished it looked more realistic.,12,140,20","Charles","The blue makes it look like it has depth,11,100,20","6"
"82430","","survey-text","61","717694","0.0-58.0-0.0","APWB9BS1SONNS","","","","{""Q0"":""The style really catches my attention. even though the picture depicts an overturned vehicle.""}","","","","","","","","","","","","","","","","","","","","","","",""
"6869.700000047684","","image-slider-response","62","724565","0.0-59.0","APWB9BS1SONNS","","","","","10","","","","","","","","","","","","","","","","","","","","","",""
"null","","image-button-response","63","729693","0.0-60.0","APWB9BS1SONNS","img_art/20.jpg","null","","","","","","","","","","","","","","","","","","","","","","","","",""
"9340","","image-button-response","64","739033","0.0-61.0","APWB9BS1SONNS","img_art/20.jpg","2","","","","","","","","","","","","","","","","","","","","","","","","",""
"4672","","image-button-response","65","743706","0.0-62.0-0.0","APWB9BS1SONNS","img_art/20.jpg","3","","","","","","","","","","","","","","","","","","","","","","","","",""
"4071","","image-button-response","66","747779","0.0-63.0-0.0","APWB9BS1SONNS","img_art/20.jpg","5","","","","","","","","","","","","","","","","","","","","","","","","",""
"null","","html-keyboard-response","67","749281","0.0-64.0","APWB9BS1SONNS","<p style=""font-size: 48px;"">+</p>","","","","","null","allTrialResponses","1500","1","3","img_art/20.jpg","10","The style really catches my attention. even though the picture depicts an overturned vehicle.","Stephen,Paul,Corey,Joseph,Charles,Andrew","Liked the background,15,140,20","It looks like a junkyard and isn't appealing,-22,300,20","It seems to be a neutral cool toned art piece. Gives me alamo/desert vibes,2,260,20","Something fell over and is burning, but it's kinda dope, you know?,14,220,20","Something bad has happened TO reality,-23,100,20","I just love this painting,47,160,20","Corey","It seems to be a neutral cool toned art piece. Gives me alamo/desert vibes,2,260,20","Joseph","Something fell over and is burning, but it's kinda dope, you know?,14,220,20","Andrew","I just love this painting,47,160,20","6"
"32349","","survey-text","68","781637","0.0-65.0-0.0","APWB9BS1SONNS","","","","{""Q0"":""I think this is skillfully done, but it would have benefitted from more than two colors.""}","","","","","","","","","","","","","","","","","","","","","","",""
"6073.899999976158","","image-slider-response","69","787712","0.0-66.0","APWB9BS1SONNS","","","","","-1","","","","","","","","","","","","","","","","","","","","","",""
"null","","image-button-response","70","792713","0.0-67.0","APWB9BS1SONNS","img_art/15.jpg","null","","","","","","","","","","","","","","","","","","","","","","","","",""
"16318","","image-button-response","71","809033","0.0-68.0","APWB9BS1SONNS","img_art/15.jpg","5","","","","","","","","","","","","","","","","","","","","","","","","",""
"3050","","image-button-response","72","812084","0.0-69.0-0.0","APWB9BS1SONNS","img_art/15.jpg","4","","","","","","","","","","","","","","","","","","","","","","","","",""
"2553","","image-button-response","73","814638","0.0-70.0-0.0","APWB9BS1SONNS","img_art/15.jpg","3","","","","","","","","","","","","","","","","","","","","","","","","",""
"null","","html-keyboard-response","74","815639","0.0-71.0","APWB9BS1SONNS","<p style=""font-size: 48px;"">+</p>","","","","","null","allTrialResponses","1000","1","4","img_art/15.jpg","-1","I think this is skillfully done, but it would have benefitted from more than two colors.","Bradley,Gregory,Corey,Joseph,Timothy,Andrew","I feel like there's ski jumping going on here.,2,300,20","Black and blue is my favorite color combination,35,220,20","i like the pop of blue within all the black,8,260,20","Bushes, good! Life, good!,12,220,20","This painting gives a calm vibe but no stronger emotions than that,10,240,20","The blues are soothing,21,160,20","Andrew","The blues are soothing,21,160,20","Timothy","This painting gives a calm vibe but no stronger emotions than that,10,240,20","Joseph","Bushes, good! Life, good!,12,220,20","6"
"50749","","survey-text","75","866391","0.0-72.0-0.0","APWB9BS1SONNS","","","","{""Q0"":""The marker lines ruin this picture.  Especially the green lines.""}","","","","","","","","","","","","","","","","","","","","","","",""
"3831.7999999523163","","image-slider-response","76","870224","0.0-73.0","APWB9BS1SONNS","","","","","-50","","","","","","","","","","","","","","","","","","","","","",""
"4205","","image-button-response","77","875226","0.0-74.0","APWB9BS1SONNS","img_art/27.jpg","0","","","","","","","","","","","","","","","","","","","","","","","","",""
"1233","","image-button-response","78","876460","0.0-75.0","APWB9BS1SONNS","img_art/27.jpg","0","","","","","","","","","","","","","","","","","","","","","","","","",""
"3114","","image-button-response","79","879575","0.0-76.0-0.0","APWB9BS1SONNS","img_art/27.jpg","2","","","","","","","","","","","","","","","","","","","","","","","","",""
"6589","","image-button-response","80","886166","0.0-77.0-0.0","APWB9BS1SONNS","img_art/27.jpg","5","","","","","","","","","","","","","","","","","","","","","","","","",""
"null","","html-keyboard-response","81","887668","0.0-78.0","APWB9BS1SONNS","<p style=""font-size: 48px;"">+</p>","","","","","null","allTrialResponses","1500","1","5","img_art/27.jpg","-50","The marker lines ruin this picture.  Especially the green lines.","Connor,Angel,Travis,Joseph,Timothy,Andrew","Looks like someone vandalized the original piece with a marker,-36,240,20","Makes me think of Japanese food. I perceive it as comfortable and healthy.,20,180,20","I don't like any of it...just scibbles.,-37,260,20","Don't know what it is, but I do like it.,10,220,20","The colors in this one are wonderful,20,240,20","Reminds me of a town on fire,-15,160,20","Connor","Looks like someone vandalized the original piece with a marker,-36,240,20","Travis","I don't like any of it...just scibbles.,-37,260,20","Andrew","Reminds me of a town on fire,-15,160,20","6"
"8148","","survey-text","82","895821","0.0-79.0-0.0","APWB9BS1SONNS","","","","{""Q0"":""sky""}","","","","","","","","","","","","","","","","","","","","","","",""
"39249","","survey-text","83","935071","0.0-80.0-0.0","APWB9BS1SONNS","","","","{""Q0"":""I feel like this is the sort of thing I would watch Bob Ross paint.  Very skillful use of watercolors.""}","","","","","","","","","","","","","","","","","","","","","","",""
"6196.700000047684","","image-slider-response","84","941269","0.0-81.0","APWB9BS1SONNS","","","","","40","","","","","","","","","","","","","","","","","","","","","",""
"null","","image-button-response","85","946272","0.0-82.0","APWB9BS1SONNS","img_art/26.jpg","null","","","","","","","","","","","","","","","","","","","","","","","","",""
"368","","image-button-response","86","946642","0.0-83.0","APWB9BS1SONNS","img_art/26.jpg","1","","","","","","","","","","","","","","","","","","","","","","","","",""
"1879","","image-button-response","87","948521","0.0-84.0-0.0","APWB9BS1SONNS","img_art/26.jpg","3","","","","","","","","","","","","","","","","","","","","","","","","",""
"2673","","image-button-response","88","951195","0.0-85.0-0.0","APWB9BS1SONNS","img_art/26.jpg","5","","","","","","","","","","","","","","","","","","","","","","","","",""
"null","","html-keyboard-response","89","951698","0.0-86.0","APWB9BS1SONNS","<p style=""font-size: 48px;"">+</p>","","","","","null","allTrialResponses","500","1","6","img_art/26.jpg","40","I feel like this is the sort of thing I would watch Bob Ross paint.  Very skillful use of watercolors.","Connor,Steven,Travis,Mark,Jason,Andrew","City scene in a park,23,240,20","This one is nicer, looks like a walk in a small, dreamy city,20,160,20","Neutral...nothing to say.,3,260,20","I get the feeling of a small old world street.,24,80,20","The colors look faded and blurry,2,20,20","Makes me want to walk down a cool street,20,160,20","Steven","This one is nicer, looks like a walk in a small, dreamy city,20,160,20","Mark","I get the feeling of a small old world street.,24,80,20","Andrew","Makes me want to walk down a cool street,20,160,20","6"
"26534","","survey-text","90","978234","0.0-87.0-0.0","APWB9BS1SONNS","","","","{""Q0"":""The red certainly catches my eye, but it looks like it was created by an amateur.""}","","","","","","","","","","","","","","","","","","","","","","",""
"6699.899999976158","","image-slider-response","91","984935","0.0-88.0","APWB9BS1SONNS","","","","","-40","","","","","","","","","","","","","","","","","","","","","",""
"3225","","image-button-response","92","989937","0.0-89.0","APWB9BS1SONNS","img_art/3.jpg","1","","","","","","","","","","","","","","","","","","","","","","","","",""
"667","","image-button-response","93","990606","0.0-90.0","APWB9BS1SONNS","img_art/3.jpg","1","","","","","","","","","","","","","","","","","","","","","","","","",""
"4142","","image-button-response","94","994749","0.0-91.0-0.0","APWB9BS1SONNS","img_art/3.jpg","3","","","","","","","","","","","","","","","","","","","","","","","","",""
"1325","","image-button-response","95","996075","0.0-92.0-0.0","APWB9BS1SONNS","img_art/3.jpg","4","","","","","","","","","","","","","","","","","","","","","","","","",""
"null","","html-keyboard-response","96","997577","0.0-93.0","APWB9BS1SONNS","<p style=""font-size: 48px;"">+</p>","","","","","null","allTrialResponses","1500","1","7","img_art/3.jpg","-40","The red certainly catches my eye, but it looks like it was created by an amateur.","Marcus,Steven,Christopher,Mark,Robert,Andrew","Like the colors and energy of this work.,10,60,20","i don't like this, just looks like scribbles,-50,160,20","the red is impactful but the work overall doesn't say anything to me,-8,160,20","I don't feel anything, it seems childish.,-25,80,20","I think of an angry child,-50,360,20","It doesn't make me think of art,-20,160,20","Steven","i don't like this, just looks like scribbles,-50,160,20","Mark","I don't feel anything, it seems childish.,-25,80,20","Robert","I think of an angry child,-50,360,20","6"
"41547","","survey-text","97","1039128","0.0-94.0-0.0","APWB9BS1SONNS","","","","{""Q0"":""To me, it seems like these are intriguing depictions of people.  I am not sure what it is trying to say though.""}","","","","","","","","","","","","","","","","","","","","","","",""
"5851.899999976158","","image-slider-response","98","1044981","0.0-95.0","APWB9BS1SONNS","","","","","5","","","","","","","","","","","","","","","","","","","","","",""
"null","","image-button-response","99","1049983","0.0-96.0","APWB9BS1SONNS","img_art/28.jpg","null","","","","","","","","","","","","","","","","","","","","","","","","",""
"7223","","image-button-response","100","1057207","0.0-97.0","APWB9BS1SONNS","img_art/28.jpg","3","","","","","","","","","","","","","","","","","","","","","","","","",""
"2289","","image-button-response","101","1059497","0.0-98.0-0.0","APWB9BS1SONNS","img_art/28.jpg","4","","","","","","","","","","","","","","","","","","","","","","","","",""
"3897","","image-button-response","102","1063395","0.0-99.0-0.0","APWB9BS1SONNS","img_art/28.jpg","1","","","","","","","","","","","","","","","","","","","","","","","","",""
"null","","html-keyboard-response","103","1063897","0.0-100.0","APWB9BS1SONNS","<p style=""font-size: 48px;"">+</p>","","","","","null","allTrialResponses","500","1","8","img_art/28.jpg","5","To me, it seems like these are intriguing depictions of people.  I am not sure what it is trying to say though.","Alex,Steven,Miguel,Mark,Robert,Jose","This piece is depressing to me, reminds me of German paintings,-6,100,20","It's a bike that was left abandoned by someone who doesnt care for it,1,160,20","Looks yucky and poor.,-33,160,20","It reminds me of the cantina in Star Wars.,37,80,20","The colors are neutral but I see a mother helping her child,31,360,20","Eh it's just kinda brown and muddy and not very nice looking,-18,200,20","Mark","It reminds me of the cantina in Star Wars.,37,80,20","Robert","The colors are neutral but I see a mother helping her child,31,360,20","Steven","It's a bike that was left abandoned by someone who doesnt care for it,1,160,20","6"
"24712","","survey-text","104","1088613","0.0-101.0-0.0","APWB9BS1SONNS","","","","{""Q0"":""It looks a bit like a houseplant with unnecessary colors thrown in.""}","","","","","","","","","","","","","","","","","","","","","","",""
"4702.800000071526","","image-slider-response","105","1093317","0.0-102.0","APWB9BS1SONNS","","","","","-10","","","","","","","","","","","","","","","","","","","","","",""
"null","","image-button-response","106","1098320","0.0-103.0","APWB9BS1SONNS","img_art/14.jpg","null","","","","","","","","","","","","","","","","","","","","","","","","",""
"1387","","image-button-response","107","1099708","0.0-104.0","APWB9BS1SONNS","img_art/14.jpg","0","","","","","","","","","","","","","","","","","","","","","","","","",""
"2696","","image-button-response","108","1102405","0.0-105.0-0.0","APWB9BS1SONNS","img_art/14.jpg","3","","","","","","","","","","","","","","","","","","","","","","","","",""
"2403","","image-button-response","109","1104809","0.0-106.0-0.0","APWB9BS1SONNS","img_art/14.jpg","4","","","","","","","","","","","","","","","","","","","","","","","","",""
"null","","html-keyboard-response","110","1106311","0.0-107.0","APWB9BS1SONNS","<p style=""font-size: 48px;"">+</p>","","","","","null","allTrialResponses","1500","1","9","img_art/14.jpg","-10","It looks a bit like a houseplant with unnecessary colors thrown in.","Joshua,Steven,Brett,Mark,Robert,Ryan","This doesn't speak to me on an emotional level,-6,240,20","this one isn't bad, reminds me a tree that gives life, and people are waiting for someone new to be born,27,160,20","Confusion or an explosion,40,360,20","Cute little plant.,15,80,20","Late Winter when things are just starting to bloom.,21,360,20","Gorgeous use of water color,50,380,20","Joshua","This doesn't speak to me on an emotional level,-6,240,20","Mark","Cute little plant.,15,80,20","Robert","Late Winter when things are just starting to bloom.,21,360,20","6"
"32347","","survey-text","111","1138664","0.0-108.0-0.0","APWB9BS1SONNS","","","","{""Q0"":""It looks like a city skyline, but it is hard to make out any details.""}","","","","","","","","","","","","","","","","","","","","","","",""
"7293","","image-slider-response","112","1145958","0.0-109.0","APWB9BS1SONNS","","","","","-10","","","","","","","","","","","","","","","","","","","","","",""
"null","","image-button-response","113","1150961","0.0-110.0","APWB9BS1SONNS","img_art/22.jpg","null","","","","","","","","","","","","","","","","","","","","","","","","",""
"1104","","image-button-response","114","1152066","0.0-111.0","APWB9BS1SONNS","img_art/22.jpg","2","","","","","","","","","","","","","","","","","","","","","","","","",""
"2214","","image-button-response","115","1154281","0.0-112.0-0.0","APWB9BS1SONNS","img_art/22.jpg","3","","","","","","","","","","","","","","","","","","","","","","","","",""
"2269","","image-button-response","116","1156552","0.0-113.0-0.0","APWB9BS1SONNS","img_art/22.jpg","4","","","","","","","","","","","","","","","","","","","","","","","","",""
"null","","html-keyboard-response","117","1158054","0.0-114.0","APWB9BS1SONNS","<p style=""font-size: 48px;"">+</p>","","","","","null","allTrialResponses","1500","1","10","img_art/22.jpg","-10","It looks like a city skyline, but it is hard to make out any details.","Joshua,Carlos,Kyle,Mark,Robert,Derek","This one would work in the right frame. It's nice.,20,240,20","The colors are pleasant, the shapes are inviting.,21,80,20","I appreciate the artistic effort but it's not for me,0,340,20","I don't feel much of anything.,0,80,20","I don't get much of a reaction.,11,360,20","Really pretty. Love the colors.,30,360,20","Kyle","I appreciate the artistic effort but it's not for me,0,340,20","Mark","I don't feel much of anything.,0,80,20","Robert","I don't get much of a reaction.,11,360,20","6"
"7257","","survey-text","118","1165317","0.0-115.0-0.0","APWB9BS1SONNS","","","","{""Q0"":""our""}","","","","","","","","","","","","","","","","","","","","","","",""
"30413","","survey-text","119","1195732","0.0-116.0-0.0","APWB9BS1SONNS","","","","{""Q0"":""Smoke from a chimney.  I feel like anybody could do this.""}","","","","","","","","","","","","","","","","","","","","","","",""
"5137.200000047684","","image-slider-response","120","1200870","0.0-117.0","APWB9BS1SONNS","","","","","-20","","","","","","","","","","","","","","","","","","","","","",""
"4702","","image-button-response","121","1205872","0.0-118.0","APWB9BS1SONNS","img_art/4.jpg","0","","","","","","","","","","","","","","","","","","","","","","","","",""
"494","","image-button-response","122","1206368","0.0-119.0","APWB9BS1SONNS","img_art/4.jpg","0","","","","","","","","","","","","","","","","","","","","","","","","",""
"2441","","image-button-response","123","1208810","0.0-120.0-0.0","APWB9BS1SONNS","img_art/4.jpg","1","","","","","","","","","","","","","","","","","","","","","","","","",""
"3824","","image-button-response","124","1212635","0.0-121.0-0.0","APWB9BS1SONNS","img_art/4.jpg","4","","","","","","","","","","","","","","","","","","","","","","","","",""
"null","","html-keyboard-response","125","1214149","0.0-122.0","APWB9BS1SONNS","<p style=""font-size: 48px;"">+</p>","","","","","null","allTrialResponses","1500","1","11","img_art/4.jpg","-20","Smoke from a chimney.  I feel like anybody could do this.","Tyler,Anthony,Kyle,Mark,Robert,Victor","This is what makes suburban dads say, ""my 4-year-old can do that."",-49,320,20","Ugly and bland compared to the other pieces.,-33,200,20","It's quite meh to me,0,340,20","I think it speaks to familial closeness but the tonality is offputting to me.,-10,80,20","It looks like a hand someone scribbled over,-30,360,20","Hate the color, and just do not get the point.,-13,340,20","Tyler","This is what makes suburban dads say, ""my 4-year-old can do that."",-49,320,20","Anthony","Ugly and bland compared to the other pieces.,-33,200,20","Robert","It looks like a hand someone scribbled over,-30,360,20","6"
"55681","","survey-text","126","1269836","0.0-123.0-0.0","APWB9BS1SONNS","","","","{""Q0"":""Its like viewing the creation of a work of art through a hole in the floor.  It is certainly an interesting concept.""}","","","","","","","","","","","","","","","","","","","","","","",""
"4446.899999976158","","image-slider-response","127","1274284","0.0-124.0","APWB9BS1SONNS","","","","","25","","","","","","","","","","","","","","","","","","","","","",""
"null","","image-button-response","128","1279286","0.0-125.0","APWB9BS1SONNS","img_art/29.jpg","null","","","","","","","","","","","","","","","","","","","","","","","","",""
"5172","","image-button-response","129","1284459","0.0-126.0","APWB9BS1SONNS","img_art/29.jpg","1","","","","","","","","","","","","","","","","","","","","","","","","",""
"873","","image-button-response","130","1285333","0.0-127.0-0.0","APWB9BS1SONNS","img_art/29.jpg","0","","","","","","","","","","","","","","","","","","","","","","","","",""
"5842","","image-button-response","131","1291176","0.0-128.0-0.0","APWB9BS1SONNS","img_art/29.jpg","4","","","","","","","","","","","","","","","","","","","","","","","","",""
"null","","html-keyboard-response","132","1292678","0.0-129.0","APWB9BS1SONNS","<p style=""font-size: 48px;"">+</p>","","","","","null","allTrialResponses","1500","1","12","img_art/29.jpg","25","Its like viewing the creation of a work of art through a hole in the floor.  It is certainly an interesting concept.","Tyler,Anthony,Jordan,Patrick,Robert,Jared","Well if the artist themself is crossing it out, why should I pay any mind?,-30,320,20","Very interesting composition,41,200,20","Messy and disorganized, to odark,-31,160,20","I don't like the black,-50,280,20","Looks like a murder,-50,360,20","not digging the paintbrush,1,400,20","Anthony","Very interesting composition,41,200,20","Tyler","Well if the artist themself is crossing it out, why should I pay any mind?,-30,320,20","Robert","Looks like a murder,-50,360,20","6"
"32798","","survey-text","133","1325482","0.0-130.0-0.0","APWB9BS1SONNS","","","","{""Q0"":""I see a face in the smoky haze.  I am not sure of the significance. ""}","","","","","","","","","","","","","","","","","","","","","","",""
"9645.799999952316","","image-slider-response","134","1335128","0.0-131.0","APWB9BS1SONNS","","","","","5","","","","","","","","","","","","","","","","","","","","","",""
"2353","","image-button-response","135","1340130","0.0-132.0","APWB9BS1SONNS","img_art/17.jpg","0","","","","","","","","","","","","","","","","","","","","","","","","",""
"917","","image-button-response","136","1341049","0.0-133.0","APWB9BS1SONNS","img_art/17.jpg","0","","","","","","","","","","","","","","","","","","","","","","","","",""
"4309","","image-button-response","137","1345359","0.0-134.0-0.0","APWB9BS1SONNS","img_art/17.jpg","3","","","","","","","","","","","","","","","","","","","","","","","","",""
"3454","","image-button-response","138","1348815","0.0-135.0-0.0","APWB9BS1SONNS","img_art/17.jpg","5","","","","","","","","","","","","","","","","","","","","","","","","",""
"null","","html-keyboard-response","139","1349816","0.0-136.0","APWB9BS1SONNS","<p style=""font-size: 48px;"">+</p>","","","","","null","allTrialResponses","1000","1","13","img_art/17.jpg","5","I see a face in the smoky haze.  I am not sure of the significance. ","Tyler,Anthony,Benjamin,Gabriel,Robert,David","No strong reaction. Beautiful design, but hue appears taciturn. Bad photograph?,1,320,20","Very elegant, this design reminds me of trees,31,200,20","Don't really like pastels.,-10,260,20","this ones alright,10,160,20","The wispy trees caught my eye.,42,360,20","I like how the image gives an impression of gaseous tree.,15,340,20","Tyler","No strong reaction. Beautiful design, but hue appears taciturn. Bad photograph?,1,320,20","Gabriel","this ones alright,10,160,20","David","I like how the image gives an impression of gaseous tree.,15,340,20","6"
"51069","","survey-text","140","1400892","0.0-137.0-0.0","APWB9BS1SONNS","","","","{""Q0"":""An abstract depiction of cars traversing a highway.  Very creative.""}","","","","","","","","","","","","","","","","","","","","","","",""
"10747.599999904633","","image-slider-response","141","1411640","0.0-138.0","APWB9BS1SONNS","","","","","26","","","","","","","","","","","","","","","","","","","","","",""
"4433","","image-button-response","142","1416642","0.0-139.0","APWB9BS1SONNS","img_art/11.jpg","0","","","","","","","","","","","","","","","","","","","","","","","","",""
"970","","image-button-response","143","1417613","0.0-140.0","APWB9BS1SONNS","img_art/11.jpg","0","","","","","","","","","","","","","","","","","","","","","","","","",""
"1289","","image-button-response","144","1418904","0.0-141.0-0.0","APWB9BS1SONNS","img_art/11.jpg","2","","","","","","","","","","","","","","","","","","","","","","","","",""
"4776","","image-button-response","145","1423681","0.0-142.0-0.0","APWB9BS1SONNS","img_art/11.jpg","4","","","","","","","","","","","","","","","","","","","","","","","","",""
"null","","html-keyboard-response","146","1424682","0.0-143.0","APWB9BS1SONNS","<p style=""font-size: 48px;"">+</p>","","","","","null","allTrialResponses","1000","1","14","img_art/11.jpg","26","An abstract depiction of cars traversing a highway.  Very creative.","Tyler,Vincent,Bryan,Gabriel,Edward,David","Rainy day at an urban sea port. Portugal?,30,320,20","Looks like a familiar area,31,360,20","Rainy asian city scape.,31,400,20","its like telephone wires, or mountains,-17,160,20","Reminds me of a city and how chaotic it can be,22,60,20","I like how this piece can be interpreted in different ways, such as a village on hilly terrain.,10,340,20","Tyler","Rainy day at an urban sea port. Portugal?,30,320,20","Bryan","Rainy asian city scape.,31,400,20","Edward","Reminds me of a city and how chaotic it can be,22,60,20","6"
"26204","","survey-text","147","1450893","0.0-144.0-0.0","APWB9BS1SONNS","","","","{""Q0"":""I feel like this depicts people, but it is very hard to tell.""}","","","","","","","","","","","","","","","","","","","","","","",""
"7027","","image-slider-response","148","1457921","0.0-145.0","APWB9BS1SONNS","","","","","-25","","","","","","","","","","","","","","","","","","","","","",""
"2314","","image-button-response","149","1462924","0.0-146.0","APWB9BS1SONNS","img_art/2.jpg","1","","","","","","","","","","","","","","","","","","","","","","","","",""
"782","","image-button-response","150","1463707","0.0-147.0","APWB9BS1SONNS","img_art/2.jpg","1","","","","","","","","","","","","","","","","","","","","","","","","",""
"12370","","image-button-response","151","1476079","0.0-148.0-0.0","APWB9BS1SONNS","img_art/2.jpg","5","","","","","","","","","","","","","","","","","","","","","","","","",""
"4264","","image-button-response","152","1480344","0.0-149.0-0.0","APWB9BS1SONNS","img_art/2.jpg","2","","","","","","","","","","","","","","","","","","","","","","","","",""
"null","","html-keyboard-response","153","1481846","0.0-150.0","APWB9BS1SONNS","<p style=""font-size: 48px;"">+</p>","","","","","null","allTrialResponses","1500","1","15","img_art/2.jpg","-25","I feel like this depicts people, but it is very hard to tell.","Tyler,Christian,Bryan,Dalton,Edward,Jonathan","Grim and overwhelming,-6,320,20","do not understand,-21,140,20","Like the colors but reminds me of a kids show done in cubism.,0,400,20","i like the colors and again can make out my own picture,38,300,20","My immediate reaction was it looked like a class but then I saw a smile in the middle,11,60,20","It's a cool piece but honestly these color choices are the worst thing in the world,-31,140,20","Christian","do not understand,-21,140,20","Jonathan","It's a cool piece but honestly these color choices are the worst thing in the world,-31,140,20","Bryan","Like the colors but reminds me of a kids show done in cubism.,0,400,20","6"
"10625","","survey-text","154","1492480","0.0-151.0-0.0","APWB9BS1SONNS","","","","{""Q0"":""course""}","","","","","","","","","","","","","","","","","","","","","","",""
"33139","","survey-text","155","1525620","0.0-152.0-0.0","APWB9BS1SONNS","","","","{""Q0"":""The face above the castle really caught my eye.  I like the style of this a great deal.""}","","","","","","","","","","","","","","","","","","","","","","",""
"4679.899999976158","","image-slider-response","156","1530301","0.0-153.0","APWB9BS1SONNS","","","","","25","","","","","","","","","","","","","","","","","","","","","",""
"2507","","image-button-response","157","1535304","0.0-154.0","APWB9BS1SONNS","img_art/8.jpg","1","","","","","","","","","","","","","","","","","","","","","","","","",""
"460","","image-button-response","158","1535767","0.0-155.0","APWB9BS1SONNS","img_art/8.jpg","1","","","","","","","","","","","","","","","","","","","","","","","","",""
"3283","","image-button-response","159","1539051","0.0-156.0-0.0","APWB9BS1SONNS","img_art/8.jpg","2","","","","","","","","","","","","","","","","","","","","","","","","",""
"3555","","image-button-response","160","1542608","0.0-157.0-0.0","APWB9BS1SONNS","img_art/8.jpg","3","","","","","","","","","","","","","","","","","","","","","","","","",""
"null","","html-keyboard-response","161","1543609","0.0-158.0","APWB9BS1SONNS","<p style=""font-size: 48px;"">+</p>","","","","","null","allTrialResponses","1000","1","16","img_art/8.jpg","25","The face above the castle really caught my eye.  I like the style of this a great deal.","Alexis,Christian,Bryan,Ian,Trevor,Jonathan","I like that it sort of looks like a cityscape,9,140,20","gives off inception vibes <3,50,140,20","Like the colors & the imagery - old city, native peoples maybe.,20,400,20","I like this, the longer I look at in the more details I see.,41,260,20","it looks very 80's and kind of scary,-11,280,20","It's very grand and ominous but I like it,25,140,20","Christian","gives off inception vibes <3,50,140,20","Bryan","Like the colors & the imagery - old city, native peoples maybe.,20,400,20","Ian","I like this, the longer I look at in the more details I see.,41,260,20","6"
"23992","","survey-text","162","1567605","0.0-159.0-0.0","APWB9BS1SONNS","","","","{""Q0"":""I do not know what this is supposed to depict, but I do like the colors.""}","","","","","","","","","","","","","","","","","","","","","","",""
"4688","","image-slider-response","163","1572294","0.0-160.0","APWB9BS1SONNS","","","","","-10","","","","","","","","","","","","","","","","","","","","","",""
"3042","","image-button-response","164","1577296","0.0-161.0","APWB9BS1SONNS","img_art/1.jpg","1","","","","","","","","","","","","","","","","","","","","","","","","",""
"601","","image-button-response","165","1577898","0.0-162.0","APWB9BS1SONNS","img_art/1.jpg","1","","","","","","","","","","","","","","","","","","","","","","","","",""
"2560","","image-button-response","166","1580459","0.0-163.0-0.0","APWB9BS1SONNS","img_art/1.jpg","2","","","","","","","","","","","","","","","","","","","","","","","","",""
"5661","","image-button-response","167","1586121","0.0-164.0-0.0","APWB9BS1SONNS","img_art/1.jpg","5","","","","","","","","","","","","","","","","","","","","","","","","",""
"null","","html-keyboard-response","168","1587123","0.0-165.0","APWB9BS1SONNS","<p style=""font-size: 48px;"">+</p>","","","","","null","allTrialResponses","1000","1","17","img_art/1.jpg","-10","I do not know what this is supposed to depict, but I do like the colors.","Nathan,Christian,Bryan,Ian,Nicholas,Devin","Not a fan of the mood, overly party-ish and bright colors do not suit my taste,-40,200,20","bamboo boat in sunset,12,140,20","Again, like the colors & abstractness.,29,400,20","Someone painted a landscape and decided they didn't like it so they covered it up.,13,260,20","Love the colors but it makes me feel like someone is looking at me through it,38,240,20","Quite messy looking,-22,380,20","Christian","bamboo boat in sunset,12,140,20","Bryan","Again, like the colors & abstractness.,29,400,20","Devin","Quite messy looking,-22,380,20","6"
"26526","","survey-text","169","1613653","0.0-166.0-0.0","APWB9BS1SONNS","","","","{""Q0"":""It vaguely resembles a mountain range to me, but it is too unclear for me to be sure.""}","","","","","","","","","","","","","","","","","","","","","","",""
"5718","","image-slider-response","170","1619372","0.0-167.0","APWB9BS1SONNS","","","","","5","","","","","","","","","","","","","","","","","","","","","",""
"null","","image-button-response","171","1624374","0.0-168.0","APWB9BS1SONNS","img_art/7.jpg","null","","","","","","","","","","","","","","","","","","","","","","","","",""
"1539","","image-button-response","172","1625914","0.0-169.0","APWB9BS1SONNS","img_art/7.jpg","2","","","","","","","","","","","","","","","","","","","","","","","","",""
"3059","","image-button-response","173","1628974","0.0-170.0-0.0","APWB9BS1SONNS","img_art/7.jpg","1","","","","","","","","","","","","","","","","","","","","","","","","",""
"2576","","image-button-response","174","1631551","0.0-171.0-0.0","APWB9BS1SONNS","img_art/7.jpg","4","","","","","","","","","","","","","","","","","","","","","","","","",""
"null","","html-keyboard-response","175","1633053","0.0-172.0","APWB9BS1SONNS","<p style=""font-size: 48px;"">+</p>","","","","","null","allTrialResponses","1500","1","18","img_art/7.jpg","5","It vaguely resembles a mountain range to me, but it is too unclear for me to be sure.","Juan,Christian,Bryan,John,Adam,Devin","This is borning and lifeless.,-50,260,20","would love to take a closer look at the texture,15,140,20","Makes me itch - looks like a closeup of an ant colony or something.,-1,400,20","It looks like someone took a picture of a muddy ground and called it art.,-41,120,20","I like the earth tones here,5,40,20","Not very big on the sameness here,-20,380,20","Bryan","Makes me itch - looks like a closeup of an ant colony or something.,-1,400,20","Christian","would love to take a closer look at the texture,15,140,20","Adam","I like the earth tones here,5,40,20","6"
"30538","","survey-text","176","1663597","0.0-173.0-0.0","APWB9BS1SONNS","","","","{""Q0"":""I like how each square is kind of its own picture.  A lot to digest here.""}","","","","","","","","","","","","","","","","","","","","","","",""
"6167.100000023842","","image-slider-response","177","1669765","0.0-174.0","APWB9BS1SONNS","","","","","30","","","","","","","","","","","","","","","","","","","","","",""
"2383","","image-button-response","178","1674767","0.0-175.0","APWB9BS1SONNS","img_art/12.jpg","0","","","","","","","","","","","","","","","","","","","","","","","","",""
"738","","image-button-response","179","1675508","0.0-176.0","APWB9BS1SONNS","img_art/12.jpg","0","","","","","","","","","","","","","","","","","","","","","","","","",""
"862","","image-button-response","180","1676370","0.0-177.0-0.0","APWB9BS1SONNS","img_art/12.jpg","1","","","","","","","","","","","","","","","","","","","","","","","","",""
"6462","","image-button-response","181","1682834","0.0-178.0-0.0","APWB9BS1SONNS","img_art/12.jpg","3","","","","","","","","","","","","","","","","","","","","","","","","",""
"null","","html-keyboard-response","182","1683848","0.0-179.0","APWB9BS1SONNS","<p style=""font-size: 48px;"">+</p>","","","","","null","allTrialResponses","1000","1","19","img_art/12.jpg","30","I like how each square is kind of its own picture.  A lot to digest here.","Jorge,Christian,Bryan,Aaron,Adam,Zachary","Windows to a different story,6,180,20","so many different available interpretations for this, would love to closer.,24,140,20","Love the colors & the abstractness.,31,400,20","Therapist wall art.,10,20,20","Minimalist colors and shapes.,-5,40,20","I like how it's split into tiny squares, but otherwise, not very intriguing.,-18,400,20","Jorge","Windows to a different story,6,180,20","Christian","so many different available interpretations for this, would love to closer.,24,140,20","Aaron","Therapist wall art.,10,20,20","6"
"37190","","survey-text","183","1721044","0.0-180.0-0.0","APWB9BS1SONNS","","","","{""Q0"":""I feel like this is taking place in space.  It feels very \""sci fi\"" to me.""}","","","","","","","","","","","","","","","","","","","","","","",""
"3449.2000000476837","","image-slider-response","184","1724495","0.0-181.0","APWB9BS1SONNS","","","","","25","","","","","","","","","","","","","","","","","","","","","",""
"null","","image-button-response","185","1729497","0.0-182.0","APWB9BS1SONNS","img_art/23.jpg","null","","","","","","","","","","","","","","","","","","","","","","","","",""
"209","","image-button-response","186","1729708","0.0-183.0","APWB9BS1SONNS","img_art/23.jpg","0","","","","","","","","","","","","","","","","","","","","","","","","",""
"2477","","image-button-response","187","1732186","0.0-184.0-0.0","APWB9BS1SONNS","img_art/23.jpg","3","","","","","","","","","","","","","","","","","","","","","","","","",""
"3147","","image-button-response","188","1735334","0.0-185.0-0.0","APWB9BS1SONNS","img_art/23.jpg","1","","","","","","","","","","","","","","","","","","","","","","","","",""
"null","","html-keyboard-response","189","1736849","0.0-186.0","APWB9BS1SONNS","<p style=""font-size: 48px;"">+</p>","","","","","null","allTrialResponses","1500","1","20","img_art/23.jpg","25","I feel like this is taking place in space.  It feels very ""sci fi"" to me.","Jorge,Christian,Evan,Aaron,Adrian,Michael","puzzled with curiosity,31,180,20","love the contrast (was this painted by a left-handed artist?),7,140,20","It feels exciting,23,140,20","I love the colors and the contrast.,50,20,20","Too much contrasting colors together. I hate it.,-50,60,20","I don't get it.,-40,140,20","Jorge","puzzled with curiosity,31,180,20","Aaron","I love the colors and the contrast.,50,20,20","Christian","love the contrast (was this painted by a left-handed artist?),7,140,20","6"
"6623","","survey-text","190","1743485","0.0-187.0-0.0","APWB9BS1SONNS","","","","{""Q0"":""we""}","","","","","","","","","","","","","","","","","","","","","","",""
"35178","","survey-text","191","1778664","0.0-188.0-0.0","APWB9BS1SONNS","","","","{""Q0"":""I feel like this painting would be better without the globs of paint that makes it look like something was spilled.""}","","","","","","","","","","","","","","","","","","","","","","",""
"3407.600000023842","","image-slider-response","192","1782073","0.0-189.0","APWB9BS1SONNS","","","","","-30","","","","","","","","","","","","","","","","","","","","","",""
"3905","","image-button-response","193","1787089","0.0-190.0","APWB9BS1SONNS","img_art/13.jpg","2","","","","","","","","","","","","","","","","","","","","","","","","",""
"437","","image-button-response","194","1787528","0.0-191.0","APWB9BS1SONNS","img_art/13.jpg","2","","","","","","","","","","","","","","","","","","","","","","","","",""
"2711","","image-button-response","195","1790240","0.0-192.0-0.0","APWB9BS1SONNS","img_art/13.jpg","3","","","","","","","","","","","","","","","","","","","","","","","","",""
"3226","","image-button-response","196","1793467","0.0-193.0-0.0","APWB9BS1SONNS","img_art/13.jpg","4","","","","","","","","","","","","","","","","","","","","","","","","",""
"null","","html-keyboard-response","197","1794469","0.0-194.0","APWB9BS1SONNS","<p style=""font-size: 48px;"">+</p>","","","","","null","allTrialResponses","1000","1","21","img_art/13.jpg","-30","I feel like this painting would be better without the globs of paint that makes it look like something was spilled.","Jorge,Christian,Sean,Aaron,Richard,Cole","It reminds me of rain,11,180,20","love the style but not very novel,9,140,20","I like the colors,7,40,20","It reminds me of a window on a rainy day.,40,20,20","kind of like the pattern and colors but don't love it,13,340,20","The blue colors are very calming. Reminds me of water,33,200,20","Sean","I like the colors,7,40,20","Aaron","It reminds me of a window on a rainy day.,40,20,20","Richard","kind of like the pattern and colors but don't love it,13,340,20","6"
"59220","","survey-text","198","1853696","0.0-195.0-0.0","APWB9BS1SONNS","","","","{""Q0"":""I was wondering if this was sheet music reformed into a railroad track.""}","","","","","","","","","","","","","","","","","","","","","","",""
"8270","","image-slider-response","199","1861967","0.0-196.0","APWB9BS1SONNS","","","","","5","","","","","","","","","","","","","","","","","","","","","",""
"null","","image-button-response","200","1866970","0.0-197.0","APWB9BS1SONNS","img_art/10.jpg","null","","","","","","","","","","","","","","","","","","","","","","","","",""
"362","","image-button-response","201","1867334","0.0-198.0","APWB9BS1SONNS","img_art/10.jpg","5","","","","","","","","","","","","","","","","","","","","","","","","",""
"11138","","image-button-response","202","1878473","0.0-199.0-0.0","APWB9BS1SONNS","img_art/10.jpg","4","","","","","","","","","","","","","","","","","","","","","","","","",""
"2440","","image-button-response","203","1880915","0.0-200.0-0.0","APWB9BS1SONNS","img_art/10.jpg","3","","","","","","","","","","","","","","","","","","","","","","","","",""
"null","","html-keyboard-response","204","1882417","0.0-201.0","APWB9BS1SONNS","<p style=""font-size: 48px;"">+</p>","","","","","null","allTrialResponses","1500","1","22","img_art/10.jpg","5","I was wondering if this was sheet music reformed into a railroad track.","Dustin,Seth,Sean,Aaron,Richard,Jesse","Dark and weird. Unidentifiable shape. I can't tell what it is, so I don't like it.,-50,20,20","It reminds me of the ocean. Almost like a battlefield, but on the water.,19,60,20","I see a rollercoaster,23,40,20","I like how simple but intricate it is.,30,20,20","interesting portrayal of a violin?,10,340,20","It makes me think of music and i love the reflective aspect,29,80,20","Jesse","It makes me think of music and i love the reflective aspect,29,80,20","Richard","interesting portrayal of a violin?,10,340,20","Aaron","I like how simple but intricate it is.,30,20,20","6"
"29917","","survey-text","205","1912339","0.0-202.0-0.0","APWB9BS1SONNS","","","","{""Q0"":""A beautiful waterfall done in a very satisfying style.""}","","","","","","","","","","","","","","","","","","","","","","",""
"3918.7999999523163","","image-slider-response","206","1916259","0.0-203.0","APWB9BS1SONNS","","","","","40","","","","","","","","","","","","","","","","","","","","","",""
"1749","","image-button-response","207","1921262","0.0-204.0","APWB9BS1SONNS","img_art/24.jpg","1","","","","","","","","","","","","","","","","","","","","","","","","",""
"818","","image-button-response","208","1922082","0.0-205.0","APWB9BS1SONNS","img_art/24.jpg","1","","","","","","","","","","","","","","","","","","","","","","","","",""
"433","","image-button-response","209","1922516","0.0-206.0-0.0","APWB9BS1SONNS","img_art/24.jpg","0","","","","","","","","","","","","","","","","","","","","","","","","",""
"1337","","image-button-response","210","1923854","0.0-207.0-0.0","APWB9BS1SONNS","img_art/24.jpg","0","","","","","","","","","","","","","","","","","","","","","","","","",""
"990","","image-button-response","211","1932381","0.0-207.1-0.1","APWB9BS1SONNS","img_art/24.jpg","2","","","","","","","","","","","","","","","","","","","","","","","","",""
"null","","html-keyboard-response","212","1932884","0.0-208.0","APWB9BS1SONNS","<p style=""font-size: 48px;"">+</p>","","","","","null","allTrialResponses","500","1","23","img_art/24.jpg","40","A beautiful waterfall done in a very satisfying style.","Thomas,Jeffrey,Scott,Aaron,Richard,Jesse","Beautiful colors and texture,20,220,20","Very refreshing and vigorous,19,40,20","pretty like a waterfall,22,20,20","I like how it evokes the feeling of being in a forest. The colors are pretty,31,20,20","flowing water part is good, some of the rest is ok but dark,14,340,20","Love the colors and contrast. Feels peaceful.,33,80,20","Jeffrey","Very refreshing and vigorous,19,40,20","Thomas","Beautiful colors and texture,20,220,20","Scott","pretty like a waterfall,22,20,20","8"
"29850","","survey-text","213","1962739","0.0-209.0-0.0","APWB9BS1SONNS","","","","{""Q0"":""It looks like a drooling monster in a television.""}","","","","","","","","","","","","","","","","","","","","","","",""
"5222","","image-slider-response","214","1967962","0.0-210.0","APWB9BS1SONNS","","","","","30","","","","","","","","","","","","","","","","","","","","","",""
"null","","image-button-response","215","1972972","0.0-211.0","APWB9BS1SONNS","img_art/9.jpg","null","","","","","","","","","","","","","","","","","","","","","","","","",""
"6927","","image-button-response","216","1979901","0.0-212.0","APWB9BS1SONNS","img_art/9.jpg","4","","","","","","","","","","","","","","","","","","","","","","","","",""
"6044","","image-button-response","217","1985946","0.0-213.0-0.0","APWB9BS1SONNS","img_art/9.jpg","0","","","","","","","","","","","","","","","","","","","","","","","","",""
"969","","image-button-response","218","1986916","0.0-214.0-0.0","APWB9BS1SONNS","img_art/9.jpg","0","","","","","","","","","","","","","","","","","","","","","","","","",""
"6739","","image-button-response","219","1997744","0.0-214.1-0.1","APWB9BS1SONNS","img_art/9.jpg","5","","","","","","","","","","","","","","","","","","","","","","","","",""
"null","","html-keyboard-response","220","1999260","0.0-215.0","APWB9BS1SONNS","<p style=""font-size: 48px;"">+</p>","","","","","null","allTrialResponses","1500","1","24","img_art/9.jpg","30","It looks like a drooling monster in a television.","Thomas,Jeffrey,Scott,Nathaniel,Noah,Jack","I don't like the picture, but it wouldn't surprise me if someone did,-20,220,20","Looks very relaxing; someone laying in a meadow,13,40,20","looks like someone resting,12,20,20","Not very enticing. No real substance other than a lady laying down,-35,220,20","while I don't dispute the art, it feels childish,-20,260,20","gorgeous colors, love the little details,42,320,20","Noah","while I don't dispute the art, it feels childish,-20,260,20","Thomas","I don't like the picture, but it wouldn't surprise me if someone did,-20,220,20","Jack","gorgeous colors, love the little details,42,320,20","10"
"22774","","survey-text","221","2022041","0.0-216.0-0.0","APWB9BS1SONNS","","","","{""Q0"":""A simplistic depiction of a bird standing on the ground.""}","","","","","","","","","","","","","","","","","","","","","","",""
"2973","","image-slider-response","222","2025015","0.0-217.0","APWB9BS1SONNS","","","","","5","","","","","","","","","","","","","","","","","","","","","",""
"2133","","image-button-response","223","2030017","0.0-218.0","APWB9BS1SONNS","img_art/6.jpg","2","","","","","","","","","","","","","","","","","","","","","","","","",""
"649","","image-button-response","224","2030668","0.0-219.0","APWB9BS1SONNS","img_art/6.jpg","2","","","","","","","","","","","","","","","","","","","","","","","","",""
"755","","image-button-response","225","2031423","0.0-220.0-0.0","APWB9BS1SONNS","img_art/6.jpg","0","","","","","","","","","","","","","","","","","","","","","","","","",""
"5857","","image-button-response","226","2037282","0.0-221.0-0.0","APWB9BS1SONNS","img_art/6.jpg","3","","","","","","","","","","","","","","","","","","","","","","","","",""
"null","","html-keyboard-response","227","2038284","0.0-222.0","APWB9BS1SONNS","<p style=""font-size: 48px;"">+</p>","","","","","null","allTrialResponses","1000","1","25","img_art/6.jpg","5","A simplistic depiction of a bird standing on the ground.","Thomas,Matthew,Shane,Tanner,Noah,Jack","I like the color and the gradient,10,220,20","A lot of people will lvoe this, I do not.,1,120,20","A bird standing in the sun,37,80,20","loneliness, fragile, forever alone, a girl who's been there for eternity, only think tracking time is the length of her hair,9,180,20","intrigues me - not sure what I'm seeing, but I like combination of colour and texture,21,260,20","I like the bottom half, but not the top,-7,320,20","Shane","A bird standing in the sun,37,80,20","Thomas","I like the color and the gradient,10,220,20","Tanner","loneliness, fragile, forever alone, a girl who's been there for eternity, only think tracking time is the length of her hair,9,180,20","10"
"5005","","survey-text","228","2043304","0.0-223.0-0.0","APWB9BS1SONNS","","","","{""Q0"":""table""}","","","","","","","","","","","","","","","","","","","","","","",""
"48791","","survey-text","229","2092096","0.0-224.0-0.0","APWB9BS1SONNS","","","","{""Q0"":""The glowing inside of the white and red structure captured my attention.""}","","","","","","","","","","","","","","","","","","","","","","",""
"3003.899999976158","","image-slider-response","230","2095101","0.0-225.0","APWB9BS1SONNS","","","","","20","","","","","","","","","","","","","","","","","","","","","",""
"3845","","image-button-response","231","2100114","0.0-226.0","APWB9BS1SONNS","img_art/21.jpg","0","","","","","","","","","","","","","","","","","","","","","","","","",""
"443","","image-button-response","232","2100559","0.0-227.0","APWB9BS1SONNS","img_art/21.jpg","0","","","","","","","","","","","","","","","","","","","","","","","","",""
"4248","","image-button-response","233","2104808","0.0-228.0-0.0","APWB9BS1SONNS","img_art/21.jpg","3","","","","","","","","","","","","","","","","","","","","","","","","",""
"3465","","image-button-response","234","2108275","0.0-229.0-0.0","APWB9BS1SONNS","img_art/21.jpg","5","","","","","","","","","","","","","","","","","","","","","","","","",""
"null","","html-keyboard-response","235","2109280","0.0-230.0","APWB9BS1SONNS","<p style=""font-size: 48px;"">+</p>","","","","","null","allTrialResponses","1000","1","26","img_art/21.jpg","20","The glowing inside of the white and red structure captured my attention.","Thomas,Blake,Shane,Tanner,Daniel,Spencer","Again, I love the use of color,50,220,20","ocean and rocks at the beach,11,280,20","It reminds me of war, red blood and dark blue reminds me of an army,-20,80,20","calm, ship at sea, sunset,16,180,20","Nice asymmetry with maritime colors city meets the sea,34,320,20","Love the colors, uplifting and stormy at the same time,32,120,20","Thomas","Again, I love the use of color,50,220,20","Tanner","calm, ship at sea, sunset,16,180,20","Spencer","Love the colors, uplifting and stormy at the same time,32,120,20","10"
"56965","","survey-text","236","2166254","0.0-231.0-0.0","APWB9BS1SONNS","","","","{""Q0"":""Looks like random clippings pasted together to form an art piece.""}","","","","","","","","","","","","","","","","","","","","","","",""
"13643.599999904633","","image-slider-response","237","2179899","0.0-232.0","APWB9BS1SONNS","","","","","-10","","","","","","","","","","","","","","","","","","","","","",""
"null","","image-button-response","238","2184905","0.0-233.0","APWB9BS1SONNS","img_art/16.jpg","null","","","","","","","","","","","","","","","","","","","","","","","","",""
"2540","","image-button-response","239","2187447","0.0-234.0","APWB9BS1SONNS","img_art/16.jpg","3","","","","","","","","","","","","","","","","","","","","","","","","",""
"1500","","image-button-response","240","2188947","0.0-235.0-0.0","APWB9BS1SONNS","img_art/16.jpg","4","","","","","","","","","","","","","","","","","","","","","","","","",""
"4187","","image-button-response","241","2193137","0.0-236.0-0.0","APWB9BS1SONNS","img_art/16.jpg","5","","","","","","","","","","","","","","","","","","","","","","","","",""
"null","","html-keyboard-response","242","2193639","0.0-237.0","APWB9BS1SONNS","<p style=""font-size: 48px;"">+</p>","","","","","null","allTrialResponses","500","1","27","img_art/16.jpg","-10","Looks like random clippings pasted together to form an art piece.","Thomas,Cameron,Alejandro,Tanner,Tristan,Spencer","Makes me want to know more,5,220,20","Don't like teddy bears in art. I could draw that house.,-20,60,20","Garble and nonsense,-50,80,20","sad. desth of childhood,-5,180,20","visceral and a little disturbing.,10,300,20","Know it is a piece relating to children and gun violence. Sad,-30,120,20","Tanner","sad. desth of childhood,-5,180,20","Tristan","visceral and a little disturbing.,10,300,20","Spencer","Know it is a piece relating to children and gun violence. Sad,-30,120,20","10"
"86280","","survey-text","243","2279923","0.0-238.0-0.0","APWB9BS1SONNS","","","","{""Q0"":""I feel like this is smoke emanating from a roof, but I am not 100% certain.""}","","","","","","","","","","","","","","","","","","","","","","",""
"2926.899999976158","","image-slider-response","244","2282852","0.0-239.0","APWB9BS1SONNS","","","","","-10","","","","","","","","","","","","","","","","","","","","","",""
"4489","","image-button-response","245","2287854","0.0-240.0","APWB9BS1SONNS","img_art/5.jpg","1","","","","","","","","","","","","","","","","","","","","","","","","",""
"772","","image-button-response","246","2288628","0.0-241.0","APWB9BS1SONNS","img_art/5.jpg","1","","","","","","","","","","","","","","","","","","","","","","","","",""
"3021","","image-button-response","247","2291650","0.0-242.0-0.0","APWB9BS1SONNS","img_art/5.jpg","2","","","","","","","","","","","","","","","","","","","","","","","","",""
"2730","","image-button-response","248","2294380","0.0-243.0-0.0","APWB9BS1SONNS","img_art/5.jpg","0","","","","","","","","","","","","","","","","","","","","","","","","",""
"null","","html-keyboard-response","249","2294883","0.0-244.0","APWB9BS1SONNS","<p style=""font-size: 48px;"">+</p>","","","","","null","allTrialResponses","500","1","28","img_art/5.jpg","-10","I feel like this is smoke emanating from a roof, but I am not 100% certain.","Garrett,Brandon,Brendan,Tanner,Tristan,Spencer","I don't know what it's supposed to be and it looks ugly the way the colors are on the yellow cube.,-50,180,20","Kindergarten art. I really don't like this style.,-50,320,20","a volcano erruption,21,340,20","sharp, painful yet playful,-5,180,20","Nearly white background gives a lack of context. Questionable skills,-45,300,20","Boring, no flow except the pink feathery band,-42,120,20","Brandon","Kindergarten art. I really don't like this style.,-50,320,20","Brendan","a volcano erruption,21,340,20","Garrett","I don't know what it's supposed to be and it looks ugly the way the colors are on the yellow cube.,-50,180,20","10"
"82705","","survey-text","250","2377596","0.0-245.0-0.0","APWB9BS1SONNS","","","","{""Q0"":""I like how the red is juxtaposed against the rest of this painting.""}","","","","","","","","","","","","","","","","","","","","","","",""
"3227.600000023842","","image-slider-response","251","2380825","0.0-246.0","APWB9BS1SONNS","","","","","10","","","","","","","","","","","","","","","","","","","","","",""
"null","","image-button-response","252","2385839","0.0-247.0","APWB9BS1SONNS","img_art/30.jpg","null","","","","","","","","","","","","","","","","","","","","","","","","",""
"1886","","image-button-response","253","2387726","0.0-248.0","APWB9BS1SONNS","img_art/30.jpg","1","","","","","","","","","","","","","","","","","","","","","","","","",""
"3573","","image-button-response","254","2391300","0.0-249.0-0.0","APWB9BS1SONNS","img_art/30.jpg","3","","","","","","","","","","","","","","","","","","","","","","","","",""
"6257","","image-button-response","255","2397558","0.0-250.0-0.0","APWB9BS1SONNS","img_art/30.jpg","5","","","","","","","","","","","","","","","","","","","","","","","","",""
"null","","html-keyboard-response","256","2398071","0.0-251.0","APWB9BS1SONNS","<p style=""font-size: 48px;"">+</p>","","","","","null","allTrialResponses","500","1","29","img_art/30.jpg","10","I like how the red is juxtaposed against the rest of this painting.","Garrett,Brandon,Brendan,Elijah,Colton,Caleb","I feel like the colors are too repetitive and not very eyecatching.,-20,180,20","Too abstract, looks like something I could paint,-50,320,20","i cant really get it,-35,340,20","Paint scribbled on canvas,-25,80,20","too segmented, looks sloppy,-37,220,20","Colors are nice but it just seems too simple.,-26,40,20","Brandon","Too abstract, looks like something I could paint,-50,320,20","Elijah","Paint scribbled on canvas,-25,80,20","Caleb","Colors are nice but it just seems too simple.,-26,40,20","10"
"41435","","survey-text","257","2439515","0.0-252.0-0.0","APWB9BS1SONNS","","","","{""Q0"":""Is this a depiction of the river Styx?  I see hooded figures and a scythe.""}","","","","","","","","","","","","","","","","","","","","","","",""
"5620","","image-slider-response","258","2445136","0.0-253.0","APWB9BS1SONNS","","","","","5","","","","","","","","","","","","","","","","","","","","","",""
"2192","","image-button-response","259","2450150","0.0-254.0","APWB9BS1SONNS","img_art/18.jpg","0","","","","","","","","","","","","","","","","","","","","","","","","",""
"775","","image-button-response","260","2450927","0.0-255.0","APWB9BS1SONNS","img_art/18.jpg","4","","","","","","","","","","","","","","","","","","","","","","","","",""
"1922","","image-button-response","261","2452851","0.0-256.0-0.0","APWB9BS1SONNS","img_art/18.jpg","2","","","","","","","","","","","","","","","","","","","","","","","","",""
"3255","","image-button-response","262","2456108","0.0-257.0-0.0","APWB9BS1SONNS","img_art/18.jpg","1","","","","","","","","","","","","","","","","","","","","","","","","",""
"null","","html-keyboard-response","263","2457121","0.0-258.0","APWB9BS1SONNS","<p style=""font-size: 48px;"">+</p>","","","","","null","allTrialResponses","1000","1","30","img_art/18.jpg","5","Is this a depiction of the river Styx?  I see hooded figures and a scythe.","Cody,Brandon,Mason,Elijah,Alexander,Caleb","Vaguely creepy ........,-20,180,20","Crusade-feel, but a little too abstract for my taste,23,320,20","Skeletons, death, bleak colors, still kinda like it.,16,100,20","Makes me feel confused,16,80,20","Ghostly sea adventure.,20,120,20","Accents make this piece.,21,40,20","Alexander","Ghostly sea adventure.,20,120,20","Mason","Skeletons, death, bleak colors, still kinda like it.,16,100,20","Brandon","Crusade-feel, but a little too abstract for my taste,23,320,20","10"
"6021","","image-button-response_instructions","264","2463151","0.0-259.0","APWB9BS1SONNS","","0","instructions","","","","","","","","","","","","","","","","","","","","","","","",""
"3838","","image-button-response","265","2466993","0.0-260.0","APWB9BS1SONNS","","0","","","","","","","","","","","","","","","","","","","","","","","","",""
