"rt","url","trial_type","trial_index","time_elapsed","internal_node_id","participant_id","stimulus","button_pressed","Name","responses","response","key_press","variableName","fixationTime","condition","trial","photo","subjectRating","subjectResponse","agentsNames","agent_1_Response","agent_2_Response","agent_3_Response","agent_4_Response","agent_5_Response","agent_6_Response","kept_1_name","kept_1_response","kept_2_name","kept_2_response","kept_3_name","kept_3_response","errorCounter"
"9526","external_page_harvard.html","external-html","0","9639","0.0-0.0","AQ7K7JKQ8QG84","","","","","","","","","","","","","","","","","","","","","","","","","","",""
"1312","","image-button-response","1","10952","0.0-1.0","AQ7K7JKQ8QG84","","1","","","","","","","","","","","","","","","","","","","","","","","","",""
"1619","","image-button-response","2","12574","0.0-2.0-0.0","AQ7K7JKQ8QG84","","1","phone","","","","","","","","","","","","","","","","","","","","","","","",""
"6443","","survey-text","3","19018","0.0-3.0-0.0","AQ7K7JKQ8QG84","","","","{""Q0"":""AQ7K7JKQ8QG84""}","","","","","","","","","","","","","","","","","","","","","","",""
"18279","","image-button-response_instructions","4","37298","0.0-4.0","AQ7K7JKQ8QG84","","0","instructions","","","","","","","","","","","","","","","","","","","","","","","",""
"7599","","image-button-response_instructions","5","44898","0.0-5.0","AQ7K7JKQ8QG84","img_art/ins/popularity/ins1.png","0","instructions","","","","","","","","","","","","","","","","","","","","","","","",""
"6237","","image-button-response_instructions","6","51135","0.0-6.0","AQ7K7JKQ8QG84","img_art/ins/popularity/ins2.png","0","instructions","","","","","","","","","","","","","","","","","","","","","","","",""
"4569","","image-button-response_instructions","7","55705","0.0-7.0","AQ7K7JKQ8QG84","img_art/ins/popularity/ins2Extreme.png","0","instructions","","","","","","","","","","","","","","","","","","","","","","","",""
"15429","","image-button-response_instructions","8","71135","0.0-8.0","AQ7K7JKQ8QG84","img_art/ins/popularity/ins3KEEPpop.PNG","0","instructions","","","","","","","","","","","","","","","","","","","","","","","",""
"2225","","image-button-response_instructions","9","73361","0.0-9.0","AQ7K7JKQ8QG84","img_art/ins/popularity/ins3ANamepop.PNG","0","instructions","","","","","","","","","","","","","","","","","","","","","","","",""
"3003","","image-button-response_instructions","10","76365","0.0-10.0","AQ7K7JKQ8QG84","img_art/ins/popularity/ins3ARatingpop.png","0","instructions","","","","","","","","","","","","","","","","","","","","","","","",""
"2619","","image-button-response_instructions","11","78985","0.0-11.0","AQ7K7JKQ8QG84","img_art/ins/popularity/ins3ATextpop.png","0","instructions","","","","","","","","","","","","","","","","","","","","","","","",""
"5350","","image-button-response_instructions","12","84335","0.0-12.0","AQ7K7JKQ8QG84","img_art/ins/popularity/ins3ALikespop.png","0","instructions","","","","","","","","","","","","","","","","","","","","","","","",""
"8199","","image-button-response_instructions","13","92535","0.0-13.0","AQ7K7JKQ8QG84","img_art/ins/popularity/ins3KEEPpop.PNG","0","instructions","","","","","","","","","","","","","","","","","","","","","","","",""
"6985","","image-button-response_instructions","14","99521","0.0-14.0","AQ7K7JKQ8QG84","img_art/ins/popularity/ins3_5RED.png","0","instructions","","","","","","","","","","","","","","","","","","","","","","","",""
"5594","","image-button-response_instructions","15","105115","0.0-15.0","AQ7K7JKQ8QG84","img_art/ins/popularity/ins3KEEPpop.PNG","0","instructions","","","","","","","","","","","","","","","","","","","","","","","",""
"12582","","image-button-response_instructions","16","117697","0.0-16.0","AQ7K7JKQ8QG84","img_art/ins/popularity/ins4KEEPpop.PNG","0","instructions","","","","","","","","","","","","","","","","","","","","","","","",""
"3926","","image-button-response_instructions","17","121623","0.0-17.0","AQ7K7JKQ8QG84","img_art/ins/popularity/ins5KEEPpop.PNG","0","instructions","","","","","","","","","","","","","","","","","","","","","","","",""
"1888","","image-button-response_instructions","18","123511","0.0-18.0","AQ7K7JKQ8QG84","","0","instructions","","","","","","","","","","","","","","","","","","","","","","","",""
"7288","","survey-text","19","130813","0.0-19.0-0.0","AQ7K7JKQ8QG84","","","","{""Q0"":""but""}","","","","","","","","","","","","","","","","","","","","","","",""
"7223","","survey-text","20","138037","0.0-20.0-0.0","AQ7K7JKQ8QG84","","","","{""Q0"":""it looks messy""}","","","","","","","","","","","","","","","","","","","","","","",""
"7300.899999991059","","image-slider-response","21","145339","0.0-21.0","AQ7K7JKQ8QG84","","","","","-30","","","","","","","","","","","","","","","","","","","","","",""
"null","","image-button-response","22","150357","0.0-22.0","AQ7K7JKQ8QG84","img_art/ins/1.jpg","null","","","","","","","","","","","","","","","","","","","","","","","","",""
"4485","","image-button-response","23","154843","0.0-23.0","AQ7K7JKQ8QG84","img_art/ins/1.jpg","2","","","","","","","","","","","","","","","","","","","","","","","","",""
"1101","","image-button-response","24","155945","0.0-24.0-0.0","AQ7K7JKQ8QG84","img_art/ins/1.jpg","1","","","","","","","","","","","","","","","","","","","","","","","","",""
"1871","","image-button-response","25","157818","0.0-25.0-0.0","AQ7K7JKQ8QG84","img_art/ins/1.jpg","3","","","","","","","","","","","","","","","","","","","","","","","","",""
"null","","html-keyboard-response","26","158821","0.0-26.0","AQ7K7JKQ8QG84","<p style=""font-size: 48px;"">+</p>","","","","","null","allTrialResponses","1000","1","-2","img_art/ins/1.jpg","-30","it looks messy","Allison,Ashley,Beth,Dora,Erika,Jen","looks like a lot of things going on in the mist,20,20,20","I just don't get why these type of art would be popular,-32,40,20","This color reminds me of poo,-46,60,20","looks like what my niece in 3rd grade did this afternoon,-50,80,20","I like the sophisticated brushwork,40,100,20","It reminds me of a candy land dream I had,36,120,20","Beth","This color reminds me of poo,-46,60,20","Ashley","I just don't get why these type of art would be popular,-32,40,20","Dora","looks like what my niece in 3rd grade did this afternoon,-50,80,20","0"
"8805","","survey-text","27","167629","0.0-27.0-0.0","AQ7K7JKQ8QG84","","","","{""Q0"":""nice mixture of colors""}","","","","","","","","","","","","","","","","","","","","","","",""
"9700.89999999106","","image-slider-response","28","177331","0.0-28.0","AQ7K7JKQ8QG84","","","","","0","","","","","","","","","","","","","","","","","","","","","",""
"null","","image-button-response","29","182335","0.0-29.0","AQ7K7JKQ8QG84","img_art/ins/2.jpg","null","","","","","","","","","","","","","","","","","","","","","","","","",""
"2683","","image-button-response","30","185019","0.0-30.0","AQ7K7JKQ8QG84","img_art/ins/2.jpg","4","","","","","","","","","","","","","","","","","","","","","","","","",""
"8936","","image-button-response","31","193957","0.0-31.0-0.0","AQ7K7JKQ8QG84","img_art/ins/2.jpg","1","","","","","","","","","","","","","","","","","","","","","","","","",""
"4420","","image-button-response","32","198379","0.0-32.0-0.0","AQ7K7JKQ8QG84","img_art/ins/2.jpg","3","","","","","","","","","","","","","","","","","","","","","","","","",""
"null","","html-keyboard-response","33","199895","0.0-33.0","AQ7K7JKQ8QG84","<p style=""font-size: 48px;"">+</p>","","","","","null","allTrialResponses","1500","1","-1","img_art/ins/2.jpg","0","nice mixture of colors","Jenna,Ashley,Beth,Dora,Kara,Katie","One of my pet peevs,-48,140,20","Idk, it is just annoying,-32,40,20","meaningless painting,-45,60,20","looks too angry,-50,80,20","I like the blocks of color arrangements,30,160,20","too much color!,-28,180,20","Kara","I like the blocks of color arrangements,30,160,20","Ashley","Idk, it is just annoying,-32,40,20","Dora","looks too angry,-50,80,20","0"
"9654","","survey-text","34","209551","0.0-34.0-0.0","AQ7K7JKQ8QG84","","","","{""Q0"":""calming and relaxing""}","","","","","","","","","","","","","","","","","","","","","","",""
"3768.7000000029802","","image-slider-response","35","213321","0.0-35.0","AQ7K7JKQ8QG84","","","","","6","","","","","","","","","","","","","","","","","","","","","",""
"null","","image-button-response","36","218336","0.0-36.0","AQ7K7JKQ8QG84","img_art/ins/3.jpg","null","","","","","","","","","","","","","","","","","","","","","","","","",""
"7917","","image-button-response","37","226255","0.0-37.0","AQ7K7JKQ8QG84","img_art/ins/3.jpg","5","","","","","","","","","","","","","","","","","","","","","","","","",""
"755","","image-button-response","38","227011","0.0-38.0-0.0","AQ7K7JKQ8QG84","img_art/ins/3.jpg","4","","","","","","","","","","","","","","","","","","","","","","","","",""
"4042","","image-button-response","39","231055","0.0-39.0-0.0","AQ7K7JKQ8QG84","img_art/ins/3.jpg","2","","","","","","","","","","","","","","","","","","","","","","","","",""
"null","","html-keyboard-response","40","232069","0.0-40.0","AQ7K7JKQ8QG84","<p style=""font-size: 48px;"">+</p>","","","","","null","allTrialResponses","1000","1","0","img_art/ins/3.jpg","6","calming and relaxing","Leslie,Ashley,Mary,Dora,Kara,Rose","It's an alright work,15,200,20","It looks like a playground for bats,-36,40,20","I like the overlapping of brushes,41,220,20","My worst nightmare,-42,80,20","calming blue is very nice,36,160,20","My daily routine, it's depressing,-20,240,20","Rose","My daily routine, it's depressing,-20,240,20","Kara","calming blue is very nice,36,160,20","Mary","I like the overlapping of brushes,41,220,20","0"
"3814","","image-button-response_instructions","41","235887","0.0-41.0","AQ7K7JKQ8QG84","","0","instructions","","","","","","","","","","","","","","","","","","","","","","","",""
"7568","","survey-likert","42","243455","0.0-42.0-0.0","AQ7K7JKQ8QG84","","","","{""Q0"":"""",""Q1"":0,""Q2"":1}","","","","","","","","","","","","","","","","","","","","","","",""
"4174","","survey-text","43","247633","0.0-43.0-0.0","AQ7K7JKQ8QG84","","","","{""Q0"":""rock""}","","","","","","","","","","","","","","","","","","","","","","",""
"43429","","survey-text","44","291062","0.0-44.0-0.0","AQ7K7JKQ8QG84","","","","{""Q0"":""it's ok, don't feel either way about it""}","","","","","","","","","","","","","","","","","","","","","","",""
"5051.300000011921","","image-slider-response","45","296114","0.0-45.0","AQ7K7JKQ8QG84","","","","","0","","","","","","","","","","","","","","","","","","","","","",""
"null","","image-button-response","46","301144","0.0-46.0","AQ7K7JKQ8QG84","img_art/24.jpg","null","","","","","","","","","","","","","","","","","","","","","","","","",""
"14688","","image-button-response","47","315832","0.0-47.0","AQ7K7JKQ8QG84","img_art/24.jpg","4","","","","","","","","","","","","","","","","","","","","","","","","",""
"2491","","image-button-response","48","318324","0.0-48.0-0.0","AQ7K7JKQ8QG84","img_art/24.jpg","2","","","","","","","","","","","","","","","","","","","","","","","","",""
"1423","","image-button-response","49","319748","0.0-49.0-0.0","AQ7K7JKQ8QG84","img_art/24.jpg","2","","","","","","","","","","","","","","","","","","","","","","","","",""
"975","","image-button-response","50","326206","0.0-49.1-0.1","AQ7K7JKQ8QG84","img_art/24.jpg","0","","","","","","","","","","","","","","","","","","","","","","","","",""
"null","","html-keyboard-response","51","327715","0.0-50.0","AQ7K7JKQ8QG84","<p style=""font-size: 48px;"">+</p>","","","","","null","allTrialResponses","1500","1","1","img_art/24.jpg","0","it's ok, don't feel either way about it","Angela,Vanessa,Katelyn,Kelly,Erika,Crystal","Love the colors in this work, and the sense of motion in the water,36,260,20","I love the colors, but I wish the water was less abstract.,17,380,20","Love the colors and contrast. Feels peaceful.,33,100,20","Cute; I like what the image itself & the colors.,25,220,20","Very nice textures and subject,38,100,20","I don't like this painting because of its blottedness. It lacks conviction, direction and purpose.,-31,300,20","Erika","Very nice textures and subject,38,100,20","Katelyn","Love the colors and contrast. Feels peaceful.,33,100,20","Angela","Love the colors in this work, and the sense of motion in the water,36,260,20","2"
"18609","","survey-text","52","346326","0.0-51.0-0.0","AQ7K7JKQ8QG84","","","","{""Q0"":""I don't like this; too messy, don't know what I am looking at""}","","","","","","","","","","","","","","","","","","","","","","",""
"31843.09999999404","","image-slider-response","53","378170","0.0-52.0","AQ7K7JKQ8QG84","","","","","-30","","","","","","","","","","","","","","","","","","","","","",""
"null","","image-button-response","54","383172","0.0-53.0","AQ7K7JKQ8QG84","img_art/9.jpg","null","","","","","","","","","","","","","","","","","","","","","","","","",""
"1527","","image-button-response","55","384700","0.0-54.0","AQ7K7JKQ8QG84","img_art/9.jpg","0","","","","","","","","","","","","","","","","","","","","","","","","",""
"999","","image-button-response","56","385700","0.0-55.0-0.0","AQ7K7JKQ8QG84","img_art/9.jpg","2","","","","","","","","","","","","","","","","","","","","","","","","",""
"9925","","image-button-response","57","395626","0.0-56.0-0.0","AQ7K7JKQ8QG84","img_art/9.jpg","1","","","","","","","","","","","","","","","","","","","","","","","","",""
"null","","html-keyboard-response","58","397132","0.0-57.0","AQ7K7JKQ8QG84","<p style=""font-size: 48px;"">+</p>","","","","","null","allTrialResponses","1500","1","2","img_art/9.jpg","-30","I don't like this; too messy, don't know what I am looking at","Angela,Sydney,Katelyn,Sophia,Erika,Brooke","This painting feels too jumbled for me to like it.,-12,260,20","I see some of my favorite colors which I like, but I don't like what's portrayed.,35,320,20","The lack of concrete form kind of turns me off,-2,100,20","Yikes. I'm not sure what to make of this one.,-14,280,20","Colorful and expressive,15,100,20","Dark fantasy seaside cave carnival? Fun.,15,60,20","Angela","This painting feels too jumbled for me to like it.,-12,260,20","Katelyn","The lack of concrete form kind of turns me off,-2,100,20","Sydney","I see some of my favorite colors which I like, but I don't like what's portrayed.,35,320,20","2"
"11984","","survey-text","59","409119","0.0-58.0-0.0","AQ7K7JKQ8QG84","","","","{""Q0"":""Colors are cool but that's it""}","","","","","","","","","","","","","","","","","","","","","","",""
"2980.199999988079","","image-slider-response","60","412100","0.0-59.0","AQ7K7JKQ8QG84","","","","","-6","","","","","","","","","","","","","","","","","","","","","",""
"null","","image-button-response","61","417110","0.0-60.0","AQ7K7JKQ8QG84","img_art/10.jpg","null","","","","","","","","","","","","","","","","","","","","","","","","",""
"1401","","image-button-response","62","418512","0.0-61.0","AQ7K7JKQ8QG84","img_art/10.jpg","1","","","","","","","","","","","","","","","","","","","","","","","","",""
"2250","","image-button-response","63","420763","0.0-62.0-0.0","AQ7K7JKQ8QG84","img_art/10.jpg","3","","","","","","","","","","","","","","","","","","","","","","","","",""
"1447","","image-button-response","64","422210","0.0-63.0-0.0","AQ7K7JKQ8QG84","img_art/10.jpg","4","","","","","","","","","","","","","","","","","","","","","","","","",""
"null","","html-keyboard-response","65","423715","0.0-64.0","AQ7K7JKQ8QG84","<p style=""font-size: 48px;"">+</p>","","","","","null","allTrialResponses","1500","1","3","img_art/10.jpg","-6","Colors are cool but that's it","Angela,Sydney,Katelyn,Kimberly,Natalie,Kelsey","This makes me think of a city, specifically London.,20,260,20","This piece is unusual in a way that makes me uncomfortable.,-5,320,20","It makes me think of music and i love the reflective aspect,29,100,20","Also too all over the place, I don't see any pattern or anything that's supposed to stand out,-19,260,20","I see a rollercoaster,23,400,20","reminds me of a violin,9,240,20","Sydney","This piece is unusual in a way that makes me uncomfortable.,-5,320,20","Kimberly","Also too all over the place, I don't see any pattern or anything that's supposed to stand out,-19,260,20","Natalie","I see a rollercoaster,23,400,20","2"
"17065","","survey-text","66","440783","0.0-65.0-0.0","AQ7K7JKQ8QG84","","","","{""Q0"":""Not for me; too jumbled, no order to it""}","","","","","","","","","","","","","","","","","","","","","","",""
"3026.7000000029802","","image-slider-response","67","443810","0.0-66.0","AQ7K7JKQ8QG84","","","","","-50","","","","","","","","","","","","","","","","","","","","","",""
"null","","image-button-response","68","448825","0.0-67.0","AQ7K7JKQ8QG84","img_art/29.jpg","null","","","","","","","","","","","","","","","","","","","","","","","","",""
"775","","image-button-response","69","449600","0.0-68.0","AQ7K7JKQ8QG84","img_art/29.jpg","0","","","","","","","","","","","","","","","","","","","","","","","","",""
"4735","","image-button-response","70","454336","0.0-69.0-0.0","AQ7K7JKQ8QG84","img_art/29.jpg","2","","","","","","","","","","","","","","","","","","","","","","","","",""
"15993","","image-button-response","71","470331","0.0-70.0-0.0","AQ7K7JKQ8QG84","img_art/29.jpg","1","","","","","","","","","","","","","","","","","","","","","","","","",""
"null","","html-keyboard-response","72","470833","0.0-71.0","AQ7K7JKQ8QG84","<p style=""font-size: 48px;"">+</p>","","","","","null","allTrialResponses","500","1","4","img_art/29.jpg","-50","Not for me; too jumbled, no order to it","Mariah,Sydney,Paige,Kimberly,Natalie,Dominique","It feels like looking through layers of frustration.,19,140,20","I like that the colors are toned down even though they're everywhere.,5,320,20","unhappy. Looking at this all the time would depress me.,-11,60,20","I like the usage of a physical object,33,260,20","my response to the picture is that it looks so nice and cool and the details,34,400,20","Another great work of art and very conversational piece,33,400,20","Mariah","It feels like looking through layers of frustration.,19,140,20","Paige","unhappy. Looking at this all the time would depress me.,-11,60,20","Sydney","I like that the colors are toned down even though they're everywhere.,5,320,20","2"
"16800","","survey-text","73","487635","0.0-72.0-0.0","AQ7K7JKQ8QG84","","","","{""Q0"":""Kinda nice to look at I guess; fine either way""}","","","","","","","","","","","","","","","","","","","","","","",""
"13924.79999999702","","image-slider-response","74","501561","0.0-73.0","AQ7K7JKQ8QG84","","","","","0","","","","","","","","","","","","","","","","","","","","","",""
"null","","image-button-response","75","507000","0.0-74.0","AQ7K7JKQ8QG84","img_art/23.jpg","null","","","","","","","","","","","","","","","","","","","","","","","","",""
"81285","","image-button-response","76","588286","0.0-75.0","AQ7K7JKQ8QG84","img_art/23.jpg","2","","","","","","","","","","","","","","","","","","","","","","","","",""
"28879","","image-button-response","77","617167","0.0-76.0-0.0","AQ7K7JKQ8QG84","img_art/23.jpg","5","","","","","","","","","","","","","","","","","","","","","","","","",""
"6402","","image-button-response","78","623571","0.0-77.0-0.0","AQ7K7JKQ8QG84","img_art/23.jpg","3","","","","","","","","","","","","","","","","","","","","","","","","",""
"null","","html-keyboard-response","79","624582","0.0-78.0","AQ7K7JKQ8QG84","<p style=""font-size: 48px;"">+</p>","","","","","null","allTrialResponses","1000","1","5","img_art/23.jpg","0","Kinda nice to look at I guess; fine either way","Mariah,Sydney,Paige,Nicole,Caitlin,Maria","It feels active and vibrant.,20,140,20","The piece seems chaotic, and I dislike the random pop of white within so many colors.,-10,320,20","Does not incite any emotional response,1,60,20","Those colors are awesome! And I love the strip of negative space that almost looks like a line of people,50,20,20","SOME thought was put into this one.,5,80,20","the pattern of colours imbues in me a sense of infinity, which I find soothing,10,120,20","Paige","Does not incite any emotional response,1,60,20","Maria","the pattern of colours imbues in me a sense of infinity, which I find soothing,10,120,20","Nicole","Those colors are awesome! And I love the strip of negative space that almost looks like a line of people,50,20,20","2"
"3664","","survey-text","80","628250","0.0-79.0-0.0","AQ7K7JKQ8QG84","","","","{""Q0"":""sky""}","","","","","","","","","","","","","","","","","","","","","","",""
"67567","","survey-text","81","695818","0.0-80.0-0.0","AQ7K7JKQ8QG84","","","","{""Q0"":""Not my type of thing; no focal point""}","","","","","","","","","","","","","","","","","","","","","","",""
"3602.7000000029802","","image-slider-response","82","699422","0.0-81.0","AQ7K7JKQ8QG84","","","","","-21","","","","","","","","","","","","","","","","","","","","","",""
"null","","image-button-response","83","704423","0.0-82.0","AQ7K7JKQ8QG84","img_art/1.jpg","null","","","","","","","","","","","","","","","","","","","","","","","","",""
"1840","","image-button-response","84","706264","0.0-83.0","AQ7K7JKQ8QG84","img_art/1.jpg","2","","","","","","","","","","","","","","","","","","","","","","","","",""
"3569","","image-button-response","85","709834","0.0-84.0-0.0","AQ7K7JKQ8QG84","img_art/1.jpg","4","","","","","","","","","","","","","","","","","","","","","","","","",""
"2273","","image-button-response","86","712108","0.0-85.0-0.0","AQ7K7JKQ8QG84","img_art/1.jpg","3","","","","","","","","","","","","","","","","","","","","","","","","",""
"null","","html-keyboard-response","87","713116","0.0-86.0","AQ7K7JKQ8QG84","<p style=""font-size: 48px;"">+</p>","","","","","null","allTrialResponses","1000","1","6","img_art/1.jpg","-21","Not my type of thing; no focal point","Claire,Megan,Paige,Nicole,Christina,Maria","the colors are nice,8,260,20","Nice colors with some 3D effects,15,200,20","fearful. Makes me think of fire,-10,60,20","I love the colors but it's too intense sometimes,22,20,20","nice colors but kinds of blah,1,240,20","the bright colours evoke the 90s, and not their best part,-10,120,20","Paige","fearful. Makes me think of fire,-10,60,20","Christina","nice colors but kinds of blah,1,240,20","Nicole","I love the colors but it's too intense sometimes,22,20,20","2"
"11160","","survey-text","88","724278","0.0-87.0-0.0","AQ7K7JKQ8QG84","","","","{""Q0"":""looks like someone doodled on this painting""}","","","","","","","","","","","","","","","","","","","","","","",""
"3073","","image-slider-response","89","727352","0.0-88.0","AQ7K7JKQ8QG84","","","","","-50","","","","","","","","","","","","","","","","","","","","","",""
"null","","image-button-response","90","732993","0.0-89.0","AQ7K7JKQ8QG84","img_art/27.jpg","null","","","","","","","","","","","","","","","","","","","","","","","","",""
"30228","","image-button-response","91","763222","0.0-90.0","AQ7K7JKQ8QG84","img_art/27.jpg","0","","","","","","","","","","","","","","","","","","","","","","","","",""
"6362","","image-button-response","92","769585","0.0-91.0-0.0","AQ7K7JKQ8QG84","img_art/27.jpg","5","","","","","","","","","","","","","","","","","","","","","","","","",""
"3063","","image-button-response","93","772650","0.0-92.0-0.0","AQ7K7JKQ8QG84","img_art/27.jpg","1","","","","","","","","","","","","","","","","","","","","","","","","",""
"null","","html-keyboard-response","94","773651","0.0-93.0","AQ7K7JKQ8QG84","<p style=""font-size: 48px;"">+</p>","","","","","null","allTrialResponses","1000","1","7","img_art/27.jpg","-50","looks like someone doodled on this painting","Chelsea,Monica,Paige,Nicole,Christina,Cassandra","The green lines look like a child drew over a painting.,-36,180,20","It tries to remind me of the autumn season but it's grey and looks dirty,-5,360,20","Pleased. Reminds me of a child drawing,46,60,20","Very cool colors and I like the contrast of lights and darks,30,20,20","I like the orange but it's a little blah,1,240,20","I don't like any of it...just scibbles.,-37,120,20","Chelsea","The green lines look like a child drew over a painting.,-36,180,20","Cassandra","I don't like any of it...just scibbles.,-37,120,20","Monica","It tries to remind me of the autumn season but it's grey and looks dirty,-5,360,20","2"
"13990","","survey-text","95","787644","0.0-94.0-0.0","AQ7K7JKQ8QG84","","","","{""Q0"":""Again, this just looks like someone messed up their original painting""}","","","","","","","","","","","","","","","","","","","","","","",""
"4537.100000008941","","image-slider-response","96","792182","0.0-95.0","AQ7K7JKQ8QG84","","","","","-50","","","","","","","","","","","","","","","","","","","","","",""
"null","","image-button-response","97","797198","0.0-96.0","AQ7K7JKQ8QG84","img_art/30.jpg","null","","","","","","","","","","","","","","","","","","","","","","","","",""
"9913","","image-button-response","98","807112","0.0-97.0","AQ7K7JKQ8QG84","img_art/30.jpg","4","","","","","","","","","","","","","","","","","","","","","","","","",""
"1586","","image-button-response","99","808700","0.0-98.0-0.0","AQ7K7JKQ8QG84","img_art/30.jpg","5","","","","","","","","","","","","","","","","","","","","","","","","",""
"959","","image-button-response","100","809660","0.0-99.0-0.0","AQ7K7JKQ8QG84","img_art/30.jpg","0","","","","","","","","","","","","","","","","","","","","","","","","",""
"null","","html-keyboard-response","101","810161","0.0-100.0","AQ7K7JKQ8QG84","<p style=""font-size: 48px;"">+</p>","","","","","null","allTrialResponses","500","1","8","img_art/30.jpg","-50","Again, this just looks like someone messed up their original painting","Chelsea,Monica,Jessica,Marissa,Laura,Cassandra","It looks like it was painted in 5 minutes.,-32,180,20","It looked like a random scribble but I can see a person's face in it now and I think it's clever,13,360,20","Looks cool , but no meaning,1,400,20","I really like the broad and colorful strokes,21,160,20","sloppy, unintentional,-20,320,20","I didn't like this...it looks like someone just finger painted it.,-10,120,20","Laura","sloppy, unintentional,-20,320,20","Cassandra","I didn't like this...it looks like someone just finger painted it.,-10,120,20","Chelsea","It looks like it was painted in 5 minutes.,-32,180,20","2"
"15207","","survey-text","102","825370","0.0-101.0-0.0","AQ7K7JKQ8QG84","","","","{""Q0"":""Scribbles is all this looks like to me; I don't get it""}","","","","","","","","","","","","","","","","","","","","","","",""
"3529","","image-slider-response","103","828900","0.0-102.0","AQ7K7JKQ8QG84","","","","","-50","","","","","","","","","","","","","","","","","","","","","",""
"null","","image-button-response","104","833993","0.0-103.0","AQ7K7JKQ8QG84","img_art/14.jpg","null","","","","","","","","","","","","","","","","","","","","","","","","",""
"48067","","image-button-response","105","882062","0.0-104.0","AQ7K7JKQ8QG84","img_art/14.jpg","1","","","","","","","","","","","","","","","","","","","","","","","","",""
"1134","","image-button-response","106","883196","0.0-105.0-0.0","AQ7K7JKQ8QG84","img_art/14.jpg","2","","","","","","","","","","","","","","","","","","","","","","","","",""
"2828","","image-button-response","107","886026","0.0-106.0-0.0","AQ7K7JKQ8QG84","img_art/14.jpg","4","","","","","","","","","","","","","","","","","","","","","","","","",""
"null","","html-keyboard-response","108","887537","0.0-107.0","AQ7K7JKQ8QG84","<p style=""font-size: 48px;"">+</p>","","","","","null","allTrialResponses","1500","1","9","img_art/14.jpg","-50","Scribbles is all this looks like to me; I don't get it","Chelsea,Destiny,Sarah,Alexandria,Laura,Cassandra","The colors are pleasing.,29,180,20","I dont really vibe with the grayish color palette,-7,360,20","this looks pretty childish,-15,180,20","looks like it's symbolizing rebirth which is hopeful,22,80,20","feels incomplete, poorly planned/executed,-34,320,20","I kind of like it...I like the white back ground,11,120,20","Destiny","I dont really vibe with the grayish color palette,-7,360,20","Sarah","this looks pretty childish,-15,180,20","Laura","feels incomplete, poorly planned/executed,-34,320,20","2"
"67338","","survey-text","109","954878","0.0-108.0-0.0","AQ7K7JKQ8QG84","","","","{""Q0"":""Don't like it; messy, seems chaotic""}","","","","","","","","","","","","","","","","","","","","","","",""
"3601","","image-slider-response","110","958479","0.0-109.0","AQ7K7JKQ8QG84","","","","","-50","","","","","","","","","","","","","","","","","","","","","",""
"null","","image-button-response","111","963494","0.0-110.0","AQ7K7JKQ8QG84","img_art/17.jpg","null","","","","","","","","","","","","","","","","","","","","","","","","",""
"17228","","image-button-response","112","980724","0.0-111.0","AQ7K7JKQ8QG84","img_art/17.jpg","5","","","","","","","","","","","","","","","","","","","","","","","","",""
"2217","","image-button-response","113","982942","0.0-112.0-0.0","AQ7K7JKQ8QG84","img_art/17.jpg","2","","","","","","","","","","","","","","","","","","","","","","","","",""
"3564","","image-button-response","114","986506","0.0-113.0-0.0","AQ7K7JKQ8QG84","img_art/17.jpg","1","","","","","","","","","","","","","","","","","","","","","","","","",""
"null","","html-keyboard-response","115","988018","0.0-114.0","AQ7K7JKQ8QG84","<p style=""font-size: 48px;"">+</p>","","","","","null","allTrialResponses","1500","1","10","img_art/17.jpg","-50","Don't like it; messy, seems chaotic","Brianna,Destiny,Sarah,Chloe,Laura,Erin","It's nice and realistic looking.,12,20,20","similar to last one, still pretty cool but I liked arrangement of last one better,13,360,20","i like the delicate wispy part, but overall i don't love it,10,180,20","Pretty but a little cheesy,-10,220,20","home - reminds me of fond memories of the Barnes Museum courtyard (looks just like it),30,320,20","Windows indoor tree, weird palette,-11,120,20","Erin","Windows indoor tree, weird palette,-11,120,20","Sarah","i like the delicate wispy part, but overall i don't love it,10,180,20","Destiny","similar to last one, still pretty cool but I liked arrangement of last one better,13,360,20","2"
"3730","","survey-text","116","991751","0.0-115.0-0.0","AQ7K7JKQ8QG84","","","","{""Q0"":""our""}","","","","","","","","","","","","","","","","","","","","","","",""
"146506","","survey-text","117","1138259","0.0-116.0-0.0","AQ7K7JKQ8QG84","","","","{""Q0"":""Nice colors, I guess""}","","","","","","","","","","","","","","","","","","","","","","",""
"8280.70000000298","","image-slider-response","118","1146541","0.0-117.0","AQ7K7JKQ8QG84","","","","","0","","","","","","","","","","","","","","","","","","","","","",""
"null","","image-button-response","119","1151543","0.0-118.0","AQ7K7JKQ8QG84","img_art/2.jpg","null","","","","","","","","","","","","","","","","","","","","","","","","",""
"8298","","image-button-response","120","1159842","0.0-119.0","AQ7K7JKQ8QG84","img_art/2.jpg","2","","","","","","","","","","","","","","","","","","","","","","","","",""
"1855","","image-button-response","121","1161697","0.0-120.0-0.0","AQ7K7JKQ8QG84","img_art/2.jpg","5","","","","","","","","","","","","","","","","","","","","","","","","",""
"999","","image-button-response","122","1162697","0.0-121.0-0.0","AQ7K7JKQ8QG84","img_art/2.jpg","3","","","","","","","","","","","","","","","","","","","","","","","","",""
"null","","html-keyboard-response","123","1164199","0.0-122.0","AQ7K7JKQ8QG84","<p style=""font-size: 48px;"">+</p>","","","","","null","allTrialResponses","1500","1","11","img_art/2.jpg","0","Nice colors, I guess","Ashley,Destiny,Sarah,Shelby,Makayla,Erin","I think I can make out a face in there.,25,320,20","omg she's so cute look at that little smile those eyelashes ugh love it,30,360,20","nope. just looks like a mess,-28,180,20","The contrasting colors are a bit harsh,-10,240,20","I don't feel indifferent,4,80,20","There is an odd face here that is creepy,-4,120,20","Sarah","nope. just looks like a mess,-28,180,20","Erin","There is an odd face here that is creepy,-4,120,20","Shelby","The contrasting colors are a bit harsh,-10,240,20","2"
"15508","","survey-text","124","1179709","0.0-123.0-0.0","AQ7K7JKQ8QG84","","","","{""Q0"":""looks like a broom""}","","","","","","","","","","","","","","","","","","","","","","",""
"10538.79999999702","","image-slider-response","125","1190249","0.0-124.0","AQ7K7JKQ8QG84","","","","","0","","","","","","","","","","","","","","","","","","","","","",""
"null","","image-button-response","126","1195264","0.0-125.0","AQ7K7JKQ8QG84","img_art/5.jpg","null","","","","","","","","","","","","","","","","","","","","","","","","",""
"3738","","image-button-response","127","1199003","0.0-126.0","AQ7K7JKQ8QG84","img_art/5.jpg","1","","","","","","","","","","","","","","","","","","","","","","","","",""
"399","","image-button-response","128","1199403","0.0-127.0-0.0","AQ7K7JKQ8QG84","img_art/5.jpg","2","","","","","","","","","","","","","","","","","","","","","","","","",""
"889","","image-button-response","129","1200293","0.0-128.0-0.0","AQ7K7JKQ8QG84","img_art/5.jpg","4","","","","","","","","","","","","","","","","","","","","","","","","",""
"null","","html-keyboard-response","130","1201295","0.0-129.0","AQ7K7JKQ8QG84","<p style=""font-size: 48px;"">+</p>","","","","","null","allTrialResponses","1000","1","12","img_art/5.jpg","0","looks like a broom","Erica,Alexis,Sarah,Shelby,Hailey,Erin","positive colours; yellow calls attention,6,80,20","Kindergarten art. I really don't like this style.,-50,100,20","looks very childish,-35,180,20","This feels joyful,39,240,20","puke yellow with nothing but sadness,-35,200,20","Flame, candle, wind,30,120,20","Alexis","Kindergarten art. I really don't like this style.,-50,100,20","Sarah","looks very childish,-35,180,20","Hailey","puke yellow with nothing but sadness,-35,200,20","2"
"37189","","survey-text","131","1238487","0.0-130.0-0.0","AQ7K7JKQ8QG84","","","","{""Q0"":""just looks like scribbles""}","","","","","","","","","","","","","","","","","","","","","","",""
"5292.5999999940395","","image-slider-response","132","1243780","0.0-131.0","AQ7K7JKQ8QG84","","","","","0","","","","","","","","","","","","","","","","","","","","","",""
"null","","image-button-response","133","1248782","0.0-132.0","AQ7K7JKQ8QG84","img_art/3.jpg","null","","","","","","","","","","","","","","","","","","","","","","","","",""
"1193","","image-button-response","134","1249977","0.0-133.0","AQ7K7JKQ8QG84","img_art/3.jpg","1","","","","","","","","","","","","","","","","","","","","","","","","",""
"4435","","image-button-response","135","1254412","0.0-134.0-0.0","AQ7K7JKQ8QG84","img_art/3.jpg","5","","","","","","","","","","","","","","","","","","","","","","","","",""
"2241","","image-button-response","136","1256655","0.0-135.0-0.0","AQ7K7JKQ8QG84","img_art/3.jpg","4","","","","","","","","","","","","","","","","","","","","","","","","",""
"null","","html-keyboard-response","137","1257669","0.0-136.0","AQ7K7JKQ8QG84","<p style=""font-size: 48px;"">+</p>","","","","","null","allTrialResponses","1000","1","13","img_art/3.jpg","0","just looks like scribbles","Gabriela,Alexis,Sarah,Mackenzie,Hailey,Leah","It looks like a child drawing,-29,140,20","Just scribbles. Not a fan.,-40,100,20","the red is impactful but the work overall doesn't say anything to me,-8,180,20","I like the simplicity of it.,20,20,20","painted by a 2 year old. cold and boring,-30,200,20","Scratchy scrawly all one color, looks like a mistake,-28,360,20","Alexis","Just scribbles. Not a fan.,-40,100,20","Leah","Scratchy scrawly all one color, looks like a mistake,-28,360,20","Hailey","painted by a 2 year old. cold and boring,-30,200,20","2"
"95232","","survey-text","138","1352903","0.0-137.0-0.0","AQ7K7JKQ8QG84","","","","{""Q0"":""This is a little interesting""}","","","","","","","","","","","","","","","","","","","","","","",""
"9129","","image-slider-response","139","1362033","0.0-138.0","AQ7K7JKQ8QG84","","","","","0","","","","","","","","","","","","","","","","","","","","","",""
"null","","image-button-response","140","1368003","0.0-139.0","AQ7K7JKQ8QG84","img_art/18.jpg","null","","","","","","","","","","","","","","","","","","","","","","","","",""
"15641","","image-button-response","141","1383645","0.0-140.0","AQ7K7JKQ8QG84","img_art/18.jpg","4","","","","","","","","","","","","","","","","","","","","","","","","",""
"4222","","image-button-response","142","1387869","0.0-141.0-0.0","AQ7K7JKQ8QG84","img_art/18.jpg","5","","","","","","","","","","","","","","","","","","","","","","","","",""
"595","","image-button-response","143","1388465","0.0-142.0-0.0","AQ7K7JKQ8QG84","img_art/18.jpg","0","","","","","","","","","","","","","","","","","","","","","","","","",""
"null","","html-keyboard-response","144","1389466","0.0-143.0","AQ7K7JKQ8QG84","<p style=""font-size: 48px;"">+</p>","","","","","null","allTrialResponses","1000","1","14","img_art/18.jpg","0","This is a little interesting","Emma,Alexis,Amanda,Catherine,Hailey,Leah","Vaguely creepy ........,-20,60,20","Crusade-feel, but a little too abstract for my taste,23,100,20","Too political, not my cup of tea,-50,180,20","Karma. being ruthless and all the time knowing the shit is gonna catch up with you.,10,160,20","i like the colors. outerspace,21,200,20","I really like it, like hells drivers,43,360,20","Hailey","i like the colors. outerspace,21,200,20","Leah","I really like it, like hells drivers,43,360,20","Emma","Vaguely creepy ........,-20,60,20","2"
"24692","","survey-text","145","1414161","0.0-144.0-0.0","AQ7K7JKQ8QG84","","","","{""Q0"":""messy watercolor of a suburban street - it's okay""}","","","","","","","","","","","","","","","","","","","","","","",""
"12528.90000000596","","image-slider-response","146","1426691","0.0-145.0","AQ7K7JKQ8QG84","","","","","-19","","","","","","","","","","","","","","","","","","","","","",""
"null","","image-button-response","147","1431698","0.0-146.0","AQ7K7JKQ8QG84","img_art/26.jpg","null","","","","","","","","","","","","","","","","","","","","","","","","",""
"5500","","image-button-response","148","1437199","0.0-147.0","AQ7K7JKQ8QG84","img_art/26.jpg","0","","","","","","","","","","","","","","","","","","","","","","","","",""
"2225","","image-button-response","149","1439425","0.0-148.0-0.0","AQ7K7JKQ8QG84","img_art/26.jpg","5","","","","","","","","","","","","","","","","","","","","","","","","",""
"1815","","image-button-response","150","1441241","0.0-149.0-0.0","AQ7K7JKQ8QG84","img_art/26.jpg","2","","","","","","","","","","","","","","","","","","","","","","","","",""
"null","","html-keyboard-response","151","1441748","0.0-150.0","AQ7K7JKQ8QG84","<p style=""font-size: 48px;"">+</p>","","","","","null","allTrialResponses","500","1","15","img_art/26.jpg","-19","messy watercolor of a suburban street - it's okay","Emma,Mikayla,Danielle,Victoria,Hailey,Leah","Looks unfinished,-31,60,20","Love the colors in this one.,22,300,20","It's a little too yellow-y for me, I'm not a huge fan of the color schemes or setting it portrays.,-20,340,20","feels a tad old,30,400,20","bedroom in the outdoors. warm,9,200,20","Really like it, a very nice neighborhood scene to me,42,360,20","Emma","Looks unfinished,-31,60,20","Leah","Really like it, a very nice neighborhood scene to me,42,360,20","Danielle","It's a little too yellow-y for me, I'm not a huge fan of the color schemes or setting it portrays.,-20,340,20","2"
"3808","","survey-text","152","1445560","0.0-151.0-0.0","AQ7K7JKQ8QG84","","","","{""Q0"":""course""}","","","","","","","","","","","","","","","","","","","","","","",""
"49279","","survey-text","153","1494840","0.0-152.0-0.0","AQ7K7JKQ8QG84","","","","{""Q0"":""just looks like colors to me""}","","","","","","","","","","","","","","","","","","","","","","",""
"4142.899999991059","","image-slider-response","154","1498984","0.0-153.0","AQ7K7JKQ8QG84","","","","","-1","","","","","","","","","","","","","","","","","","","","","",""
"null","","image-button-response","155","1503986","0.0-154.0","AQ7K7JKQ8QG84","img_art/22.jpg","null","","","","","","","","","","","","","","","","","","","","","","","","",""
"5023","","image-button-response","156","1509011","0.0-155.0","AQ7K7JKQ8QG84","img_art/22.jpg","2","","","","","","","","","","","","","","","","","","","","","","","","",""
"1777","","image-button-response","157","1510789","0.0-156.0-0.0","AQ7K7JKQ8QG84","img_art/22.jpg","5","","","","","","","","","","","","","","","","","","","","","","","","",""
"2254","","image-button-response","158","1513045","0.0-157.0-0.0","AQ7K7JKQ8QG84","img_art/22.jpg","4","","","","","","","","","","","","","","","","","","","","","","","","",""
"null","","html-keyboard-response","159","1514052","0.0-158.0","AQ7K7JKQ8QG84","<p style=""font-size: 48px;"">+</p>","","","","","null","allTrialResponses","1000","1","16","img_art/22.jpg","-1","just looks like colors to me","Emma,Brittany,Danielle,Margaret,Alyssa,Leah","Love the use of color,50,60,20","It reminds me of sunsets and dusks.,22,40,20","A bit colorful, but slightly enjoyable, almost gives off castle/sunset vibes,10,340,20","i feel like this is a a basic art piece that a school would have on the wall,-24,100,20","Its okay,it doesnt make me feel any sort of strong emotion,1,160,20","Pretty colors but too blocky for me,-19,360,20","Danielle","A bit colorful, but slightly enjoyable, almost gives off castle/sunset vibes,10,340,20","Leah","Pretty colors but too blocky for me,-19,360,20","Alyssa","Its okay,it doesnt make me feel any sort of strong emotion,1,160,20","2"
"12974","","survey-text","160","1527028","0.0-159.0-0.0","AQ7K7JKQ8QG84","","","","{""Q0"":""colors all mesh well but overall it is kinda dreary looking""}","","","","","","","","","","","","","","","","","","","","","","",""
"24251.40000000596","","image-slider-response","161","1551281","0.0-160.0","AQ7K7JKQ8QG84","","","","","-25","","","","","","","","","","","","","","","","","","","","","",""
"2155","","image-button-response","162","1556296","0.0-161.0","AQ7K7JKQ8QG84","img_art/28.jpg","4","","","","","","","","","","","","","","","","","","","","","","","","",""
"1125","","image-button-response","163","1557423","0.0-162.0","AQ7K7JKQ8QG84","img_art/28.jpg","4","","","","","","","","","","","","","","","","","","","","","","","","",""
"1933","","image-button-response","164","1559357","0.0-163.0-0.0","AQ7K7JKQ8QG84","img_art/28.jpg","1","","","","","","","","","","","","","","","","","","","","","","","","",""
"3995","","image-button-response","165","1563353","0.0-164.0-0.0","AQ7K7JKQ8QG84","img_art/28.jpg","0","","","","","","","","","","","","","","","","","","","","","","","","",""
"null","","html-keyboard-response","166","1564367","0.0-165.0","AQ7K7JKQ8QG84","<p style=""font-size: 48px;"">+</p>","","","","","null","allTrialResponses","1000","1","17","img_art/28.jpg","-25","colors all mesh well but overall it is kinda dreary looking","Abigail,Elizabeth,Danielle,Haley,Alyssa,Leah","A messy bed room,-7,20,20","Not really exciting,23,20,20","I enjoy the color themes, they seem gloomy and mysterious, and content in their own way, which I love.,20,340,20","I can't explain why, but I really love this one,50,220,20","Not a fan of the bleak and dreary colors,-10,160,20","Too me it's a mish mash, true abstract,-37,360,20","Alyssa","Not a fan of the bleak and dreary colors,-10,160,20","Elizabeth","Not really exciting,23,20,20","Abigail","A messy bed room,-7,20,20","2"
"8813","","survey-text","167","1573183","0.0-166.0-0.0","AQ7K7JKQ8QG84","","","","{""Q0"":""this one looks kinda cool""}","","","","","","","","","","","","","","","","","","","","","","",""
"3678.8999999910593","","image-slider-response","168","1576862","0.0-167.0","AQ7K7JKQ8QG84","","","","","3","","","","","","","","","","","","","","","","","","","","","",""
"null","","image-button-response","169","1581864","0.0-168.0","AQ7K7JKQ8QG84","img_art/8.jpg","null","","","","","","","","","","","","","","","","","","","","","","","","",""
"6580","","image-button-response","170","1588444","0.0-169.0","AQ7K7JKQ8QG84","img_art/8.jpg","1","","","","","","","","","","","","","","","","","","","","","","","","",""
"1329","","image-button-response","171","1589775","0.0-170.0-0.0","AQ7K7JKQ8QG84","img_art/8.jpg","4","","","","","","","","","","","","","","","","","","","","","","","","",""
"6720","","image-button-response","172","1596497","0.0-171.0-0.0","AQ7K7JKQ8QG84","img_art/8.jpg","5","","","","","","","","","","","","","","","","","","","","","","","","",""
"null","","html-keyboard-response","173","1598009","0.0-172.0","AQ7K7JKQ8QG84","<p style=""font-size: 48px;"">+</p>","","","","","null","allTrialResponses","1500","1","18","img_art/8.jpg","3","this one looks kinda cool","Abigail,Elizabeth,Stephanie,Leslie,Alyssa,Molly","I did not like the face,-10,20,20","Very unique and different,31,20,20","I like the colors and geometrical shapes but the face in the sky makes it look scary,-10,300,20","The stylized faces remind me of German expressionism in a very good way.,40,380,20","I like how the more you like at it there are more things to discover.Very creative.,33,160,20","Different styles make this picture outstanding.,20,340,20","Elizabeth","Very unique and different,31,20,20","Alyssa","I like how the more you like at it there are more things to discover.Very creative.,33,160,20","Molly","Different styles make this picture outstanding.,20,340,20","2"
"35044","","survey-text","174","1633056","0.0-173.0-0.0","AQ7K7JKQ8QG84","","","","{""Q0"":""this is ok, don't get it but colors are nice""}","","","","","","","","","","","","","","","","","","","","","","",""
"78714.79999999702","","image-slider-response","175","1711772","0.0-174.0","AQ7K7JKQ8QG84","","","","","0","","","","","","","","","","","","","","","","","","","","","",""
"null","","image-button-response","176","1716783","0.0-175.0","AQ7K7JKQ8QG84","img_art/13.jpg","null","","","","","","","","","","","","","","","","","","","","","","","","",""
"2042","","image-button-response","177","1718826","0.0-176.0","AQ7K7JKQ8QG84","img_art/13.jpg","3","","","","","","","","","","","","","","","","","","","","","","","","",""
"1862","","image-button-response","178","1720690","0.0-177.0-0.0","AQ7K7JKQ8QG84","img_art/13.jpg","0","","","","","","","","","","","","","","","","","","","","","","","","",""
"1618","","image-button-response","179","1722310","0.0-178.0-0.0","AQ7K7JKQ8QG84","img_art/13.jpg","1","","","","","","","","","","","","","","","","","","","","","","","","",""
"null","","html-keyboard-response","180","1723812","0.0-179.0","AQ7K7JKQ8QG84","<p style=""font-size: 48px;"">+</p>","","","","","null","allTrialResponses","1500","1","19","img_art/13.jpg","0","this is ok, don't get it but colors are nice","Heather,Elizabeth,Briana,Michelle,Alyssa,Molly","rain in blue black and white,1,260,20","Love the splash of colors,50,20,20","The blue colors are very calming. Reminds me of water,33,400,20","I like the blue colors and the symmetry and paint splatters but I would not hang it in my house,8,280,20","Pretty and it reminds me of rain droplets running down a window on a rainy day.,40,160,20","Incredible, curious.,20,340,20","Michelle","I like the blue colors and the symmetry and paint splatters but I would not hang it in my house,8,280,20","Heather","rain in blue black and white,1,260,20","Elizabeth","Love the splash of colors,50,20,20","2"
"14350","","survey-text","181","1738166","0.0-180.0-0.0","AQ7K7JKQ8QG84","","","","{""Q0"":""looks like a mess of nothing""}","","","","","","","","","","","","","","","","","","","","","","",""
"3443.0999999940395","","image-slider-response","182","1741610","0.0-181.0","AQ7K7JKQ8QG84","","","","","-24","","","","","","","","","","","","","","","","","","","","","",""
"null","","image-button-response","183","1746611","0.0-182.0","AQ7K7JKQ8QG84","img_art/4.jpg","null","","","","","","","","","","","","","","","","","","","","","","","","",""
"4609","","image-button-response","184","1751222","0.0-183.0","AQ7K7JKQ8QG84","img_art/4.jpg","5","","","","","","","","","","","","","","","","","","","","","","","","",""
"2238","","image-button-response","185","1753462","0.0-184.0-0.0","AQ7K7JKQ8QG84","img_art/4.jpg","3","","","","","","","","","","","","","","","","","","","","","","","","",""
"463","","image-button-response","186","1753926","0.0-185.0-0.0","AQ7K7JKQ8QG84","img_art/4.jpg","4","","","","","","","","","","","","","","","","","","","","","","","","",""
"null","","html-keyboard-response","187","1755428","0.0-186.0","AQ7K7JKQ8QG84","<p style=""font-size: 48px;"">+</p>","","","","","null","allTrialResponses","1500","1","20","img_art/4.jpg","-24","looks like a mess of nothing","Heather,Elizabeth,Taylor,Michelle,Amy,Jennifer","looks like an award from an award show.,22,260,20","Like the color vibrancy,29,20,20","Reminds me of a first place trophy,30,340,20","Looks like more paint smearing but at least there is structure,-5,280,20","disturbing and uncomfortable.,10,220,20","Ugly and bland compared to the other pieces.,-33,380,20","Jennifer","Ugly and bland compared to the other pieces.,-33,380,20","Michelle","Looks like more paint smearing but at least there is structure,-5,280,20","Amy","disturbing and uncomfortable.,10,220,20","2"
"2221","","survey-text","188","1757654","0.0-187.0-0.0","AQ7K7JKQ8QG84","","","","{""Q0"":""we""}","","","","","","","","","","","","","","","","","","","","","","",""
"12050","","survey-text","189","1769704","0.0-188.0-0.0","AQ7K7JKQ8QG84","","","","{""Q0"":""colors are calming""}","","","","","","","","","","","","","","","","","","","","","","",""
"3113.199999988079","","image-slider-response","190","1772818","0.0-189.0","AQ7K7JKQ8QG84","","","","","2","","","","","","","","","","","","","","","","","","","","","",""
"null","","image-button-response","191","1777820","0.0-190.0","AQ7K7JKQ8QG84","img_art/21.jpg","null","","","","","","","","","","","","","","","","","","","","","","","","",""
"33058","","image-button-response","192","1810878","0.0-191.0","AQ7K7JKQ8QG84","img_art/21.jpg","5","","","","","","","","","","","","","","","","","","","","","","","","",""
"8297","","image-button-response","193","1819176","0.0-192.0-0.0","AQ7K7JKQ8QG84","img_art/21.jpg","0","","","","","","","","","","","","","","","","","","","","","","","","",""
"776","","image-button-response","194","1819954","0.0-193.0-0.0","AQ7K7JKQ8QG84","img_art/21.jpg","3","","","","","","","","","","","","","","","","","","","","","","","","",""
"null","","html-keyboard-response","195","1820964","0.0-194.0","AQ7K7JKQ8QG84","<p style=""font-size: 48px;"">+</p>","","","","","null","allTrialResponses","1000","1","21","img_art/21.jpg","2","colors are calming","Jamie,Alexa,Madison,Michelle,Amy,Jennifer","Contrast of fire and water looks cool,20,320,20","I love the colors in this painting,30,40,20","War! But then, what? And then, what of it? Intention seems incomplete, or not fully committed to.,-19,60,20","The colors are very nice. I like the dots because they remind me of pearls,5,280,20","A landscape that leaves me inspired and hopeful.,20,220,20","Bland, this painting is my least favorite,-20,380,20","Jennifer","Bland, this painting is my least favorite,-20,380,20","Jamie","Contrast of fire and water looks cool,20,320,20","Michelle","The colors are very nice. I like the dots because they remind me of pearls,5,280,20","2"
"18714","","survey-text","196","1839681","0.0-195.0-0.0","AQ7K7JKQ8QG84","","","","{""Q0"":""this one is cool; dark, but pretty""}","","","","","","","","","","","","","","","","","","","","","","",""
"36178.5","","image-slider-response","197","1875861","0.0-196.0","AQ7K7JKQ8QG84","","","","","4","","","","","","","","","","","","","","","","","","","","","",""
"4955","","image-button-response","198","1880863","0.0-197.0","AQ7K7JKQ8QG84","img_art/15.jpg","0","","","","","","","","","","","","","","","","","","","","","","","","",""
"787","","image-button-response","199","1881651","0.0-198.0","AQ7K7JKQ8QG84","img_art/15.jpg","0","","","","","","","","","","","","","","","","","","","","","","","","",""
"879","","image-button-response","200","1882531","0.0-199.0-0.0","AQ7K7JKQ8QG84","img_art/15.jpg","3","","","","","","","","","","","","","","","","","","","","","","","","",""
"3932","","image-button-response","201","1886464","0.0-200.0-0.0","AQ7K7JKQ8QG84","img_art/15.jpg","2","","","","","","","","","","","","","","","","","","","","","","","","",""
"null","","html-keyboard-response","202","1887965","0.0-201.0","AQ7K7JKQ8QG84","<p style=""font-size: 48px;"">+</p>","","","","","null","allTrialResponses","1500","1","22","img_art/15.jpg","4","this one is cool; dark, but pretty","Jamie,Shannon,Savannah,Michelle,Isabella,Jennifer","Black and blue is my favorite color combination,35,320,20","Not enough colors to make it interesting and doesn't look like anything is happening.,-20,220,20","Love the accent colors in this piece!,20,200,20","Interesting to look at but I don't appreciate the abstraction,2,280,20","Too intense with the black dotting,-22,280,20","This piece isn't particularly attractive, but it's not ugly either.,1,380,20","Jamie","Black and blue is my favorite color combination,35,320,20","Michelle","Interesting to look at but I don't appreciate the abstraction,2,280,20","Savannah","Love the accent colors in this piece!,20,200,20","2"
"82081","","survey-text","203","1970049","0.0-202.0-0.0","AQ7K7JKQ8QG84","","","","{""Q0"":""looks like telephone wires or something""}","","","","","","","","","","","","","","","","","","","","","","",""
"5701.20000000298","","image-slider-response","204","1975751","0.0-203.0","AQ7K7JKQ8QG84","","","","","0","","","","","","","","","","","","","","","","","","","","","",""
"null","","image-button-response","205","1980762","0.0-204.0","AQ7K7JKQ8QG84","img_art/11.jpg","null","","","","","","","","","","","","","","","","","","","","","","","","",""
"3890","","image-button-response","206","1984653","0.0-205.0","AQ7K7JKQ8QG84","img_art/11.jpg","0","","","","","","","","","","","","","","","","","","","","","","","","",""
"3883","","image-button-response","207","1988537","0.0-206.0-0.0","AQ7K7JKQ8QG84","img_art/11.jpg","5","","","","","","","","","","","","","","","","","","","","","","","","",""
"1500","","image-button-response","208","1990039","0.0-207.0-0.0","AQ7K7JKQ8QG84","img_art/11.jpg","3","","","","","","","","","","","","","","","","","","","","","","","","",""
"null","","html-keyboard-response","209","1991040","0.0-208.0","AQ7K7JKQ8QG84","<p style=""font-size: 48px;"">+</p>","","","","","null","allTrialResponses","1000","1","23","img_art/11.jpg","0","looks like telephone wires or something","Jamie,Rachel,Savannah,Michelle,Kristen,Cassidy","Looks like a cityscape,25,320,20","Makes me think of a futuristic scene of vehicles flying in the sky in a city.,36,80,20","Not quite as abstract as I'd like- It's clearly a dingy city.,-18,200,20","I think this is a city but I'm not sure, very abstract,18,280,20","small town, friendly. calm,35,280,20","Love the colors against the black and gray. The lines are calming.,22,140,20","Jamie","Looks like a cityscape,25,320,20","Cassidy","Love the colors against the black and gray. The lines are calming.,22,140,20","Michelle","I think this is a city but I'm not sure, very abstract,18,280,20","2"
"12202","","survey-text","210","2003245","0.0-209.0-0.0","AQ7K7JKQ8QG84","","","","{""Q0"":""a painting of a painting? I don't get it""}","","","","","","","","","","","","","","","","","","","","","","",""
"4049","","image-slider-response","211","2007295","0.0-210.0","AQ7K7JKQ8QG84","","","","","0","","","","","","","","","","","","","","","","","","","","","",""
"null","","image-button-response","212","2012297","0.0-211.0","AQ7K7JKQ8QG84","img_art/20.jpg","null","","","","","","","","","","","","","","","","","","","","","","","","",""
"4624","","image-button-response","213","2016922","0.0-212.0","AQ7K7JKQ8QG84","img_art/20.jpg","0","","","","","","","","","","","","","","","","","","","","","","","","",""
"723","","image-button-response","214","2017645","0.0-213.0-0.0","AQ7K7JKQ8QG84","img_art/20.jpg","1","","","","","","","","","","","","","","","","","","","","","","","","",""
"1329","","image-button-response","215","2018976","0.0-214.0-0.0","AQ7K7JKQ8QG84","img_art/20.jpg","2","","","","","","","","","","","","","","","","","","","","","","","","",""
"null","","html-keyboard-response","216","2019485","0.0-215.0","AQ7K7JKQ8QG84","<p style=""font-size: 48px;"">+</p>","","","","","null","allTrialResponses","500","1","24","img_art/20.jpg","0","a painting of a painting? I don't get it","Jamie,Melissa,Miranda,Michelle,Courtney,Cassidy","Looks like some type of future dystopian civilization,35,320,20","feels underdeveloped,-11,240,20","A painting within a painting, the inner painting looks like a car crash with a semi truck.,21,320,20","Reminds me of Dali for some reason, whom I don't like,-7,280,20","The beast is running after you.,33,280,20","sort of pleasant to look at, but can't tell if it's supposed to be something,13,140,20","Jamie","Looks like some type of future dystopian civilization,35,320,20","Melissa","feels underdeveloped,-11,240,20","Miranda","A painting within a painting, the inner painting looks like a car crash with a semi truck.,21,320,20","2"
"13391","","survey-text","217","2032879","0.0-216.0-0.0","AQ7K7JKQ8QG84","","","","{""Q0"":""this looks like a photograph of the ground""}","","","","","","","","","","","","","","","","","","","","","","",""
"2734.7999999970198","","image-slider-response","218","2035615","0.0-217.0","AQ7K7JKQ8QG84","","","","","-50","","","","","","","","","","","","","","","","","","","","","",""
"null","","image-button-response","219","2040627","0.0-218.0","AQ7K7JKQ8QG84","img_art/7.jpg","null","","","","","","","","","","","","","","","","","","","","","","","","",""
"2861","","image-button-response","220","2043489","0.0-219.0","AQ7K7JKQ8QG84","img_art/7.jpg","2","","","","","","","","","","","","","","","","","","","","","","","","",""
"2759","","image-button-response","221","2046250","0.0-220.0-0.0","AQ7K7JKQ8QG84","img_art/7.jpg","4","","","","","","","","","","","","","","","","","","","","","","","","",""
"399","","image-button-response","222","2046649","0.0-221.0-0.0","AQ7K7JKQ8QG84","img_art/7.jpg","5","","","","","","","","","","","","","","","","","","","","","","","","",""
"null","","html-keyboard-response","223","2048151","0.0-222.0","AQ7K7JKQ8QG84","<p style=""font-size: 48px;"">+</p>","","","","","null","allTrialResponses","1500","1","25","img_art/7.jpg","-50","this looks like a photograph of the ground","Jamie,Melissa,Miranda,Olivia,Morgan,Kayla","Looks like a battle raging on,20,320,20","textures are engaging,8,240,20","This looks like a literal picture of the ground so I'm really not too sure about this one.,-42,320,20","looking down on earth,19,40,20","Dead bugs on an insect battleground.,-10,380,20","Dinosaur bones. Death.,-14,180,20","Miranda","This looks like a literal picture of the ground so I'm really not too sure about this one.,-42,320,20","Morgan","Dead bugs on an insect battleground.,-10,380,20","Kayla","Dinosaur bones. Death.,-14,180,20","2"
"3330","","survey-text","224","2051487","0.0-223.0-0.0","AQ7K7JKQ8QG84","","","","{""Q0"":""table""}","","","","","","","","","","","","","","","","","","","","","","",""
"9987","","survey-text","225","2061476","0.0-224.0-0.0","AQ7K7JKQ8QG84","","","","{""Q0"":""I like the order to this one""}","","","","","","","","","","","","","","","","","","","","","","",""
"9262.40000000596","","image-slider-response","226","2070739","0.0-225.0","AQ7K7JKQ8QG84","","","","","6","","","","","","","","","","","","","","","","","","","","","",""
"null","","image-button-response","227","2075752","0.0-226.0","AQ7K7JKQ8QG84","img_art/12.jpg","null","","","","","","","","","","","","","","","","","","","","","","","","",""
"1064","","image-button-response","228","2076817","0.0-227.0","AQ7K7JKQ8QG84","img_art/12.jpg","0","","","","","","","","","","","","","","","","","","","","","","","","",""
"792","","image-button-response","229","2077611","0.0-228.0-0.0","AQ7K7JKQ8QG84","img_art/12.jpg","1","","","","","","","","","","","","","","","","","","","","","","","","",""
"6344","","image-button-response","230","2083957","0.0-229.0-0.0","AQ7K7JKQ8QG84","img_art/12.jpg","5","","","","","","","","","","","","","","","","","","","","","","","","",""
"null","","html-keyboard-response","231","2084458","0.0-230.0","AQ7K7JKQ8QG84","<p style=""font-size: 48px;"">+</p>","","","","","null","allTrialResponses","500","1","26","img_art/12.jpg","6","I like the order to this one","Alexandra,Madeline,Miranda,Cheyenne,Morgan,Kayla","I like the pattern of this picture, but the colors could be nicer,11,60,20","Love the shapes here,12,40,20","This is like going to a really old mcdoanlds in a tiny town and it's never been renovated so it's breaking down,-31,320,20","Comes off as a bit boring.,-11,200,20","Ugly color combinations, no focus.,-25,380,20","Yay! Lots of people, lots of lives.,25,180,20","Alexandra","I like the pattern of this picture, but the colors could be nicer,11,60,20","Madeline","Love the shapes here,12,40,20","Kayla","Yay! Lots of people, lots of lives.,25,180,20","2"
"24916","","survey-text","232","2109377","0.0-231.0-0.0","AQ7K7JKQ8QG84","","","","{""Q0"":""this looks like the top of a pumpkin; I don't get it""}","","","","","","","","","","","","","","","","","","","","","","",""
"3528.7999999970198","","image-slider-response","233","2112907","0.0-232.0","AQ7K7JKQ8QG84","","","","","0","","","","","","","","","","","","","","","","","","","","","",""
"null","","image-button-response","234","2117909","0.0-233.0","AQ7K7JKQ8QG84","img_art/6.jpg","null","","","","","","","","","","","","","","","","","","","","","","","","",""
"9373","","image-button-response","235","2127283","0.0-234.0","AQ7K7JKQ8QG84","img_art/6.jpg","1","","","","","","","","","","","","","","","","","","","","","","","","",""
"525","","image-button-response","236","2127809","0.0-235.0-0.0","AQ7K7JKQ8QG84","img_art/6.jpg","2","","","","","","","","","","","","","","","","","","","","","","","","",""
"1037","","image-button-response","237","2128847","0.0-236.0-0.0","AQ7K7JKQ8QG84","img_art/6.jpg","4","","","","","","","","","","","","","","","","","","","","","","","","",""
"null","","html-keyboard-response","238","2129350","0.0-237.0","AQ7K7JKQ8QG84","<p style=""font-size: 48px;"">+</p>","","","","","null","allTrialResponses","500","1","27","img_art/6.jpg","0","this looks like the top of a pumpkin; I don't get it","Alexandra,Madeline,Tiffany,Meghan,Gabrielle,Kayla","this is interesting and unique,11,60,20","Looks a bit like a pickle or something?,-16,40,20","The painting makes me happy. Like I'm looking at a little bird.,6,360,20","reminds me of a bird,31,220,20","simplistic but reminds me of a crow in a field,-10,160,20","Little birdie in a desert. Seeking better frontiers.,13,180,20","Madeline","Looks a bit like a pickle or something?,-16,40,20","Tiffany","The painting makes me happy. Like I'm looking at a little bird.,6,360,20","Gabrielle","simplistic but reminds me of a crow in a field,-10,160,20","2"
"60561","","survey-text","239","2189915","0.0-238.0-0.0","AQ7K7JKQ8QG84","","","","{""Q0"":""just looks like a mess of paintstrokes""}","","","","","","","","","","","","","","","","","","","","","","",""
"3277.4000000059605","","image-slider-response","240","2193193","0.0-239.0","AQ7K7JKQ8QG84","","","","","-14","","","","","","","","","","","","","","","","","","","","","",""
"null","","image-button-response","241","2198997","0.0-240.0","AQ7K7JKQ8QG84","img_art/19.jpg","null","","","","","","","","","","","","","","","","","","","","","","","","",""
"34328","","image-button-response","242","2233327","0.0-241.0","AQ7K7JKQ8QG84","img_art/19.jpg","3","","","","","","","","","","","","","","","","","","","","","","","","",""
"494","","image-button-response","243","2233821","0.0-242.0-0.0","AQ7K7JKQ8QG84","img_art/19.jpg","4","","","","","","","","","","","","","","","","","","","","","","","","",""
"519","","image-button-response","244","2234341","0.0-243.0-0.0","AQ7K7JKQ8QG84","img_art/19.jpg","5","","","","","","","","","","","","","","","","","","","","","","","","",""
"null","","html-keyboard-response","245","2235342","0.0-244.0","AQ7K7JKQ8QG84","<p style=""font-size: 48px;"">+</p>","","","","","null","allTrialResponses","1000","1","28","img_art/19.jpg","-14","just looks like a mess of paintstrokes","Jordan,Madeline,Tiffany,Sabrina,Gabrielle,Bailey","I like it, I see someone walking his dog in the early morning time,23,20,20","Looks a bit too loose,-2,40,20","I feel a little anxious and happy. I'm about to walk into a market and any number of treasures could be found,14,360,20","Gives a very open and freeing vibe,42,120,20","not professional looking but not bad either,13,160,20","Horrible. Squiggly lines everywhere.,-50,360,20","Sabrina","Gives a very open and freeing vibe,42,120,20","Gabrielle","not professional looking but not bad either,13,160,20","Bailey","Horrible. Squiggly lines everywhere.,-50,360,20","2"
"12591","","survey-text","246","2247937","0.0-245.0-0.0","AQ7K7JKQ8QG84","","","","{""Q0"":""this one is kinda interesting; i love the colors""}","","","","","","","","","","","","","","","","","","","","","","",""
"2766.9000000059605","","image-slider-response","247","2250705","0.0-246.0","AQ7K7JKQ8QG84","","","","","10","","","","","","","","","","","","","","","","","","","","","",""
"null","","image-button-response","248","2255707","0.0-247.0","AQ7K7JKQ8QG84","img_art/25.jpg","null","","","","","","","","","","","","","","","","","","","","","","","","",""
"775","","image-button-response","249","2256483","0.0-248.0","AQ7K7JKQ8QG84","img_art/25.jpg","5","","","","","","","","","","","","","","","","","","","","","","","","",""
"422","","image-button-response","250","2256907","0.0-249.0-0.0","AQ7K7JKQ8QG84","img_art/25.jpg","4","","","","","","","","","","","","","","","","","","","","","","","","",""
"4324","","image-button-response","251","2261233","0.0-250.0-0.0","AQ7K7JKQ8QG84","img_art/25.jpg","2","","","","","","","","","","","","","","","","","","","","","","","","",""
"null","","html-keyboard-response","252","2261741","0.0-251.0","AQ7K7JKQ8QG84","<p style=""font-size: 48px;"">+</p>","","","","","null","allTrialResponses","500","1","29","img_art/25.jpg","10","this one is kinda interesting; i love the colors","Rebecca,Alicia,Mary,Sabrina,Gabrielle,Bailey","I'm sorry but I don't uderstand this,-20,100,20","death. childish nightmare.,-29,120,20","The artist was daring to create this. Don't love the green and black combo though.,9,180,20","New life, rising from your personal battles,50,120,20","interesting pattern and color choice, kind of unusual,2,160,20","I love the background color and it's creepy...but cool.,30,360,20","Bailey","I love the background color and it's creepy...but cool.,30,360,20","Gabrielle","interesting pattern and color choice, kind of unusual,2,160,20","Mary","The artist was daring to create this. Don't love the green and black combo though.,9,180,20","2"
"8668","","survey-text","253","2270413","0.0-252.0-0.0","AQ7K7JKQ8QG84","","","","{""Q0"":""don't like this at all""}","","","","","","","","","","","","","","","","","","","","","","",""
"27648.89999999106","","image-slider-response","254","2298063","0.0-253.0","AQ7K7JKQ8QG84","","","","","-25","","","","","","","","","","","","","","","","","","","","","",""
"null","","image-button-response","255","2303065","0.0-254.0","AQ7K7JKQ8QG84","img_art/16.jpg","null","","","","","","","","","","","","","","","","","","","","","","","","",""
"2529","","image-button-response","256","2305595","0.0-255.0","AQ7K7JKQ8QG84","img_art/16.jpg","5","","","","","","","","","","","","","","","","","","","","","","","","",""
"1037","","image-button-response","257","2306633","0.0-256.0-0.0","AQ7K7JKQ8QG84","img_art/16.jpg","3","","","","","","","","","","","","","","","","","","","","","","","","",""
"761","","image-button-response","258","2307395","0.0-257.0-0.0","AQ7K7JKQ8QG84","img_art/16.jpg","4","","","","","","","","","","","","","","","","","","","","","","","","",""
"null","","html-keyboard-response","259","2308397","0.0-258.0","AQ7K7JKQ8QG84","<p style=""font-size: 48px;"">+</p>","","","","","null","allTrialResponses","1000","1","30","img_art/16.jpg","-25","don't like this at all","Cynthia,Kaitlin,Mary,Angelica,Gabrielle,Bailey","Dreamy and chaotic,-9,320,20","The teddy bear looks really scared,-30,60,20","This is a neat piece. Sort of shocking. I think it's too monochromatic though.,19,180,20","This is creepy and puerile.,-45,280,20","nonsense art, not really art,-44,160,20","Creeps me out. Like..really creeps me out.,-48,360,20","Bailey","Creeps me out. Like..really creeps me out.,-48,360,20","Angelica","This is creepy and puerile.,-45,280,20","Gabrielle","nonsense art, not really art,-44,160,20","2"
"2203","","image-button-response_instructions","260","2310603","0.0-259.0","AQ7K7JKQ8QG84","","0","instructions","","","","","","","","","","","","","","","","","","","","","","","",""
"1075","","image-button-response","261","2311681","0.0-260.0","AQ7K7JKQ8QG84","","0","","","","","","","","","","","","","","","","","","","","","","","","",""
