"rt","url","trial_type","trial_index","time_elapsed","internal_node_id","participant_id","stimulus","button_pressed","Name","responses","response","key_press","variableName","fixationTime","condition","trial","photo","subjectRating","subjectResponse","agentsNames","agent_1_Response","agent_2_Response","agent_3_Response","agent_4_Response","agent_5_Response","agent_6_Response","kept_1_name","kept_1_response","kept_2_name","kept_2_response","kept_3_name","kept_3_response","errorCounter"
"7592","external_page_harvard.html","external-html","0","7670","0.0-0.0","AQJWO4YPR3LUQ","","","","","","","","","","","","","","","","","","","","","","","","","","",""
"1211","","image-button-response","1","8884","0.0-1.0","AQJWO4YPR3LUQ","","1","","","","","","","","","","","","","","","","","","","","","","","","",""
"1457","","image-button-response","2","10347","0.0-2.0-0.0","AQJWO4YPR3LUQ","","1","phone","","","","","","","","","","","","","","","","","","","","","","","",""
"2534","","survey-text","3","12883","0.0-3.0-0.0","AQJWO4YPR3LUQ","","","","{""Q0"":""AQJWO4YPR3LUQ""}","","","","","","","","","","","","","","","","","","","","","","",""
"4374","","image-button-response_instructions","4","17260","0.0-4.0","AQJWO4YPR3LUQ","","0","instructions","","","","","","","","","","","","","","","","","","","","","","","",""
"8117","","image-button-response_instructions","5","25380","0.0-5.0","AQJWO4YPR3LUQ","img_art/ins/popularity/ins1.png","0","instructions","","","","","","","","","","","","","","","","","","","","","","","",""
"2894","","image-button-response_instructions","6","28275","0.0-6.0","AQJWO4YPR3LUQ","img_art/ins/popularity/ins2.png","0","instructions","","","","","","","","","","","","","","","","","","","","","","","",""
"3550","","image-button-response_instructions","7","31827","0.0-7.0","AQJWO4YPR3LUQ","img_art/ins/popularity/ins2Extreme.png","0","instructions","","","","","","","","","","","","","","","","","","","","","","","",""
"12015","","image-button-response_instructions","8","43844","0.0-8.0","AQJWO4YPR3LUQ","img_art/ins/popularity/ins3KEEPpop.PNG","0","instructions","","","","","","","","","","","","","","","","","","","","","","","",""
"6653","","image-button-response_instructions","9","50499","0.0-9.0","AQJWO4YPR3LUQ","img_art/ins/popularity/ins3ANamepop.PNG","0","instructions","","","","","","","","","","","","","","","","","","","","","","","",""
"2967","","image-button-response_instructions","10","53468","0.0-10.0","AQJWO4YPR3LUQ","img_art/ins/popularity/ins3ARatingpop.png","0","instructions","","","","","","","","","","","","","","","","","","","","","","","",""
"18756","","image-button-response_instructions","11","72226","0.0-11.0","AQJWO4YPR3LUQ","img_art/ins/popularity/ins3ATextpop.png","0","instructions","","","","","","","","","","","","","","","","","","","","","","","",""
"40767","","image-button-response_instructions","12","112995","0.0-12.0","AQJWO4YPR3LUQ","img_art/ins/popularity/ins3ALikespop.png","0","instructions","","","","","","","","","","","","","","","","","","","","","","","",""
"70812","","image-button-response_instructions","13","183809","0.0-13.0","AQJWO4YPR3LUQ","img_art/ins/popularity/ins3KEEPpop.PNG","0","instructions","","","","","","","","","","","","","","","","","","","","","","","",""
"2598","","image-button-response_instructions","14","186409","0.0-14.0","AQJWO4YPR3LUQ","img_art/ins/popularity/ins3_5RED.png","0","instructions","","","","","","","","","","","","","","","","","","","","","","","",""
"3238","","image-button-response_instructions","15","189649","0.0-15.0","AQJWO4YPR3LUQ","img_art/ins/popularity/ins3KEEPpop.PNG","0","instructions","","","","","","","","","","","","","","","","","","","","","","","",""
"4637","","image-button-response_instructions","16","194288","0.0-16.0","AQJWO4YPR3LUQ","img_art/ins/popularity/ins4KEEPpop.PNG","0","instructions","","","","","","","","","","","","","","","","","","","","","","","",""
"3746","","image-button-response_instructions","17","198035","0.0-17.0","AQJWO4YPR3LUQ","img_art/ins/popularity/ins5KEEPpop.PNG","0","instructions","","","","","","","","","","","","","","","","","","","","","","","",""
"1782","","image-button-response_instructions","18","199819","0.0-18.0","AQJWO4YPR3LUQ","","0","instructions","","","","","","","","","","","","","","","","","","","","","","","",""
"4315","","survey-text","19","204164","0.0-19.0-0.0","AQJWO4YPR3LUQ","","","","{""Q0"":""but""}","","","","","","","","","","","","","","","","","","","","","","",""
"6501","","survey-text","20","210667","0.0-20.0-0.0","AQJWO4YPR3LUQ","","","","{""Q0"":""I like the colors""}","","","","","","","","","","","","","","","","","","","","","","",""
"4885","","image-slider-response","21","215556","0.0-21.0","AQJWO4YPR3LUQ","","","","","23","","","","","","","","","","","","","","","","","","","","","",""
"3276","","image-button-response","22","220572","0.0-22.0","AQJWO4YPR3LUQ","img_art/ins/1.jpg","4","","","","","","","","","","","","","","","","","","","","","","","","",""
"2101","","image-button-response","23","222677","0.0-23.0","AQJWO4YPR3LUQ","img_art/ins/1.jpg","4","","","","","","","","","","","","","","","","","","","","","","","","",""
"3196","","image-button-response","24","225877","0.0-24.0-0.0","AQJWO4YPR3LUQ","img_art/ins/1.jpg","5","","","","","","","","","","","","","","","","","","","","","","","","",""
"3459","","image-button-response","25","229341","0.0-25.0-0.0","AQJWO4YPR3LUQ","img_art/ins/1.jpg","0","","","","","","","","","","","","","","","","","","","","","","","","",""
"null","","html-keyboard-response","26","230360","0.0-26.0","AQJWO4YPR3LUQ","<p style=""font-size: 48px;"">+</p>","","","","","null","allTrialResponses","1000","1","-2","img_art/ins/1.jpg","23","I like the colors","Allison,Ashley,Beth,Dora,Erika,Jen","looks like a lot of things going on in the mist,20,20,20","I just don't get why these type of art would be popular,-32,40,20","This color reminds me of poo,-46,60,20","looks like what my niece in 3rd grade did this afternoon,-50,80,20","I like the sophisticated brushwork,40,100,20","It reminds me of a candy land dream I had,36,120,20","Erika","I like the sophisticated brushwork,40,100,20","Jen","It reminds me of a candy land dream I had,36,120,20","Allison","looks like a lot of things going on in the mist,20,20,20","0"
"36759","","survey-text","27","267127","0.0-27.0-0.0","AQJWO4YPR3LUQ","","","","{""Q0"":""It reminds me of the feeling anger""}","","","","","","","","","","","","","","","","","","","","","","",""
"3476.6000000089407","","image-slider-response","28","270607","0.0-28.0","AQJWO4YPR3LUQ","","","","","-39","","","","","","","","","","","","","","","","","","","","","",""
"4893","","image-button-response","29","275610","0.0-29.0","AQJWO4YPR3LUQ","img_art/ins/2.jpg","5","","","","","","","","","","","","","","","","","","","","","","","","",""
"1186","","image-button-response","30","276799","0.0-30.0","AQJWO4YPR3LUQ","img_art/ins/2.jpg","5","","","","","","","","","","","","","","","","","","","","","","","","",""
"2405","","image-button-response","31","279207","0.0-31.0-0.0","AQJWO4YPR3LUQ","img_art/ins/2.jpg","1","","","","","","","","","","","","","","","","","","","","","","","","",""
"31581","","image-button-response","32","310791","0.0-32.0-0.0","AQJWO4YPR3LUQ","img_art/ins/2.jpg","2","","","","","","","","","","","","","","","","","","","","","","","","",""
"null","","html-keyboard-response","33","311294","0.0-33.0","AQJWO4YPR3LUQ","<p style=""font-size: 48px;"">+</p>","","","","","null","allTrialResponses","500","1","-1","img_art/ins/2.jpg","-39","It reminds me of the feeling anger","Allison,Kara,Katie,Jenna,Erika,Jen","I don't have strong feelings about this,10,20,20","I like the blocks of color arrangements,30,160,20","too much color!,-28,180,20","One of my pet peevs,-48,140,20","I would never be able to compose a sophisticated pallete like this,48,100,20","It reminds me of a fireplace,36,120,20","Jen","It reminds me of a fireplace,36,120,20","Kara","I like the blocks of color arrangements,30,160,20","Katie","too much color!,-28,180,20","0"
"7986","","survey-text","34","319286","0.0-34.0-0.0","AQJWO4YPR3LUQ","","","","{""Q0"":""I love these colors together""}","","","","","","","","","","","","","","","","","","","","","","",""
"3774.7000000029802","","image-slider-response","35","323064","0.0-35.0","AQJWO4YPR3LUQ","","","","","47","","","","","","","","","","","","","","","","","","","","","",""
"2661","","image-button-response","36","328087","0.0-36.0","AQJWO4YPR3LUQ","img_art/ins/3.jpg","1","","","","","","","","","","","","","","","","","","","","","","","","",""
"720","","image-button-response","37","328811","0.0-37.0","AQJWO4YPR3LUQ","img_art/ins/3.jpg","1","","","","","","","","","","","","","","","","","","","","","","","","",""
"2253","","image-button-response","38","331066","0.0-38.0-0.0","AQJWO4YPR3LUQ","img_art/ins/3.jpg","5","","","","","","","","","","","","","","","","","","","","","","","","",""
"1453","","image-button-response","39","332522","0.0-39.0-0.0","AQJWO4YPR3LUQ","img_art/ins/3.jpg","4","","","","","","","","","","","","","","","","","","","","","","","","",""
"null","","html-keyboard-response","40","334025","0.0-40.0","AQJWO4YPR3LUQ","<p style=""font-size: 48px;"">+</p>","","","","","null","allTrialResponses","1500","1","0","img_art/ins/3.jpg","47","I love these colors together","Rose,Kara,Katie,Leslie,Mary,Jen","My daily routine, it's depressing,-20,240,20","calming blue is very nice,36,160,20","It looks depressing,-26,180,20","It's an alright work,15,200,20","I like the overlapping of brushes,41,220,20","I can feel a rainy day from this painting,18,120,20","Kara","calming blue is very nice,36,160,20","Jen","I can feel a rainy day from this painting,18,120,20","Mary","I like the overlapping of brushes,41,220,20","0"
"91180","","image-button-response_instructions","41","425213","0.0-41.0","AQJWO4YPR3LUQ","","0","instructions","","","","","","","","","","","","","","","","","","","","","","","",""
"7067","","survey-likert","42","432284","0.0-42.0-0.0","AQJWO4YPR3LUQ","","","","{""Q0"":"""",""Q1"":0,""Q2"":1}","","","","","","","","","","","","","","","","","","","","","","",""
"3669","","survey-text","43","435962","0.0-43.0-0.0","AQJWO4YPR3LUQ","","","","{""Q0"":""rock""}","","","","","","","","","","","","","","","","","","","","","","",""
"15430","","survey-text","44","451395","0.0-44.0-0.0","AQJWO4YPR3LUQ","","","","{""Q0"":""It looks like a disfigured hand, I don't care for it""}","","","","","","","","","","","","","","","","","","","","","","",""
"3068.4000000059605","","image-slider-response","45","454466","0.0-45.0","AQJWO4YPR3LUQ","","","","","-46","","","","","","","","","","","","","","","","","","","","","",""
"4378","","image-button-response","46","459518","0.0-46.0","AQJWO4YPR3LUQ","img_art/4.jpg","5","","","","","","","","","","","","","","","","","","","","","","","","",""
"537","","image-button-response","47","460059","0.0-47.0","AQJWO4YPR3LUQ","img_art/4.jpg","5","","","","","","","","","","","","","","","","","","","","","","","","",""
"4797","","image-button-response","48","464859","0.0-48.0-0.0","AQJWO4YPR3LUQ","img_art/4.jpg","1","","","","","","","","","","","","","","","","","","","","","","","","",""
"2341","","image-button-response","49","467204","0.0-49.0-0.0","AQJWO4YPR3LUQ","img_art/4.jpg","4","","","","","","","","","","","","","","","","","","","","","","","","",""
"null","","html-keyboard-response","50","467722","0.0-50.0","AQJWO4YPR3LUQ","<p style=""font-size: 48px;"">+</p>","","","","","null","allTrialResponses","500","1","1","img_art/4.jpg","-46","It looks like a disfigured hand, I don't care for it","Melissa,Madeline,Taylor,Gabriela,Amber,Danielle","appealing warm palette,6,240,20","Not impressed really,-20,40,20","Reminds me of a first place trophy,30,340,20","The bold colors are exciting. It looks like a statue on someone's mantle.,18,140,20","I like the bold style.,10,200,20","Not my preference when it comes to art styles or subjects,-10,340,20","Danielle","Not my preference when it comes to art styles or subjects,-10,340,20","Madeline","Not impressed really,-20,40,20","Amber","I like the bold style.,10,200,20","0"
"12788","","survey-text","51","480523","0.0-51.0-0.0","AQJWO4YPR3LUQ","","","","{""Q0"":""I love the colors and how well they come together""}","","","","","","","","","","","","","","","","","","","","","","",""
"3373.0999999940395","","image-slider-response","52","483899","0.0-52.0","AQJWO4YPR3LUQ","","","","","41","","","","","","","","","","","","","","","","","","","","","",""
"null","","image-button-response","53","488905","0.0-53.0","AQJWO4YPR3LUQ","img_art/21.jpg","null","","","","","","","","","","","","","","","","","","","","","","","","",""
"2703","","image-button-response","54","491611","0.0-54.0","AQJWO4YPR3LUQ","img_art/21.jpg","4","","","","","","","","","","","","","","","","","","","","","","","","",""
"1757","","image-button-response","55","493372","0.0-55.0-0.0","AQJWO4YPR3LUQ","img_art/21.jpg","5","","","","","","","","","","","","","","","","","","","","","","","","",""
"1532","","image-button-response","56","494907","0.0-56.0-0.0","AQJWO4YPR3LUQ","img_art/21.jpg","2","","","","","","","","","","","","","","","","","","","","","","","","",""
"null","","html-keyboard-response","57","496419","0.0-57.0","AQJWO4YPR3LUQ","<p style=""font-size: 48px;"">+</p>","","","","","null","allTrialResponses","1500","1","2","img_art/21.jpg","41","I love the colors and how well they come together","Rachel,Madeline,Cassidy,Jenna,Amber,Danielle","Looks like a body of water during a sunset. I like this piece.,21,80,20","Evokes a strong colorful sense,8,40,20","I really like these colors together and their placement. The dabs of white are a nice contrast to the soft blending,10,140,20","beautiful. reminds me of a storm brewing over sea. i love the white dots.,45,360,20","sunset after the rain,49,200,20","I like it. It's some of war-scene, bloodshed and battle on the left, field of dispair on the right, dark and rich,40,340,20","Amber","sunset after the rain,49,200,20","Danielle","I like it. It's some of war-scene, bloodshed and battle on the left, field of dispair on the right, dark and rich,40,340,20","Cassidy","I really like these colors together and their placement. The dabs of white are a nice contrast to the soft blending,10,140,20","0"
"9994","","survey-text","58","506419","0.0-58.0-0.0","AQJWO4YPR3LUQ","","","","{""Q0"":""Its a little too busy for me""}","","","","","","","","","","","","","","","","","","","","","","",""
"2956.1000000089407","","image-slider-response","59","509378","0.0-59.0","AQJWO4YPR3LUQ","","","","","-35","","","","","","","","","","","","","","","","","","","","","",""
"3550","","image-button-response","60","514396","0.0-60.0","AQJWO4YPR3LUQ","img_art/2.jpg","5","","","","","","","","","","","","","","","","","","","","","","","","",""
"859","","image-button-response","61","515260","0.0-61.0","AQJWO4YPR3LUQ","img_art/2.jpg","5","","","","","","","","","","","","","","","","","","","","","","","","",""
"2276","","image-button-response","62","517539","0.0-62.0-0.0","AQJWO4YPR3LUQ","img_art/2.jpg","1","","","","","","","","","","","","","","","","","","","","","","","","",""
"1140","","image-button-response","63","518683","0.0-63.0-0.0","AQJWO4YPR3LUQ","img_art/2.jpg","3","","","","","","","","","","","","","","","","","","","","","","","","",""
"null","","html-keyboard-response","64","519186","0.0-64.0","AQJWO4YPR3LUQ","<p style=""font-size: 48px;"">+</p>","","","","","null","allTrialResponses","500","1","3","img_art/2.jpg","-35","Its a little too busy for me","Olivia,Molly,Cassidy,Madison,Amber,Danielle","i liked the bright colors,13,40,20","Colorful, curious.,20,340,20","It's interesting. The chunks of black here and there are nice,13,140,20","Grim and overwhelming,-6,60,20","bright and happy,20,200,20","Not a fan of this style,-30,340,20","Danielle","Not a fan of this style,-30,340,20","Molly","Colorful, curious.,20,340,20","Madison","Grim and overwhelming,-6,60,20","0"
"54494","","survey-text","65","573690","0.0-65.0-0.0","AQJWO4YPR3LUQ","","","","{""Q0"":""I like this it reminds me of a winter scene""}","","","","","","","","","","","","","","","","","","","","","","",""
"7221","","image-slider-response","66","580914","0.0-66.0","AQJWO4YPR3LUQ","","","","","45","","","","","","","","","","","","","","","","","","","","","",""
"3640","","image-button-response","67","585926","0.0-67.0","AQJWO4YPR3LUQ","img_art/17.jpg","4","","","","","","","","","","","","","","","","","","","","","","","","",""
"5685","","image-button-response","68","591615","0.0-68.0","AQJWO4YPR3LUQ","img_art/17.jpg","4","","","","","","","","","","","","","","","","","","","","","","","","",""
"1269","","image-button-response","69","592887","0.0-69.0-0.0","AQJWO4YPR3LUQ","img_art/17.jpg","0","","","","","","","","","","","","","","","","","","","","","","","","",""
"1836","","image-button-response","70","594726","0.0-70.0-0.0","AQJWO4YPR3LUQ","img_art/17.jpg","1","","","","","","","","","","","","","","","","","","","","","","","","",""
"null","","html-keyboard-response","71","595735","0.0-71.0","AQJWO4YPR3LUQ","<p style=""font-size: 48px;"">+</p>","","","","","null","allTrialResponses","1000","1","4","img_art/17.jpg","45","I like this it reminds me of a winter scene","Victoria,Molly,Nicole,Madison,Kristen,Danielle","love the wispyness of it,34,400,20","Wow, I haven't seen anything better than this.,40,340,20","Feels nostalgic somehow,31,20,20","No strong reaction. Beautiful design, but hue appears taciturn. Bad photograph?,1,60,20","calm, tranquil, happy,50,280,20","It's alright, nothing I particularly like but it's just fine,-10,340,20","Kristen","calm, tranquil, happy,50,280,20","Victoria","love the wispyness of it,34,400,20","Molly","Wow, I haven't seen anything better than this.,40,340,20","0"
"13615","","survey-text","72","609358","0.0-72.0-0.0","AQJWO4YPR3LUQ","","","","{""Q0"":""Its not my style I don't understand it""}","","","","","","","","","","","","","","","","","","","","","","",""
"3660.2000000029802","","image-slider-response","73","613022","0.0-73.0","AQJWO4YPR3LUQ","","","","","-46","","","","","","","","","","","","","","","","","","","","","",""
"2820","","image-button-response","74","618030","0.0-74.0","AQJWO4YPR3LUQ","img_art/16.jpg","1","","","","","","","","","","","","","","","","","","","","","","","","",""
"33423","","image-button-response","75","651459","0.0-75.0","AQJWO4YPR3LUQ","img_art/16.jpg","1","","","","","","","","","","","","","","","","","","","","","","","","",""
"1845","","image-button-response","76","653307","0.0-76.0-0.0","AQJWO4YPR3LUQ","img_art/16.jpg","2","","","","","","","","","","","","","","","","","","","","","","","","",""
"1772","","image-button-response","77","655083","0.0-77.0-0.0","AQJWO4YPR3LUQ","img_art/16.jpg","5","","","","","","","","","","","","","","","","","","","","","","","","",""
"null","","html-keyboard-response","78","656587","0.0-78.0","AQJWO4YPR3LUQ","<p style=""font-size: 48px;"">+</p>","","","","","null","allTrialResponses","1500","1","5","img_art/16.jpg","-46","Its not my style I don't understand it","Victoria,Molly,Emily,Mackenzie,Kristen,Mikayla","liked the bear, nothing else made sense,10,400,20","It's frightening.,30,340,20","Looks like a kid did itt and ti looks disturbing.,-45,40,20","I like the mixture of images,23,20,20","sad. desth of childhood,-5,280,20","The teddy bear is scary as hell.,-44,300,20","Molly","It's frightening.,30,340,20","Emily","Looks like a kid did itt and ti looks disturbing.,-45,40,20","Mikayla","The teddy bear is scary as hell.,-44,300,20","0"
"3956","","survey-text","79","660562","0.0-79.0-0.0","AQJWO4YPR3LUQ","","","","{""Q0"":""sky""}","","","","","","","","","","","","","","","","","","","","","","",""
"15070","","survey-text","80","675635","0.0-80.0-0.0","AQJWO4YPR3LUQ","","","","{""Q0"":""Its got a lot going on""}","","","","","","","","","","","","","","","","","","","","","","",""
"27421.40000000596","","image-slider-response","81","703059","0.0-81.0","AQJWO4YPR3LUQ","","","","","-43","","","","","","","","","","","","","","","","","","","","","",""
"null","","image-button-response","82","708073","0.0-82.0","AQJWO4YPR3LUQ","img_art/8.jpg","null","","","","","","","","","","","","","","","","","","","","","","","","",""
"13951","","image-button-response","83","722027","0.0-83.0","AQJWO4YPR3LUQ","img_art/8.jpg","5","","","","","","","","","","","","","","","","","","","","","","","","",""
"2924","","image-button-response","84","724955","0.0-84.0-0.0","AQJWO4YPR3LUQ","img_art/8.jpg","1","","","","","","","","","","","","","","","","","","","","","","","","",""
"972","","image-button-response","85","725931","0.0-85.0-0.0","AQJWO4YPR3LUQ","img_art/8.jpg","2","","","","","","","","","","","","","","","","","","","","","","","","",""
"null","","html-keyboard-response","86","726938","0.0-86.0","AQJWO4YPR3LUQ","<p style=""font-size: 48px;"">+</p>","","","","","null","allTrialResponses","1000","1","6","img_art/8.jpg","-43","Its got a lot going on","Anna,Molly,Emily,Alexa,Heather,Mikayla","The shapes and colors work well together.,40,300,20","Different styles make this picture outstanding.,20,340,20","It is interesting to look at. Abstract but ordered.,9,40,20","It's simply gorgeous. This artist is very talented,50,40,20","woman looking over a the community,1,260,20","Its kinda like an optical illusion.,22,300,20","Mikayla","Its kinda like an optical illusion.,22,300,20","Molly","Different styles make this picture outstanding.,20,340,20","Emily","It is interesting to look at. Abstract but ordered.,9,40,20","0"
"144755","","survey-text","87","871700","0.0-87.0-0.0","AQJWO4YPR3LUQ","","","","{""Q0"":""I normally don't care for this abstract style but I like this""}","","","","","","","","","","","","","","","","","","","","","","",""
"2734.7999999970198","","image-slider-response","88","874437","0.0-88.0","AQJWO4YPR3LUQ","","","","","23","","","","","","","","","","","","","","","","","","","","","",""
"null","","image-button-response","89","879440","0.0-89.0","AQJWO4YPR3LUQ","img_art/29.jpg","null","","","","","","","","","","","","","","","","","","","","","","","","",""
"660","","image-button-response","90","880102","0.0-90.0","AQJWO4YPR3LUQ","img_art/29.jpg","4","","","","","","","","","","","","","","","","","","","","","","","","",""
"1790","","image-button-response","91","881894","0.0-91.0-0.0","AQJWO4YPR3LUQ","img_art/29.jpg","0","","","","","","","","","","","","","","","","","","","","","","","","",""
"1742","","image-button-response","92","883638","0.0-92.0-0.0","AQJWO4YPR3LUQ","img_art/29.jpg","0","","","","","","","","","","","","","","","","","","","","","","","","",""
"838","","image-button-response","93","887645","0.0-92.1-0.1","AQJWO4YPR3LUQ","img_art/29.jpg","1","","","","","","","","","","","","","","","","","","","","","","","","",""
"null","","html-keyboard-response","94","889148","0.0-93.0","AQJWO4YPR3LUQ","<p style=""font-size: 48px;"">+</p>","","","","","null","allTrialResponses","1500","1","7","img_art/29.jpg","23","I normally don't care for this abstract style but I like this","Allison,Molly,Emily,Kathryn,Sophia,Mikayla","Flash is too strong. Dislike the colors,-5,140,20","Looks kinda scary.,25,340,20","Looks literally like garbage.,-45,40,20","This piece feels gross. Makes me think of pollution/litter strewn across a dirty street.,-20,140,20","It's creative. It's just not my thing.,-32,280,20","Its kinda scary,-35,300,20","Sophia","It's creative. It's just not my thing.,-32,280,20","Allison","Flash is too strong. Dislike the colors,-5,140,20","Molly","Looks kinda scary.,25,340,20","2"
"13171","","survey-text","95","902325","0.0-94.0-0.0","AQJWO4YPR3LUQ","","","","{""Q0"":""I really like this it looks like a stream in nature""}","","","","","","","","","","","","","","","","","","","","","","",""
"34901.5","","image-slider-response","96","937228","0.0-95.0","AQJWO4YPR3LUQ","","","","","41","","","","","","","","","","","","","","","","","","","","","",""
"3046","","image-button-response","97","942236","0.0-96.0","AQJWO4YPR3LUQ","img_art/24.jpg","0","","","","","","","","","","","","","","","","","","","","","","","","",""
"854","","image-button-response","98","943093","0.0-97.0","AQJWO4YPR3LUQ","img_art/24.jpg","0","","","","","","","","","","","","","","","","","","","","","","","","",""
"1445","","image-button-response","99","944540","0.0-98.0-0.0","AQJWO4YPR3LUQ","img_art/24.jpg","2","","","","","","","","","","","","","","","","","","","","","","","","",""
"1470","","image-button-response","100","946013","0.0-99.0-0.0","AQJWO4YPR3LUQ","img_art/24.jpg","5","","","","","","","","","","","","","","","","","","","","","","","","",""
"null","","html-keyboard-response","101","946516","0.0-100.0","AQJWO4YPR3LUQ","<p style=""font-size: 48px;"">+</p>","","","","","null","allTrialResponses","500","1","8","img_art/24.jpg","41","I really like this it looks like a stream in nature","Allison,Molly,Dominique,Erin,Sophia,Erika","I appreciate the earth tones. Soothing.,5,140,20","Extraordinary and unusual.,30,340,20","Spending a day in nature,21,400,20","Too literal, not abstract,-29,120,20","Hmm. Don't know what to make of this one.,1,280,20","Very nice textures and subject,38,100,20","Allison","I appreciate the earth tones. Soothing.,5,140,20","Dominique","Spending a day in nature,21,400,20","Erika","Very nice textures and subject,38,100,20","2"
"88842","","survey-text","102","1035365","0.0-101.0-0.0","AQJWO4YPR3LUQ","","","","{""Q0"":""I like this it reminds me of a city scene""}","","","","","","","","","","","","","","","","","","","","","","",""
"2805.699999988079","","image-slider-response","103","1038173","0.0-102.0","AQJWO4YPR3LUQ","","","","","46","","","","","","","","","","","","","","","","","","","","","",""
"2374","","image-button-response","104","1043183","0.0-103.0","AQJWO4YPR3LUQ","img_art/26.jpg","1","","","","","","","","","","","","","","","","","","","","","","","","",""
"460","","image-button-response","105","1043646","0.0-104.0","AQJWO4YPR3LUQ","img_art/26.jpg","1","","","","","","","","","","","","","","","","","","","","","","","","",""
"629","","image-button-response","106","1044277","0.0-105.0-0.0","AQJWO4YPR3LUQ","img_art/26.jpg","2","","","","","","","","","","","","","","","","","","","","","","","","",""
"1831","","image-button-response","107","1046110","0.0-106.0-0.0","AQJWO4YPR3LUQ","img_art/26.jpg","5","","","","","","","","","","","","","","","","","","","","","","","","",""
"null","","html-keyboard-response","108","1047117","0.0-107.0","AQJWO4YPR3LUQ","<p style=""font-size: 48px;"">+</p>","","","","","null","allTrialResponses","1000","1","9","img_art/26.jpg","46","I like this it reminds me of a city scene","Allison,Leslie,Dominique,Cynthia,Briana,Erika","pretty colors, but sketch style isn't for me,10,140,20","It's a cute city scene. I like the trees.,10,380,20","Small town and home feel on A nice day.,28,400,20","dull and boring,-6,320,20","Another blob on a landscape. A city street?,9,400,20","Feels like still life,-13,100,20","Leslie","It's a cute city scene. I like the trees.,10,380,20","Dominique","Small town and home feel on A nice day.,28,400,20","Erika","Feels like still life,-13,100,20","2"
"53779","","survey-text","109","1100904","0.0-108.0-0.0","AQJWO4YPR3LUQ","","","","{""Q0"":""Its a weird mix of abstract and horses ""}","","","","","","","","","","","","","","","","","","","","","","",""
"3813.6000000089407","","image-slider-response","110","1104720","0.0-109.0","AQJWO4YPR3LUQ","","","","","-20","","","","","","","","","","","","","","","","","","","","","",""
"2549","","image-button-response","111","1109727","0.0-110.0","AQJWO4YPR3LUQ","img_art/18.jpg","0","","","","","","","","","","","","","","","","","","","","","","","","",""
"574","","image-button-response","112","1110304","0.0-111.0","AQJWO4YPR3LUQ","img_art/18.jpg","0","","","","","","","","","","","","","","","","","","","","","","","","",""
"1189","","image-button-response","113","1111497","0.0-112.0-0.0","AQJWO4YPR3LUQ","img_art/18.jpg","3","","","","","","","","","","","","","","","","","","","","","","","","",""
"2157","","image-button-response","114","1113656","0.0-113.0-0.0","AQJWO4YPR3LUQ","img_art/18.jpg","4","","","","","","","","","","","","","","","","","","","","","","","","",""
"null","","html-keyboard-response","115","1115168","0.0-114.0","AQJWO4YPR3LUQ","<p style=""font-size: 48px;"">+</p>","","","","","null","allTrialResponses","1500","1","10","img_art/18.jpg","-20","Its a weird mix of abstract and horses ","Shelby,Leslie,Dominique,Sara,Cassandra,Erika","This gives a very ominous feeling,-30,240,20","This is a very energetic painting, and brings to mind scenes of battle.,50,380,20","Very conversational and can see many different looks and feels from this .,34,400,20","Too abstract and swirly,-21,160,20","I don't know...kind of a dissatified feeling inside.,-6,120,20","Gently chaotic and beautiful,40,100,20","Shelby","This gives a very ominous feeling,-30,240,20","Sara","Too abstract and swirly,-21,160,20","Cassandra","I don't know...kind of a dissatified feeling inside.,-6,120,20","2"
"3831","","survey-text","116","1119015","0.0-115.0-0.0","AQJWO4YPR3LUQ","","","","{""Q0"":""our""}","","","","","","","","","","","","","","","","","","","","","","",""
"30055","","survey-text","117","1149072","0.0-116.0-0.0","AQJWO4YPR3LUQ","","","","{""Q0"":""I like these muted colors ""}","","","","","","","","","","","","","","","","","","","","","","",""
"2542.0999999940395","","image-slider-response","118","1151616","0.0-117.0","AQJWO4YPR3LUQ","","","","","14","","","","","","","","","","","","","","","","","","","","","",""
"null","","image-button-response","119","1156630","0.0-118.0","AQJWO4YPR3LUQ","img_art/28.jpg","null","","","","","","","","","","","","","","","","","","","","","","","","",""
"1616","","image-button-response","120","1158247","0.0-119.0","AQJWO4YPR3LUQ","img_art/28.jpg","3","","","","","","","","","","","","","","","","","","","","","","","","",""
"1206","","image-button-response","121","1159456","0.0-120.0-0.0","AQJWO4YPR3LUQ","img_art/28.jpg","4","","","","","","","","","","","","","","","","","","","","","","","","",""
"688","","image-button-response","122","1160148","0.0-121.0-0.0","AQJWO4YPR3LUQ","img_art/28.jpg","5","","","","","","","","","","","","","","","","","","","","","","","","",""
"null","","html-keyboard-response","123","1161159","0.0-122.0","AQJWO4YPR3LUQ","<p style=""font-size: 48px;"">+</p>","","","","","null","allTrialResponses","1000","1","11","img_art/28.jpg","14","I like these muted colors ","Shelby,Brianna,Amanda,Sara,Cassandra,Claire","This one gives me an uneasy feeling,-10,240,20","My grandparents would like this, maybe my great grandparents. It's not my style.,-30,20,20","Colors look too muddy for my liking,-33,180,20","This swirly drawing i snot my type I get confused and dizzy,-20,160,20","Hate it...brown and drab,-37,120,20","not a fan of the colors or strokes used,-27,260,20","Sara","This swirly drawing i snot my type I get confused and dizzy,-20,160,20","Cassandra","Hate it...brown and drab,-37,120,20","Claire","not a fan of the colors or strokes used,-27,260,20","2"
"58524","","survey-text","124","1219691","0.0-123.0-0.0","AQJWO4YPR3LUQ","","","","{""Q0"":""The red is too much for me, it makes me agitated""}","","","","","","","","","","","","","","","","","","","","","","",""
"2901.5","","image-slider-response","125","1222595","0.0-124.0","AQJWO4YPR3LUQ","","","","","-43","","","","","","","","","","","","","","","","","","","","","",""
"2941","","image-button-response","126","1227605","0.0-125.0","AQJWO4YPR3LUQ","img_art/3.jpg","1","","","","","","","","","","","","","","","","","","","","","","","","",""
"515","","image-button-response","127","1228123","0.0-126.0","AQJWO4YPR3LUQ","img_art/3.jpg","1","","","","","","","","","","","","","","","","","","","","","","","","",""
"1061","","image-button-response","128","1229188","0.0-127.0-0.0","AQJWO4YPR3LUQ","img_art/3.jpg","2","","","","","","","","","","","","","","","","","","","","","","","","",""
"1845","","image-button-response","129","1231036","0.0-128.0-0.0","AQJWO4YPR3LUQ","img_art/3.jpg","5","","","","","","","","","","","","","","","","","","","","","","","","",""
"null","","html-keyboard-response","130","1231538","0.0-129.0","AQJWO4YPR3LUQ","<p style=""font-size: 48px;"">+</p>","","","","","null","allTrialResponses","500","1","12","img_art/3.jpg","-43","The red is too much for me, it makes me agitated","Katelyn,Monica,Kaylee,Sara,Cassandra,Claire","No substance or feeling to it,-20,100,20","It looks like random scribbles by a child and not appealing,-38,360,20","i really cant get it,-44,200,20","Random use of red and looks scary,-50,160,20","I hate this...just a scribble of red.,-50,120,20","looks like a kid scribbled with crayon,-35,260,20","Monica","It looks like random scribbles by a child and not appealing,-38,360,20","Kaylee","i really cant get it,-44,200,20","Claire","looks like a kid scribbled with crayon,-35,260,20","2"
"16383","","survey-text","131","1247930","0.0-130.0-0.0","AQJWO4YPR3LUQ","","","","{""Q0"":""It looks like an abstract car accident, don't like it""}","","","","","","","","","","","","","","","","","","","","","","",""
"14502.90000000596","","image-slider-response","132","1262435","0.0-131.0","AQJWO4YPR3LUQ","","","","","-45","","","","","","","","","","","","","","","","","","","","","",""
"3654","","image-button-response","133","1267440","0.0-132.0","AQJWO4YPR3LUQ","img_art/20.jpg","2","","","","","","","","","","","","","","","","","","","","","","","","",""
"511","","image-button-response","134","1267955","0.0-133.0","AQJWO4YPR3LUQ","img_art/20.jpg","2","","","","","","","","","","","","","","","","","","","","","","","","",""
"879","","image-button-response","135","1268835","0.0-134.0-0.0","AQJWO4YPR3LUQ","img_art/20.jpg","1","","","","","","","","","","","","","","","","","","","","","","","","",""
"2661","","image-button-response","136","1271500","0.0-135.0-0.0","AQJWO4YPR3LUQ","img_art/20.jpg","3","","","","","","","","","","","","","","","","","","","","","","","","",""
"null","","html-keyboard-response","137","1272507","0.0-136.0","AQJWO4YPR3LUQ","<p style=""font-size: 48px;"">+</p>","","","","","null","allTrialResponses","1000","1","13","img_art/20.jpg","-45","It looks like an abstract car accident, don't like it","Christina,Monica,Kaylee,Natalie,Bailey,Claire","it looks like a piccasso knock off,-23,240,20","It looks like a junkyard and isn't appealing,-22,360,20","i can see a car crash,13,200,20","I like the detail on it, although I get a sad vibe to it,19,400,20","A bit hectic, but it does have a bit of coolness to it,6,360,20","reminds me of Salvadore Dali,24,260,20","Kaylee","i can see a car crash,13,200,20","Monica","It looks like a junkyard and isn't appealing,-22,360,20","Natalie","I like the detail on it, although I get a sad vibe to it,19,400,20","2"
"10749","","survey-text","138","1283266","0.0-137.0-0.0","AQJWO4YPR3LUQ","","","","{""Q0"":""I like the brushstrokes on this one""}","","","","","","","","","","","","","","","","","","","","","","",""
"3014.0999999940395","","image-slider-response","139","1286282","0.0-138.0","AQJWO4YPR3LUQ","","","","","15","","","","","","","","","","","","","","","","","","","","","",""
"null","","image-button-response","140","1291299","0.0-139.0","AQJWO4YPR3LUQ","img_art/30.jpg","null","","","","","","","","","","","","","","","","","","","","","","","","",""
"1213","","image-button-response","141","1292515","0.0-140.0","AQJWO4YPR3LUQ","img_art/30.jpg","4","","","","","","","","","","","","","","","","","","","","","","","","",""
"1038","","image-button-response","142","1293555","0.0-141.0-0.0","AQJWO4YPR3LUQ","img_art/30.jpg","3","","","","","","","","","","","","","","","","","","","","","","","","",""
"1173","","image-button-response","143","1294731","0.0-142.0-0.0","AQJWO4YPR3LUQ","img_art/30.jpg","0","","","","","","","","","","","","","","","","","","","","","","","","",""
"null","","html-keyboard-response","144","1295239","0.0-143.0","AQJWO4YPR3LUQ","<p style=""font-size: 48px;"">+</p>","","","","","null","allTrialResponses","500","1","14","img_art/30.jpg","15","I like the brushstrokes on this one","Kaitlin,Monica,Kaylee,Natalie,Jasmine,Jacqueline","the different roads to take in life,10,60,20","It looked like a random scribble but I can see a person's face in it now and I think it's clever,13,360,20","i cant really get it,-35,200,20","the colors look nice,19,400,20","Pretty neutral about this one,0,340,20","Too dark and ugly with all the black smears,-20,300,20","Jasmine","Pretty neutral about this one,0,340,20","Natalie","the colors look nice,19,400,20","Kaitlin","the different roads to take in life,10,60,20","2"
"34187","","survey-text","145","1329434","0.0-144.0-0.0","AQJWO4YPR3LUQ","","","","{""Q0"":""I love the colors and the woman relaxing""}","","","","","","","","","","","","","","","","","","","","","","",""
"5470.0999999940395","","image-slider-response","146","1334906","0.0-145.0","AQJWO4YPR3LUQ","","","","","38","","","","","","","","","","","","","","","","","","","","","",""
"4662","","image-button-response","147","1339917","0.0-146.0","AQJWO4YPR3LUQ","img_art/9.jpg","1","","","","","","","","","","","","","","","","","","","","","","","","",""
"1475","","image-button-response","148","1341396","0.0-147.0","AQJWO4YPR3LUQ","img_art/9.jpg","1","","","","","","","","","","","","","","","","","","","","","","","","",""
"3053","","image-button-response","149","1344451","0.0-148.0-0.0","AQJWO4YPR3LUQ","img_art/9.jpg","4","","","","","","","","","","","","","","","","","","","","","","","","",""
"1334","","image-button-response","150","1345788","0.0-149.0-0.0","AQJWO4YPR3LUQ","img_art/9.jpg","5","","","","","","","","","","","","","","","","","","","","","","","","",""
"null","","html-keyboard-response","151","1346302","0.0-150.0","AQJWO4YPR3LUQ","<p style=""font-size: 48px;"">+</p>","","","","","null","allTrialResponses","500","1","15","img_art/9.jpg","38","I love the colors and the woman relaxing","Kaitlin,Mariah,Makayla,Natalie,Jasmine,Lauren","this looks to be a child nightmare,-10,60,20","Pleasant in all ways.,27,140,20","Looks like a monster's teeth , unsettling,-18,80,20","Gives me anxiety,-23,400,20","I like abstract art that looks that there is more than random brush strokes. This one looks the former,10,340,20","I like how design can be interpreted differently, I see a person sleeping or a mountainous region.,10,340,20","Mariah","Pleasant in all ways.,27,140,20","Jasmine","I like abstract art that looks that there is more than random brush strokes. This one looks the former,10,340,20","Lauren","I like how design can be interpreted differently, I see a person sleeping or a mountainous region.,10,340,20","2"
"4895","","survey-text","152","1351218","0.0-151.0-0.0","AQJWO4YPR3LUQ","","","","{""Q0"":""course""}","","","","","","","","","","","","","","","","","","","","","","",""
"10143","","survey-text","153","1361363","0.0-152.0-0.0","AQJWO4YPR3LUQ","","","","{""Q0"":""It looks like a picture of sand and rocks""}","","","","","","","","","","","","","","","","","","","","","","",""
"2414","","image-slider-response","154","1363779","0.0-153.0","AQJWO4YPR3LUQ","","","","","-45","","","","","","","","","","","","","","","","","","","","","",""
"2430","","image-button-response","155","1368810","0.0-154.0","AQJWO4YPR3LUQ","img_art/7.jpg","0","","","","","","","","","","","","","","","","","","","","","","","","",""
"655","","image-button-response","156","1369468","0.0-155.0","AQJWO4YPR3LUQ","img_art/7.jpg","0","","","","","","","","","","","","","","","","","","","","","","","","",""
"774","","image-button-response","157","1370244","0.0-156.0-0.0","AQJWO4YPR3LUQ","img_art/7.jpg","1","","","","","","","","","","","","","","","","","","","","","","","","",""
"2165","","image-button-response","158","1372412","0.0-157.0-0.0","AQJWO4YPR3LUQ","img_art/7.jpg","4","","","","","","","","","","","","","","","","","","","","","","","","",""
"null","","html-keyboard-response","159","1372915","0.0-158.0","AQJWO4YPR3LUQ","<p style=""font-size: 48px;"">+</p>","","","","","null","allTrialResponses","500","1","16","img_art/7.jpg","-45","It looks like a picture of sand and rocks","Alexandra,Mariah,Breanna,Paige,Jasmine,Lauren","I do not like the boring colors in this.,-20,60,20","The dried bottom of a puddle in July.,-41,140,20","Not highly impressed,-5,380,20","Happy. Looking at the moon,43,60,20","It just reminds me of dirt,-10,340,20","I like how the image has a sense of history, since the style looks like it came from stone.,20,340,20","Alexandra","I do not like the boring colors in this.,-20,60,20","Mariah","The dried bottom of a puddle in July.,-41,140,20","Jasmine","It just reminds me of dirt,-10,340,20","2"
"35740","","survey-text","160","1408663","0.0-159.0-0.0","AQJWO4YPR3LUQ","","","","{""Q0"":""I love blue paintings and love the splatters""}","","","","","","","","","","","","","","","","","","","","","","",""
"3110.4000000059605","","image-slider-response","161","1411775","0.0-160.0","AQJWO4YPR3LUQ","","","","","47","","","","","","","","","","","","","","","","","","","","","",""
"2301","","image-button-response","162","1416779","0.0-161.0","AQJWO4YPR3LUQ","img_art/13.jpg","1","","","","","","","","","","","","","","","","","","","","","","","","",""
"353","","image-button-response","163","1417136","0.0-162.0","AQJWO4YPR3LUQ","img_art/13.jpg","1","","","","","","","","","","","","","","","","","","","","","","","","",""
"950","","image-button-response","164","1418088","0.0-163.0-0.0","AQJWO4YPR3LUQ","img_art/13.jpg","5","","","","","","","","","","","","","","","","","","","","","","","","",""
"989","","image-button-response","165","1419080","0.0-164.0-0.0","AQJWO4YPR3LUQ","img_art/13.jpg","3","","","","","","","","","","","","","","","","","","","","","","","","",""
"null","","html-keyboard-response","166","1419594","0.0-165.0","AQJWO4YPR3LUQ","<p style=""font-size: 48px;"">+</p>","","","","","null","allTrialResponses","500","1","17","img_art/13.jpg","47","I love blue paintings and love the splatters","Alexandra,Mariah,Isabella,Kaitlyn,Jasmine,Jennifer","I do like the blue colors in this.,12,60,20","Rain on a cold window.,22,140,20","Rain drops on a window,35,280,20","Like the color choices,7,80,20","I like the colors together,17,340,20","I like the color scheme,41,380,20","Mariah","Rain on a cold window.,22,140,20","Jennifer","I like the color scheme,41,380,20","Kaitlyn","Like the color choices,7,80,20","2"
"17068","","survey-text","167","1436671","0.0-166.0-0.0","AQJWO4YPR3LUQ","","","","{""Q0"":""It looks like a building in the city""}","","","","","","","","","","","","","","","","","","","","","","",""
"3733.7000000029802","","image-slider-response","168","1440407","0.0-167.0","AQJWO4YPR3LUQ","","","","","-29","","","","","","","","","","","","","","","","","","","","","",""
"4246","","image-button-response","169","1445415","0.0-168.0","AQJWO4YPR3LUQ","img_art/12.jpg","1","","","","","","","","","","","","","","","","","","","","","","","","",""
"645","","image-button-response","170","1446063","0.0-169.0","AQJWO4YPR3LUQ","img_art/12.jpg","1","","","","","","","","","","","","","","","","","","","","","","","","",""
"3311","","image-button-response","171","1449376","0.0-170.0-0.0","AQJWO4YPR3LUQ","img_art/12.jpg","4","","","","","","","","","","","","","","","","","","","","","","","","",""
"588","","image-button-response","172","1449968","0.0-171.0-0.0","AQJWO4YPR3LUQ","img_art/12.jpg","5","","","","","","","","","","","","","","","","","","","","","","","","",""
"null","","html-keyboard-response","173","1451475","0.0-172.0","AQJWO4YPR3LUQ","<p style=""font-size: 48px;"">+</p>","","","","","null","allTrialResponses","1500","1","18","img_art/12.jpg","-29","It looks like a building in the city","Crystal,Mariah,Savannah,Kaitlyn,Andrea,Jennifer","I like the sectioned nature of the squares and curves. Not my favorite but still a good one.,27,300,20","It is very bland and the colors are not cohesive.,-20,140,20","Almost natural flowing between abstract sections.,27,200,20","The shapes present in the picture make it very interesting,17,80,20","It just feels like a jigsaw puzzle,-4,240,20","This piece doesn't provoke any kind of reaction,0,380,20","Mariah","It is very bland and the colors are not cohesive.,-20,140,20","Andrea","It just feels like a jigsaw puzzle,-4,240,20","Jennifer","This piece doesn't provoke any kind of reaction,0,380,20","2"
"13589","","survey-text","174","1465071","0.0-173.0-0.0","AQJWO4YPR3LUQ","","","","{""Q0"":""It reminds me of a roller coaster, I would like it better with more colors""}","","","","","","","","","","","","","","","","","","","","","","",""
"2165.2000000029802","","image-slider-response","175","1467239","0.0-174.0","AQJWO4YPR3LUQ","","","","","5","","","","","","","","","","","","","","","","","","","","","",""
"3957","","image-button-response","176","1472251","0.0-175.0","AQJWO4YPR3LUQ","img_art/10.jpg","5","","","","","","","","","","","","","","","","","","","","","","","","",""
"625","","image-button-response","177","1472879","0.0-176.0","AQJWO4YPR3LUQ","img_art/10.jpg","5","","","","","","","","","","","","","","","","","","","","","","","","",""
"1711","","image-button-response","178","1474592","0.0-177.0-0.0","AQJWO4YPR3LUQ","img_art/10.jpg","3","","","","","","","","","","","","","","","","","","","","","","","","",""
"3308","","image-button-response","179","1477903","0.0-178.0-0.0","AQJWO4YPR3LUQ","img_art/10.jpg","1","","","","","","","","","","","","","","","","","","","","","","","","",""
"null","","html-keyboard-response","180","1479406","0.0-179.0","AQJWO4YPR3LUQ","<p style=""font-size: 48px;"">+</p>","","","","","null","allTrialResponses","1500","1","19","img_art/10.jpg","5","It reminds me of a roller coaster, I would like it better with more colors","Sabrina,Mariah,Kelly,Shannon,Andrea,Jennifer","I love the dark and edgy nature of this,50,120,20","The colors and shapes are soothing but also disconcerting.,21,140,20","I cant tell what this is supposed to be, but I enjoy the simplicity of it.,28,220,20","I can't tell what this picture is supposed to mean and I think the colors are lacking variety.,-42,220,20","Kraken, and I love it.,39,240,20","I am neutral towards the artwork,1,380,20","Jennifer","I am neutral towards the artwork,1,380,20","Shannon","I can't tell what this picture is supposed to mean and I think the colors are lacking variety.,-42,220,20","Mariah","The colors and shapes are soothing but also disconcerting.,21,140,20","2"
"14493","","survey-text","181","1493911","0.0-180.0-0.0","AQJWO4YPR3LUQ","","","","{""Q0"":""I love the green and the black together""}","","","","","","","","","","","","","","","","","","","","","","",""
"3287","","image-slider-response","182","1497200","0.0-181.0","AQJWO4YPR3LUQ","","","","","34","","","","","","","","","","","","","","","","","","","","","",""
"2989","","image-button-response","183","1502207","0.0-182.0","AQJWO4YPR3LUQ","img_art/25.jpg","5","","","","","","","","","","","","","","","","","","","","","","","","",""
"621","","image-button-response","184","1502832","0.0-183.0","AQJWO4YPR3LUQ","img_art/25.jpg","5","","","","","","","","","","","","","","","","","","","","","","","","",""
"2036","","image-button-response","185","1504871","0.0-184.0-0.0","AQJWO4YPR3LUQ","img_art/25.jpg","3","","","","","","","","","","","","","","","","","","","","","","","","",""
"1974","","image-button-response","186","1506848","0.0-185.0-0.0","AQJWO4YPR3LUQ","img_art/25.jpg","0","","","","","","","","","","","","","","","","","","","","","","","","",""
"null","","html-keyboard-response","187","1508977","0.0-186.0","AQJWO4YPR3LUQ","<p style=""font-size: 48px;"">+</p>","","","","","null","allTrialResponses","1500","1","20","img_art/25.jpg","34","I love the green and the black together","Maria,Mariah,Autumn,Shannon,Sierra,Jennifer","I find it enjoyable - mainly because it is not art I ever expected to see,16,120,20","The proportions are unpleasant.,-30,140,20","This is too simple,-22,340,20","I like the way the persons clothes look, there could be more color though.,10,220,20","the green is serene. the figure is scare crow like,7,260,20","Spooky, but in a good way. I like the green and black color palette.,42,380,20","Jennifer","Spooky, but in a good way. I like the green and black color palette.,42,380,20","Shannon","I like the way the persons clothes look, there could be more color though.,10,220,20","Maria","I find it enjoyable - mainly because it is not art I ever expected to see,16,120,20","2"
"8794","","survey-text","188","1517791","0.0-187.0-0.0","AQJWO4YPR3LUQ","","","","{""Q0"":""we""}","","","","","","","","","","","","","","","","","","","","","","",""
"11147","","survey-text","189","1528940","0.0-188.0-0.0","AQJWO4YPR3LUQ","","","","{""Q0"":""This reminds me of roads crossing in the city""}","","","","","","","","","","","","","","","","","","","","","","",""
"4420.800000011921","","image-slider-response","190","1533363","0.0-189.0","AQJWO4YPR3LUQ","","","","","17","","","","","","","","","","","","","","","","","","","","","",""
"null","","image-button-response","191","1538377","0.0-190.0","AQJWO4YPR3LUQ","img_art/11.jpg","null","","","","","","","","","","","","","","","","","","","","","","","","",""
"1592","","image-button-response","192","1539971","0.0-191.0","AQJWO4YPR3LUQ","img_art/11.jpg","2","","","","","","","","","","","","","","","","","","","","","","","","",""
"4165","","image-button-response","193","1544141","0.0-192.0-0.0","AQJWO4YPR3LUQ","img_art/11.jpg","3","","","","","","","","","","","","","","","","","","","","","","","","",""
"3331","","image-button-response","194","1547475","0.0-193.0-0.0","AQJWO4YPR3LUQ","img_art/11.jpg","1","","","","","","","","","","","","","","","","","","","","","","","","",""
"null","","html-keyboard-response","195","1548989","0.0-194.0","AQJWO4YPR3LUQ","<p style=""font-size: 48px;"">+</p>","","","","","null","allTrialResponses","1500","1","21","img_art/11.jpg","17","This reminds me of roads crossing in the city","Maria,Gabrielle,Hailey,Shannon,Alexis,Jennifer","I enjoy the kandinsky-like general vibe, but the grey brings me down a bit,27,120,20","I like this one mostly a good combination of colors and light and dark,12,160,20","a train going around the country,14,200,20","This looks like a bridge that has plenty of color.,10,220,20","Don't like cityscapes, which this picture reminds me of,-29,100,20","The narrow groups of lines in the center make me feel uneasy for some reason,-31,380,20","Hailey","a train going around the country,14,200,20","Shannon","This looks like a bridge that has plenty of color.,10,220,20","Gabrielle","I like this one mostly a good combination of colors and light and dark,12,160,20","2"
"29510","","survey-text","196","1578530","0.0-195.0-0.0","AQJWO4YPR3LUQ","","","","{""Q0"":""Nice abstract of a seaside town""}","","","","","","","","","","","","","","","","","","","","","","",""
"52222","","image-slider-response","197","1630748","0.0-196.0","AQJWO4YPR3LUQ","","","","","23","","","","","","","","","","","","","","","","","","","","","",""
"2766","","image-button-response","198","1635753","0.0-197.0","AQJWO4YPR3LUQ","img_art/19.jpg","2","","","","","","","","","","","","","","","","","","","","","","","","",""
"697","","image-button-response","199","1636453","0.0-198.0","AQJWO4YPR3LUQ","img_art/19.jpg","2","","","","","","","","","","","","","","","","","","","","","","","","",""
"1238","","image-button-response","200","1637693","0.0-199.0-0.0","AQJWO4YPR3LUQ","img_art/19.jpg","4","","","","","","","","","","","","","","","","","","","","","","","","",""
"1709","","image-button-response","201","1639405","0.0-200.0-0.0","AQJWO4YPR3LUQ","img_art/19.jpg","0","","","","","","","","","","","","","","","","","","","","","","","","",""
"null","","html-keyboard-response","202","1640907","0.0-201.0","AQJWO4YPR3LUQ","<p style=""font-size: 48px;"">+</p>","","","","","null","allTrialResponses","1500","1","22","img_art/19.jpg","23","Nice abstract of a seaside town","Lindsey,Gabrielle,Hailey,Shannon,Michelle,Katie","Pleasant colors with just enough detail to be recognizable. I can see a scene in it that tells a story.,7,400,20","not professional looking but not bad either,13,160,20","an old cityfrom many years ago. its ok,6,200,20","This looks like a bunch of weird blobs and the colors don't go great together.,-10,220,20","I like the water but again, the small lines with no detail are irritating,3,280,20","Too busy, makes me anxious and frustrated. Lots of movement in the brush strokes.,-9,160,20","Hailey","an old cityfrom many years ago. its ok,6,200,20","Michelle","I like the water but again, the small lines with no detail are irritating,3,280,20","Lindsey","Pleasant colors with just enough detail to be recognizable. I can see a scene in it that tells a story.,7,400,20","2"
"14177","","survey-text","203","1655100","0.0-202.0-0.0","AQJWO4YPR3LUQ","","","","{""Q0"":""Reminds me of an animal of some kind""}","","","","","","","","","","","","","","","","","","","","","","",""
"3382.5999999940395","","image-slider-response","204","1658484","0.0-203.0","AQJWO4YPR3LUQ","","","","","-43","","","","","","","","","","","","","","","","","","","","","",""
"null","","image-button-response","205","1663498","0.0-204.0","AQJWO4YPR3LUQ","img_art/5.jpg","null","","","","","","","","","","","","","","","","","","","","","","","","",""
"11769","","image-button-response","206","1675269","0.0-205.0","AQJWO4YPR3LUQ","img_art/5.jpg","4","","","","","","","","","","","","","","","","","","","","","","","","",""
"3597","","image-button-response","207","1678869","0.0-206.0-0.0","AQJWO4YPR3LUQ","img_art/5.jpg","2","","","","","","","","","","","","","","","","","","","","","","","","",""
"1525","","image-button-response","208","1680397","0.0-207.0-0.0","AQJWO4YPR3LUQ","img_art/5.jpg","3","","","","","","","","","","","","","","","","","","","","","","","","",""
"null","","html-keyboard-response","209","1681402","0.0-208.0","AQJWO4YPR3LUQ","<p style=""font-size: 48px;"">+</p>","","","","","null","allTrialResponses","1000","1","23","img_art/5.jpg","-43","Reminds me of an animal of some kind","Lindsey,Mary,Hailey,Caroline,Michelle,Megan","Black bit reminds me of a giant splinter. Yellow bit reminds me of urine. I hate it.,-50,400,20","This piece has a good flow. I like the yellow with black combo.,11,180,20","puke yellow with nothing but sadness,-35,200,20","Too much angular things happening, makes me think of stabbing something which makes me uncomfortable,-50,100,20","What is this? It looks like no effort was put into this work,-2,280,20","Cop out, easy money for artist for a 4 min piece,-29,200,20","Michelle","What is this? It looks like no effort was put into this work,-2,280,20","Hailey","puke yellow with nothing but sadness,-35,200,20","Caroline","Too much angular things happening, makes me think of stabbing something which makes me uncomfortable,-50,100,20","2"
"72239","","survey-text","210","1753650","0.0-209.0-0.0","AQJWO4YPR3LUQ","","","","{""Q0"":""Looks like flowers sprouting up, I like it""}","","","","","","","","","","","","","","","","","","","","","","",""
"2981.5999999940395","","image-slider-response","211","1756634","0.0-210.0","AQJWO4YPR3LUQ","","","","","45","","","","","","","","","","","","","","","","","","","","","",""
"3357","","image-button-response","212","1761645","0.0-211.0","AQJWO4YPR3LUQ","img_art/14.jpg","5","","","","","","","","","","","","","","","","","","","","","","","","",""
"490","","image-button-response","213","1762139","0.0-212.0","AQJWO4YPR3LUQ","img_art/14.jpg","5","","","","","","","","","","","","","","","","","","","","","","","","",""
"1116","","image-button-response","214","1763259","0.0-213.0-0.0","AQJWO4YPR3LUQ","img_art/14.jpg","3","","","","","","","","","","","","","","","","","","","","","","","","",""
"1276","","image-button-response","215","1764538","0.0-214.0-0.0","AQJWO4YPR3LUQ","img_art/14.jpg","1","","","","","","","","","","","","","","","","","","","","","","","","",""
"null","","html-keyboard-response","216","1766041","0.0-215.0","AQJWO4YPR3LUQ","<p style=""font-size: 48px;"">+</p>","","","","","null","allTrialResponses","1500","1","24","img_art/14.jpg","45","Looks like flowers sprouting up, I like it","Abigail,Jordan,Hailey,Caroline,Michelle,Diana","Reminds me of art class,22,20,20","this one isn't bad, reminds me a tree that gives life, and people are waiting for someone new to be born,27,20,20","fuzzy and confused. ok then well,16,200,20","Makes me think of trees and spring. A good feeling,26,100,20","Too abstract with annoying little details. Just draw a regular tree already,-6,280,20","This piece feels inviting. It's like opening up the pages of your favorite book for the first time.,26,380,20","Diana","This piece feels inviting. It's like opening up the pages of your favorite book for the first time.,26,380,20","Caroline","Makes me think of trees and spring. A good feeling,26,100,20","Jordan","this one isn't bad, reminds me a tree that gives life, and people are waiting for someone new to be born,27,20,20","2"
"13187","","survey-text","217","1779242","0.0-216.0-0.0","AQJWO4YPR3LUQ","","","","{""Q0"":""its not too bad, looks like a key going in a lock""}","","","","","","","","","","","","","","","","","","","","","","",""
"2693.199999988079","","image-slider-response","218","1781938","0.0-217.0","AQJWO4YPR3LUQ","","","","","12","","","","","","","","","","","","","","","","","","","","","",""
"4621","","image-button-response","219","1786953","0.0-218.0","AQJWO4YPR3LUQ","img_art/22.jpg","5","","","","","","","","","","","","","","","","","","","","","","","","",""
"1422","","image-button-response","220","1788378","0.0-219.0","AQJWO4YPR3LUQ","img_art/22.jpg","5","","","","","","","","","","","","","","","","","","","","","","","","",""
"3070","","image-button-response","221","1791450","0.0-220.0-0.0","AQJWO4YPR3LUQ","img_art/22.jpg","2","","","","","","","","","","","","","","","","","","","","","","","","",""
"1557","","image-button-response","222","1793011","0.0-221.0-0.0","AQJWO4YPR3LUQ","img_art/22.jpg","4","","","","","","","","","","","","","","","","","","","","","","","","",""
"null","","html-keyboard-response","223","1793526","0.0-222.0","AQJWO4YPR3LUQ","<p style=""font-size: 48px;"">+</p>","","","","","null","allTrialResponses","500","1","25","img_art/22.jpg","12","its not too bad, looks like a key going in a lock","Margaret,Jordan,Morgan,Caroline,Stephanie,Diana","i feel like this is a a basic art piece that a school would have on the wall,-24,100,20","not a fan of this, it's boring,1,20,20","Glowing city of many emotions.,10,380,20","Felt blah. Bunch of nothingness,-42,100,20","I don't get much of a reaction.,11,300,20","I think the colors are beautiful they remind me of a sunset.,13,380,20","Diana","I think the colors are beautiful they remind me of a sunset.,13,380,20","Morgan","Glowing city of many emotions.,10,380,20","Stephanie","I don't get much of a reaction.,11,300,20","2"
"3824","","survey-text","224","1797370","0.0-223.0-0.0","AQJWO4YPR3LUQ","","","","{""Q0"":""table""}","","","","","","","","","","","","","","","","","","","","","","",""
"19214","","survey-text","225","1816586","0.0-224.0-0.0","AQJWO4YPR3LUQ","","","","{""Q0"":""Looks like someone rowing on a lake into a sunset""}","","","","","","","","","","","","","","","","","","","","","","",""
"3180.8999999910593","","image-slider-response","226","1819769","0.0-225.0","AQJWO4YPR3LUQ","","","","","29","","","","","","","","","","","","","","","","","","","","","",""
"3101","","image-button-response","227","1824788","0.0-226.0","AQJWO4YPR3LUQ","img_art/1.jpg","5","","","","","","","","","","","","","","","","","","","","","","","","",""
"522","","image-button-response","228","1825314","0.0-227.0","AQJWO4YPR3LUQ","img_art/1.jpg","5","","","","","","","","","","","","","","","","","","","","","","","","",""
"757","","image-button-response","229","1826074","0.0-228.0-0.0","AQJWO4YPR3LUQ","img_art/1.jpg","4","","","","","","","","","","","","","","","","","","","","","","","","",""
"644","","image-button-response","230","1826721","0.0-229.0-0.0","AQJWO4YPR3LUQ","img_art/1.jpg","3","","","","","","","","","","","","","","","","","","","","","","","","",""
"null","","html-keyboard-response","231","1827728","0.0-230.0","AQJWO4YPR3LUQ","<p style=""font-size: 48px;"">+</p>","","","","","null","allTrialResponses","1000","1","26","img_art/1.jpg","29","Looks like someone rowing on a lake into a sunset","Kylie,Miranda,Morgan,Brooke,Stephanie,Diana","I don't know how I feel about this,1,300,20","Someone painted a landscape and decided they didn't like it so they covered it up.,13,320,20","Flat colors with no flavor.,5,380,20","It's okay, colors remind me of autumn.,10,60,20","Pretty colors. Fall day in the East Coast of USA.,42,300,20","Might be a person rowing their boat across the lake. Not sure if the background is trees or not.,12,380,20","Diana","Might be a person rowing their boat across the lake. Not sure if the background is trees or not.,12,380,20","Stephanie","Pretty colors. Fall day in the East Coast of USA.,42,300,20","Brooke","It's okay, colors remind me of autumn.,10,60,20","2"
"15743","","survey-text","232","1843481","0.0-231.0-0.0","AQJWO4YPR3LUQ","","","","{""Q0"":""Looks like a bunch of trees with flower buds""}","","","","","","","","","","","","","","","","","","","","","","",""
"4013.5999999940395","","image-slider-response","233","1847497","0.0-232.0","AQJWO4YPR3LUQ","","","","","2","","","","","","","","","","","","","","","","","","","","","",""
"2390","","image-button-response","234","1852504","0.0-233.0","AQJWO4YPR3LUQ","img_art/15.jpg","0","","","","","","","","","","","","","","","","","","","","","","","","",""
"534","","image-button-response","235","1853041","0.0-234.0","AQJWO4YPR3LUQ","img_art/15.jpg","0","","","","","","","","","","","","","","","","","","","","","","","","",""
"1975","","image-button-response","236","1855017","0.0-235.0-0.0","AQJWO4YPR3LUQ","img_art/15.jpg","3","","","","","","","","","","","","","","","","","","","","","","","","",""
"814","","image-button-response","237","1855834","0.0-236.0-0.0","AQJWO4YPR3LUQ","img_art/15.jpg","5","","","","","","","","","","","","","","","","","","","","","","","","",""
"null","","html-keyboard-response","238","1856843","0.0-237.0","AQJWO4YPR3LUQ","<p style=""font-size: 48px;"">+</p>","","","","","null","allTrialResponses","1000","1","27","img_art/15.jpg","2","Looks like a bunch of trees with flower buds","Kimberly,Leah,Elizabeth,Brooke,Stephanie,Diana","it looks like lavender,10,260,20","Pretty, like in a field of poppies,19,360,20","Perfect Abstract painting,50,20,20","This one reminds me of a postage stamp, but branches and leaves. Kind of fun.,15,60,20","This piece is too dark,-42,300,20","There should be more space between the black marks. The black comes off harsh and the blue between the trees can barely be seen.,-21,380,20","Kimberly","it looks like lavender,10,260,20","Brooke","This one reminds me of a postage stamp, but branches and leaves. Kind of fun.,15,60,20","Diana","There should be more space between the black marks. The black comes off harsh and the blue between the trees can barely be seen.,-21,380,20","2"
"17186","","survey-text","239","1874041","0.0-238.0-0.0","AQJWO4YPR3LUQ","","","","{""Q0"":""Reminds me of something a child draws""}","","","","","","","","","","","","","","","","","","","","","","",""
"2798.4000000059605","","image-slider-response","240","1876842","0.0-239.0","AQJWO4YPR3LUQ","","","","","-44","","","","","","","","","","","","","","","","","","","","","",""
"null","","image-button-response","241","1881859","0.0-240.0","AQJWO4YPR3LUQ","img_art/27.jpg","null","","","","","","","","","","","","","","","","","","","","","","","","",""
"2180","","image-button-response","242","1884042","0.0-241.0","AQJWO4YPR3LUQ","img_art/27.jpg","5","","","","","","","","","","","","","","","","","","","","","","","","",""
"3030","","image-button-response","243","1887074","0.0-242.0-0.0","AQJWO4YPR3LUQ","img_art/27.jpg","0","","","","","","","","","","","","","","","","","","","","","","","","",""
"4222","","image-button-response","244","1891298","0.0-243.0-0.0","AQJWO4YPR3LUQ","img_art/27.jpg","4","","","","","","","","","","","","","","","","","","","","","","","","",""
"null","","html-keyboard-response","245","1892819","0.0-244.0","AQJWO4YPR3LUQ","<p style=""font-size: 48px;"">+</p>","","","","","null","allTrialResponses","1500","1","28","img_art/27.jpg","-44","Reminds me of something a child draws","Kimberly,Chloe,Laura,Brooke,Samantha,Diana","Nothing stands out,-23,260,20","Like the movement of the lines and dripping paint.,30,220,20","feels like a bar scene, tucked away in the corner of a small town,-40,320,20","Like it, autumn colors, trees and foliage scene.,25,60,20","I like all it has going but i wouldnt put it in my house unless my child did it,25,140,20","I don't care for the green scribbles; not sure what they are. But I adore the colors in the background.,24,380,20","Diana","I don't care for the green scribbles; not sure what they are. But I adore the colors in the background.,24,380,20","Kimberly","Nothing stands out,-23,260,20","Samantha","I like all it has going but i wouldnt put it in my house unless my child did it,25,140,20","2"
"32709","","survey-text","246","1925538","0.0-245.0-0.0","AQJWO4YPR3LUQ","","","","{""Q0"":""Looks like a plant sprouting""}","","","","","","","","","","","","","","","","","","","","","","",""
"3093.2999999970198","","image-slider-response","247","1928634","0.0-246.0","AQJWO4YPR3LUQ","","","","","-43","","","","","","","","","","","","","","","","","","","","","",""
"4225","","image-button-response","248","1933651","0.0-247.0","AQJWO4YPR3LUQ","img_art/6.jpg","0","","","","","","","","","","","","","","","","","","","","","","","","",""
"948","","image-button-response","249","1934602","0.0-248.0","AQJWO4YPR3LUQ","img_art/6.jpg","0","","","","","","","","","","","","","","","","","","","","","","","","",""
"870","","image-button-response","250","1935475","0.0-249.0-0.0","AQJWO4YPR3LUQ","img_art/6.jpg","1","","","","","","","","","","","","","","","","","","","","","","","","",""
"909","","image-button-response","251","1936387","0.0-250.0-0.0","AQJWO4YPR3LUQ","img_art/6.jpg","4","","","","","","","","","","","","","","","","","","","","","","","","",""
"null","","html-keyboard-response","252","1937394","0.0-251.0","AQJWO4YPR3LUQ","<p style=""font-size: 48px;"">+</p>","","","","","null","allTrialResponses","1000","1","29","img_art/6.jpg","-43","Looks like a plant sprouting","Kimberly,Grace,Jamie,Vanessa,Samantha,Diana","It's pretty dour,-10,260,20","Growth in the desert?  Don't care for it very much.,-26,180,20","Tree growing in a desert. Gives me feelings of hope,5,320,20","I don't like the colors and the dark shape at the top makes me think of a buzzard.,-28,380,20","It isnt bad but sort of too bland,0,140,20","I love it. It reminds me of a bird sitting on a wall.,26,380,20","Kimberly","It's pretty dour,-10,260,20","Grace","Growth in the desert?  Don't care for it very much.,-26,180,20","Samantha","It isnt bad but sort of too bland,0,140,20","2"
"10437","","survey-text","253","1947844","0.0-252.0-0.0","AQJWO4YPR3LUQ","","","","{""Q0"":""Looks like a bunch of people dancing""}","","","","","","","","","","","","","","","","","","","","","","",""
"2597.2999999970198","","image-slider-response","254","1950443","0.0-253.0","AQJWO4YPR3LUQ","","","","","7","","","","","","","","","","","","","","","","","","","","","",""
"null","","image-button-response","255","1955451","0.0-254.0","AQJWO4YPR3LUQ","img_art/23.jpg","null","","","","","","","","","","","","","","","","","","","","","","","","",""
"406","","image-button-response","256","1955860","0.0-255.0","AQJWO4YPR3LUQ","img_art/23.jpg","0","","","","","","","","","","","","","","","","","","","","","","","","",""
"5782","","image-button-response","257","1961644","0.0-256.0-0.0","AQJWO4YPR3LUQ","img_art/23.jpg","5","","","","","","","","","","","","","","","","","","","","","","","","",""
"1972","","image-button-response","258","1963619","0.0-257.0-0.0","AQJWO4YPR3LUQ","img_art/23.jpg","1","","","","","","","","","","","","","","","","","","","","","","","","",""
"null","","html-keyboard-response","259","1964624","0.0-258.0","AQJWO4YPR3LUQ","<p style=""font-size: 48px;"">+</p>","","","","","null","allTrialResponses","1000","1","30","img_art/23.jpg","7","Looks like a bunch of people dancing","Kimberly,Grace,Tiffany,Marissa,Samantha,Sydney","Look at all the dancers,26,260,20","Looks like fireworks.,21,180,20","I feel happy and a little excited. Like watching fireworks with family.,26,360,20","It feels exciting,23,160,20","The more i look at it the more i like it  the dots of color and very interesting,50,140,20","The piece seems chaotic, and I dislike the random pop of white within so many colors.,-10,320,20","Kimberly","Look at all the dancers,26,260,20","Sydney","The piece seems chaotic, and I dislike the random pop of white within so many colors.,-10,320,20","Grace","Looks like fireworks.,21,180,20","2"
"22127","","image-button-response_instructions","260","1986763","0.0-259.0","AQJWO4YPR3LUQ","","0","instructions","","","","","","","","","","","","","","","","","","","","","","","",""
"1288","","image-button-response","261","1988059","0.0-260.0","AQJWO4YPR3LUQ","","0","","","","","","","","","","","","","","","","","","","","","","","","",""
