"rt","url","trial_type","trial_index","time_elapsed","internal_node_id","participant_id","stimulus","button_pressed","Name","responses","response","key_press","variableName","fixationTime","condition","trial","photo","subjectRating","subjectResponse","agentsNames","agent_1_Response","agent_2_Response","agent_3_Response","agent_4_Response","agent_5_Response","agent_6_Response","kept_1_name","kept_1_response","kept_2_name","kept_2_response","kept_3_name","kept_3_response","errorCounter"
"4742","external_page_harvard.html","external-html","0","4819","0.0-0.0","AR149JH34I0RE","","","","","","","","","","","","","","","","","","","","","","","","","","",""
"3435","","image-button-response","1","8257","0.0-1.0","AR149JH34I0RE","","1","","","","","","","","","","","","","","","","","","","","","","","","",""
"2534","","image-button-response","2","10796","0.0-2.0-0.0","AR149JH34I0RE","","1","phone","","","","","","","","","","","","","","","","","","","","","","","",""
"7850","","survey-text","3","18647","0.0-3.0-0.0","AR149JH34I0RE","","","","{""Q0"":""AR149JH34I0RE""}","","","","","","","","","","","","","","","","","","","","","","",""
"6052","","image-button-response_instructions","4","24702","0.0-4.0","AR149JH34I0RE","","0","instructions","","","","","","","","","","","","","","","","","","","","","","","",""
"13077","","image-button-response_instructions","5","37781","0.0-5.0","AR149JH34I0RE","img_art/ins/popularity/ins1.png","0","instructions","","","","","","","","","","","","","","","","","","","","","","","",""
"6769","","image-button-response_instructions","6","44551","0.0-6.0","AR149JH34I0RE","img_art/ins/popularity/ins2.png","0","instructions","","","","","","","","","","","","","","","","","","","","","","","",""
"4919","","image-button-response_instructions","7","49471","0.0-7.0","AR149JH34I0RE","img_art/ins/popularity/ins2Extreme.png","0","instructions","","","","","","","","","","","","","","","","","","","","","","","",""
"22172","","image-button-response_instructions","8","71645","0.0-8.0","AR149JH34I0RE","img_art/ins/popularity/ins3KEEPpop.PNG","0","instructions","","","","","","","","","","","","","","","","","","","","","","","",""
"4103","","image-button-response_instructions","9","75749","0.0-9.0","AR149JH34I0RE","img_art/ins/popularity/ins3ANamepop.PNG","0","instructions","","","","","","","","","","","","","","","","","","","","","","","",""
"1825","","image-button-response_instructions","10","77576","0.0-10.0","AR149JH34I0RE","img_art/ins/popularity/ins3ARatingpop.png","0","instructions","","","","","","","","","","","","","","","","","","","","","","","",""
"1376","","image-button-response_instructions","11","78954","0.0-11.0","AR149JH34I0RE","img_art/ins/popularity/ins3ATextpop.png","0","instructions","","","","","","","","","","","","","","","","","","","","","","","",""
"7022","","image-button-response_instructions","12","85977","0.0-12.0","AR149JH34I0RE","img_art/ins/popularity/ins3ALikespop.png","0","instructions","","","","","","","","","","","","","","","","","","","","","","","",""
"14920","","image-button-response_instructions","13","100898","0.0-13.0","AR149JH34I0RE","img_art/ins/popularity/ins3KEEPpop.PNG","0","instructions","","","","","","","","","","","","","","","","","","","","","","","",""
"11103","","image-button-response_instructions","14","112002","0.0-14.0","AR149JH34I0RE","img_art/ins/popularity/ins3_5RED.png","0","instructions","","","","","","","","","","","","","","","","","","","","","","","",""
"228","","image-button-response_instructions","15","112232","0.0-15.0","AR149JH34I0RE","img_art/ins/popularity/ins3KEEPpop.PNG","0","instructions","","","","","","","","","","","","","","","","","","","","","","","",""
"9390","","image-button-response_instructions","16","121623","0.0-16.0","AR149JH34I0RE","img_art/ins/popularity/ins4KEEPpop.PNG","0","instructions","","","","","","","","","","","","","","","","","","","","","","","",""
"4879","","image-button-response_instructions","17","126503","0.0-17.0","AR149JH34I0RE","img_art/ins/popularity/ins5KEEPpop.PNG","0","instructions","","","","","","","","","","","","","","","","","","","","","","","",""
"2877","","image-button-response_instructions","18","129382","0.0-18.0","AR149JH34I0RE","","0","instructions","","","","","","","","","","","","","","","","","","","","","","","",""
"5957","","survey-text","19","135359","0.0-19.0-0.0","AR149JH34I0RE","","","","{""Q0"":""but""}","","","","","","","","","","","","","","","","","","","","","","",""
"12804","","survey-text","20","148164","0.0-20.0-0.0","AR149JH34I0RE","","","","{""Q0"":""Very colorful and sporadic""}","","","","","","","","","","","","","","","","","","","","","","",""
"9268.900000035763","","image-slider-response","21","157435","0.0-21.0","AR149JH34I0RE","","","","","7","","","","","","","","","","","","","","","","","","","","","",""
"null","","image-button-response","22","162448","0.0-22.0","AR149JH34I0RE","img_art/ins/1.jpg","null","","","","","","","","","","","","","","","","","","","","","","","","",""
"993","","image-button-response","23","163446","0.0-23.0","AR149JH34I0RE","img_art/ins/1.jpg","5","","","","","","","","","","","","","","","","","","","","","","","","",""
"8576","","image-button-response","24","172024","0.0-24.0-0.0","AR149JH34I0RE","img_art/ins/1.jpg","0","","","","","","","","","","","","","","","","","","","","","","","","",""
"3168","","image-button-response","25","175195","0.0-25.0-0.0","AR149JH34I0RE","img_art/ins/1.jpg","0","","","","","","","","","","","","","","","","","","","","","","","","",""
"2143","","image-button-response","26","182971","0.0-25.1-0.1","AR149JH34I0RE","img_art/ins/1.jpg","0","","","","","","","","","","","","","","","","","","","","","","","","",""
"1327","","image-button-response","27","190982","0.0-25.2-0.2","AR149JH34I0RE","img_art/ins/1.jpg","5","","","","","","","","","","","","","","","","","","","","","","","","",""
"1108","","image-button-response","28","195707","0.0-25.3-0.3","AR149JH34I0RE","img_art/ins/1.jpg","4","","","","","","","","","","","","","","","","","","","","","","","","",""
"null","","html-keyboard-response","29","196712","0.0-26.0","AR149JH34I0RE","<p style=""font-size: 48px;"">+</p>","","","","","null","allTrialResponses","1000","1","-2","img_art/ins/1.jpg","7","Very colorful and sporadic","Allison,Ashley,Beth,Dora,Erika,Jen","looks like a lot of things going on in the mist,20,20,20","I just don't get why these type of art would be popular,-32,40,20","This color reminds me of poo,-46,60,20","looks like what my niece in 3rd grade did this afternoon,-50,80,20","I like the sophisticated brushwork,40,100,20","It reminds me of a candy land dream I had,36,120,20","Jen","It reminds me of a candy land dream I had,36,120,20","Allison","looks like a lot of things going on in the mist,20,20,20","Erika","I like the sophisticated brushwork,40,100,20","6"
"14845","","survey-text","30","211564","0.0-27.0-0.0","AR149JH34I0RE","","","","{""Q0"":""This is very bold. ""}","","","","","","","","","","","","","","","","","","","","","","",""
"5838.5","","image-slider-response","31","217404","0.0-28.0","AR149JH34I0RE","","","","","12","","","","","","","","","","","","","","","","","","","","","",""
"null","","image-button-response","32","222411","0.0-29.0","AR149JH34I0RE","img_art/ins/2.jpg","null","","","","","","","","","","","","","","","","","","","","","","","","",""
"9346","","image-button-response","33","231761","0.0-30.0","AR149JH34I0RE","img_art/ins/2.jpg","0","","","","","","","","","","","","","","","","","","","","","","","","",""
"3871","","image-button-response","34","235635","0.0-31.0-0.0","AR149JH34I0RE","img_art/ins/2.jpg","1","","","","","","","","","","","","","","","","","","","","","","","","",""
"1791","","image-button-response","35","237432","0.0-32.0-0.0","AR149JH34I0RE","img_art/ins/2.jpg","5","","","","","","","","","","","","","","","","","","","","","","","","",""
"null","","html-keyboard-response","36","238937","0.0-33.0","AR149JH34I0RE","<p style=""font-size: 48px;"">+</p>","","","","","null","allTrialResponses","1500","1","-1","img_art/ins/2.jpg","12","This is very bold. ","Allison,Kara,Katie,Jenna,Erika,Jen","I don't have strong feelings about this,10,20,20","I like the blocks of color arrangements,30,160,20","too much color!,-28,180,20","One of my pet peevs,-48,140,20","I would never be able to compose a sophisticated pallete like this,48,100,20","It reminds me of a fireplace,36,120,20","Allison","I don't have strong feelings about this,10,20,20","Kara","I like the blocks of color arrangements,30,160,20","Jen","It reminds me of a fireplace,36,120,20","6"
"32224","","survey-text","37","271168","0.0-34.0-0.0","AR149JH34I0RE","","","","{""Q0"":""This is giving me sadness. ""}","","","","","","","","","","","","","","","","","","","","","","",""
"7629.5","","image-slider-response","38","278800","0.0-35.0","AR149JH34I0RE","","","","","9","","","","","","","","","","","","","","","","","","","","","",""
"null","","image-button-response","39","283805","0.0-36.0","AR149JH34I0RE","img_art/ins/3.jpg","null","","","","","","","","","","","","","","","","","","","","","","","","",""
"2959","","image-button-response","40","286768","0.0-37.0","AR149JH34I0RE","img_art/ins/3.jpg","5","","","","","","","","","","","","","","","","","","","","","","","","",""
"4501","","image-button-response","41","291274","0.0-38.0-0.0","AR149JH34I0RE","img_art/ins/3.jpg","2","","","","","","","","","","","","","","","","","","","","","","","","",""
"2798","","image-button-response","42","294076","0.0-39.0-0.0","AR149JH34I0RE","img_art/ins/3.jpg","1","","","","","","","","","","","","","","","","","","","","","","","","",""
"null","","html-keyboard-response","43","295091","0.0-40.0","AR149JH34I0RE","<p style=""font-size: 48px;"">+</p>","","","","","null","allTrialResponses","1000","1","0","img_art/ins/3.jpg","9","This is giving me sadness. ","Allison,Kara,Rose,Leslie,Mary,Jen","enjoy the different shades of blue,22,20,20","calming blue is very nice,36,160,20","My daily routine, it's depressing,-20,240,20","It's an alright work,15,200,20","I like the overlapping of brushes,41,220,20","I can feel a rainy day from this painting,18,120,20","Jen","I can feel a rainy day from this painting,18,120,20","Rose","My daily routine, it's depressing,-20,240,20","Kara","calming blue is very nice,36,160,20","6"
"7321","","image-button-response_instructions","44","302416","0.0-41.0","AR149JH34I0RE","","0","instructions","","","","","","","","","","","","","","","","","","","","","","","",""
"12043","","survey-likert","45","314463","0.0-42.0-0.0","AR149JH34I0RE","","","","{""Q0"":"""",""Q1"":0,""Q2"":1}","","","","","","","","","","","","","","","","","","","","","","",""
"4039","","survey-text","46","318507","0.0-43.0-0.0","AR149JH34I0RE","","","","{""Q0"":""rock""}","","","","","","","","","","","","","","","","","","","","","","",""
"50198","","survey-text","47","368708","0.0-44.0-0.0","AR149JH34I0RE","","","","{""Q0"":""Not a fan of this one. Looks hurried and childlike. ""}","","","","","","","","","","","","","","","","","","","","","","",""
"4836.400000035763","","image-slider-response","48","373548","0.0-45.0","AR149JH34I0RE","","","","","-12","","","","","","","","","","","","","","","","","","","","","",""
"null","","image-button-response","49","378571","0.0-46.0","AR149JH34I0RE","img_art/26.jpg","null","","","","","","","","","","","","","","","","","","","","","","","","",""
"9665","","image-button-response","50","388239","0.0-47.0","AR149JH34I0RE","img_art/26.jpg","1","","","","","","","","","","","","","","","","","","","","","","","","",""
"3430","","image-button-response","51","391673","0.0-48.0-0.0","AR149JH34I0RE","img_art/26.jpg","5","","","","","","","","","","","","","","","","","","","","","","","","",""
"2160","","image-button-response","52","393835","0.0-49.0-0.0","AR149JH34I0RE","img_art/26.jpg","3","","","","","","","","","","","","","","","","","","","","","","","","",""
"null","","html-keyboard-response","53","394352","0.0-50.0","AR149JH34I0RE","<p style=""font-size: 48px;"">+</p>","","","","","null","allTrialResponses","500","1","1","img_art/26.jpg","-12","Not a fan of this one. Looks hurried and childlike. ","Cassidy,Lauren,Taylor,Cheyenne,Hailey,Catherine","the trees are cool,1,140,20","The piece doesn't really invoke anything for me.,0,340,20","Makes me want to walk down a cool street,20,340,20","No strong reaction but the color scheme is nice,10,200,20","bedroom in the outdoors. warm,9,200,20","Incomplete, The artist painted his impression of somthing he was thinking of,0,160,20","Lauren","The piece doesn't really invoke anything for me.,0,340,20","Catherine","Incomplete, The artist painted his impression of somthing he was thinking of,0,160,20","Cheyenne","No strong reaction but the color scheme is nice,10,200,20","6"
"13120","","survey-text","54","407478","0.0-51.0-0.0","AR149JH34I0RE","","","","{""Q0"":""A little frightening. ""}","","","","","","","","","","","","","","","","","","","","","","",""
"5803.5","","image-slider-response","55","413285","0.0-52.0","AR149JH34I0RE","","","","","8","","","","","","","","","","","","","","","","","","","","","",""
"null","","image-button-response","56","418301","0.0-53.0","AR149JH34I0RE","img_art/25.jpg","null","","","","","","","","","","","","","","","","","","","","","","","","",""
"10862","","image-button-response","57","429167","0.0-54.0","AR149JH34I0RE","img_art/25.jpg","0","","","","","","","","","","","","","","","","","","","","","","","","",""
"1183","","image-button-response","58","430354","0.0-55.0-0.0","AR149JH34I0RE","img_art/25.jpg","1","","","","","","","","","","","","","","","","","","","","","","","","",""
"1037","","image-button-response","59","431394","0.0-56.0-0.0","AR149JH34I0RE","img_art/25.jpg","2","","","","","","","","","","","","","","","","","","","","","","","","",""
"null","","html-keyboard-response","60","432899","0.0-57.0","AR149JH34I0RE","<p style=""font-size: 48px;"">+</p>","","","","","null","allTrialResponses","1500","1","2","img_art/25.jpg","8","A little frightening. ","Nicole,Lauren,Dominique,Cheyenne,Melissa,Catherine","This painting is cool but it gives off an evil vibe,-10,20,20","Depicts something negative, such as ritual. I'm not a fan.,-10,340,20","Iike this picture; it speaks to me on a personal level. But seems to scare the ones around me.,7,400,20","It's nice but nothing special.,7,200,20","do not like that color of green,-11,240,20","culture, tradition. Village people with an honored elder.,40,160,20","Nicole","This painting is cool but it gives off an evil vibe,-10,20,20","Lauren","Depicts something negative, such as ritual. I'm not a fan.,-10,340,20","Dominique","Iike this picture; it speaks to me on a personal level. But seems to scare the ones around me.,7,400,20","6"
"37796","","survey-text","61","470702","0.0-58.0-0.0","AR149JH34I0RE","","","","{""Q0"":""Very colorful. The white part is giving me a bones vibe. A little strange. ""}","","","","","","","","","","","","","","","","","","","","","","",""
"3895.2000000476837","","image-slider-response","62","474599","0.0-59.0","AR149JH34I0RE","","","","","-12","","","","","","","","","","","","","","","","","","","","","",""
"null","","image-button-response","63","479614","0.0-60.0","AR149JH34I0RE","img_art/23.jpg","null","","","","","","","","","","","","","","","","","","","","","","","","",""
"193","","image-button-response","64","479810","0.0-61.0","AR149JH34I0RE","img_art/23.jpg","5","","","","","","","","","","","","","","","","","","","","","","","","",""
"9894","","image-button-response","65","489708","0.0-62.0-0.0","AR149JH34I0RE","img_art/23.jpg","0","","","","","","","","","","","","","","","","","","","","","","","","",""
"2600","","image-button-response","66","492312","0.0-63.0-0.0","AR149JH34I0RE","img_art/23.jpg","2","","","","","","","","","","","","","","","","","","","","","","","","",""
"null","","html-keyboard-response","67","493316","0.0-64.0","AR149JH34I0RE","<p style=""font-size: 48px;"">+</p>","","","","","null","allTrialResponses","1000","1","3","img_art/23.jpg","-12","Very colorful. The white part is giving me a bones vibe. A little strange. ","Nicole,Lauren,Dominique,Kimberly,Alexandria,Andrea","Those colors are awesome! And I love the strip of negative space that almost looks like a line of people,50,20,20","I like the symmetrical design and how it portrays the liveliness of a musical environment.,30,340,20","Very happy , busy , free, and full of Hope,28,400,20","Look at all the dancers,26,260,20","makes me happy and want to dance,43,80,20","I see souls in torment and that makes me feel uneasy.,-21,240,20","Andrea","I see souls in torment and that makes me feel uneasy.,-21,240,20","Nicole","Those colors are awesome! And I love the strip of negative space that almost looks like a line of people,50,20,20","Dominique","Very happy , busy , free, and full of Hope,28,400,20","6"
"11350","","survey-text","68","504674","0.0-65.0-0.0","AR149JH34I0RE","","","","{""Q0"":""Creepy vibes. ""}","","","","","","","","","","","","","","","","","","","","","","",""
"4888.099999964237","","image-slider-response","69","509564","0.0-66.0","AR149JH34I0RE","","","","","-14","","","","","","","","","","","","","","","","","","","","","",""
"null","","image-button-response","70","514570","0.0-67.0","AR149JH34I0RE","img_art/16.jpg","null","","","","","","","","","","","","","","","","","","","","","","","","",""
"2226","","image-button-response","71","516798","0.0-68.0","AR149JH34I0RE","img_art/16.jpg","0","","","","","","","","","","","","","","","","","","","","","","","","",""
"3521","","image-button-response","72","520321","0.0-69.0-0.0","AR149JH34I0RE","img_art/16.jpg","1","","","","","","","","","","","","","","","","","","","","","","","","",""
"1802","","image-button-response","73","522128","0.0-70.0-0.0","AR149JH34I0RE","img_art/16.jpg","3","","","","","","","","","","","","","","","","","","","","","","","","",""
"null","","html-keyboard-response","74","522639","0.0-71.0","AR149JH34I0RE","<p style=""font-size: 48px;"">+</p>","","","","","null","allTrialResponses","500","1","4","img_art/16.jpg","-14","Creepy vibes. ","Nicole,Erica,Dominique,Sabrina,Elizabeth,Andrea","It's a little anxiety inducing in a good way,16,20,20","Teddy bear calls positive emotional response but then I get worried about what is about to happen,18,80,20","Toys toys toys. Happy playful free spirit,30,400,20","Kind of an edgy teenager vibe,32,120,20","Picture seems unique,12,20,20","I think it's about child abuse. The teddy bear represents innocence and the dark shape is approaching it.,40,240,20","Nicole","It's a little anxiety inducing in a good way,16,20,20","Erica","Teddy bear calls positive emotional response but then I get worried about what is about to happen,18,80,20","Sabrina","Kind of an edgy teenager vibe,32,120,20","6"
"31647","","survey-text","75","554291","0.0-72.0-0.0","AR149JH34I0RE","","","","{""Q0"":""Signifies some sort of growth maybe. ""}","","","","","","","","","","","","","","","","","","","","","","",""
"5021.5","","image-slider-response","76","559317","0.0-73.0","AR149JH34I0RE","","","","","10","","","","","","","","","","","","","","","","","","","","","",""
"null","","image-button-response","77","564328","0.0-74.0","AR149JH34I0RE","img_art/6.jpg","null","","","","","","","","","","","","","","","","","","","","","","","","",""
"2549","","image-button-response","78","566881","0.0-75.0","AR149JH34I0RE","img_art/6.jpg","1","","","","","","","","","","","","","","","","","","","","","","","","",""
"2040","","image-button-response","79","568923","0.0-76.0-0.0","AR149JH34I0RE","img_art/6.jpg","2","","","","","","","","","","","","","","","","","","","","","","","","",""
"4490","","image-button-response","80","573418","0.0-77.0-0.0","AR149JH34I0RE","img_art/6.jpg","4","","","","","","","","","","","","","","","","","","","","","","","","",""
"null","","html-keyboard-response","81","574429","0.0-78.0","AR149JH34I0RE","<p style=""font-size: 48px;"">+</p>","","","","","null","allTrialResponses","1000","1","5","img_art/6.jpg","10","Signifies some sort of growth maybe. ","Nicole,Erica,Kaitlyn,Sabrina,Erika,Vanessa","The colors and rough brush strokes make me nervous,-10,20,20","positive because of bright colours and a bird,20,80,20","I like the simplicity of the picture,30,80,20","I love the representation of death and life.,50,120,20","Lonesome in nature,13,100,20","I don't like the colors and the dark shape at the top makes me think of a buzzard.,-28,380,20","Erica","positive because of bright colours and a bird,20,80,20","Kaitlyn","I like the simplicity of the picture,30,80,20","Erika","Lonesome in nature,13,100,20","6"
"4767","","survey-text","82","579203","0.0-79.0-0.0","AR149JH34I0RE","","","","{""Q0"":""sky""}","","","","","","","","","","","","","","","","","","","","","","",""
"21812","","survey-text","83","601017","0.0-80.0-0.0","AR149JH34I0RE","","","","{""Q0"":""This is chaotic and reminiscent of blood to me. ""}","","","","","","","","","","","","","","","","","","","","","","",""
"5342.099999964237","","image-slider-response","84","606362","0.0-81.0","AR149JH34I0RE","","","","","-29","","","","","","","","","","","","","","","","","","","","","",""
"null","","image-button-response","85","611377","0.0-82.0","AR149JH34I0RE","img_art/3.jpg","null","","","","","","","","","","","","","","","","","","","","","","","","",""
"1580","","image-button-response","86","612961","0.0-83.0","AR149JH34I0RE","img_art/3.jpg","1","","","","","","","","","","","","","","","","","","","","","","","","",""
"4002","","image-button-response","87","616967","0.0-84.0-0.0","AR149JH34I0RE","img_art/3.jpg","3","","","","","","","","","","","","","","","","","","","","","","","","",""
"2266","","image-button-response","88","619235","0.0-85.0-0.0","AR149JH34I0RE","img_art/3.jpg","5","","","","","","","","","","","","","","","","","","","","","","","","",""
"null","","html-keyboard-response","89","620750","0.0-86.0","AR149JH34I0RE","<p style=""font-size: 48px;"">+</p>","","","","","null","allTrialResponses","1500","1","6","img_art/3.jpg","-29","This is chaotic and reminiscent of blood to me. ","Destiny,Erica,Kaitlyn,Kayla,Erika,Makayla","im just getting more agitated and less appreciative of art. I have absolutely no scale to base on,-34,360,20","Associates with blood and crime scene,-12,80,20","Too much red; very bland,-26,80,20","Really have no idea what I'm looking at.,1,180,20","Unaure what the artist  was doing, needs context,11,100,20","Looks like blood scribbled on walls,-20,80,20","Erica","Associates with blood and crime scene,-12,80,20","Kayla","Really have no idea what I'm looking at.,1,180,20","Makayla","Looks like blood scribbled on walls,-20,80,20","6"
"20391","","survey-text","90","641146","0.0-87.0-0.0","AR149JH34I0RE","","","","{""Q0"":""This doesn't give me anything. ""}","","","","","","","","","","","","","","","","","","","","","","",""
"4675.5","","image-slider-response","91","645824","0.0-88.0","AR149JH34I0RE","","","","","-25","","","","","","","","","","","","","","","","","","","","","",""
"2393","","image-button-response","92","650844","0.0-89.0","AR149JH34I0RE","img_art/5.jpg","0","","","","","","","","","","","","","","","","","","","","","","","","",""
"1523","","image-button-response","93","652372","0.0-90.0","AR149JH34I0RE","img_art/5.jpg","0","","","","","","","","","","","","","","","","","","","","","","","","",""
"1359","","image-button-response","94","653734","0.0-91.0-0.0","AR149JH34I0RE","img_art/5.jpg","2","","","","","","","","","","","","","","","","","","","","","","","","",""
"2802","","image-button-response","95","656541","0.0-92.0-0.0","AR149JH34I0RE","img_art/5.jpg","4","","","","","","","","","","","","","","","","","","","","","","","","",""
"null","","html-keyboard-response","96","657051","0.0-93.0","AR149JH34I0RE","<p style=""font-size: 48px;"">+</p>","","","","","null","allTrialResponses","500","1","7","img_art/5.jpg","-25","This doesn't give me anything. ","Sarah,Erica,Lindsey,Kayla,Anna,Makayla","looks very childish,-35,180,20","positive colours; yellow calls attention,6,80,20","Black bit reminds me of a giant splinter. Yellow bit reminds me of urine. I hate it.,-50,400,20","I like that the pyramid is putting off a beacon of light.,11,180,20","It's kind of boring.,-20,300,20","Bright and sunny,19,80,20","Sarah","looks very childish,-35,180,20","Lindsey","Black bit reminds me of a giant splinter. Yellow bit reminds me of urine. I hate it.,-50,400,20","Anna","It's kind of boring.,-20,300,20","6"
"28315","","survey-text","97","685372","0.0-94.0-0.0","AR149JH34I0RE","","","","{""Q0"":""It's like ink spilled all over. ""}","","","","","","","","","","","","","","","","","","","","","","",""
"3296.199999988079","","image-slider-response","98","688670","0.0-95.0","AR149JH34I0RE","","","","","-17","","","","","","","","","","","","","","","","","","","","","",""
"4613","","image-button-response","99","693677","0.0-96.0","AR149JH34I0RE","img_art/15.jpg","2","","","","","","","","","","","","","","","","","","","","","","","","",""
"2140","","image-button-response","100","695822","0.0-97.0","AR149JH34I0RE","img_art/15.jpg","1","","","","","","","","","","","","","","","","","","","","","","","","",""
"868","","image-button-response","101","696693","0.0-98.0-0.0","AR149JH34I0RE","img_art/15.jpg","3","","","","","","","","","","","","","","","","","","","","","","","","",""
"3278","","image-button-response","102","699976","0.0-99.0-0.0","AR149JH34I0RE","img_art/15.jpg","2","","","","","","","","","","","","","","","","","","","","","","","","",""
"null","","html-keyboard-response","103","700483","0.0-100.0","AR149JH34I0RE","<p style=""font-size: 48px;"">+</p>","","","","","null","allTrialResponses","500","1","8","img_art/15.jpg","-17","It's like ink spilled all over. ","Sarah,Angela,Lindsey,Sara,Anna,Marissa","this is really pretty! i like the pops of blue in all the black,26,180,20","Interesting, but don't really like it. Gloomy.,-10,260,20","Not a fan. This piece would only go with very specific decor in a modern home.,-35,400,20","I don't like the black dots,-19,160,20","I like how it's simple but beautiful.,40,300,20","I am reminded of spring flowers swaying in the dark night's breeze,9,160,20","Angela","Interesting, but don't really like it. Gloomy.,-10,260,20","Sara","I don't like the black dots,-19,160,20","Lindsey","Not a fan. This piece would only go with very specific decor in a modern home.,-35,400,20","6"
"33009","","survey-text","104","733498","0.0-101.0-0.0","AR149JH34I0RE","","","","{""Q0"":""The green scribbles ruins it. Looks like a kid doodled on a painting. ""}","","","","","","","","","","","","","","","","","","","","","","",""
"3828.900000035763","","image-slider-response","105","737329","0.0-102.0","AR149JH34I0RE","","","","","-16","","","","","","","","","","","","","","","","","","","","","",""
"4390","","image-button-response","106","742337","0.0-103.0","AR149JH34I0RE","img_art/27.jpg","1","","","","","","","","","","","","","","","","","","","","","","","","",""
"607","","image-button-response","107","742949","0.0-104.0","AR149JH34I0RE","img_art/27.jpg","2","","","","","","","","","","","","","","","","","","","","","","","","",""
"2101","","image-button-response","108","745054","0.0-105.0-0.0","AR149JH34I0RE","img_art/27.jpg","1","","","","","","","","","","","","","","","","","","","","","","","","",""
"3086","","image-button-response","109","748146","0.0-106.0-0.0","AR149JH34I0RE","img_art/27.jpg","3","","","","","","","","","","","","","","","","","","","","","","","","",""
"null","","html-keyboard-response","110","749658","0.0-107.0","AR149JH34I0RE","<p style=""font-size: 48px;"">+</p>","","","","","null","allTrialResponses","1500","1","9","img_art/27.jpg","-16","The green scribbles ruins it. Looks like a kid doodled on a painting. ","Michelle,Angela,Lindsey,Sara,Jasmine,Emma","very abstract, I don't understand it, but I like the bright, cheerful colors,14,280,20","It's okay. Not really interesting to me.,-10,260,20","Looks like my niece's doodles.,-50,400,20","Not cohesive design,-31,160,20","I have no strong reactions to this,-1,340,20","Not sure how I feel about this. Messy, even for art. But good colors.,0,60,20","Lindsey","Looks like my niece's doodles.,-50,400,20","Angela","It's okay. Not really interesting to me.,-10,260,20","Sara","Not cohesive design,-31,160,20","6"
"34089","","survey-text","111","783752","0.0-108.0-0.0","AR149JH34I0RE","","","","{""Q0"":""This is like the aftermath of an actual art piece and this is just the remains. ""}","","","","","","","","","","","","","","","","","","","","","","",""
"4409.299999952316","","image-slider-response","112","788165","0.0-109.0","AR149JH34I0RE","","","","","-29","","","","","","","","","","","","","","","","","","","","","",""
"null","","image-button-response","113","793183","0.0-110.0","AR149JH34I0RE","img_art/29.jpg","null","","","","","","","","","","","","","","","","","","","","","","","","",""
"791","","image-button-response","114","793978","0.0-111.0","AR149JH34I0RE","img_art/29.jpg","2","","","","","","","","","","","","","","","","","","","","","","","","",""
"2404","","image-button-response","115","796387","0.0-112.0-0.0","AR149JH34I0RE","img_art/29.jpg","5","","","","","","","","","","","","","","","","","","","","","","","","",""
"1132","","image-button-response","116","797523","0.0-113.0-0.0","AR149JH34I0RE","img_art/29.jpg","3","","","","","","","","","","","","","","","","","","","","","","","","",""
"null","","html-keyboard-response","117","798027","0.0-114.0","AR149JH34I0RE","<p style=""font-size: 48px;"">+</p>","","","","","null","allTrialResponses","500","1","10","img_art/29.jpg","-29","This is like the aftermath of an actual art piece and this is just the remains. ","Cassandra,Angela,Lindsey,Sara,Brittany,Grace","Neural...just a blackboard jungle.,3,120,20","I would like this piece better without the red X across it,-10,260,20","Again, ugly colors and I'm not a fan of abstract. This looks like the view into a garbage dump.,-50,400,20","I don't like the black,-50,160,20","It looks likes there's a lot going on, but they don't fit together.,2,40,20","Doesn't do much for me. I like some of the colors but not much else.,-10,180,20","Lindsey","Again, ugly colors and I'm not a fan of abstract. This looks like the view into a garbage dump.,-50,400,20","Grace","Doesn't do much for me. I like some of the colors but not much else.,-10,180,20","Sara","I don't like the black,-50,160,20","6"
"3194","","survey-text","118","801229","0.0-115.0-0.0","AR149JH34I0RE","","","","{""Q0"":""our""}","","","","","","","","","","","","","","","","","","","","","","",""
"21316","","survey-text","119","822546","0.0-116.0-0.0","AR149JH34I0RE","","","","{""Q0"":""Kind of cool. Like busy highways crossing over each other. ""}","","","","","","","","","","","","","","","","","","","","","","",""
"3977.7999999523163","","image-slider-response","120","826527","0.0-117.0","AR149JH34I0RE","","","","","8","","","","","","","","","","","","","","","","","","","","","",""
"4856","","image-button-response","121","831537","0.0-118.0","AR149JH34I0RE","img_art/11.jpg","0","","","","","","","","","","","","","","","","","","","","","","","","",""
"1891","","image-button-response","122","833432","0.0-119.0","AR149JH34I0RE","img_art/11.jpg","0","","","","","","","","","","","","","","","","","","","","","","","","",""
"4668","","image-button-response","123","838104","0.0-120.0-0.0","AR149JH34I0RE","img_art/11.jpg","5","","","","","","","","","","","","","","","","","","","","","","","","",""
"2721","","image-button-response","124","840828","0.0-121.0-0.0","AR149JH34I0RE","img_art/11.jpg","4","","","","","","","","","","","","","","","","","","","","","","","","",""
"null","","html-keyboard-response","125","841839","0.0-122.0","AR149JH34I0RE","<p style=""font-size: 48px;"">+</p>","","","","","null","allTrialResponses","1000","1","11","img_art/11.jpg","8","Kind of cool. Like busy highways crossing over each other. ","Tiffany,Madison,Lindsey,Sara,Jordan,Grace","I feel excited, like I'm in the middle of a bustling city.,26,360,20","Rainy day at an urban sea port. Portugal?,30,60,20","Not a fan of the colors but it looks interesting.,-31,400,20","Looks sad but clean,31,160,20","Oh, I love this one, it says to me that life is very busy,50,20,20","Rainy asian city scape.,31,180,20","Tiffany","I feel excited, like I'm in the middle of a bustling city.,26,360,20","Grace","Rainy asian city scape.,31,180,20","Jordan","Oh, I love this one, it says to me that life is very busy,50,20,20","6"
"20062","","survey-text","126","861908","0.0-123.0-0.0","AR149JH34I0RE","","","","{""Q0"":""I feel like I'm looking into a microscope. ""}","","","","","","","","","","","","","","","","","","","","","","",""
"12854","","image-slider-response","127","874765","0.0-124.0","AR149JH34I0RE","","","","","2","","","","","","","","","","","","","","","","","","","","","",""
"null","","image-button-response","128","879771","0.0-125.0","AR149JH34I0RE","img_art/7.jpg","null","","","","","","","","","","","","","","","","","","","","","","","","",""
"2805","","image-button-response","129","882579","0.0-126.0","AR149JH34I0RE","img_art/7.jpg","5","","","","","","","","","","","","","","","","","","","","","","","","",""
"1526","","image-button-response","130","884110","0.0-127.0-0.0","AR149JH34I0RE","img_art/7.jpg","4","","","","","","","","","","","","","","","","","","","","","","","","",""
"753","","image-button-response","131","884868","0.0-128.0-0.0","AR149JH34I0RE","img_art/7.jpg","3","","","","","","","","","","","","","","","","","","","","","","","","",""
"null","","html-keyboard-response","132","885379","0.0-129.0","AR149JH34I0RE","<p style=""font-size: 48px;"">+</p>","","","","","null","allTrialResponses","500","1","12","img_art/7.jpg","2","I feel like I'm looking into a microscope. ","Tiffany,Hannah,Emily,Angelica,Jordan,Grace","I feel relaxed and a little nostalgic, like I'm exploring the wall of a very old building.,18,360,20","Looks almost like a photograph of nature.,11,240,20","Ugly. I don't like the colors or the scattering.,-50,40,20","This is vague and ugly.,-3,280,20","looks like the surface of the moon.,1,20,20","Makes me itch - looks like a closeup of an ant colony or something.,-1,180,20","Grace","Makes me itch - looks like a closeup of an ant colony or something.,-1,180,20","Jordan","looks like the surface of the moon.,1,20,20","Angelica","This is vague and ugly.,-3,280,20","6"
"9208","","survey-text","133","894593","0.0-130.0-0.0","AR149JH34I0RE","","","","{""Q0"":""I like the colors. ""}","","","","","","","","","","","","","","","","","","","","","","",""
"3603.5","","image-slider-response","134","898198","0.0-131.0","AR149JH34I0RE","","","","","7","","","","","","","","","","","","","","","","","","","","","",""
"null","","image-button-response","135","903201","0.0-132.0","AR149JH34I0RE","img_art/14.jpg","null","","","","","","","","","","","","","","","","","","","","","","","","",""
"234","","image-button-response","136","903438","0.0-133.0","AR149JH34I0RE","img_art/14.jpg","0","","","","","","","","","","","","","","","","","","","","","","","","",""
"2392","","image-button-response","137","905834","0.0-134.0-0.0","AR149JH34I0RE","img_art/14.jpg","4","","","","","","","","","","","","","","","","","","","","","","","","",""
"1571","","image-button-response","138","907410","0.0-135.0-0.0","AR149JH34I0RE","img_art/14.jpg","5","","","","","","","","","","","","","","","","","","","","","","","","",""
"null","","html-keyboard-response","139","908919","0.0-136.0","AR149JH34I0RE","<p style=""font-size: 48px;"">+</p>","","","","","null","allTrialResponses","1500","1","13","img_art/14.jpg","7","I like the colors. ","Shannon,Megan,Danielle,Angelica,Jordan,Grace","I like this picture because it looks like a tree and the colors used look cool.,20,220,20","Baby's room palette with tree confusion in a more confused substrate.,-15,200,20","Too much yellow in this image, i'm not a fan of art that is overly-saturated with yellow,-30,340,20","This is poorly done and not aesthetically appealing.,-2,280,20","this one isn't bad, reminds me a tree that gives life, and people are waiting for someone new to be born,27,20,20","Like some of the colors but not much else.,1,180,20","Shannon","I like this picture because it looks like a tree and the colors used look cool.,20,220,20","Jordan","this one isn't bad, reminds me a tree that gives life, and people are waiting for someone new to be born,27,20,20","Grace","Like some of the colors but not much else.,1,180,20","6"
"20013","","survey-text","140","928938","0.0-137.0-0.0","AR149JH34I0RE","","","","{""Q0"":""It's like a broken instrument. ""}","","","","","","","","","","","","","","","","","","","","","","",""
"4089.099999964237","","image-slider-response","141","933030","0.0-138.0","AR149JH34I0RE","","","","","-7","","","","","","","","","","","","","","","","","","","","","",""
"null","","image-button-response","142","938036","0.0-139.0","AR149JH34I0RE","img_art/10.jpg","null","","","","","","","","","","","","","","","","","","","","","","","","",""
"2168","","image-button-response","143","940207","0.0-140.0","AR149JH34I0RE","img_art/10.jpg","2","","","","","","","","","","","","","","","","","","","","","","","","",""
"2718","","image-button-response","144","942928","0.0-141.0-0.0","AR149JH34I0RE","img_art/10.jpg","5","","","","","","","","","","","","","","","","","","","","","","","","",""
"1807","","image-button-response","145","944739","0.0-142.0-0.0","AR149JH34I0RE","img_art/10.jpg","3","","","","","","","","","","","","","","","","","","","","","","","","",""
"null","","html-keyboard-response","146","945742","0.0-143.0","AR149JH34I0RE","<p style=""font-size: 48px;"">+</p>","","","","","null","allTrialResponses","1000","1","14","img_art/10.jpg","-7","It's like a broken instrument. ","Shannon,Autumn,Kylie,Stephanie,Jordan,Grace","I can't tell what this picture is supposed to mean and I think the colors are lacking variety.,-42,220,20","It just looks like a dirty stain.,-38,340,20","Musical guitar whimsy,45,300,20","The black color is depressing.,-50,300,20","I dont like it, there is too much going on,-19,20,20","First impression was musical instrument then, because of the gray colors, death.,5,180,20","Kylie","Musical guitar whimsy,45,300,20","Grace","First impression was musical instrument then, because of the gray colors, death.,5,180,20","Stephanie","The black color is depressing.,-50,300,20","6"
"9327","","survey-text","147","955075","0.0-144.0-0.0","AR149JH34I0RE","","","","{""Q0"":""Love the colors. ""}","","","","","","","","","","","","","","","","","","","","","","",""
"4012.699999988079","","image-slider-response","148","959090","0.0-145.0","AR149JH34I0RE","","","","","18","","","","","","","","","","","","","","","","","","","","","",""
"null","","image-button-response","149","964101","0.0-146.0","AR149JH34I0RE","img_art/22.jpg","null","","","","","","","","","","","","","","","","","","","","","","","","",""
"1201","","image-button-response","150","965304","0.0-147.0","AR149JH34I0RE","img_art/22.jpg","0","","","","","","","","","","","","","","","","","","","","","","","","",""
"2480","","image-button-response","151","967789","0.0-148.0-0.0","AR149JH34I0RE","img_art/22.jpg","2","","","","","","","","","","","","","","","","","","","","","","","","",""
"1012","","image-button-response","152","968806","0.0-149.0-0.0","AR149JH34I0RE","img_art/22.jpg","5","","","","","","","","","","","","","","","","","","","","","","","","",""
"null","","html-keyboard-response","153","969322","0.0-150.0","AR149JH34I0RE","<p style=""font-size: 48px;"">+</p>","","","","","null","allTrialResponses","500","1","15","img_art/22.jpg","18","Love the colors. ","Sydney,Alexis,Kylie,Stephanie,Cynthia,Grace","I don't normally like bright colors, but I like them in this. Don't like the random black paint.,30,320,20","Don't like this type of abstract work,-39,100,20","Climate change in a big city,35,300,20","I don't get much of a reaction.,11,300,20","A key to the unknown,15,320,20","Love vibrant colors & the abstractness.,43,180,20","Sydney","I don't normally like bright colors, but I like them in this. Don't like the random black paint.,30,320,20","Kylie","Climate change in a big city,35,300,20","Grace","Love vibrant colors & the abstractness.,43,180,20","6"
"3963","","survey-text","154","973291","0.0-151.0-0.0","AR149JH34I0RE","","","","{""Q0"":""course""}","","","","","","","","","","","","","","","","","","","","","","",""
"25845","","survey-text","155","999137","0.0-152.0-0.0","AR149JH34I0RE","","","","{""Q0"":""Looks like a dirty street. ""}","","","","","","","","","","","","","","","","","","","","","","",""
"3699.600000023842","","image-slider-response","156","1002838","0.0-153.0","AR149JH34I0RE","","","","","-2","","","","","","","","","","","","","","","","","","","","","",""
"4444","","image-button-response","157","1007843","0.0-154.0","AR149JH34I0RE","img_art/19.jpg","5","","","","","","","","","","","","","","","","","","","","","","","","",""
"997","","image-button-response","158","1008842","0.0-155.0","AR149JH34I0RE","img_art/19.jpg","3","","","","","","","","","","","","","","","","","","","","","","","","",""
"882","","image-button-response","159","1009729","0.0-156.0-0.0","AR149JH34I0RE","img_art/19.jpg","5","","","","","","","","","","","","","","","","","","","","","","","","",""
"1261","","image-button-response","160","1010994","0.0-157.0-0.0","AR149JH34I0RE","img_art/19.jpg","0","","","","","","","","","","","","","","","","","","","","","","","","",""
"null","","html-keyboard-response","161","1012511","0.0-158.0","AR149JH34I0RE","<p style=""font-size: 48px;"">+</p>","","","","","null","allTrialResponses","1500","1","16","img_art/19.jpg","-2","Looks like a dirty street. ","Sydney,Amy,Kylie,Alexandra,Isabella,Grace","I like the color and the mix of sketches along with paint.,30,320,20","Though provoking. Adventurous.,10,220,20","Reminds me of a quaint little town I once visited in Italy,50,300,20","This photo has too much going on.,-19,60,20","A day in a small city,45,280,20","Looks like a child's rendering of a city street but not too sure.,0,180,20","Alexandra","This photo has too much going on.,-19,60,20","Grace","Looks like a child's rendering of a city street but not too sure.,0,180,20","Sydney","I like the color and the mix of sketches along with paint.,30,320,20","6"
"24093","","survey-text","162","1036610","0.0-159.0-0.0","AR149JH34I0RE","","","","{""Q0"":""This one is depressing. Is that a car accident?""}","","","","","","","","","","","","","","","","","","","","","","",""
"5057.299999952316","","image-slider-response","163","1041670","0.0-160.0","AR149JH34I0RE","","","","","-32","","","","","","","","","","","","","","","","","","","","","",""
"4060","","image-button-response","164","1046678","0.0-161.0","AR149JH34I0RE","img_art/20.jpg","1","","","","","","","","","","","","","","","","","","","","","","","","",""
"1356","","image-button-response","165","1048037","0.0-162.0","AR149JH34I0RE","img_art/20.jpg","1","","","","","","","","","","","","","","","","","","","","","","","","",""
"2716","","image-button-response","166","1050757","0.0-163.0-0.0","AR149JH34I0RE","img_art/20.jpg","3","","","","","","","","","","","","","","","","","","","","","","","","",""
"1352","","image-button-response","167","1052112","0.0-164.0-0.0","AR149JH34I0RE","img_art/20.jpg","4","","","","","","","","","","","","","","","","","","","","","","","","",""
"null","","html-keyboard-response","168","1052627","0.0-165.0","AR149JH34I0RE","<p style=""font-size: 48px;"">+</p>","","","","","null","allTrialResponses","500","1","17","img_art/20.jpg","-32","This one is depressing. Is that a car accident?","Sydney,Mikayla,Jennifer,Alexandra,Kristen,Grace","I love the color choice.,25,320,20","Kinda freaks me out.,-40,300,20","Neutral, this piece doesn't strike me as particularly bad or good,0,380,20","The white blob looks like a face and it's creepy,-30,60,20","danger, car crash, stressful,-12,280,20","Reminds me of Georgia O'Keefe.,11,180,20","Mikayla","Kinda freaks me out.,-40,300,20","Alexandra","The white blob looks like a face and it's creepy,-30,60,20","Kristen","danger, car crash, stressful,-12,280,20","6"
"19906","","survey-text","169","1072540","0.0-166.0-0.0","AR149JH34I0RE","","","","{""Q0"":""Just lots of brush strokes. I like the colors. ""}","","","","","","","","","","","","","","","","","","","","","","",""
"4330.599999964237","","image-slider-response","170","1076873","0.0-167.0","AR149JH34I0RE","","","","","4","","","","","","","","","","","","","","","","","","","","","",""
"2995","","image-button-response","171","1081878","0.0-168.0","AR149JH34I0RE","img_art/30.jpg","1","","","","","","","","","","","","","","","","","","","","","","","","",""
"1144","","image-button-response","172","1083024","0.0-169.0","AR149JH34I0RE","img_art/30.jpg","1","","","","","","","","","","","","","","","","","","","","","","","","",""
"2469","","image-button-response","173","1085497","0.0-170.0-0.0","AR149JH34I0RE","img_art/30.jpg","4","","","","","","","","","","","","","","","","","","","","","","","","",""
"1596","","image-button-response","174","1087098","0.0-171.0-0.0","AR149JH34I0RE","img_art/30.jpg","5","","","","","","","","","","","","","","","","","","","","","","","","",""
"null","","html-keyboard-response","175","1087609","0.0-172.0","AR149JH34I0RE","<p style=""font-size: 48px;"">+</p>","","","","","null","allTrialResponses","500","1","18","img_art/30.jpg","4","Just lots of brush strokes. I like the colors. ","Morgan,Mikayla,Kaylee,Alexandra,Kristen,Brooke","Sleek eel in the abstract ocean.,30,380,20","Very colorful! Wow!,22,300,20","i cant really get it,-35,200,20","I really love the pastel colors and the 3D design in this,43,60,20","makes me think of a tunnel filled with graffiti,19,280,20","Like the color and style,31,60,20","Mikayla","Very colorful! Wow!,22,300,20","Kristen","makes me think of a tunnel filled with graffiti,19,280,20","Brooke","Like the color and style,31,60,20","6"
"11616","","survey-text","176","1099230","0.0-173.0-0.0","AR149JH34I0RE","","","","{""Q0"":""Cool patchwork type of art. ""}","","","","","","","","","","","","","","","","","","","","","","",""
"4964.900000035763","","image-slider-response","177","1104197","0.0-174.0","AR149JH34I0RE","","","","","10","","","","","","","","","","","","","","","","","","","","","",""
"4316","","image-button-response","178","1109202","0.0-175.0","AR149JH34I0RE","img_art/12.jpg","2","","","","","","","","","","","","","","","","","","","","","","","","",""
"1347","","image-button-response","179","1110553","0.0-176.0","AR149JH34I0RE","img_art/12.jpg","3","","","","","","","","","","","","","","","","","","","","","","","","",""
"1030","","image-button-response","180","1111587","0.0-177.0-0.0","AR149JH34I0RE","img_art/12.jpg","2","","","","","","","","","","","","","","","","","","","","","","","","",""
"4929","","image-button-response","181","1116521","0.0-178.0-0.0","AR149JH34I0RE","img_art/12.jpg","0","","","","","","","","","","","","","","","","","","","","","","","","",""
"null","","html-keyboard-response","182","1117526","0.0-179.0","AR149JH34I0RE","<p style=""font-size: 48px;"">+</p>","","","","","null","allTrialResponses","1000","1","19","img_art/12.jpg","10","Cool patchwork type of art. ","Mary,Mikayla,Chloe,Gabriela,Kristen,Brooke","The colors are ok. The piece reminds me of the 90s era, so I kinda like it!,-4,180,20","A little bit boring.,-24,300,20","Nice hallway art for a hotel.,21,220,20","In my opinion, this photo has an old school vibe,22,140,20","stressful, upsetting,-10,280,20","Dislike the style, the sharp rectangular pattern very jarring.,-20,60,20","Gabriela","In my opinion, this photo has an old school vibe,22,140,20","Chloe","Nice hallway art for a hotel.,21,220,20","Mary","The colors are ok. The piece reminds me of the 90s era, so I kinda like it!,-4,180,20","6"
"11306","","survey-text","183","1128839","0.0-180.0-0.0","AR149JH34I0RE","","","","{""Q0"":""Waterfall with nice colors. ""}","","","","","","","","","","","","","","","","","","","","","","",""
"4227.699999988079","","image-slider-response","184","1133069","0.0-181.0","AR149JH34I0RE","","","","","21","","","","","","","","","","","","","","","","","","","","","",""
"2852","","image-button-response","185","1138073","0.0-182.0","AR149JH34I0RE","img_art/24.jpg","1","","","","","","","","","","","","","","","","","","","","","","","","",""
"842","","image-button-response","186","1138920","0.0-183.0","AR149JH34I0RE","img_art/24.jpg","1","","","","","","","","","","","","","","","","","","","","","","","","",""
"1667","","image-button-response","187","1140590","0.0-184.0-0.0","AR149JH34I0RE","img_art/24.jpg","3","","","","","","","","","","","","","","","","","","","","","","","","",""
"1436","","image-button-response","188","1142031","0.0-185.0-0.0","AR149JH34I0RE","img_art/24.jpg","4","","","","","","","","","","","","","","","","","","","","","","","","",""
"null","","html-keyboard-response","189","1143037","0.0-186.0","AR149JH34I0RE","<p style=""font-size: 48px;"">+</p>","","","","","null","allTrialResponses","1000","1","20","img_art/24.jpg","21","Waterfall with nice colors. ","Mary,Bailey,Chloe,Gabriela,Caroline,Leslie","This is sort of interesting. I think it's a bit busy. Less is more.,3,180,20","Feels surreal, in a way, and vibrant,37,360,20","Pretty but cheesy,-15,220,20","I love how bold and vibrant the colors are,40,140,20","Waterfalls and spring and gives me a sense of renewal,34,100,20","The colors look nice, but the painting bores me.,-20,380,20","Bailey","Feels surreal, in a way, and vibrant,37,360,20","Gabriela","I love how bold and vibrant the colors are,40,140,20","Caroline","Waterfalls and spring and gives me a sense of renewal,34,100,20","6"
"2529","","survey-text","190","1145583","0.0-187.0-0.0","AR149JH34I0RE","","","","{""Q0"":""we""}","","","","","","","","","","","","","","","","","","","","","","",""
"39390","","survey-text","191","1184976","0.0-188.0-0.0","AR149JH34I0RE","","","","{""Q0"":""This looks dangerous. I don't like that there is an animal in danger. ""}","","","","","","","","","","","","","","","","","","","","","","",""
"3561","","image-slider-response","192","1188540","0.0-189.0","AR149JH34I0RE","","","","","46","","","","","","","","","","","","","","","","","","","","","",""
"null","","image-button-response","193","1193558","0.0-190.0","AR149JH34I0RE","img_art/18.jpg","null","","","","","","","","","","","","","","","","","","","","","","","","",""
"6080","","image-button-response","194","1199641","0.0-191.0","AR149JH34I0RE","img_art/18.jpg","1","","","","","","","","","","","","","","","","","","","","","","","","",""
"5177","","image-button-response","195","1204822","0.0-192.0-0.0","AR149JH34I0RE","img_art/18.jpg","5","","","","","","","","","","","","","","","","","","","","","","","","",""
"4855","","image-button-response","196","1209682","0.0-193.0-0.0","AR149JH34I0RE","img_art/18.jpg","3","","","","","","","","","","","","","","","","","","","","","","","","",""
"null","","html-keyboard-response","197","1210191","0.0-194.0","AR149JH34I0RE","<p style=""font-size: 48px;"">+</p>","","","","","null","allTrialResponses","500","1","21","img_art/18.jpg","46","This looks dangerous. I don't like that there is an animal in danger. ","Crystal,Bailey,Alexa,Gabriela,Caroline,Brianna","I love this because abstractly depicts the apocalypse. The white horse and its rider as Death, described in religious texts and pop culture. ""He rode a pale horse and his name was death."",50,300,20","Looks like a jumbled mess. I prefer a clearer picture,-18,360,20","Very wild and abstract. I love it and would definitely hang this up in my home,50,40,20","It's possibly of a mermaid luring in a ship,15,140,20","I think of the ocean and a boat tossed about on the waves. In the upper left is a figure. It is pleasant,30,100,20","Very eerie and it's spooky,11,20,20","Bailey","Looks like a jumbled mess. I prefer a clearer picture,-18,360,20","Brianna","Very eerie and it's spooky,11,20,20","Gabriela","It's possibly of a mermaid luring in a ship,15,140,20","6"
"26469","","survey-text","198","1236667","0.0-195.0-0.0","AR149JH34I0RE","","","","{""Q0"":""Someone trapped in a dream or a colorful nightmare""}","","","","","","","","","","","","","","","","","","","","","","",""
"5276.400000035763","","image-slider-response","199","1241945","0.0-196.0","AR149JH34I0RE","","","","","-5","","","","","","","","","","","","","","","","","","","","","",""
"null","","image-button-response","200","1246959","0.0-197.0","AR149JH34I0RE","img_art/9.jpg","null","","","","","","","","","","","","","","","","","","","","","","","","",""
"1909","","image-button-response","201","1248872","0.0-198.0","AR149JH34I0RE","img_art/9.jpg","1","","","","","","","","","","","","","","","","","","","","","","","","",""
"4424","","image-button-response","202","1253299","0.0-199.0-0.0","AR149JH34I0RE","img_art/9.jpg","4","","","","","","","","","","","","","","","","","","","","","","","","",""
"1396","","image-button-response","203","1254699","0.0-200.0-0.0","AR149JH34I0RE","img_art/9.jpg","2","","","","","","","","","","","","","","","","","","","","","","","","",""
"null","","html-keyboard-response","204","1256212","0.0-201.0","AR149JH34I0RE","<p style=""font-size: 48px;"">+</p>","","","","","null","allTrialResponses","1500","1","22","img_art/9.jpg","-5","Someone trapped in a dream or a colorful nightmare","Rachel,Bailey,Victoria,Gabriela,Kaitlin,Brianna","It looks like a lady taking a peaceful nap on a blanket in the grass.,41,80,20","Not very enticing. No real substance other than a lady laying down,-35,360,20","reminds me of a story book,18,400,20","This photo make me feel peaceful. It looks like a woman sleeping in a garden,42,140,20","this looks to be a child nightmare,-10,60,20","This has some of my favorite colors, and I like it,21,20,20","Bailey","Not very enticing. No real substance other than a lady laying down,-35,360,20","Kaitlin","this looks to be a child nightmare,-10,60,20","Victoria","reminds me of a story book,18,400,20","6"
"8823","","survey-text","205","1265043","0.0-202.0-0.0","AR149JH34I0RE","","","","{""Q0"":""I don't like the colors. ""}","","","","","","","","","","","","","","","","","","","","","","",""
"4350.600000023842","","image-slider-response","206","1269397","0.0-203.0","AR149JH34I0RE","","","","","-7","","","","","","","","","","","","","","","","","","","","","",""
"2573","","image-button-response","207","1274400","0.0-204.0","AR149JH34I0RE","img_art/28.jpg","0","","","","","","","","","","","","","","","","","","","","","","","","",""
"1217","","image-button-response","208","1275620","0.0-205.0","AR149JH34I0RE","img_art/28.jpg","0","","","","","","","","","","","","","","","","","","","","","","","","",""
"2012","","image-button-response","209","1277635","0.0-206.0-0.0","AR149JH34I0RE","img_art/28.jpg","1","","","","","","","","","","","","","","","","","","","","","","","","",""
"6426","","image-button-response","210","1284065","0.0-207.0-0.0","AR149JH34I0RE","img_art/28.jpg","4","","","","","","","","","","","","","","","","","","","","","","","","",""
"null","","html-keyboard-response","211","1284573","0.0-208.0","AR149JH34I0RE","<p style=""font-size: 48px;"">+</p>","","","","","null","allTrialResponses","500","1","23","img_art/28.jpg","-7","I don't like the colors. ","Paige,Bailey,Victoria,Samantha,Kaitlin,Briana","I just don't like it. It makes no sense to me,1,60,20","Has an air of darkness to it, but no real substance besides the mouse-like thing.,-38,360,20","drab and dreary,-21,400,20","Interesting and weird. Perfect conversational piece,33,140,20","i'm not too impressed with this one.,-10,60,20","Is this anything?,-20,400,20","Paige","I just don't like it. It makes no sense to me,1,60,20","Bailey","Has an air of darkness to it, but no real substance besides the mouse-like thing.,-38,360,20","Kaitlin","i'm not too impressed with this one.,-10,60,20","6"
"11536","","survey-text","212","1296115","0.0-209.0-0.0","AR149JH34I0RE","","","","{""Q0"":""I hate this. ""}","","","","","","","","","","","","","","","","","","","","","","",""
"5034.400000035763","","image-slider-response","213","1301153","0.0-210.0","AR149JH34I0RE","","","","","-42","","","","","","","","","","","","","","","","","","","","","",""
"null","","image-button-response","214","1306157","0.0-211.0","AR149JH34I0RE","img_art/4.jpg","null","","","","","","","","","","","","","","","","","","","","","","","","",""
"930","","image-button-response","215","1307091","0.0-212.0","AR149JH34I0RE","img_art/4.jpg","1","","","","","","","","","","","","","","","","","","","","","","","","",""
"1863","","image-button-response","216","1308958","0.0-213.0-0.0","AR149JH34I0RE","img_art/4.jpg","2","","","","","","","","","","","","","","","","","","","","","","","","",""
"2395","","image-button-response","217","1311357","0.0-214.0-0.0","AR149JH34I0RE","img_art/4.jpg","3","","","","","","","","","","","","","","","","","","","","","","","","",""
"null","","html-keyboard-response","218","1311873","0.0-215.0","AR149JH34I0RE","<p style=""font-size: 48px;"">+</p>","","","","","null","allTrialResponses","500","1","24","img_art/4.jpg","-42","I hate this. ","Paige,Bailey,Jacqueline,Katie,Kaitlin,Laura","the colors are calming,31,60,20","Boring and tasteless. Almost reminds me of when an art gallery called a banana 'art',-42,360,20","It looks like smeared poop.,-27,300,20","Warm colors, but too random. I feel like I'm seeing something mangled. It is unpleasant.,-30,160,20","heart symbol - this tells a story of hidden love,30,60,20","spontaneous, without hesitation,22,320,20","Bailey","Boring and tasteless. Almost reminds me of when an art gallery called a banana 'art',-42,360,20","Jacqueline","It looks like smeared poop.,-27,300,20","Katie","Warm colors, but too random. I feel like I'm seeing something mangled. It is unpleasant.,-30,160,20","6"
"22317","","survey-text","219","1334198","0.0-216.0-0.0","AR149JH34I0RE","","","","{""Q0"":""Love the colors. It seems to have a powerful message with the face in the corner. ""}","","","","","","","","","","","","","","","","","","","","","","",""
"3844.5","","image-slider-response","220","1338046","0.0-217.0","AR149JH34I0RE","","","","","25","","","","","","","","","","","","","","","","","","","","","",""
"null","","image-button-response","221","1343057","0.0-218.0","AR149JH34I0RE","img_art/8.jpg","null","","","","","","","","","","","","","","","","","","","","","","","","",""
"1251","","image-button-response","222","1344310","0.0-219.0","AR149JH34I0RE","img_art/8.jpg","0","","","","","","","","","","","","","","","","","","","","","","","","",""
"2379","","image-button-response","223","1346693","0.0-220.0-0.0","AR149JH34I0RE","img_art/8.jpg","4","","","","","","","","","","","","","","","","","","","","","","","","",""
"6114","","image-button-response","224","1352811","0.0-221.0-0.0","AR149JH34I0RE","img_art/8.jpg","2","","","","","","","","","","","","","","","","","","","","","","","","",""
"null","","html-keyboard-response","225","1353314","0.0-222.0","AR149JH34I0RE","<p style=""font-size: 48px;"">+</p>","","","","","null","allTrialResponses","500","1","25","img_art/8.jpg","25","Love the colors. It seems to have a powerful message with the face in the corner. ","Claire,Bailey,Jacqueline,Katie,Savannah,Allison","looks like an aerial view, very pretty,32,260,20","Not a fan of abstract looking pieces with too many focal points. The tunnel and face, for example,-31,360,20","This is kind of neat. I really like how things are oriented and the shapes used.,18,300,20","I like the colors. But I don't like the faces, they look distraught. Faces and sharp shapes make me anxious,1,160,20","Despite the detail, this picture is very abstract!,31,200,20","Eclectic city with good mix of colors.,10,140,20","Claire","looks like an aerial view, very pretty,32,260,20","Savannah","Despite the detail, this picture is very abstract!,31,200,20","Jacqueline","This is kind of neat. I really like how things are oriented and the shapes used.,18,300,20","6"
"3776","","survey-text","226","1357100","0.0-223.0-0.0","AR149JH34I0RE","","","","{""Q0"":""table""}","","","","","","","","","","","","","","","","","","","","","","",""
"9316","","survey-text","227","1366419","0.0-224.0-0.0","AR149JH34I0RE","","","","{""Q0"":""Whimisical.""}","","","","","","","","","","","","","","","","","","","","","","",""
"4369.399999976158","","image-slider-response","228","1370791","0.0-225.0","AR149JH34I0RE","","","","","8","","","","","","","","","","","","","","","","","","","","","",""
"null","","image-button-response","229","1375810","0.0-226.0","AR149JH34I0RE","img_art/17.jpg","null","","","","","","","","","","","","","","","","","","","","","","","","",""
"2752","","image-button-response","230","1378566","0.0-227.0","AR149JH34I0RE","img_art/17.jpg","3","","","","","","","","","","","","","","","","","","","","","","","","",""
"1501","","image-button-response","231","1380071","0.0-228.0-0.0","AR149JH34I0RE","img_art/17.jpg","0","","","","","","","","","","","","","","","","","","","","","","","","",""
"1522","","image-button-response","232","1381597","0.0-229.0-0.0","AR149JH34I0RE","img_art/17.jpg","1","","","","","","","","","","","","","","","","","","","","","","","","",""
"null","","html-keyboard-response","233","1383106","0.0-230.0","AR149JH34I0RE","<p style=""font-size: 48px;"">+</p>","","","","","null","allTrialResponses","1500","1","26","img_art/17.jpg","8","Whimisical.","Claire,Jenna,Jacqueline,Margaret,Savannah,Haley","its whimsical and light,50,260,20","stunning. makes me feel happy, hopeful, serene, and a little wistful.,50,360,20","It's okay, I just don't see much too it.,7,300,20","gentle watercolor vibes,12,100,20","Not even abstract to me, very clear meaning.,44,200,20","Colors and composition are beautiful. I would hang this in my home.,50,220,20","Margaret","gentle watercolor vibes,12,100,20","Claire","its whimsical and light,50,260,20","Jenna","stunning. makes me feel happy, hopeful, serene, and a little wistful.,50,360,20","6"
"17205","","survey-text","234","1400320","0.0-231.0-0.0","AR149JH34I0RE","","","","{""Q0"":""I like this. But I don't know why. ""}","","","","","","","","","","","","","","","","","","","","","","",""
"4517.899999976158","","image-slider-response","235","1404841","0.0-232.0","AR149JH34I0RE","","","","","29","","","","","","","","","","","","","","","","","","","","","",""
"null","","image-button-response","236","1409848","0.0-233.0","AR149JH34I0RE","img_art/13.jpg","null","","","","","","","","","","","","","","","","","","","","","","","","",""
"3543","","image-button-response","237","1413394","0.0-234.0","AR149JH34I0RE","img_art/13.jpg","0","","","","","","","","","","","","","","","","","","","","","","","","",""
"1293","","image-button-response","238","1414691","0.0-235.0-0.0","AR149JH34I0RE","img_art/13.jpg","1","","","","","","","","","","","","","","","","","","","","","","","","",""
"3613","","image-button-response","239","1418307","0.0-236.0-0.0","AR149JH34I0RE","img_art/13.jpg","4","","","","","","","","","","","","","","","","","","","","","","","","",""
"null","","html-keyboard-response","240","1419824","0.0-237.0","AR149JH34I0RE","<p style=""font-size: 48px;"">+</p>","","","","","null","allTrialResponses","1500","1","27","img_art/13.jpg","29","I like this. But I don't know why. ","Claire,Jenna,Alicia,Margaret,Mackenzie,Gabrielle","love the colors and splatters,44,260,20","exciting & chaotic. love the colors.,50,360,20","meh, 80's. retro,-9,120,20","i like the splatters and the colors,21,100,20","I enjoy the cool colors mixed together,31,20,20","kind of like the pattern and colors but don't love it,13,160,20","Claire","love the colors and splatters,44,260,20","Jenna","exciting & chaotic. love the colors.,50,360,20","Mackenzie","I enjoy the cool colors mixed together,31,20,20","6"
"13230","","survey-text","241","1433063","0.0-238.0-0.0","AR149JH34I0RE","","","","{""Q0"":""Colorful. Bold. ""}","","","","","","","","","","","","","","","","","","","","","","",""
"3462.7999999523163","","image-slider-response","242","1436527","0.0-239.0","AR149JH34I0RE","","","","","11","","","","","","","","","","","","","","","","","","","","","",""
"null","","image-button-response","243","1441530","0.0-240.0","AR149JH34I0RE","img_art/1.jpg","null","","","","","","","","","","","","","","","","","","","","","","","","",""
"3746","","image-button-response","244","1445281","0.0-241.0","AR149JH34I0RE","img_art/1.jpg","3","","","","","","","","","","","","","","","","","","","","","","","","",""
"1763","","image-button-response","245","1447049","0.0-242.0-0.0","AR149JH34I0RE","img_art/1.jpg","4","","","","","","","","","","","","","","","","","","","","","","","","",""
"2980","","image-button-response","246","1450033","0.0-243.0-0.0","AR149JH34I0RE","img_art/1.jpg","1","","","","","","","","","","","","","","","","","","","","","","","","",""
"null","","html-keyboard-response","247","1451039","0.0-244.0","AR149JH34I0RE","<p style=""font-size: 48px;"">+</p>","","","","","null","allTrialResponses","1000","1","28","img_art/1.jpg","11","Colorful. Bold. ","Claire,Jenna,Olivia,Shelby,Mackenzie,Sierra","the colors are nice,8,260,20","beautiful colors and brush strokes,47,360,20","feels like there is meaning,9,40,20","This one has a pleasent energy,15,240,20","I like the simple aspect to the design,21,20,20","there isnt anything clear to look at,-2,260,20","Shelby","This one has a pleasent energy,15,240,20","Mackenzie","I like the simple aspect to the design,21,20,20","Jenna","beautiful colors and brush strokes,47,360,20","6"
"20841","","survey-text","248","1471887","0.0-245.0-0.0","AR149JH34I0RE","","","","{""Q0"":""Stormy ocean crashing onto a cliff. ""}","","","","","","","","","","","","","","","","","","","","","","",""
"5157.899999976158","","image-slider-response","249","1477048","0.0-246.0","AR149JH34I0RE","","","","","11","","","","","","","","","","","","","","","","","","","","","",""
"null","","image-button-response","250","1482055","0.0-247.0","AR149JH34I0RE","img_art/21.jpg","null","","","","","","","","","","","","","","","","","","","","","","","","",""
"1487","","image-button-response","251","1483545","0.0-248.0","AR149JH34I0RE","img_art/21.jpg","2","","","","","","","","","","","","","","","","","","","","","","","","",""
"5392","","image-button-response","252","1488940","0.0-249.0-0.0","AR149JH34I0RE","img_art/21.jpg","3","","","","","","","","","","","","","","","","","","","","","","","","",""
"853","","image-button-response","253","1489797","0.0-250.0-0.0","AR149JH34I0RE","img_art/21.jpg","4","","","","","","","","","","","","","","","","","","","","","","","","",""
"null","","html-keyboard-response","254","1491309","0.0-251.0","AR149JH34I0RE","<p style=""font-size: 48px;"">+</p>","","","","","null","allTrialResponses","1500","1","29","img_art/21.jpg","11","Stormy ocean crashing onto a cliff. ","Breanna,Jenna,Amanda,Shelby,Mackenzie,Caitlin","Can't understand what it is,-27,380,20","beautiful. reminds me of a storm brewing over sea. i love the white dots.,45,360,20","Very calming and nice to look at,30,180,20","Very calming and soft, makes me feel good,31,240,20","The shapes and colors are very interesting to look at.,41,20,20","Remove the rocks(?) on the lower right.,5,80,20","Amanda","Very calming and nice to look at,30,180,20","Shelby","Very calming and soft, makes me feel good,31,240,20","Mackenzie","The shapes and colors are very interesting to look at.,41,20,20","6"
"15518","","survey-text","255","1506835","0.0-252.0-0.0","AR149JH34I0RE","","","","{""Q0"":""Not a fan of the color combo. ""}","","","","","","","","","","","","","","","","","","","","","","",""
"4845.899999976158","","image-slider-response","256","1511683","0.0-253.0","AR149JH34I0RE","","","","","-12","","","","","","","","","","","","","","","","","","","","","",""
"null","","image-button-response","257","1516688","0.0-254.0","AR149JH34I0RE","img_art/2.jpg","null","","","","","","","","","","","","","","","","","","","","","","","","",""
"1196","","image-button-response","258","1517887","0.0-255.0","AR149JH34I0RE","img_art/2.jpg","0","","","","","","","","","","","","","","","","","","","","","","","","",""
"2150","","image-button-response","259","1520040","0.0-256.0-0.0","AR149JH34I0RE","img_art/2.jpg","1","","","","","","","","","","","","","","","","","","","","","","","","",""
"2515","","image-button-response","260","1522559","0.0-257.0-0.0","AR149JH34I0RE","img_art/2.jpg","3","","","","","","","","","","","","","","","","","","","","","","","","",""
"null","","html-keyboard-response","261","1524064","0.0-258.0","AR149JH34I0RE","<p style=""font-size: 48px;"">+</p>","","","","","null","allTrialResponses","1500","1","30","img_art/2.jpg","-12","Not a fan of the color combo. ","Jamie,Kelsey,Amanda,Shelby,Mackenzie,Heather","Awful color coordination and design,-35,320,20","i dont like it, no thank you,-28,240,20","Very simple and childish,40,180,20","The contrasting colors are a bit harsh,-10,240,20","Muted green is overpowering,-10,20,20","i like the colors and again can make out my own picture,38,260,20","Jamie","Awful color coordination and design,-35,320,20","Kelsey","i dont like it, no thank you,-28,240,20","Shelby","The contrasting colors are a bit harsh,-10,240,20","6"
"3798","","image-button-response_instructions","262","1527870","0.0-259.0","AR149JH34I0RE","","0","instructions","","","","","","","","","","","","","","","","","","","","","","","",""
"1683","","image-button-response","263","1529559","0.0-260.0","AR149JH34I0RE","","0","","","","","","","","","","","","","","","","","","","","","","","","",""
