"rt","url","trial_type","trial_index","time_elapsed","internal_node_id","participant_id","stimulus","button_pressed","Name","responses","response","key_press","variableName","fixationTime","condition","trial","photo","subjectRating","subjectResponse","agentsNames","agent_1_Response","agent_2_Response","agent_3_Response","agent_4_Response","agent_5_Response","agent_6_Response","kept_1_name","kept_1_response","kept_2_name","kept_2_response","kept_3_name","kept_3_response","errorCounter"
"7791","external_page_harvard.html","external-html","0","8186","0.0-0.0","ARM9RPY5V2V5S","","","","","","","","","","","","","","","","","","","","","","","","","","",""
"1566","","image-button-response","1","9755","0.0-1.0","ARM9RPY5V2V5S","","1","","","","","","","","","","","","","","","","","","","","","","","","",""
"2899","","image-button-response","2","12663","0.0-2.0-0.0","ARM9RPY5V2V5S","","1","phone","","","","","","","","","","","","","","","","","","","","","","","",""
"10122","","survey-text","3","22788","0.0-3.0-0.0","ARM9RPY5V2V5S","","","","{""Q0"":""ARM9RPY5V2V5S""}","","","","","","","","","","","","","","","","","","","","","","",""
"6839","","image-button-response_instructions","4","29629","0.0-4.0","ARM9RPY5V2V5S","","0","instructions","","","","","","","","","","","","","","","","","","","","","","","",""
"41581","","image-button-response_instructions","5","71211","0.0-5.0","ARM9RPY5V2V5S","img_art/ins/popularity/ins1.png","0","instructions","","","","","","","","","","","","","","","","","","","","","","","",""
"9274","","image-button-response_instructions","6","80487","0.0-6.0","ARM9RPY5V2V5S","img_art/ins/popularity/ins2.png","0","instructions","","","","","","","","","","","","","","","","","","","","","","","",""
"4380","","image-button-response_instructions","7","84869","0.0-7.0","ARM9RPY5V2V5S","img_art/ins/popularity/ins2Extreme.png","0","instructions","","","","","","","","","","","","","","","","","","","","","","","",""
"27051","","image-button-response_instructions","8","111922","0.0-8.0","ARM9RPY5V2V5S","img_art/ins/popularity/ins3KEEPpop.PNG","0","instructions","","","","","","","","","","","","","","","","","","","","","","","",""
"3791","","image-button-response_instructions","9","115715","0.0-9.0","ARM9RPY5V2V5S","img_art/ins/popularity/ins3ANamepop.PNG","0","instructions","","","","","","","","","","","","","","","","","","","","","","","",""
"94670","","image-button-response_instructions","10","210387","0.0-10.0","ARM9RPY5V2V5S","img_art/ins/popularity/ins3ARatingpop.png","0","instructions","","","","","","","","","","","","","","","","","","","","","","","",""
"4990","","image-button-response_instructions","11","215379","0.0-11.0","ARM9RPY5V2V5S","img_art/ins/popularity/ins3ATextpop.png","0","instructions","","","","","","","","","","","","","","","","","","","","","","","",""
"1896","","image-button-response_instructions","12","217277","0.0-12.0","ARM9RPY5V2V5S","img_art/ins/popularity/ins3ALikespop.png","0","instructions","","","","","","","","","","","","","","","","","","","","","","","",""
"17557","","image-button-response_instructions","13","234836","0.0-13.0","ARM9RPY5V2V5S","img_art/ins/popularity/ins3KEEPpop.PNG","0","instructions","","","","","","","","","","","","","","","","","","","","","","","",""
"13406","","image-button-response_instructions","14","248244","0.0-14.0","ARM9RPY5V2V5S","img_art/ins/popularity/ins3_5RED.png","0","instructions","","","","","","","","","","","","","","","","","","","","","","","",""
"6016","","image-button-response_instructions","15","254262","0.0-15.0","ARM9RPY5V2V5S","img_art/ins/popularity/ins3KEEPpop.PNG","0","instructions","","","","","","","","","","","","","","","","","","","","","","","",""
"138754","","image-button-response_instructions","16","393017","0.0-16.0","ARM9RPY5V2V5S","img_art/ins/popularity/ins4KEEPpop.PNG","0","instructions","","","","","","","","","","","","","","","","","","","","","","","",""
"4278","","image-button-response_instructions","17","397297","0.0-17.0","ARM9RPY5V2V5S","img_art/ins/popularity/ins5KEEPpop.PNG","0","instructions","","","","","","","","","","","","","","","","","","","","","","","",""
"2437","","image-button-response_instructions","18","399737","0.0-18.0","ARM9RPY5V2V5S","","0","instructions","","","","","","","","","","","","","","","","","","","","","","","",""
"6709","","survey-text","19","406482","0.0-19.0-0.0","ARM9RPY5V2V5S","","","","{""Q0"":""but""}","","","","","","","","","","","","","","","","","","","","","","",""
"58231","","survey-text","20","464714","0.0-20.0-0.0","ARM9RPY5V2V5S","","","","{""Q0"":""It feels chaotic with the blue/green going against the pink/orange""}","","","","","","","","","","","","","","","","","","","","","","",""
"4536.5","","image-slider-response","21","469255","0.0-21.0","ARM9RPY5V2V5S","","","","","10","","","","","","","","","","","","","","","","","","","","","",""
"null","","image-button-response","22","474264","0.0-22.0","ARM9RPY5V2V5S","img_art/ins/1.jpg","null","","","","","","","","","","","","","","","","","","","","","","","","",""
"2822","","image-button-response","23","477090","0.0-23.0","ARM9RPY5V2V5S","img_art/ins/1.jpg","5","","","","","","","","","","","","","","","","","","","","","","","","",""
"3395","","image-button-response","24","480489","0.0-24.0-0.0","ARM9RPY5V2V5S","img_art/ins/1.jpg","0","","","","","","","","","","","","","","","","","","","","","","","","",""
"1705","","image-button-response","25","482199","0.0-25.0-0.0","ARM9RPY5V2V5S","img_art/ins/1.jpg","4","","","","","","","","","","","","","","","","","","","","","","","","",""
"null","","html-keyboard-response","26","483704","0.0-26.0","ARM9RPY5V2V5S","<p style=""font-size: 48px;"">+</p>","","","","","null","allTrialResponses","1500","1","-2","img_art/ins/1.jpg","10","It feels chaotic with the blue/green going against the pink/orange","Allison,Ashley,Beth,Dora,Erika,Jen","looks like a lot of things going on in the mist,20,20,20","I just don't get why these type of art would be popular,-32,40,20","This color reminds me of poo,-46,60,20","looks like what my niece in 3rd grade did this afternoon,-50,80,20","I like the sophisticated brushwork,40,100,20","It reminds me of a candy land dream I had,36,120,20","Jen","It reminds me of a candy land dream I had,36,120,20","Allison","looks like a lot of things going on in the mist,20,20,20","Erika","I like the sophisticated brushwork,40,100,20","0"
"22872","","survey-text","27","506582","0.0-27.0-0.0","ARM9RPY5V2V5S","","","","{""Q0"":""I feel drawn in and sad""}","","","","","","","","","","","","","","","","","","","","","","",""
"2520.7000000001863","","image-slider-response","28","509106","0.0-28.0","ARM9RPY5V2V5S","","","","","13","","","","","","","","","","","","","","","","","","","","","",""
"null","","image-button-response","29","514111","0.0-29.0","ARM9RPY5V2V5S","img_art/ins/2.jpg","null","","","","","","","","","","","","","","","","","","","","","","","","",""
"6187","","image-button-response","30","520301","0.0-30.0","ARM9RPY5V2V5S","img_art/ins/2.jpg","5","","","","","","","","","","","","","","","","","","","","","","","","",""
"1764","","image-button-response","31","522069","0.0-31.0-0.0","ARM9RPY5V2V5S","img_art/ins/2.jpg","1","","","","","","","","","","","","","","","","","","","","","","","","",""
"5066","","image-button-response","32","527139","0.0-32.0-0.0","ARM9RPY5V2V5S","img_art/ins/2.jpg","0","","","","","","","","","","","","","","","","","","","","","","","","",""
"null","","html-keyboard-response","33","527642","0.0-33.0","ARM9RPY5V2V5S","<p style=""font-size: 48px;"">+</p>","","","","","null","allTrialResponses","500","1","-1","img_art/ins/2.jpg","13","I feel drawn in and sad","Allison,Kara,Katie,Jenna,Erika,Jen","I don't have strong feelings about this,10,20,20","I like the blocks of color arrangements,30,160,20","too much color!,-28,180,20","One of my pet peevs,-48,140,20","I would never be able to compose a sophisticated pallete like this,48,100,20","It reminds me of a fireplace,36,120,20","Jen","It reminds me of a fireplace,36,120,20","Kara","I like the blocks of color arrangements,30,160,20","Allison","I don't have strong feelings about this,10,20,20","0"
"30543","","survey-text","34","558191","0.0-34.0-0.0","ARM9RPY5V2V5S","","","","{""Q0"":""It looks like birds in flight""}","","","","","","","","","","","","","","","","","","","","","","",""
"3407.5999999996275","","image-slider-response","35","561601","0.0-35.0","ARM9RPY5V2V5S","","","","","48","","","","","","","","","","","","","","","","","","","","","",""
"null","","image-button-response","36","566609","0.0-36.0","ARM9RPY5V2V5S","img_art/ins/3.jpg","null","","","","","","","","","","","","","","","","","","","","","","","","",""
"5541","","image-button-response","37","572154","0.0-37.0","ARM9RPY5V2V5S","img_art/ins/3.jpg","1","","","","","","","","","","","","","","","","","","","","","","","","",""
"2907","","image-button-response","38","575064","0.0-38.0-0.0","ARM9RPY5V2V5S","img_art/ins/3.jpg","4","","","","","","","","","","","","","","","","","","","","","","","","",""
"1535","","image-button-response","39","576604","0.0-39.0-0.0","ARM9RPY5V2V5S","img_art/ins/3.jpg","5","","","","","","","","","","","","","","","","","","","","","","","","",""
"null","","html-keyboard-response","40","578109","0.0-40.0","ARM9RPY5V2V5S","<p style=""font-size: 48px;"">+</p>","","","","","null","allTrialResponses","1500","1","0","img_art/ins/3.jpg","48","It looks like birds in flight","Allison,Kara,Rose,Leslie,Mary,Jen","enjoy the different shades of blue,22,20,20","calming blue is very nice,36,160,20","My daily routine, it's depressing,-20,240,20","It's an alright work,15,200,20","I like the overlapping of brushes,41,220,20","I can feel a rainy day from this painting,18,120,20","Kara","calming blue is very nice,36,160,20","Mary","I like the overlapping of brushes,41,220,20","Jen","I can feel a rainy day from this painting,18,120,20","0"
"6370","","image-button-response_instructions","41","584485","0.0-41.0","ARM9RPY5V2V5S","","0","instructions","","","","","","","","","","","","","","","","","","","","","","","",""
"18993","","survey-likert","42","603481","0.0-42.0-0.0","ARM9RPY5V2V5S","","","","{""Q0"":"""",""Q1"":0,""Q2"":1}","","","","","","","","","","","","","","","","","","","","","","",""
"4783","","survey-text","43","608270","0.0-43.0-0.0","ARM9RPY5V2V5S","","","","{""Q0"":""rock""}","","","","","","","","","","","","","","","","","","","","","","",""
"25381","","survey-text","44","633653","0.0-44.0-0.0","ARM9RPY5V2V5S","","","","{""Q0"":""It feels calming. It looks like a waterfall.""}","","","","","","","","","","","","","","","","","","","","","","",""
"4357.300000000745","","image-slider-response","45","638013","0.0-45.0","ARM9RPY5V2V5S","","","","","25","","","","","","","","","","","","","","","","","","","","","",""
"3551","","image-button-response","46","643125","0.0-46.0","ARM9RPY5V2V5S","img_art/24.jpg","0","","","","","","","","","","","","","","","","","","","","","","","","",""
"706","","image-button-response","47","643835","0.0-47.0","ARM9RPY5V2V5S","img_art/24.jpg","0","","","","","","","","","","","","","","","","","","","","","","","","",""
"1607","","image-button-response","48","645445","0.0-48.0-0.0","ARM9RPY5V2V5S","img_art/24.jpg","1","","","","","","","","","","","","","","","","","","","","","","","","",""
"3593","","image-button-response","49","649040","0.0-49.0-0.0","ARM9RPY5V2V5S","img_art/24.jpg","1","","","","","","","","","","","","","","","","","","","","","","","","",""
"9330","","image-button-response","50","663865","0.0-49.1-0.1","ARM9RPY5V2V5S","img_art/24.jpg","2","","","","","","","","","","","","","","","","","","","","","","","","",""
"null","","html-keyboard-response","51","664870","0.0-50.0","ARM9RPY5V2V5S","<p style=""font-size: 48px;"">+</p>","","","","","null","allTrialResponses","1000","1","1","img_art/24.jpg","25","It feels calming. It looks like a waterfall.","Andrea,Amanda,Christina,Sarah,Alexa,Destiny","Waterfall, and I love the coloring.,48,240,20","Beautiful,  peaceful,50,180,20","I like how it looks like a waterfall in an exotic place,50,240,20","it's fine, the colors are pleasing, but not my taste,9,180,20","I absolutely adore this painting. The colors, designs, everything. It's phenomenal,50,40,20","brick wall waterfall girl you think you got it all,50,360,20","Andrea","Waterfall, and I love the coloring.,48,240,20","Amanda","Beautiful,  peaceful,50,180,20","Christina","I like how it looks like a waterfall in an exotic place,50,240,20","2"
"46008","","survey-text","52","710885","0.0-51.0-0.0","ARM9RPY5V2V5S","","","","{""Q0"":""I love the paint splatter in different directions. It gives it a rainfall feel. ""}","","","","","","","","","","","","","","","","","","","","","","",""
"3246.0999999996275","","image-slider-response","53","714133","0.0-52.0","ARM9RPY5V2V5S","","","","","46","","","","","","","","","","","","","","","","","","","","","",""
"3895","","image-button-response","54","719136","0.0-53.0","ARM9RPY5V2V5S","img_art/13.jpg","0","","","","","","","","","","","","","","","","","","","","","","","","",""
"1490","","image-button-response","55","720630","0.0-54.0","ARM9RPY5V2V5S","img_art/13.jpg","0","","","","","","","","","","","","","","","","","","","","","","","","",""
"11073","","image-button-response","56","731705","0.0-55.0-0.0","ARM9RPY5V2V5S","img_art/13.jpg","3","","","","","","","","","","","","","","","","","","","","","","","","",""
"1292","","image-button-response","57","733002","0.0-56.0-0.0","ARM9RPY5V2V5S","img_art/13.jpg","5","","","","","","","","","","","","","","","","","","","","","","","","",""
"null","","html-keyboard-response","58","733506","0.0-57.0","ARM9RPY5V2V5S","<p style=""font-size: 48px;"">+</p>","","","","","null","allTrialResponses","500","1","2","img_art/13.jpg","46","I love the paint splatter in different directions. It gives it a rainfall feel. ","Andrea,Amanda,Christina,Madison,Breanna,Kayla","Raindrops on a window. Makes me feel like traveling.,31,240,20","Feels calm and could be placed in anyones house,43,180,20","i like the colors but it looks like something that would hang in a hotel,18,240,20","Pollock? Love the juxtaposition of colors. Soothing and stirring, a beautiful inexplicable paradox.,50,60,20","Makes me feel nice and calm,18,380,20","Pleasing, happy, rainy.,12,180,20","Andrea","Raindrops on a window. Makes me feel like traveling.,31,240,20","Madison","Pollock? Love the juxtaposition of colors. Soothing and stirring, a beautiful inexplicable paradox.,50,60,20","Kayla","Pleasing, happy, rainy.,12,180,20","2"
"28691","","survey-text","59","762202","0.0-58.0-0.0","ARM9RPY5V2V5S","","","","{""Q0"":""I dont like the colors becoming muddy""}","","","","","","","","","","","","","","","","","","","","","","",""
"4057.7000000001863","","image-slider-response","60","766262","0.0-59.0","ARM9RPY5V2V5S","","","","","-26","","","","","","","","","","","","","","","","","","","","","",""
"null","","image-button-response","61","771270","0.0-60.0","ARM9RPY5V2V5S","img_art/30.jpg","null","","","","","","","","","","","","","","","","","","","","","","","","",""
"11074","","image-button-response","62","782345","0.0-61.0","ARM9RPY5V2V5S","img_art/30.jpg","0","","","","","","","","","","","","","","","","","","","","","","","","",""
"5536","","image-button-response","63","787884","0.0-62.0-0.0","ARM9RPY5V2V5S","img_art/30.jpg","3","","","","","","","","","","","","","","","","","","","","","","","","",""
"2717","","image-button-response","64","790605","0.0-63.0-0.0","ARM9RPY5V2V5S","img_art/30.jpg","4","","","","","","","","","","","","","","","","","","","","","","","","",""
"null","","html-keyboard-response","65","791109","0.0-64.0","ARM9RPY5V2V5S","<p style=""font-size: 48px;"">+</p>","","","","","null","allTrialResponses","500","1","3","img_art/30.jpg","-26","I dont like the colors becoming muddy","Andrea,Shelby,Kathryn,Madison,Nicole,Kayla","It feels like graffiti and the dark colors do nothing for the mood.,-5,240,20","It's pleasent but otherwise unprovoking,8,240,20","It's like a child's art piece: carefree and not trying to conform to anything.,10,140,20","Interesting brushstroke work, but not particularly memorable.,21,60,20","I like the softness of this but it doesn't make me feel that nice,5,20,20","It's soothing- the page is full, but there aren't too many things happening.,23,180,20","Andrea","It feels like graffiti and the dark colors do nothing for the mood.,-5,240,20","Madison","Interesting brushstroke work, but not particularly memorable.,21,60,20","Nicole","I like the softness of this but it doesn't make me feel that nice,5,20,20","2"
"21959","","survey-text","66","813073","0.0-65.0-0.0","ARM9RPY5V2V5S","","","","{""Q0"":""It looks a childs scribble ""}","","","","","","","","","","","","","","","","","","","","","","",""
"3355.2999999998137","","image-slider-response","67","816431","0.0-66.0","ARM9RPY5V2V5S","","","","","-35","","","","","","","","","","","","","","","","","","","","","",""
"4553","","image-button-response","68","821435","0.0-67.0","ARM9RPY5V2V5S","img_art/3.jpg","0","","","","","","","","","","","","","","","","","","","","","","","","",""
"8987","","image-button-response","69","830425","0.0-68.0","ARM9RPY5V2V5S","img_art/3.jpg","3","","","","","","","","","","","","","","","","","","","","","","","","",""
"1271","","image-button-response","70","831699","0.0-69.0-0.0","ARM9RPY5V2V5S","img_art/3.jpg","0","","","","","","","","","","","","","","","","","","","","","","","","",""
"3718","","image-button-response","71","835421","0.0-70.0-0.0","ARM9RPY5V2V5S","img_art/3.jpg","1","","","","","","","","","","","","","","","","","","","","","","","","",""
"null","","html-keyboard-response","72","836928","0.0-71.0","ARM9RPY5V2V5S","<p style=""font-size: 48px;"">+</p>","","","","","null","allTrialResponses","1500","1","4","img_art/3.jpg","-35","It looks a childs scribble ","Andrea,Tiffany,Samantha,Madison,Nicole,Emily","I don't feel anything, it seems childish.,-25,240,20","I feel uncomfortable, like I am looking at a crime scene.,-17,360,20","Too angry and scribbly,-43,140,20","This doesn't grab me. Perhaps the red is meant to be provocative; I find it gimmicky.,-9,60,20","Something I'd paint when I'm mad. I feel that,20,20,20","Looks like someone mentalyl unstable drew and is ready to go a a killing spree.,-50,40,20","Madison","This doesn't grab me. Perhaps the red is meant to be provocative; I find it gimmicky.,-9,60,20","Andrea","I don't feel anything, it seems childish.,-25,240,20","Tiffany","I feel uncomfortable, like I am looking at a crime scene.,-17,360,20","2"
"37536","","survey-text","73","874471","0.0-72.0-0.0","ARM9RPY5V2V5S","","","","{""Q0"":""It gives me haunting feeling with the silhouette and glowing green color""}","","","","","","","","","","","","","","","","","","","","","","",""
"3122.100000000559","","image-slider-response","74","877596","0.0-73.0","ARM9RPY5V2V5S","","","","","32","","","","","","","","","","","","","","","","","","","","","",""
"null","","image-button-response","75","882599","0.0-74.0","ARM9RPY5V2V5S","img_art/25.jpg","null","","","","","","","","","","","","","","","","","","","","","","","","",""
"6723","","image-button-response","76","889324","0.0-75.0","ARM9RPY5V2V5S","img_art/25.jpg","4","","","","","","","","","","","","","","","","","","","","","","","","",""
"4629","","image-button-response","77","893956","0.0-76.0-0.0","ARM9RPY5V2V5S","img_art/25.jpg","2","","","","","","","","","","","","","","","","","","","","","","","","",""
"5448","","image-button-response","78","899407","0.0-77.0-0.0","ARM9RPY5V2V5S","img_art/25.jpg","5","","","","","","","","","","","","","","","","","","","","","","","","",""
"null","","html-keyboard-response","79","900914","0.0-78.0","ARM9RPY5V2V5S","<p style=""font-size: 48px;"">+</p>","","","","","null","allTrialResponses","1500","1","5","img_art/25.jpg","32","It gives me haunting feeling with the silhouette and glowing green color","Andrea,Tiffany,Lindsey,Madison,Erin,Kelsey","Looks like Burning Man, dont care for the colors.,-5,240,20","I feel little to no emotion looking at this painting.,0,360,20","This piece makes me think of oppression and fighting it. Makes me feel calm, sad and strong.,11,400,20","Meh. Hardly abstract, though.,-40,60,20","Looks like glow in the dark halloween decoration,-38,120,20","quite unnerving,-15,240,20","Erin","Looks like glow in the dark halloween decoration,-38,120,20","Lindsey","This piece makes me think of oppression and fighting it. Makes me feel calm, sad and strong.,11,400,20","Kelsey","quite unnerving,-15,240,20","2"
"3356","","survey-text","80","904279","0.0-79.0-0.0","ARM9RPY5V2V5S","","","","{""Q0"":""sky""}","","","","","","","","","","","","","","","","","","","","","","",""
"30081","","survey-text","81","934361","0.0-80.0-0.0","ARM9RPY5V2V5S","","","","{""Q0"":""This just feel weird. LIke some one was on something when making art. ""}","","","","","","","","","","","","","","","","","","","","","","",""
"3426.9000000003725","","image-slider-response","82","937790","0.0-81.0","ARM9RPY5V2V5S","","","","","-50","","","","","","","","","","","","","","","","","","","","","",""
"2636","","image-button-response","83","942793","0.0-82.0","ARM9RPY5V2V5S","img_art/16.jpg","1","","","","","","","","","","","","","","","","","","","","","","","","",""
"1842","","image-button-response","84","944638","0.0-83.0","ARM9RPY5V2V5S","img_art/16.jpg","2","","","","","","","","","","","","","","","","","","","","","","","","",""
"961","","image-button-response","85","945602","0.0-84.0-0.0","ARM9RPY5V2V5S","img_art/16.jpg","1","","","","","","","","","","","","","","","","","","","","","","","","",""
"5668","","image-button-response","86","951274","0.0-85.0-0.0","ARM9RPY5V2V5S","img_art/16.jpg","4","","","","","","","","","","","","","","","","","","","","","","","","",""
"null","","html-keyboard-response","87","952779","0.0-86.0","ARM9RPY5V2V5S","<p style=""font-size: 48px;"">+</p>","","","","","null","allTrialResponses","1500","1","6","img_art/16.jpg","-50","This just feel weird. LIke some one was on something when making art. ","Danielle,Morgan,Lindsey,Mariah,Erin,Kelsey","I enjoy how slightly strange this is, while seeming to still have some message,20,340,20","Strange and bleak.,-20,380,20","It's depressing. Probably achieved its goal. But I wouldn't want it hanging in my home.,-31,400,20","Why is that bear there? It looks like it would be gross to touch. The texture bothers me.,-20,140,20","Not original. Bear is odd,-50,120,20","its disturbing! what the heck,-27,240,20","Lindsey","It's depressing. Probably achieved its goal. But I wouldn't want it hanging in my home.,-31,400,20","Morgan","Strange and bleak.,-20,380,20","Erin","Not original. Bear is odd,-50,120,20","2"
"43887","","survey-text","88","996671","0.0-87.0-0.0","ARM9RPY5V2V5S","","","","{""Q0"":""This feels powerful with the colors. It looks like a storm is making landfall.""}","","","","","","","","","","","","","","","","","","","","","","",""
"3374.100000000559","","image-slider-response","89","1000048","0.0-88.0","ARM9RPY5V2V5S","","","","","50","","","","","","","","","","","","","","","","","","","","","",""
"null","","image-button-response","90","1005053","0.0-89.0","ARM9RPY5V2V5S","img_art/21.jpg","null","","","","","","","","","","","","","","","","","","","","","","","","",""
"1143","","image-button-response","91","1006199","0.0-90.0","ARM9RPY5V2V5S","img_art/21.jpg","1","","","","","","","","","","","","","","","","","","","","","","","","",""
"7994","","image-button-response","92","1014198","0.0-91.0-0.0","ARM9RPY5V2V5S","img_art/21.jpg","4","","","","","","","","","","","","","","","","","","","","","","","","",""
"1409","","image-button-response","93","1015612","0.0-92.0-0.0","ARM9RPY5V2V5S","img_art/21.jpg","5","","","","","","","","","","","","","","","","","","","","","","","","",""
"null","","html-keyboard-response","94","1017119","0.0-93.0","ARM9RPY5V2V5S","<p style=""font-size: 48px;"">+</p>","","","","","null","allTrialResponses","1500","1","7","img_art/21.jpg","50","This feels powerful with the colors. It looks like a storm is making landfall.","Hannah,Morgan,Lindsey,Brittany,Erin,Sydney","Boring colors and look. Too much 1980s.,-20,240,20","Survivable storm on the open sea.,27,380,20","I like this piece more the more I look at. Still wouldn't want it in my home, though.,8,400,20","Alright. I like the colors.,5,40,20","Love the colors and hue, ocean,38,120,20","I love everything about this piece.,50,320,20","Morgan","Survivable storm on the open sea.,27,380,20","Erin","Love the colors and hue, ocean,38,120,20","Sydney","I love everything about this piece.,50,320,20","2"
"41001","","survey-text","95","1058125","0.0-94.0-0.0","ARM9RPY5V2V5S","","","","{""Q0"":""I like the choice of bold colors.""}","","","","","","","","","","","","","","","","","","","","","","",""
"5571.5","","image-slider-response","96","1063699","0.0-95.0","ARM9RPY5V2V5S","","","","","4","","","","","","","","","","","","","","","","","","","","","",""
"3785","","image-button-response","97","1068702","0.0-96.0","ARM9RPY5V2V5S","img_art/22.jpg","1","","","","","","","","","","","","","","","","","","","","","","","","",""
"1744","","image-button-response","98","1070450","0.0-97.0","ARM9RPY5V2V5S","img_art/22.jpg","3","","","","","","","","","","","","","","","","","","","","","","","","",""
"1151","","image-button-response","99","1071603","0.0-98.0-0.0","ARM9RPY5V2V5S","img_art/22.jpg","1","","","","","","","","","","","","","","","","","","","","","","","","",""
"6364","","image-button-response","100","1077971","0.0-99.0-0.0","ARM9RPY5V2V5S","img_art/22.jpg","5","","","","","","","","","","","","","","","","","","","","","","","","",""
"null","","html-keyboard-response","101","1079476","0.0-100.0","ARM9RPY5V2V5S","<p style=""font-size: 48px;"">+</p>","","","","","null","allTrialResponses","1500","1","8","img_art/22.jpg","4","I like the choice of bold colors.","Caroline,Morgan,Grace,Meghan,Erin,Sydney","Felt blah. Bunch of nothingness,-42,100,20","Glowing city of many emotions.,10,380,20","Love vibrant colors & the abstractness.,43,180,20","really beautiful colors and contrast,30,220,20","Seems dated with geometic forms,-20,120,20","I don't normally like bright colors, but I like them in this. Don't like the random black paint.,30,320,20","Meghan","really beautiful colors and contrast,30,220,20","Morgan","Glowing city of many emotions.,10,380,20","Sydney","I don't normally like bright colors, but I like them in this. Don't like the random black paint.,30,320,20","2"
"33732","","survey-text","102","1113213","0.0-101.0-0.0","ARM9RPY5V2V5S","","","","{""Q0"":""I like the colors but hate the green marker paint on the canvas.""}","","","","","","","","","","","","","","","","","","","","","","",""
"2708.5","","image-slider-response","103","1115924","0.0-102.0","ARM9RPY5V2V5S","","","","","-26","","","","","","","","","","","","","","","","","","","","","",""
"null","","image-button-response","104","1120927","0.0-103.0","ARM9RPY5V2V5S","img_art/27.jpg","null","","","","","","","","","","","","","","","","","","","","","","","","",""
"5383","","image-button-response","105","1126312","0.0-104.0","ARM9RPY5V2V5S","img_art/27.jpg","3","","","","","","","","","","","","","","","","","","","","","","","","",""
"1336","","image-button-response","106","1127652","0.0-105.0-0.0","ARM9RPY5V2V5S","img_art/27.jpg","1","","","","","","","","","","","","","","","","","","","","","","","","",""
"3228","","image-button-response","107","1130884","0.0-106.0-0.0","ARM9RPY5V2V5S","img_art/27.jpg","4","","","","","","","","","","","","","","","","","","","","","","","","",""
"null","","html-keyboard-response","108","1131890","0.0-107.0","ARM9RPY5V2V5S","<p style=""font-size: 48px;"">+</p>","","","","","null","allTrialResponses","1000","1","9","img_art/27.jpg","-26","I like the colors but hate the green marker paint on the canvas.","Katie,Morgan,Amber,Meghan,Shannon,Sydney","Fire, explosion. Red/orange colors are fire/explosion. White is smoke. Makes me worried/scared/anxious,-20,160,20","Messy field of various plants.,-5,380,20","I like the colors.,6,200,20","again looks like childrens artwork,-40,220,20","This image could do a better job of showing what is going on and it could use more colors.,-42,220,20","This piece reminds me of a summer day.,30,320,20","Meghan","again looks like childrens artwork,-40,220,20","Morgan","Messy field of various plants.,-5,380,20","Shannon","This image could do a better job of showing what is going on and it could use more colors.,-42,220,20","2"
"26675","","survey-text","109","1158571","0.0-108.0-0.0","ARM9RPY5V2V5S","","","","{""Q0"":""This feels like a map.""}","","","","","","","","","","","","","","","","","","","","","","",""
"2349","","image-slider-response","110","1160923","0.0-109.0","ARM9RPY5V2V5S","","","","","22","","","","","","","","","","","","","","","","","","","","","",""
"null","","image-button-response","111","1165931","0.0-110.0","ARM9RPY5V2V5S","img_art/10.jpg","null","","","","","","","","","","","","","","","","","","","","","","","","",""
"3524","","image-button-response","112","1169457","0.0-111.0","ARM9RPY5V2V5S","img_art/10.jpg","1","","","","","","","","","","","","","","","","","","","","","","","","",""
"961","","image-button-response","113","1170421","0.0-112.0-0.0","ARM9RPY5V2V5S","img_art/10.jpg","3","","","","","","","","","","","","","","","","","","","","","","","","",""
"2656","","image-button-response","114","1173080","0.0-113.0-0.0","ARM9RPY5V2V5S","img_art/10.jpg","0","","","","","","","","","","","","","","","","","","","","","","","","",""
"null","","html-keyboard-response","115","1174087","0.0-114.0","ARM9RPY5V2V5S","<p style=""font-size: 48px;"">+</p>","","","","","null","allTrialResponses","1000","1","10","img_art/10.jpg","22","This feels like a map.","Katelyn,Morgan,Makayla,Meghan,Shannon,Angelica","It makes me think of music and i love the reflective aspect,29,100,20","Roller coaster on an island.,9,380,20","I don't hate but don't like it because it looks like a oil slick,2,80,20","kind of reminds me of a map,1,220,20","I can't tell what this picture is supposed to mean and I think the colors are lacking variety.,-42,220,20","This is odd and ugly.,-9,280,20","Morgan","Roller coaster on an island.,9,380,20","Meghan","kind of reminds me of a map,1,220,20","Katelyn","It makes me think of music and i love the reflective aspect,29,100,20","2"
"4282","","survey-text","116","1178380","0.0-115.0-0.0","ARM9RPY5V2V5S","","","","{""Q0"":""our""}","","","","","","","","","","","","","","","","","","","","","","",""
"39646","","survey-text","117","1218028","0.0-116.0-0.0","ARM9RPY5V2V5S","","","","{""Q0"":""i like the brush strokes are making a frame on the canvas ""}","","","","","","","","","","","","","","","","","","","","","","",""
"2863.5","","image-slider-response","118","1220894","0.0-117.0","ARM9RPY5V2V5S","","","","","4","","","","","","","","","","","","","","","","","","","","","",""
"null","","image-button-response","119","1225901","0.0-118.0","ARM9RPY5V2V5S","img_art/29.jpg","null","","","","","","","","","","","","","","","","","","","","","","","","",""
"1510","","image-button-response","120","1227414","0.0-119.0","ARM9RPY5V2V5S","img_art/29.jpg","2","","","","","","","","","","","","","","","","","","","","","","","","",""
"3587","","image-button-response","121","1231004","0.0-120.0-0.0","ARM9RPY5V2V5S","img_art/29.jpg","3","","","","","","","","","","","","","","","","","","","","","","","","",""
"1380","","image-button-response","122","1232388","0.0-121.0-0.0","ARM9RPY5V2V5S","img_art/29.jpg","4","","","","","","","","","","","","","","","","","","","","","","","","",""
"null","","html-keyboard-response","123","1232892","0.0-122.0","ARM9RPY5V2V5S","<p style=""font-size: 48px;"">+</p>","","","","","null","allTrialResponses","500","1","11","img_art/29.jpg","4","i like the brush strokes are making a frame on the canvas ","Katelyn,Morgan,Haley,Meghan,Madeline,Molly","Grabs interest but then confuses me,6,100,20","Tested and failed a lot of ideas.,-20,380,20","Looks messy, but not in appealing way,-20,220,20","feels random and not thoughtout,-37,220,20","Looks a bit messy,-13,40,20","Looks kinda scary.,25,340,20","Haley","Looks messy, but not in appealing way,-20,220,20","Meghan","feels random and not thoughtout,-37,220,20","Madeline","Looks a bit messy,-13,40,20","2"
"22145","","survey-text","124","1255042","0.0-123.0-0.0","ARM9RPY5V2V5S","","","","{""Q0"":""Looks my sleeping beauty. ""}","","","","","","","","","","","","","","","","","","","","","","",""
"2223.2999999998137","","image-slider-response","125","1257268","0.0-124.0","ARM9RPY5V2V5S","","","","","9","","","","","","","","","","","","","","","","","","","","","",""
"null","","image-button-response","126","1262274","0.0-125.0","ARM9RPY5V2V5S","img_art/9.jpg","null","","","","","","","","","","","","","","","","","","","","","","","","",""
"2218","","image-button-response","127","1264495","0.0-126.0","ARM9RPY5V2V5S","img_art/9.jpg","5","","","","","","","","","","","","","","","","","","","","","","","","",""
"1625","","image-button-response","128","1266123","0.0-127.0-0.0","ARM9RPY5V2V5S","img_art/9.jpg","4","","","","","","","","","","","","","","","","","","","","","","","","",""
"3751","","image-button-response","129","1269878","0.0-128.0-0.0","ARM9RPY5V2V5S","img_art/9.jpg","0","","","","","","","","","","","","","","","","","","","","","","","","",""
"null","","html-keyboard-response","130","1271385","0.0-129.0","ARM9RPY5V2V5S","<p style=""font-size: 48px;"">+</p>","","","","","null","allTrialResponses","1500","1","12","img_art/9.jpg","9","Looks my sleeping beauty. ","Lauren,Rachel,Haley,Meghan,Madeline,Victoria","I like how design can be interpreted differently, I see a person sleeping or a mountainous region.,10,340,20","It looks like a lady taking a peaceful nap on a blanket in the grass.,41,80,20","I don't like the picture, but it wouldn't surprise me if someone did,-20,220,20","looks like someone resting,12,220,20","I really like the colors and details.,8,40,20","reminds me of a story book,18,400,20","Victoria","reminds me of a story book,18,400,20","Madeline","I really like the colors and details.,8,40,20","Lauren","I like how design can be interpreted differently, I see a person sleeping or a mountainous region.,10,340,20","2"
"35759","","survey-text","131","1307150","0.0-130.0-0.0","ARM9RPY5V2V5S","","","","{""Q0"":""I dont like the mutes color choices""}","","","","","","","","","","","","","","","","","","","","","","",""
"3289.899999999441","","image-slider-response","132","1310442","0.0-131.0","ARM9RPY5V2V5S","","","","","-21","","","","","","","","","","","","","","","","","","","","","",""
"4317","","image-button-response","133","1315448","0.0-132.0","ARM9RPY5V2V5S","img_art/2.jpg","0","","","","","","","","","","","","","","","","","","","","","","","","",""
"137","","image-button-response","134","1315588","0.0-133.0","ARM9RPY5V2V5S","img_art/2.jpg","1","","","","","","","","","","","","","","","","","","","","","","","","",""
"694","","image-button-response","135","1316283","0.0-134.0-0.0","ARM9RPY5V2V5S","img_art/2.jpg","0","","","","","","","","","","","","","","","","","","","","","","","","",""
"1701","","image-button-response","136","1317988","0.0-135.0-0.0","ARM9RPY5V2V5S","img_art/2.jpg","2","","","","","","","","","","","","","","","","","","","","","","","","",""
"null","","html-keyboard-response","137","1319490","0.0-136.0","ARM9RPY5V2V5S","<p style=""font-size: 48px;"">+</p>","","","","","null","allTrialResponses","1500","1","13","img_art/2.jpg","-21","I dont like the mutes color choices","Lauren,Sabrina,Mackenzie,Savannah,Madeline,Victoria","I feel that its too abstract for me to understand what I'm looking at.,-15,340,20","I dont like the expression of this,-19,120,20","Muted green is overpowering,-10,20,20","Very gross colors. What were they thinking?,-47,200,20","I don't really like this style,-5,40,20","I like the colors,22,400,20","Sabrina","I dont like the expression of this,-19,120,20","Lauren","I feel that its too abstract for me to understand what I'm looking at.,-15,340,20","Mackenzie","Muted green is overpowering,-10,20,20","2"
"52542","","survey-text","138","1372037","0.0-137.0-0.0","ARM9RPY5V2V5S","","","","{""Q0"":""This gives me warm and comfort. It feels like peak fall foliage on the lake.""}","","","","","","","","","","","","","","","","","","","","","","",""
"2142.399999999441","","image-slider-response","139","1374182","0.0-138.0","ARM9RPY5V2V5S","","","","","50","","","","","","","","","","","","","","","","","","","","","",""
"3869","","image-button-response","140","1379190","0.0-139.0","ARM9RPY5V2V5S","img_art/1.jpg","1","","","","","","","","","","","","","","","","","","","","","","","","",""
"2582","","image-button-response","141","1381774","0.0-140.0","ARM9RPY5V2V5S","img_art/1.jpg","1","","","","","","","","","","","","","","","","","","","","","","","","",""
"3066","","image-button-response","142","1384844","0.0-141.0-0.0","ARM9RPY5V2V5S","img_art/1.jpg","4","","","","","","","","","","","","","","","","","","","","","","","","",""
"991","","image-button-response","143","1385838","0.0-142.0-0.0","ARM9RPY5V2V5S","img_art/1.jpg","5","","","","","","","","","","","","","","","","","","","","","","","","",""
"null","","html-keyboard-response","144","1386840","0.0-143.0","ARM9RPY5V2V5S","<p style=""font-size: 48px;"">+</p>","","","","","null","allTrialResponses","1000","1","14","img_art/1.jpg","50","This gives me warm and comfort. It feels like peak fall foliage on the lake.","Lauren,Sabrina,Mackenzie,Jacqueline,Leslie,Claire","This image doesn't invoke much in me.,0,340,20","I love the calming comfort and safe feeling of this,50,120,20","I like the simple aspect to the design,21,20,20","It's alright but lacks any depth.,-5,300,20","The use of reds, blues, and yellows together reminds me of fire. Very interesting to look at.,40,380,20","the colors are nice,8,260,20","Sabrina","I love the calming comfort and safe feeling of this,50,120,20","Leslie","The use of reds, blues, and yellows together reminds me of fire. Very interesting to look at.,40,380,20","Claire","the colors are nice,8,260,20","2"
"15784","","survey-text","145","1402631","0.0-144.0-0.0","ARM9RPY5V2V5S","","","","{""Q0"":""Seems like a basic street level painting.""}","","","","","","","","","","","","","","","","","","","","","","",""
"2260.300000000745","","image-slider-response","146","1404893","0.0-145.0","ARM9RPY5V2V5S","","","","","11","","","","","","","","","","","","","","","","","","","","","",""
"1917","","image-button-response","147","1409897","0.0-146.0","ARM9RPY5V2V5S","img_art/26.jpg","0","","","","","","","","","","","","","","","","","","","","","","","","",""
"1333","","image-button-response","148","1411233","0.0-147.0","ARM9RPY5V2V5S","img_art/26.jpg","0","","","","","","","","","","","","","","","","","","","","","","","","",""
"2862","","image-button-response","149","1414098","0.0-148.0-0.0","ARM9RPY5V2V5S","img_art/26.jpg","2","","","","","","","","","","","","","","","","","","","","","","","","",""
"1068","","image-button-response","150","1415169","0.0-149.0-0.0","ARM9RPY5V2V5S","img_art/26.jpg","3","","","","","","","","","","","","","","","","","","","","","","","","",""
"null","","html-keyboard-response","151","1416173","0.0-150.0","ARM9RPY5V2V5S","<p style=""font-size: 48px;"">+</p>","","","","","null","allTrialResponses","1000","1","15","img_art/26.jpg","11","Seems like a basic street level painting.","Kylie,Sabrina,Kristen,Jenna,Leslie,Claire","Picturesque little town,45,300,20","I dont see any expression,-29,120,20","happy, park, childhood,9,280,20","soft colors & brush work. very easy to look at. makes me happy.,50,360,20","It's a cute city scene. I like the trees.,10,380,20","very impressionistic,11,260,20","Kylie","Picturesque little town,45,300,20","Kristen","happy, park, childhood,9,280,20","Jenna","soft colors & brush work. very easy to look at. makes me happy.,50,360,20","2"
"4518","","survey-text","152","1420702","0.0-151.0-0.0","ARM9RPY5V2V5S","","","","{""Q0"":""course""}","","","","","","","","","","","","","","","","","","","","","","",""
"49978","","survey-text","153","1470683","0.0-152.0-0.0","ARM9RPY5V2V5S","","","","{""Q0"":""I like the dark colors with hint of orange and green. It looks like antennas and wires.""}","","","","","","","","","","","","","","","","","","","","","","",""
"3204.2999999998137","","image-slider-response","154","1473889","0.0-153.0","ARM9RPY5V2V5S","","","","","40","","","","","","","","","","","","","","","","","","","","","",""
"null","","image-button-response","155","1478897","0.0-154.0","ARM9RPY5V2V5S","img_art/11.jpg","null","","","","","","","","","","","","","","","","","","","","","","","","",""
"2468","","image-button-response","156","1481367","0.0-155.0","ARM9RPY5V2V5S","img_art/11.jpg","1","","","","","","","","","","","","","","","","","","","","","","","","",""
"5341","","image-button-response","157","1486711","0.0-156.0-0.0","ARM9RPY5V2V5S","img_art/11.jpg","4","","","","","","","","","","","","","","","","","","","","","","","","",""
"924","","image-button-response","158","1487639","0.0-157.0-0.0","ARM9RPY5V2V5S","img_art/11.jpg","5","","","","","","","","","","","","","","","","","","","","","","","","",""
"null","","html-keyboard-response","159","1489144","0.0-158.0","ARM9RPY5V2V5S","<p style=""font-size: 48px;"">+</p>","","","","","null","allTrialResponses","1500","1","16","img_art/11.jpg","40","I like the dark colors with hint of orange and green. It looks like antennas and wires.","Kylie,Vanessa,Kristen,Jenna,Jasmine,Alyssa","This looks like a busy highway system along a suburban background,40,300,20","It makes me think of a rainy day and I like the colors. Also like the wavy lines.,22,380,20","small town, friendly. calm,35,280,20","makes me think of city highways & bridges on a rainy, foggy day. I like the melancholy it evokes.,43,360,20","Reminds me of a city on a grey/rainy winter's day,25,340,20","Its interesting.,20,160,20","Vanessa","It makes me think of a rainy day and I like the colors. Also like the wavy lines.,22,380,20","Jasmine","Reminds me of a city on a grey/rainy winter's day,25,340,20","Alyssa","Its interesting.,20,160,20","2"
"39387","","survey-text","160","1528538","0.0-159.0-0.0","ARM9RPY5V2V5S","","","","{""Q0"":""It is very abstract that the more you look at it, the more you see. ""}","","","","","","","","","","","","","","","","","","","","","","",""
"2245.0999999996275","","image-slider-response","161","1530786","0.0-160.0","ARM9RPY5V2V5S","","","","","21","","","","","","","","","","","","","","","","","","","","","",""
"null","","image-button-response","162","1535788","0.0-161.0","ARM9RPY5V2V5S","img_art/18.jpg","null","","","","","","","","","","","","","","","","","","","","","","","","",""
"3474","","image-button-response","163","1539266","0.0-162.0","ARM9RPY5V2V5S","img_art/18.jpg","5","","","","","","","","","","","","","","","","","","","","","","","","",""
"5509","","image-button-response","164","1544778","0.0-163.0-0.0","ARM9RPY5V2V5S","img_art/18.jpg","0","","","","","","","","","","","","","","","","","","","","","","","","",""
"2006","","image-button-response","165","1546788","0.0-164.0-0.0","ARM9RPY5V2V5S","img_art/18.jpg","4","","","","","","","","","","","","","","","","","","","","","","","","",""
"null","","html-keyboard-response","166","1547793","0.0-165.0","ARM9RPY5V2V5S","<p style=""font-size: 48px;"">+</p>","","","","","null","allTrialResponses","1000","1","17","img_art/18.jpg","21","It is very abstract that the more you look at it, the more you see. ","Alexis,Vanessa,Monica,Jordan,Jasmine,Alyssa","Crusade-feel, but a little too abstract for my taste,23,100,20","Again, this is too abtract.,-25,380,20","It doesn't look like much, the colors are dark and it doesn't really make me feel anything.,-2,360,20","Oh heck yes! I see two warriors riding down from valhalla, awesome painting,50,20,20","I feel indifferent about this one,0,340,20","There are alot of elements to this painting and a good mix of colors,32,160,20","Alyssa","There are alot of elements to this painting and a good mix of colors,32,160,20","Alexis","Crusade-feel, but a little too abstract for my taste,23,100,20","Jasmine","I feel indifferent about this one,0,340,20","2"
"8696","","survey-text","167","1556495","0.0-166.0-0.0","ARM9RPY5V2V5S","","","","{""Q0"":""Looks like mud""}","","","","","","","","","","","","","","","","","","","","","","",""
"5036","","image-slider-response","168","1561533","0.0-167.0","ARM9RPY5V2V5S","","","","","-9","","","","","","","","","","","","","","","","","","","","","",""
"null","","image-button-response","169","1566538","0.0-168.0","ARM9RPY5V2V5S","img_art/7.jpg","null","","","","","","","","","","","","","","","","","","","","","","","","",""
"376","","image-button-response","170","1566916","0.0-169.0","ARM9RPY5V2V5S","img_art/7.jpg","5","","","","","","","","","","","","","","","","","","","","","","","","",""
"1700","","image-button-response","171","1568619","0.0-170.0-0.0","ARM9RPY5V2V5S","img_art/7.jpg","4","","","","","","","","","","","","","","","","","","","","","","","","",""
"3231","","image-button-response","172","1571854","0.0-171.0-0.0","ARM9RPY5V2V5S","img_art/7.jpg","3","","","","","","","","","","","","","","","","","","","","","","","","",""
"null","","html-keyboard-response","173","1572356","0.0-172.0","ARM9RPY5V2V5S","<p style=""font-size: 48px;"">+</p>","","","","","null","allTrialResponses","500","1","18","img_art/7.jpg","-9","Looks like mud","Alexis,Sophia,Sara,Mary,Jasmine,Alyssa","Looks like bad wallpaper,-29,100,20","Is this cookie dough?  Yum!,-10,280,20","It feels cold and hard,-40,160,20","This reminds me of a close up photo of a stone wall.,-19,180,20","It just reminds me of dirt,-10,340,20","It looks like someone took a picture of a muddy ground and called it art.,-41,160,20","Alyssa","It looks like someone took a picture of a muddy ground and called it art.,-41,160,20","Jasmine","It just reminds me of dirt,-10,340,20","Mary","This reminds me of a close up photo of a stone wall.,-19,180,20","2"
"15183","","survey-text","174","1587545","0.0-173.0-0.0","ARM9RPY5V2V5S","","","","{""Q0"":""This looks like a tree""}","","","","","","","","","","","","","","","","","","","","","","",""
"5958.9000000003725","","image-slider-response","175","1593506","0.0-174.0","ARM9RPY5V2V5S","","","","","3","","","","","","","","","","","","","","","","","","","","","",""
"4222","","image-button-response","176","1598509","0.0-175.0","ARM9RPY5V2V5S","img_art/14.jpg","1","","","","","","","","","","","","","","","","","","","","","","","","",""
"2902","","image-button-response","177","1601414","0.0-176.0","ARM9RPY5V2V5S","img_art/14.jpg","1","","","","","","","","","","","","","","","","","","","","","","","","",""
"3471","","image-button-response","178","1604888","0.0-177.0-0.0","ARM9RPY5V2V5S","img_art/14.jpg","4","","","","","","","","","","","","","","","","","","","","","","","","",""
"6506","","image-button-response","179","1611398","0.0-178.0-0.0","ARM9RPY5V2V5S","img_art/14.jpg","3","","","","","","","","","","","","","","","","","","","","","","","","",""
"null","","html-keyboard-response","180","1612901","0.0-179.0","ARM9RPY5V2V5S","<p style=""font-size: 48px;"">+</p>","","","","","null","allTrialResponses","1500","1","19","img_art/14.jpg","3","This looks like a tree","Caitlin,Anna,Elizabeth,Mary,Jasmine,Alyssa","Are they blowing up a tree?,-5,80,20","It reminds me of a tree in the desert.,15,300,20","Love the abstractness of this painting,39,20,20","I like the layers of color in this piece. The circles and lines are interesting.,29,180,20","The colors are nice and it reminds me of a shrub or tree,10,340,20","Beautiful tree,the use of water colors makes it soothing to look at,37,160,20","Anna","It reminds me of a tree in the desert.,15,300,20","Jasmine","The colors are nice and it reminds me of a shrub or tree,10,340,20","Mary","I like the layers of color in this piece. The circles and lines are interesting.,29,180,20","2"
"15548","","survey-text","181","1628455","0.0-180.0-0.0","ARM9RPY5V2V5S","","","","{""Q0"":""This is cute. It looks like a mouse""}","","","","","","","","","","","","","","","","","","","","","","",""
"2977.600000000559","","image-slider-response","182","1631435","0.0-181.0","ARM9RPY5V2V5S","","","","","8","","","","","","","","","","","","","","","","","","","","","",""
"null","","image-button-response","183","1636443","0.0-182.0","ARM9RPY5V2V5S","img_art/28.jpg","null","","","","","","","","","","","","","","","","","","","","","","","","",""
"7322","","image-button-response","184","1643767","0.0-183.0","ARM9RPY5V2V5S","img_art/28.jpg","5","","","","","","","","","","","","","","","","","","","","","","","","",""
"994","","image-button-response","185","1644765","0.0-184.0-0.0","ARM9RPY5V2V5S","img_art/28.jpg","4","","","","","","","","","","","","","","","","","","","","","","","","",""
"4100","","image-button-response","186","1648868","0.0-185.0-0.0","ARM9RPY5V2V5S","img_art/28.jpg","0","","","","","","","","","","","","","","","","","","","","","","","","",""
"null","","html-keyboard-response","187","1649871","0.0-186.0","ARM9RPY5V2V5S","<p style=""font-size: 48px;"">+</p>","","","","","null","allTrialResponses","1000","1","20","img_art/28.jpg","8","This is cute. It looks like a mouse","Brianna,Anna,Angela,Mary,Jasmine,Courtney","My grandparents would like this, maybe my great grandparents. It's not my style.,-30,20,20","It's drab and looks like stereotypical abstract art.,-30,300,20","This reminds me of internal organs.,-10,260,20","The colors are really ugly. They do not compliment each other well.,-45,180,20","Colors too dull for me,-10,340,20","Looks like some guys in s band playing at a busy park.,18,280,20","Courtney","Looks like some guys in s band playing at a busy park.,18,280,20","Jasmine","Colors too dull for me,-10,340,20","Brianna","My grandparents would like this, maybe my great grandparents. It's not my style.,-30,20,20","2"
"2713","","survey-text","188","1652595","0.0-187.0-0.0","ARM9RPY5V2V5S","","","","{""Q0"":""we""}","","","","","","","","","","","","","","","","","","","","","","",""
"44533","","survey-text","189","1697130","0.0-188.0-0.0","ARM9RPY5V2V5S","","","","{""Q0"":""This looks fun with the bright colors in the background. The front looks like a line dance, Its a big party.""}","","","","","","","","","","","","","","","","","","","","","","",""
"2640.4000000003725","","image-slider-response","190","1699773","0.0-189.0","ARM9RPY5V2V5S","","","","","40","","","","","","","","","","","","","","","","","","","","","",""
"4090","","image-button-response","191","1704780","0.0-190.0","ARM9RPY5V2V5S","img_art/23.jpg","2","","","","","","","","","","","","","","","","","","","","","","","","",""
"5924","","image-button-response","192","1710707","0.0-191.0","ARM9RPY5V2V5S","img_art/23.jpg","0","","","","","","","","","","","","","","","","","","","","","","","","",""
"1002","","image-button-response","193","1711712","0.0-192.0-0.0","ARM9RPY5V2V5S","img_art/23.jpg","2","","","","","","","","","","","","","","","","","","","","","","","","",""
"2058","","image-button-response","194","1713774","0.0-193.0-0.0","ARM9RPY5V2V5S","img_art/23.jpg","3","","","","","","","","","","","","","","","","","","","","","","","","",""
"null","","html-keyboard-response","195","1715279","0.0-194.0","ARM9RPY5V2V5S","<p style=""font-size: 48px;"">+</p>","","","","","null","allTrialResponses","1500","1","21","img_art/23.jpg","40","This looks fun with the bright colors in the background. The front looks like a line dance, Its a big party.","Brianna,Chloe,Alexandra,Katherine,Jasmine,Courtney","I love the rainbow!,12,20,20","Poster shop camp.,-40,220,20","This is my favorite of them all. I love the colors.,41,60,20","This one is awesome, kinda looks like a cake with sprinkles but in a different universe,50,120,20","Mostly neutral but a bit too guady with the brash colors,-6,340,20","Looks like fish fossils,12,280,20","Brianna","I love the rainbow!,12,20,20","Alexandra","This is my favorite of them all. I love the colors.,41,60,20","Katherine","This one is awesome, kinda looks like a cake with sprinkles but in a different universe,50,120,20","2"
"50094","","survey-text","196","1765381","0.0-195.0-0.0","ARM9RPY5V2V5S","","","","{""Q0"":""this feels like when youre too much in you head and you try to get yourself out of overthinking""}","","","","","","","","","","","","","","","","","","","","","","",""
"2584.7000000001863","","image-slider-response","197","1767968","0.0-196.0","ARM9RPY5V2V5S","","","","","30","","","","","","","","","","","","","","","","","","","","","",""
"null","","image-button-response","198","1772973","0.0-197.0","ARM9RPY5V2V5S","img_art/15.jpg","null","","","","","","","","","","","","","","","","","","","","","","","","",""
"2752","","image-button-response","199","1775728","0.0-198.0","ARM9RPY5V2V5S","img_art/15.jpg","4","","","","","","","","","","","","","","","","","","","","","","","","",""
"11996","","image-button-response","200","1787727","0.0-199.0-0.0","ARM9RPY5V2V5S","img_art/15.jpg","2","","","","","","","","","","","","","","","","","","","","","","","","",""
"1040","","image-button-response","201","1788771","0.0-200.0-0.0","ARM9RPY5V2V5S","img_art/15.jpg","5","","","","","","","","","","","","","","","","","","","","","","","","",""
"null","","html-keyboard-response","202","1790279","0.0-201.0","ARM9RPY5V2V5S","<p style=""font-size: 48px;"">+</p>","","","","","null","allTrialResponses","1500","1","22","img_art/15.jpg","30","this feels like when youre too much in you head and you try to get yourself out of overthinking","Brianna,Diana,Alexandra,Katherine,Maria,Michelle","No opinion truthfully,1,20,20","There should be more space between the black marks. The black comes off harsh and the blue between the trees can barely be seen.,-21,380,20","This is sort of ugly, but I do like the design.,10,60,20","black dots too ant-like,-25,120,20","i enjoy its apaprent simplicity (of colour and shape),32,120,20","Interesting to look at but I don't appreciate the abstraction,2,280,20","Maria","i enjoy its apaprent simplicity (of colour and shape),32,120,20","Alexandra","This is sort of ugly, but I do like the design.,10,60,20","Michelle","Interesting to look at but I don't appreciate the abstraction,2,280,20","2"
"13678","","survey-text","203","1803964","0.0-202.0-0.0","ARM9RPY5V2V5S","","","","{""Q0"":""This looks like poop""}","","","","","","","","","","","","","","","","","","","","","","",""
"3387.2999999998137","","image-slider-response","204","1807353","0.0-203.0","ARM9RPY5V2V5S","","","","","-50","","","","","","","","","","","","","","","","","","","","","",""
"null","","image-button-response","205","1812361","0.0-204.0","ARM9RPY5V2V5S","img_art/4.jpg","null","","","","","","","","","","","","","","","","","","","","","","","","",""
"524","","image-button-response","206","1812888","0.0-205.0","ARM9RPY5V2V5S","img_art/4.jpg","5","","","","","","","","","","","","","","","","","","","","","","","","",""
"2498","","image-button-response","207","1815388","0.0-206.0-0.0","ARM9RPY5V2V5S","img_art/4.jpg","2","","","","","","","","","","","","","","","","","","","","","","","","",""
"7578","","image-button-response","208","1822969","0.0-207.0-0.0","ARM9RPY5V2V5S","img_art/4.jpg","3","","","","","","","","","","","","","","","","","","","","","","","","",""
"null","","html-keyboard-response","209","1823472","0.0-208.0","ARM9RPY5V2V5S","<p style=""font-size: 48px;"">+</p>","","","","","null","allTrialResponses","500","1","23","img_art/4.jpg","-50","This looks like poop","Natalie,Emma,Alexandra,Kimberly,Maria,Michelle","dont know what im looking at,1,400,20","Interesting but maybe a little creepy,0,60,20","This artwork looks like a child did it,-41,60,20","It's ok, theres nothing that draws me away from it I guess,0,260,20","no strong feelings about this one,2,120,20","Looks like more paint smearing but at least there is structure,-5,280,20","Michelle","Looks like more paint smearing but at least there is structure,-5,280,20","Alexandra","This artwork looks like a child did it,-41,60,20","Kimberly","It's ok, theres nothing that draws me away from it I guess,0,260,20","2"
"31471","","survey-text","210","1854950","0.0-209.0-0.0","ARM9RPY5V2V5S","","","","{""Q0"":""I like the bright yellow color and simple use of black and pink""}","","","","","","","","","","","","","","","","","","","","","","",""
"3329.7000000001863","","image-slider-response","211","1858282","0.0-210.0","ARM9RPY5V2V5S","","","","","20","","","","","","","","","","","","","","","","","","","","","",""
"null","","image-button-response","212","1863287","0.0-211.0","ARM9RPY5V2V5S","img_art/5.jpg","null","","","","","","","","","","","","","","","","","","","","","","","","",""
"2453","","image-button-response","213","1865744","0.0-212.0","ARM9RPY5V2V5S","img_art/5.jpg","3","","","","","","","","","","","","","","","","","","","","","","","","",""
"10257","","image-button-response","214","1876004","0.0-213.0-0.0","ARM9RPY5V2V5S","img_art/5.jpg","0","","","","","","","","","","","","","","","","","","","","","","","","",""
"3935","","image-button-response","215","1879942","0.0-214.0-0.0","ARM9RPY5V2V5S","img_art/5.jpg","4","","","","","","","","","","","","","","","","","","","","","","","","",""
"null","","html-keyboard-response","216","1881448","0.0-215.0","ARM9RPY5V2V5S","<p style=""font-size: 48px;"">+</p>","","","","","null","allTrialResponses","1500","1","24","img_art/5.jpg","20","I like the bright yellow color and simple use of black and pink","Kelly,Jamie,Alexandra,Kimberly,Kaitlyn,Michelle","It looks like daffy duck's leg with a random trail of pink.,-22,220,20","Don't really see it and yellow/pink don't go well together,-35,320,20","This looks like a twelve year old did it,-40,60,20","It feels positive and kind of uplifting,24,260,20","Wish the background had been kept clean; distracts from main object,11,80,20","What is this? It looks like no effort was put into this work,-2,280,20","Kimberly","It feels positive and kind of uplifting,24,260,20","Kelly","It looks like daffy duck's leg with a random trail of pink.,-22,220,20","Kaitlyn","Wish the background had been kept clean; distracts from main object,11,80,20","2"
"29076","","survey-text","217","1910532","0.0-216.0-0.0","ARM9RPY5V2V5S","","","","{""Q0"":""I like the patterns and pop of color""}","","","","","","","","","","","","","","","","","","","","","","",""
"3437.9000000003725","","image-slider-response","218","1913972","0.0-217.0","ARM9RPY5V2V5S","","","","","27","","","","","","","","","","","","","","","","","","","","","",""
"3875","","image-button-response","219","1918975","0.0-218.0","ARM9RPY5V2V5S","img_art/12.jpg","1","","","","","","","","","","","","","","","","","","","","","","","","",""
"2394","","image-button-response","220","1921371","0.0-219.0","ARM9RPY5V2V5S","img_art/12.jpg","4","","","","","","","","","","","","","","","","","","","","","","","","",""
"2203","","image-button-response","221","1923576","0.0-220.0-0.0","ARM9RPY5V2V5S","img_art/12.jpg","1","","","","","","","","","","","","","","","","","","","","","","","","",""
"583","","image-button-response","222","1924162","0.0-221.0-0.0","ARM9RPY5V2V5S","img_art/12.jpg","0","","","","","","","","","","","","","","","","","","","","","","","","",""
"null","","html-keyboard-response","223","1924665","0.0-222.0","ARM9RPY5V2V5S","<p style=""font-size: 48px;"">+</p>","","","","","null","allTrialResponses","500","1","25","img_art/12.jpg","27","I like the patterns and pop of color","Kelly,Rebecca,Paige,Kimberly,Kaitlyn,Alicia","It's pretty, I find it interesting to look at.,10,220,20","so many different available interpretations for this, would love to closer.,24,100,20","do not like it. Seems too busy,-10,60,20","Just not a fan, I can't figure out why,-17,260,20","The shapes present in the picture make it very interesting,17,80,20","it's ok, but blocky, looks old.,3,120,20","Kaitlyn","The shapes present in the picture make it very interesting,17,80,20","Rebecca","so many different available interpretations for this, would love to closer.,24,100,20","Kelly","It's pretty, I find it interesting to look at.,10,220,20","2"
"4144","","survey-text","224","1928822","0.0-223.0-0.0","ARM9RPY5V2V5S","","","","{""Q0"":""table""}","","","","","","","","","","","","","","","","","","","","","","",""
"24432","","survey-text","225","1953255","0.0-224.0-0.0","ARM9RPY5V2V5S","","","","{""Q0"":""i love this for the use of color. It looks like a tree""}","","","","","","","","","","","","","","","","","","","","","","",""
"2822","","image-slider-response","226","1956079","0.0-225.0","ARM9RPY5V2V5S","","","","","38","","","","","","","","","","","","","","","","","","","","","",""
"2974","","image-button-response","227","1961082","0.0-226.0","ARM9RPY5V2V5S","img_art/17.jpg","0","","","","","","","","","","","","","","","","","","","","","","","","",""
"1320","","image-button-response","228","1962406","0.0-227.0","ARM9RPY5V2V5S","img_art/17.jpg","4","","","","","","","","","","","","","","","","","","","","","","","","",""
"704","","image-button-response","229","1963112","0.0-228.0-0.0","ARM9RPY5V2V5S","img_art/17.jpg","5","","","","","","","","","","","","","","","","","","","","","","","","",""
"1288","","image-button-response","230","1964403","0.0-229.0-0.0","ARM9RPY5V2V5S","img_art/17.jpg","0","","","","","","","","","","","","","","","","","","","","","","","","",""
"null","","html-keyboard-response","231","1965405","0.0-230.0","ARM9RPY5V2V5S","<p style=""font-size: 48px;"">+</p>","","","","","null","allTrialResponses","1000","1","26","img_art/17.jpg","38","i love this for the use of color. It looks like a tree","Kelly,Rebecca,Laura,Brooke,Kaitlyn,Alexandria","I really like this, especially the tree.,23,220,20","tree sprouting out of a box (house) the invasion of nature?,39,100,20","home - reminds me of fond memories of the Barnes Museum courtyard (looks just like it),30,320,20","doorways and trees are pleasant,30,60,20","Very beautiful,19,80,20","it looks very intricate and colorful,50,80,20","Kaitlyn","Very beautiful,19,80,20","Alexandria","it looks very intricate and colorful,50,80,20","Kelly","I really like this, especially the tree.,23,220,20","2"
"33070","","survey-text","232","1998482","0.0-231.0-0.0","ARM9RPY5V2V5S","","","","{""Q0"":""Nice use of colors but makes me feel uneasy. It looks like a car wreck.""}","","","","","","","","","","","","","","","","","","","","","","",""
"4857.199999999255","","image-slider-response","233","2003341","0.0-232.0","ARM9RPY5V2V5S","","","","","-4","","","","","","","","","","","","","","","","","","","","","",""
"null","","image-button-response","234","2008347","0.0-233.0","ARM9RPY5V2V5S","img_art/20.jpg","null","","","","","","","","","","","","","","","","","","","","","","","","",""
"1039","","image-button-response","235","2009390","0.0-234.0","ARM9RPY5V2V5S","img_art/20.jpg","5","","","","","","","","","","","","","","","","","","","","","","","","",""
"13139","","image-button-response","236","2022532","0.0-235.0-0.0","ARM9RPY5V2V5S","img_art/20.jpg","2","","","","","","","","","","","","","","","","","","","","","","","","",""
"1692","","image-button-response","237","2024227","0.0-236.0-0.0","ARM9RPY5V2V5S","img_art/20.jpg","1","","","","","","","","","","","","","","","","","","","","","","","","",""
"null","","html-keyboard-response","238","2025734","0.0-237.0","ARM9RPY5V2V5S","<p style=""font-size: 48px;"">+</p>","","","","","null","allTrialResponses","1500","1","27","img_art/20.jpg","-4","Nice use of colors but makes me feel uneasy. It looks like a car wreck.","Kelly,Erika,Miranda,Catherine,Kaitlyn,Alexandria","I want to like this more, but i wish it was more detailed. It's hard for me to see what it is.,5,220,20","The artist had very strong feelings, bold colors,28,100,20","A painting within a painting, the inner painting looks like a car crash with a semi truck.,21,320,20","Interesting. Empty place, wondering what happened, leaving what you used to know.,10,160,20","The picture looks smudged and dirty,-4,80,20","it looks like a car crash which is depressing,-19,80,20","Alexandria","it looks like a car crash which is depressing,-19,80,20","Miranda","A painting within a painting, the inner painting looks like a car crash with a semi truck.,21,320,20","Erika","The artist had very strong feelings, bold colors,28,100,20","2"
"13739","","survey-text","239","2039480","0.0-238.0-0.0","ARM9RPY5V2V5S","","","","{""Q0"":""This looks like a dream world""}","","","","","","","","","","","","","","","","","","","","","","",""
"2943.300000000745","","image-slider-response","240","2042426","0.0-239.0","ARM9RPY5V2V5S","","","","","27","","","","","","","","","","","","","","","","","","","","","",""
"2487","","image-button-response","241","2047429","0.0-240.0","ARM9RPY5V2V5S","img_art/8.jpg","0","","","","","","","","","","","","","","","","","","","","","","","","",""
"3954","","image-button-response","242","2051386","0.0-241.0","ARM9RPY5V2V5S","img_art/8.jpg","0","","","","","","","","","","","","","","","","","","","","","","","","",""
"3498","","image-button-response","243","2054888","0.0-242.0-0.0","ARM9RPY5V2V5S","img_art/8.jpg","2","","","","","","","","","","","","","","","","","","","","","","","","",""
"1239","","image-button-response","244","2056130","0.0-243.0-0.0","ARM9RPY5V2V5S","img_art/8.jpg","5","","","","","","","","","","","","","","","","","","","","","","","","",""
"null","","html-keyboard-response","245","2057132","0.0-244.0","ARM9RPY5V2V5S","<p style=""font-size: 48px;"">+</p>","","","","","null","allTrialResponses","1000","1","28","img_art/8.jpg","27","This looks like a dream world","Gabrielle,Erika,Miranda,Autumn,Isabella,Alexandria","lots going on with great use of lots of color and geometry,24,160,20","Striking, but not my taste,20,100,20","I like this, the longer I look at in the more details I see.,41,320,20","Well painted. Not my style.,27,340,20","Ancient city looked after by diety,38,280,20","It is very colorful with a deeper meaning,25,80,20","Gabrielle","lots going on with great use of lots of color and geometry,24,160,20","Miranda","I like this, the longer I look at in the more details I see.,41,320,20","Alexandria","It is very colorful with a deeper meaning,25,80,20","2"
"12495","","survey-text","246","2069636","0.0-245.0-0.0","ARM9RPY5V2V5S","","","","{""Q0"":""it looks like a bird.""}","","","","","","","","","","","","","","","","","","","","","","",""
"2115.9000000003725","","image-slider-response","247","2071754","0.0-246.0","ARM9RPY5V2V5S","","","","","-6","","","","","","","","","","","","","","","","","","","","","",""
"4158","","image-button-response","248","2076758","0.0-247.0","ARM9RPY5V2V5S","img_art/6.jpg","0","","","","","","","","","","","","","","","","","","","","","","","","",""
"1204","","image-button-response","249","2077966","0.0-248.0","ARM9RPY5V2V5S","img_art/6.jpg","4","","","","","","","","","","","","","","","","","","","","","","","","",""
"1031","","image-button-response","250","2078999","0.0-249.0-0.0","ARM9RPY5V2V5S","img_art/6.jpg","0","","","","","","","","","","","","","","","","","","","","","","","","",""
"2039","","image-button-response","251","2081041","0.0-250.0-0.0","ARM9RPY5V2V5S","img_art/6.jpg","5","","","","","","","","","","","","","","","","","","","","","","","","",""
"null","","html-keyboard-response","252","2082048","0.0-251.0","ARM9RPY5V2V5S","<p style=""font-size: 48px;"">+</p>","","","","","null","allTrialResponses","1000","1","29","img_art/6.jpg","-6","it looks like a bird.","Gabrielle,Dominique,Miranda,Heather,Cassandra,Alexandria","simplistic but reminds me of a crow in a field,-10,160,20","Calm and catching,30,400,20","It's slightly unnerving to look at, it looks a little creepy/eerie,-16,320,20","it looks like a stick holding a wig on a cliff,21,260,20","No feeling...just left me feeling kind of blah,1,120,20","i like it but it is very neutral,9,80,20","Cassandra","No feeling...just left me feeling kind of blah,1,120,20","Gabrielle","simplistic but reminds me of a crow in a field,-10,160,20","Alexandria","i like it but it is very neutral,9,80,20","2"
"13024","","survey-text","253","2095079","0.0-252.0-0.0","ARM9RPY5V2V5S","","","","{""Q0"":""Somewhat peaceful""}","","","","","","","","","","","","","","","","","","","","","","",""
"2855.100000000559","","image-slider-response","254","2097937","0.0-253.0","ARM9RPY5V2V5S","","","","","4","","","","","","","","","","","","","","","","","","","","","",""
"3141","","image-button-response","255","2102944","0.0-254.0","ARM9RPY5V2V5S","img_art/19.jpg","0","","","","","","","","","","","","","","","","","","","","","","","","",""
"904","","image-button-response","256","2103851","0.0-255.0","ARM9RPY5V2V5S","img_art/19.jpg","4","","","","","","","","","","","","","","","","","","","","","","","","",""
"3253","","image-button-response","257","2107107","0.0-256.0-0.0","ARM9RPY5V2V5S","img_art/19.jpg","5","","","","","","","","","","","","","","","","","","","","","","","","",""
"1044","","image-button-response","258","2108155","0.0-257.0-0.0","ARM9RPY5V2V5S","img_art/19.jpg","0","","","","","","","","","","","","","","","","","","","","","","","","",""
"null","","html-keyboard-response","259","2109162","0.0-258.0","ARM9RPY5V2V5S","<p style=""font-size: 48px;"">+</p>","","","","","null","allTrialResponses","1000","1","30","img_art/19.jpg","4","Somewhat peaceful","Gabrielle,Mikayla,Taylor,Kaylee,Cassandra,Alexandria","not professional looking but not bad either,13,160,20","Very pretty and colorful.,23,300,20","It reminds me of sitting at a cafe on the side of a river.,45,340,20","beautiful old town,37,200,20","Nuetral...can't think of anything to say,4,120,20","it draws my eye and my mind fills in the spaces,14,80,20","Cassandra","Nuetral...can't think of anything to say,4,120,20","Alexandria","it draws my eye and my mind fills in the spaces,14,80,20","Gabrielle","not professional looking but not bad either,13,160,20","2"
"2645","","image-button-response_instructions","260","2111814","0.0-259.0","ARM9RPY5V2V5S","","0","instructions","","","","","","","","","","","","","","","","","","","","","","","",""
"1231","","image-button-response","261","2113054","0.0-260.0","ARM9RPY5V2V5S","","0","","","","","","","","","","","","","","","","","","","","","","","","",""
