"rt","url","trial_type","trial_index","time_elapsed","internal_node_id","participant_id","stimulus","button_pressed","Name","responses","response","key_press","variableName","fixationTime","condition","trial","photo","subjectRating","subjectResponse","agentsNames","agent_1_Response","agent_2_Response","agent_3_Response","agent_4_Response","agent_5_Response","agent_6_Response","kept_1_name","kept_1_response","kept_2_name","kept_2_response","kept_3_name","kept_3_response","errorCounter"
"10154","external_page_harvard.html","external-html","0","10294","0.0-0.0","ARQ7R97434PM2","","","","","","","","","","","","","","","","","","","","","","","","","","",""
"1485","","image-button-response","1","11788","0.0-1.0","ARQ7R97434PM2","","0","","","","","","","","","","","","","","","","","","","","","","","","",""
"2236","","image-button-response","2","14043","0.0-2.0-0.0","ARQ7R97434PM2","","1","phone","","","","","","","","","","","","","","","","","","","","","","","",""
"10852","","survey-text","3","24899","0.0-3.0-0.0","ARQ7R97434PM2","","","","{""Q0"":""ARQ7R97434PM2""}","","","","","","","","","","","","","","","","","","","","","","",""
"2506","","image-button-response_instructions","4","27411","0.0-4.0","ARQ7R97434PM2","","0","instructions","","","","","","","","","","","","","","","","","","","","","","","",""
"7731","","image-button-response_instructions","5","35147","0.0-5.0","ARQ7R97434PM2","img_art/ins/popularity/ins1.png","0","instructions","","","","","","","","","","","","","","","","","","","","","","","",""
"4533","","image-button-response_instructions","6","39683","0.0-6.0","ARQ7R97434PM2","img_art/ins/popularity/ins2.png","0","instructions","","","","","","","","","","","","","","","","","","","","","","","",""
"18363","","image-button-response_instructions","7","58050","0.0-7.0","ARQ7R97434PM2","img_art/ins/popularity/ins2Extreme.png","0","instructions","","","","","","","","","","","","","","","","","","","","","","","",""
"3927","","image-button-response_instructions","8","61981","0.0-8.0","ARQ7R97434PM2","img_art/ins/popularity/ins3KEEPpop.PNG","0","instructions","","","","","","","","","","","","","","","","","","","","","","","",""
"1874","","image-button-response_instructions","9","63859","0.0-9.0","ARQ7R97434PM2","img_art/ins/popularity/ins3ANamepop.PNG","0","instructions","","","","","","","","","","","","","","","","","","","","","","","",""
"2781","","image-button-response_instructions","10","66644","0.0-10.0","ARQ7R97434PM2","img_art/ins/popularity/ins3ARatingpop.png","0","instructions","","","","","","","","","","","","","","","","","","","","","","","",""
"1524","","image-button-response_instructions","11","68172","0.0-11.0","ARQ7R97434PM2","img_art/ins/popularity/ins3ATextpop.png","0","instructions","","","","","","","","","","","","","","","","","","","","","","","",""
"1945","","image-button-response_instructions","12","70124","0.0-12.0","ARQ7R97434PM2","img_art/ins/popularity/ins3ALikespop.png","0","instructions","","","","","","","","","","","","","","","","","","","","","","","",""
"3586","","image-button-response_instructions","13","73716","0.0-13.0","ARQ7R97434PM2","img_art/ins/popularity/ins3KEEPpop.PNG","0","instructions","","","","","","","","","","","","","","","","","","","","","","","",""
"1898","","image-button-response_instructions","14","75620","0.0-14.0","ARQ7R97434PM2","img_art/ins/popularity/ins3_5RED.png","0","instructions","","","","","","","","","","","","","","","","","","","","","","","",""
"2681","","image-button-response_instructions","15","78307","0.0-15.0","ARQ7R97434PM2","img_art/ins/popularity/ins3KEEPpop.PNG","0","instructions","","","","","","","","","","","","","","","","","","","","","","","",""
"1900","","image-button-response_instructions","16","80211","0.0-16.0","ARQ7R97434PM2","img_art/ins/popularity/ins4KEEPpop.PNG","0","instructions","","","","","","","","","","","","","","","","","","","","","","","",""
"1348","","image-button-response_instructions","17","81563","0.0-17.0","ARQ7R97434PM2","img_art/ins/popularity/ins5KEEPpop.PNG","0","instructions","","","","","","","","","","","","","","","","","","","","","","","",""
"1487","","image-button-response_instructions","18","83053","0.0-18.0","ARQ7R97434PM2","","0","instructions","","","","","","","","","","","","","","","","","","","","","","","",""
"5108","","survey-text","19","88243","0.0-19.0-0.0","ARQ7R97434PM2","","","","{""Q0"":""but""}","","","","","","","","","","","","","","","","","","","","","","",""
"6852","","survey-text","20","95100","0.0-20.0-0.0","ARQ7R97434PM2","","","","{""Q0"":""nice""}","","","","","","","","","","","","","","","","","","","","","","",""
"6633","","survey-text","21","103395","0.0-20.1-0.1","ARQ7R97434PM2","","","","{""Q0"":""it looks awesome""}","","","","","","","","","","","","","","","","","","","","","","",""
"5789","","image-slider-response","22","109195","0.0-21.0","ARQ7R97434PM2","","","","","26","","","","","","","","","","","","","","","","","","","","","",""
"4136","","image-button-response","23","114203","0.0-22.0","ARQ7R97434PM2","img_art/ins/1.jpg","5","","","","","","","","","","","","","","","","","","","","","","","","",""
"1363","","image-button-response","24","115571","0.0-23.0","ARQ7R97434PM2","img_art/ins/1.jpg","4","","","","","","","","","","","","","","","","","","","","","","","","",""
"2084","","image-button-response","25","117660","0.0-24.0-0.0","ARQ7R97434PM2","img_art/ins/1.jpg","3","","","","","","","","","","","","","","","","","","","","","","","","",""
"1057","","image-button-response","26","118723","0.0-25.0-0.0","ARQ7R97434PM2","img_art/ins/1.jpg","1","","","","","","","","","","","","","","","","","","","","","","","","",""
"null","","html-keyboard-response","27","120233","0.0-26.0","ARQ7R97434PM2","<p style=""font-size: 48px;"">+</p>","","","","","null","allTrialResponses","1500","1","-2","img_art/ins/1.jpg","26","it looks awesome","Adam,Alex,Ben,Carl,Daniel,Jack","Seems like doodles,-20,20,20","very creative work.,36,40,20","This color reminds me of poo,-46,60,20","very calming artwork,42,80,20","It looks like a murder scene.,-48,100,20","I like the sophisticated brushwork,40,120,20","Daniel","It looks like a murder scene.,-48,100,20","Carl","very calming artwork,42,80,20","Alex","very creative work.,36,40,20","0"
"12260","","survey-text","28","132524","0.0-27.0-0.0","ARQ7R97434PM2","","","","{""Q0"":""That looks amazing!""}","","","","","","","","","","","","","","","","","","","","","","",""
"3847","","image-slider-response","29","136381","0.0-28.0","ARQ7R97434PM2","","","","","38","","","","","","","","","","","","","","","","","","","","","",""
"1365","","image-button-response","30","141392","0.0-29.0","ARQ7R97434PM2","img_art/ins/2.jpg","4","","","","","","","","","","","","","","","","","","","","","","","","",""
"625","","image-button-response","31","142020","0.0-30.0","ARQ7R97434PM2","img_art/ins/2.jpg","5","","","","","","","","","","","","","","","","","","","","","","","","",""
"946","","image-button-response","32","142972","0.0-31.0-0.0","ARQ7R97434PM2","img_art/ins/2.jpg","2","","","","","","","","","","","","","","","","","","","","","","","","",""
"923","","image-button-response","33","143900","0.0-32.0-0.0","ARQ7R97434PM2","img_art/ins/2.jpg","0","","","","","","","","","","","","","","","","","","","","","","","","",""
"null","","html-keyboard-response","34","144408","0.0-33.0","ARQ7R97434PM2","<p style=""font-size: 48px;"">+</p>","","","","","null","allTrialResponses","500","1","-1","img_art/ins/2.jpg","38","That looks amazing!","James,Alex,John,Carl,Daniel,Kyle","looks too angry,-50,140,20","I like the blocks of color arrangements,30,40,20","love the texture of paint,48,160,20","I can feel the artist's passion in it,45,80,20","One of my pet peevs,-48,100,20","Idk, it is just annoying,-32,180,20","Kyle","Idk, it is just annoying,-32,180,20","John","love the texture of paint,48,160,20","James","looks too angry,-50,140,20","0"
"2485","","survey-text","35","146931","0.0-34.0-0.0","ARQ7R97434PM2","","","","{""Q0"":""That looks amazing!""}","","","","","","","","","","","","","","","","","","","","","","",""
"3194","","image-slider-response","36","150131","0.0-35.0","ARQ7R97434PM2","","","","","44","","","","","","","","","","","","","","","","","","","","","",""
"3740","","image-button-response","37","155137","0.0-36.0","ARQ7R97434PM2","img_art/ins/3.jpg","3","","","","","","","","","","","","","","","","","","","","","","","","",""
"606","","image-button-response","38","155749","0.0-37.0","ARQ7R97434PM2","img_art/ins/3.jpg","0","","","","","","","","","","","","","","","","","","","","","","","","",""
"547","","image-button-response","39","156300","0.0-38.0-0.0","ARQ7R97434PM2","img_art/ins/3.jpg","1","","","","","","","","","","","","","","","","","","","","","","","","",""
"668","","image-button-response","40","156972","0.0-39.0-0.0","ARQ7R97434PM2","img_art/ins/3.jpg","2","","","","","","","","","","","","","","","","","","","","","","","","",""
"null","","html-keyboard-response","41","157475","0.0-40.0","ARQ7R97434PM2","<p style=""font-size: 48px;"">+</p>","","","","","null","allTrialResponses","500","1","0","img_art/ins/3.jpg","44","That looks amazing!","James,Sam,John,Mike,Ron,Kyle","My worst nightmare,-42,140,20","I can feel a rainy day from this painting,18,240,20","I like the overlapping of brushes,41,160,20","enjoy the different shades of blue,22,200,20","It looks depressing,-26,220,20","It looks like a playground for bats,-36,180,20","James","My worst nightmare,-42,140,20","Sam","I can feel a rainy day from this painting,18,240,20","John","I like the overlapping of brushes,41,160,20","0"
"5314","","image-button-response_instructions","42","162811","0.0-41.0","ARQ7R97434PM2","","0","instructions","","","","","","","","","","","","","","","","","","","","","","","",""
"11313","","survey-likert","43","174129","0.0-42.0-0.0","ARQ7R97434PM2","","","","{""Q0"":"""",""Q1"":0,""Q2"":1}","","","","","","","","","","","","","","","","","","","","","","",""
"4973","","survey-text","44","179115","0.0-43.0-0.0","ARQ7R97434PM2","","","","{""Q0"":""rock""}","","","","","","","","","","","","","","","","","","","","","","",""
"4140","","survey-text","45","183259","0.0-44.0-0.0","ARQ7R97434PM2","","","","{""Q0"":""That looks amazing!""}","","","","","","","","","","","","","","","","","","","","","","",""
"3066","","image-slider-response","46","186331","0.0-45.0","ARQ7R97434PM2","","","","","38","","","","","","","","","","","","","","","","","","","","","",""
"1160","","image-button-response","47","191376","0.0-46.0","ARQ7R97434PM2","img_art/18.jpg","4","","","","","","","","","","","","","","","","","","","","","","","","",""
"1233","","image-button-response","48","192622","0.0-47.0","ARQ7R97434PM2","img_art/18.jpg","3","","","","","","","","","","","","","","","","","","","","","","","","",""
"1273","","image-button-response","49","193899","0.0-48.0-0.0","ARQ7R97434PM2","img_art/18.jpg","1","","","","","","","","","","","","","","","","","","","","","","","","",""
"9868","","image-button-response","50","203773","0.0-49.0-0.0","ARQ7R97434PM2","img_art/18.jpg","4","","","","","","","","","","","","","","","","","","","","","","","","",""
"null","","html-keyboard-response","51","204283","0.0-50.0","ARQ7R97434PM2","<p style=""font-size: 48px;"">+</p>","","","","","null","allTrialResponses","500","1","1","img_art/18.jpg","38","That looks amazing!","Adam,Jack,Derek,David,Dylan,Alexander","Colors are okay. Reminds me of cavalry.,10,40,20","hauntingly beautiful. more things revealed the longer you look. love the spirit-like figure in the top left.,47,320,20","Very wild and abstract. I love it and would definitely hang this up in my home,50,360,20","I like how the image gives off an impression of bravery.,25,340,20","Ugly, too much is going on,-40,40,20","Ghostly sea adventure.,20,120,20","David","I like how the image gives off an impression of bravery.,25,340,20","Jack","hauntingly beautiful. more things revealed the longer you look. love the spirit-like figure in the top left.,47,320,20","Dylan","Ugly, too much is going on,-40,40,20","0"
"18156","","survey-text","52","222475","0.0-51.0-0.0","ARQ7R97434PM2","","","","{""Q0"":""That looks amazing!""}","","","","","","","","","","","","","","","","","","","","","","",""
"3091","","image-slider-response","53","225573","0.0-52.0","ARQ7R97434PM2","","","","","40","","","","","","","","","","","","","","","","","","","","","",""
"2177","","image-button-response","54","230580","0.0-53.0","ARQ7R97434PM2","img_art/5.jpg","4","","","","","","","","","","","","","","","","","","","","","","","","",""
"585","","image-button-response","55","231171","0.0-54.0","ARQ7R97434PM2","img_art/5.jpg","3","","","","","","","","","","","","","","","","","","","","","","","","",""
"444","","image-button-response","56","231620","0.0-55.0-0.0","ARQ7R97434PM2","img_art/5.jpg","4","","","","","","","","","","","","","","","","","","","","","","","","",""
"427","","image-button-response","57","232052","0.0-56.0-0.0","ARQ7R97434PM2","img_art/5.jpg","5","","","","","","","","","","","","","","","","","","","","","","","","",""
"null","","html-keyboard-response","58","232559","0.0-57.0","ARQ7R97434PM2","<p style=""font-size: 48px;"">+</p>","","","","","null","allTrialResponses","500","1","2","img_art/5.jpg","40","That looks amazing!","Jesus,Jack,Dustin,David,Dylan,Ryan","Overpowering colors.,-26,100,20","it's okay. the colors are eye catching, but that's about it.,3,320,20","I don't get it at all. But, maybe it is the top portion of a piece of fruit.,-50,20,20","I like the simplicity of the design, but I can't tell what the image is trying to depict.,10,340,20","This looks like a twelve year old did it,-40,40,20","Very good color coordination,41,380,20","David","I like the simplicity of the design, but I can't tell what the image is trying to depict.,10,340,20","Dylan","This looks like a twelve year old did it,-40,40,20","Ryan","Very good color coordination,41,380,20","0"
"2978","","survey-text","59","235563","0.0-58.0-0.0","ARQ7R97434PM2","","","","{""Q0"":""That looks amazing!""}","","","","","","","","","","","","","","","","","","","","","","",""
"2771","","image-slider-response","60","238340","0.0-59.0","ARQ7R97434PM2","","","","","39","","","","","","","","","","","","","","","","","","","","","",""
"1242","","image-button-response","61","243346","0.0-60.0","ARQ7R97434PM2","img_art/16.jpg","4","","","","","","","","","","","","","","","","","","","","","","","","",""
"13308","","image-button-response","62","256660","0.0-61.0","ARQ7R97434PM2","img_art/16.jpg","4","","","","","","","","","","","","","","","","","","","","","","","","",""
"427","","image-button-response","63","257091","0.0-62.0-0.0","ARQ7R97434PM2","img_art/16.jpg","5","","","","","","","","","","","","","","","","","","","","","","","","",""
"580","","image-button-response","64","257676","0.0-63.0-0.0","ARQ7R97434PM2","img_art/16.jpg","3","","","","","","","","","","","","","","","","","","","","","","","","",""
"null","","html-keyboard-response","65","258681","0.0-64.0","ARQ7R97434PM2","<p style=""font-size: 48px;"">+</p>","","","","","null","allTrialResponses","1000","1","3","img_art/16.jpg","39","That looks amazing!","Garrett,Richard,Jorge,David,Dylan,Ryan","I think this picture is weird and the colors are very boring.,-50,180,20","nonsense art, not really art,-44,340,20","Dreamy and chaotic,-9,180,20","The colored teddy bear clashes with the color scheme.,-20,340,20","This is weird and creepy.,-40,40,20","Very modern, reminds me of bansky,43,380,20","Dylan","This is weird and creepy.,-40,40,20","Ryan","Very modern, reminds me of bansky,43,380,20","David","The colored teddy bear clashes with the color scheme.,-20,340,20","0"
"27589","","survey-text","66","286294","0.0-65.0-0.0","ARQ7R97434PM2","","","","{""Q0"":""That looks amazing!""}","","","","","","","","","","","","","","","","","","","","","","",""
"5444","","image-slider-response","67","291747","0.0-66.0","ARQ7R97434PM2","","","","","22","","","","","","","","","","","","","","","","","","","","","",""
"1577","","image-button-response","68","296758","0.0-67.0","ARQ7R97434PM2","img_art/23.jpg","5","","","","","","","","","","","","","","","","","","","","","","","","",""
"9275","","image-button-response","69","306036","0.0-68.0","ARQ7R97434PM2","img_art/23.jpg","1","","","","","","","","","","","","","","","","","","","","","","","","",""
"602","","image-button-response","70","306643","0.0-69.0-0.0","ARQ7R97434PM2","img_art/23.jpg","0","","","","","","","","","","","","","","","","","","","","","","","","",""
"7964","","image-button-response","71","314613","0.0-70.0-0.0","ARQ7R97434PM2","img_art/23.jpg","4","","","","","","","","","","","","","","","","","","","","","","","","",""
"null","","html-keyboard-response","72","315119","0.0-71.0","ARQ7R97434PM2","<p style=""font-size: 48px;"">+</p>","","","","","null","allTrialResponses","500","1","4","img_art/23.jpg","22","That looks amazing!","Stephen,Dalton,Miguel,David,Dylan,Ryan","Solid colors but the white throws it off for me.,4,140,20","illegible wording with a graffiti background,1,300,20","Awesome abstraction love it.,30,160,20","I like the symmetrical design and how it portrays the liveliness of a musical environment.,30,340,20","This is my favorite of them all. I love the colors.,41,40,20","One of my favorites, love the colors and how the white looks like humans,50,380,20","Dalton","illegible wording with a graffiti background,1,300,20","Stephen","Solid colors but the white throws it off for me.,4,140,20","Dylan","This is my favorite of them all. I love the colors.,41,40,20","0"
"3854","","survey-text","73","319020","0.0-72.0-0.0","ARQ7R97434PM2","","","","{""Q0"":""That looks amazing!""}","","","","","","","","","","","","","","","","","","","","","","",""
"3450","","image-slider-response","74","322475","0.0-73.0","ARQ7R97434PM2","","","","","39","","","","","","","","","","","","","","","","","","","","","",""
"2755","","image-button-response","75","327483","0.0-74.0","ARQ7R97434PM2","img_art/28.jpg","4","","","","","","","","","","","","","","","","","","","","","","","","",""
"810","","image-button-response","76","328301","0.0-75.0","ARQ7R97434PM2","img_art/28.jpg","4","","","","","","","","","","","","","","","","","","","","","","","","",""
"426","","image-button-response","77","328733","0.0-76.0-0.0","ARQ7R97434PM2","img_art/28.jpg","5","","","","","","","","","","","","","","","","","","","","","","","","",""
"528","","image-button-response","78","329267","0.0-77.0-0.0","ARQ7R97434PM2","img_art/28.jpg","3","","","","","","","","","","","","","","","","","","","","","","","","",""
"null","","html-keyboard-response","79","329773","0.0-78.0","ARQ7R97434PM2","<p style=""font-size: 48px;"">+</p>","","","","","null","allTrialResponses","500","1","5","img_art/28.jpg","39","That looks amazing!","Stephen,Dalton,Corey,Nicholas,Dylan,Tyler","Good use of shapes.,7,140,20","not sure what i feel but it makes me feel uncomfortable,1,300,20","i like the neutral color pallette but i dont know what i am looking at,26,260,20","Interesting and weird. Perfect conversational piece,33,240,20","Boring, looks like it belongs in a coffee shop,-20,40,20","It's okay. There is harmony and balance.,11,320,20","Dylan","Boring, looks like it belongs in a coffee shop,-20,40,20","Tyler","It's okay. There is harmony and balance.,11,320,20","Nicholas","Interesting and weird. Perfect conversational piece,33,240,20","0"
"7908","","survey-text","80","337740","0.0-79.0-0.0","ARQ7R97434PM2","","","","{""Q0"":""sky""}","","","","","","","","","","","","","","","","","","","","","","",""
"21908","","survey-text","81","359651","0.0-80.0-0.0","ARQ7R97434PM2","","","","{""Q0"":""That looks amazing!""}","","","","","","","","","","","","","","","","","","","","","","",""
"6090","","image-slider-response","82","365747","0.0-81.0","ARQ7R97434PM2","","","","","35","","","","","","","","","","","","","","","","","","","","","",""
"971","","image-button-response","83","370755","0.0-82.0","ARQ7R97434PM2","img_art/12.jpg","4","","","","","","","","","","","","","","","","","","","","","","","","",""
"371","","image-button-response","84","371131","0.0-83.0","ARQ7R97434PM2","img_art/12.jpg","3","","","","","","","","","","","","","","","","","","","","","","","","",""
"459","","image-button-response","85","371595","0.0-84.0-0.0","ARQ7R97434PM2","img_art/12.jpg","4","","","","","","","","","","","","","","","","","","","","","","","","",""
"1028","","image-button-response","86","372628","0.0-85.0-0.0","ARQ7R97434PM2","img_art/12.jpg","1","","","","","","","","","","","","","","","","","","","","","","","","",""
"null","","html-keyboard-response","87","374142","0.0-86.0","ARQ7R97434PM2","<p style=""font-size: 48px;"">+</p>","","","","","null","allTrialResponses","1500","1","6","img_art/12.jpg","35","That looks amazing!","Brett,William,Austin,Nicholas,Dylan,Tyler","Night and day, light and dark,35,360,20","to contemporary for me,3,380,20","Explosion of texture,31,240,20","It is interesting but seems like some cheap painting from like walmart,24,240,20","I like the pattern of this picture, but the colors could be nicer,11,40,20","Different enough to be memorable. The gradient of hues is appealing and appeasing.,32,320,20","Nicholas","It is interesting but seems like some cheap painting from like walmart,24,240,20","Dylan","I like the pattern of this picture, but the colors could be nicer,11,40,20","William","to contemporary for me,3,380,20","0"
"17555","","survey-text","88","391716","0.0-87.0-0.0","ARQ7R97434PM2","","","","{""Q0"":""That looks amazing!""}","","","","","","","","","","","","","","","","","","","","","","",""
"2524","","image-slider-response","89","394244","0.0-88.0","ARQ7R97434PM2","","","","","31","","","","","","","","","","","","","","","","","","","","","",""
"1002","","image-button-response","90","399251","0.0-89.0","ARQ7R97434PM2","img_art/29.jpg","4","","","","","","","","","","","","","","","","","","","","","","","","",""
"339","","image-button-response","91","399596","0.0-90.0","ARQ7R97434PM2","img_art/29.jpg","3","","","","","","","","","","","","","","","","","","","","","","","","",""
"484","","image-button-response","92","400084","0.0-91.0-0.0","ARQ7R97434PM2","img_art/29.jpg","4","","","","","","","","","","","","","","","","","","","","","","","","",""
"860","","image-button-response","93","400948","0.0-92.0-0.0","ARQ7R97434PM2","img_art/29.jpg","1","","","","","","","","","","","","","","","","","","","","","","","","",""
"null","","html-keyboard-response","94","402454","0.0-93.0","ARQ7R97434PM2","<p style=""font-size: 48px;"">+</p>","","","","","null","allTrialResponses","1500","1","7","img_art/29.jpg","31","That looks amazing!","Gregory,William,Bradley,Nicholas,Dylan,Alexis","3D looks is really cool,30,220,20","makes me think of destruction,-20,380,20","It's creative. It's just not my thing.,-32,300,20","I love this things almost hidden in it like paint brush and other details,50,240,20","I don't like this. It is ugly and dark,-29,40,20","I like that it looks like a scene from perhaps a failed painted project,10,140,20","Nicholas","I love this things almost hidden in it like paint brush and other details,50,240,20","Dylan","I don't like this. It is ugly and dark,-29,40,20","William","makes me think of destruction,-20,380,20","0"
"3716","","survey-text","95","406188","0.0-94.0-0.0","ARQ7R97434PM2","","","","{""Q0"":""That looks amazing!""}","","","","","","","","","","","","","","","","","","","","","","",""
"3146","","image-slider-response","96","409340","0.0-95.0","ARQ7R97434PM2","","","","","47","","","","","","","","","","","","","","","","","","","","","",""
"4836","","image-button-response","97","414347","0.0-96.0","ARQ7R97434PM2","img_art/27.jpg","4","","","","","","","","","","","","","","","","","","","","","","","","",""
"460","","image-button-response","98","414812","0.0-97.0","ARQ7R97434PM2","img_art/27.jpg","5","","","","","","","","","","","","","","","","","","","","","","","","",""
"636","","image-button-response","99","415451","0.0-98.0-0.0","ARQ7R97434PM2","img_art/27.jpg","4","","","","","","","","","","","","","","","","","","","","","","","","",""
"364","","image-button-response","100","415820","0.0-99.0-0.0","ARQ7R97434PM2","img_art/27.jpg","3","","","","","","","","","","","","","","","","","","","","","","","","",""
"null","","html-keyboard-response","101","417328","0.0-100.0","ARQ7R97434PM2","<p style=""font-size: 48px;"">+</p>","","","","","null","allTrialResponses","1500","1","8","img_art/27.jpg","47","That looks amazing!","Nathan,William,Jordan,Nicholas,Dylan,Scott","Looks a bit like a child's project with unsatisfying colors,-31,200,20","reminds me of fall,33,380,20","Looks like a little kids drawing,20,160,20","I like all it has going but i wouldnt put it in my house unless my child did it,25,240,20","This is ugly and looks like a child did this,-36,40,20","again looks like childrens artwork,-40,20,20","Scott","again looks like childrens artwork,-40,20,20","Dylan","This is ugly and looks like a child did this,-36,40,20","Nicholas","I like all it has going but i wouldnt put it in my house unless my child did it,25,240,20","0"
"15478","","survey-text","102","432829","0.0-101.0-0.0","ARQ7R97434PM2","","","","{""Q0"":""That looks amazing!""}","","","","","","","","","","","","","","","","","","","","","","",""
"3953","","image-slider-response","103","436787","0.0-102.0","ARQ7R97434PM2","","","","","21","","","","","","","","","","","","","","","","","","","","","",""
"2155","","image-button-response","104","441792","0.0-103.0","ARQ7R97434PM2","img_art/13.jpg","0","","","","","","","","","","","","","","","","","","","","","","","","",""
"603","","image-button-response","105","442404","0.0-104.0","ARQ7R97434PM2","img_art/13.jpg","4","","","","","","","","","","","","","","","","","","","","","","","","",""
"466","","image-button-response","106","442876","0.0-105.0-0.0","ARQ7R97434PM2","img_art/13.jpg","3","","","","","","","","","","","","","","","","","","","","","","","","",""
"727","","image-button-response","107","443612","0.0-106.0-0.0","ARQ7R97434PM2","img_art/13.jpg","5","","","","","","","","","","","","","","","","","","","","","","","","",""
"null","","html-keyboard-response","108","444627","0.0-107.0","ARQ7R97434PM2","<p style=""font-size: 48px;"">+</p>","","","","","null","allTrialResponses","1000","1","9","img_art/13.jpg","21","That looks amazing!","Jonathan,Connor,Brandon,Nicholas,Dylan,Scott","It's pretty basic but it makes me feel like I'm looking at the ocean,30,140,20","Color palette is complementary,40,240,20","Simple, but pleasing. The blue gradient is a favorite of mine,32,320,20","Nice colors. beautiful blue,50,240,20","I do like the blue colors in this.,12,40,20","I like the transition to other colors,24,20,20","Dylan","I do like the blue colors in this.,12,40,20","Nicholas","Nice colors. beautiful blue,50,240,20","Scott","I like the transition to other colors,24,20,20","0"
"3795","","survey-text","109","448491","0.0-108.0-0.0","ARQ7R97434PM2","","","","{""Q0"":""That looks amazing!""}","","","","","","","","","","","","","","","","","","","","","","",""
"6698","","image-slider-response","110","455195","0.0-109.0","ARQ7R97434PM2","","","","","26","","","","","","","","","","","","","","","","","","","","","",""
"2610","","image-button-response","111","460204","0.0-110.0","ARQ7R97434PM2","img_art/3.jpg","3","","","","","","","","","","","","","","","","","","","","","","","","",""
"373","","image-button-response","112","460581","0.0-111.0","ARQ7R97434PM2","img_art/3.jpg","3","","","","","","","","","","","","","","","","","","","","","","","","",""
"475","","image-button-response","113","461060","0.0-112.0-0.0","ARQ7R97434PM2","img_art/3.jpg","4","","","","","","","","","","","","","","","","","","","","","","","","",""
"482","","image-button-response","114","461547","0.0-113.0-0.0","ARQ7R97434PM2","img_art/3.jpg","5","","","","","","","","","","","","","","","","","","","","","","","","",""
"null","","html-keyboard-response","115","462554","0.0-114.0","ARQ7R97434PM2","<p style=""font-size: 48px;"">+</p>","","","","","null","allTrialResponses","1000","1","10","img_art/3.jpg","26","That looks amazing!","Elijah,Ian,Caleb,Nicholas,Dylan,Scott","Somebody scribbled on a piece of paper,-35,80,20","It just makes me think of blood splattered everywhere.,-31,260,20","Completely incomprehensible.,-33,40,20","Too angry and scribbly,-43,240,20","I could scribble on paper and mimic this,-48,40,20","I like that it's messy,14,20,20","Nicholas","Too angry and scribbly,-43,240,20","Dylan","I could scribble on paper and mimic this,-48,40,20","Scott","I like that it's messy,14,20,20","0"
"5214","","survey-text","116","467820","0.0-115.0-0.0","ARQ7R97434PM2","","","","{""Q0"":""our""}","","","","","","","","","","","","","","","","","","","","","","",""
"4093","","survey-text","117","471916","0.0-116.0-0.0","ARQ7R97434PM2","","","","{""Q0"":""That looks amazing!""}","","","","","","","","","","","","","","","","","","","","","","",""
"3977","","image-slider-response","118","475899","0.0-117.0","ARQ7R97434PM2","","","","","35","","","","","","","","","","","","","","","","","","","","","",""
"4122","","image-button-response","119","480906","0.0-118.0","ARQ7R97434PM2","img_art/25.jpg","1","","","","","","","","","","","","","","","","","","","","","","","","",""
"998","","image-button-response","120","481909","0.0-119.0","ARQ7R97434PM2","img_art/25.jpg","0","","","","","","","","","","","","","","","","","","","","","","","","",""
"793","","image-button-response","121","482707","0.0-120.0-0.0","ARQ7R97434PM2","img_art/25.jpg","1","","","","","","","","","","","","","","","","","","","","","","","","",""
"468","","image-button-response","122","483179","0.0-121.0-0.0","ARQ7R97434PM2","img_art/25.jpg","2","","","","","","","","","","","","","","","","","","","","","","","","",""
"null","","html-keyboard-response","123","484183","0.0-122.0","ARQ7R97434PM2","<p style=""font-size: 48px;"">+</p>","","","","","null","allTrialResponses","1000","1","11","img_art/25.jpg","35","That looks amazing!","Spencer,Patrick,Anthony,Nicholas,Dylan,Scott","I really like it, very simple, very tribal,38,120,20","Green color is not my thing,-29,280,20","Spooky, but in a good way. I like the green and black color palette.,42,200,20","It is interesting but too creapy for me,-29,240,20","This is too dark and creepy. I also hate the color,-30,40,20","reminds me of a zombie,-36,20,20","Spencer","I really like it, very simple, very tribal,38,120,20","Patrick","Green color is not my thing,-29,280,20","Anthony","Spooky, but in a good way. I like the green and black color palette.,42,200,20","0"
"5594","","survey-text","124","489795","0.0-123.0-0.0","ARQ7R97434PM2","","","","{""Q0"":""Not into it.""}","","","","","","","","","","","","","","","","","","","","","","",""
"2260","","image-slider-response","125","492059","0.0-124.0","ARQ7R97434PM2","","","","","-41","","","","","","","","","","","","","","","","","","","","","",""
"3340","","image-button-response","126","497067","0.0-125.0","ARQ7R97434PM2","img_art/1.jpg","1","","","","","","","","","","","","","","","","","","","","","","","","",""
"444","","image-button-response","127","497516","0.0-126.0","ARQ7R97434PM2","img_art/1.jpg","1","","","","","","","","","","","","","","","","","","","","","","","","",""
"620","","image-button-response","128","498140","0.0-127.0-0.0","ARQ7R97434PM2","img_art/1.jpg","2","","","","","","","","","","","","","","","","","","","","","","","","",""
"907","","image-button-response","129","499052","0.0-128.0-0.0","ARQ7R97434PM2","img_art/1.jpg","4","","","","","","","","","","","","","","","","","","","","","","","","",""
"null","","html-keyboard-response","130","499559","0.0-129.0","ARQ7R97434PM2","<p style=""font-size: 48px;"">+</p>","","","","","null","allTrialResponses","500","1","12","img_art/1.jpg","-41","Not into it.","Spencer,Patrick,Anthony,Grant,Bryce,Robert","Pretty intermeshing of colors, happy,32,120,20","I feel uneasy looking at this,-41,280,20","Bright and colorful without being overpowering,32,200,20","The use of reds, blues, and yellows together reminds me of fire. Very interesting to look at.,40,200,20","Again kind a boring.,-38,20,20","Pretty colors. Fall day in the East Coast of USA.,42,360,20","Patrick","I feel uneasy looking at this,-41,280,20","Anthony","Bright and colorful without being overpowering,32,200,20","Bryce","Again kind a boring.,-38,20,20","0"
"4903","","survey-text","131","504516","0.0-130.0-0.0","ARQ7R97434PM2","","","","{""Q0"":""That looks amazing!""}","","","","","","","","","","","","","","","","","","","","","","",""
"3925","","image-slider-response","132","508452","0.0-131.0","ARQ7R97434PM2","","","","","42","","","","","","","","","","","","","","","","","","","","","",""
"3292","","image-button-response","133","513461","0.0-132.0","ARQ7R97434PM2","img_art/10.jpg","4","","","","","","","","","","","","","","","","","","","","","","","","",""
"407","","image-button-response","134","513876","0.0-133.0","ARQ7R97434PM2","img_art/10.jpg","4","","","","","","","","","","","","","","","","","","","","","","","","",""
"530","","image-button-response","135","514412","0.0-134.0-0.0","ARQ7R97434PM2","img_art/10.jpg","3","","","","","","","","","","","","","","","","","","","","","","","","",""
"521","","image-button-response","136","514940","0.0-135.0-0.0","ARQ7R97434PM2","img_art/10.jpg","5","","","","","","","","","","","","","","","","","","","","","","","","",""
"null","","html-keyboard-response","137","516501","0.0-136.0","ARQ7R97434PM2","<p style=""font-size: 48px;"">+</p>","","","","","null","allTrialResponses","1500","1","13","img_art/10.jpg","42","That looks amazing!","Angel,Patrick,Anthony,Evan,Bryce,Victor","This piece makes me think of music. The music is dark; I like dark music so it edges toward good.,10,180,20","I don't like the colors,-20,280,20","I am neutral towards the artwork,1,200,20","My immediate thought is WTF is this,-20,140,20","Kinda creepy not my favorite,-26,20,20","Looks like someone just smeared some paint and called it good. Do not like.,-6,340,20","Bryce","Kinda creepy not my favorite,-26,20,20","Evan","My immediate thought is WTF is this,-20,140,20","Victor","Looks like someone just smeared some paint and called it good. Do not like.,-6,340,20","0"
"6486","","survey-text","138","523155","0.0-137.0-0.0","ARQ7R97434PM2","","","","{""Q0"":""That looks amazing!""}","","","","","","","","","","","","","","","","","","","","","","",""
"3339","","image-slider-response","139","526500","0.0-138.0","ARQ7R97434PM2","","","","","50","","","","","","","","","","","","","","","","","","","","","",""
"4307","","image-button-response","140","531507","0.0-139.0","ARQ7R97434PM2","img_art/14.jpg","4","","","","","","","","","","","","","","","","","","","","","","","","",""
"468","","image-button-response","141","531980","0.0-140.0","ARQ7R97434PM2","img_art/14.jpg","4","","","","","","","","","","","","","","","","","","","","","","","","",""
"626","","image-button-response","142","532611","0.0-141.0-0.0","ARQ7R97434PM2","img_art/14.jpg","3","","","","","","","","","","","","","","","","","","","","","","","","",""
"509","","image-button-response","143","533125","0.0-142.0-0.0","ARQ7R97434PM2","img_art/14.jpg","5","","","","","","","","","","","","","","","","","","","","","","","","",""
"null","","html-keyboard-response","144","533630","0.0-143.0","ARQ7R97434PM2","<p style=""font-size: 48px;"">+</p>","","","","","null","allTrialResponses","500","1","14","img_art/14.jpg","50","That looks amazing!","Daniel,Nathaniel,Edward,Evan,Bryce,Victor","Baby's room palette with tree confusion in a more confused substrate.,-15,320,20","Not quite the style I'd like, but it does have a certain air of emptiness.,12,220,20","I just really like light and wispy things,33,60,20","I like the sharpness of the lines,20,140,20","The red looks like blood and im not a huge fan,15,20,20","Meh. Pleasant to look at. Colors are nice,6,340,20","Bryce","The red looks like blood and im not a huge fan,15,20,20","Evan","I like the sharpness of the lines,20,140,20","Victor","Meh. Pleasant to look at. Colors are nice,6,340,20","0"
"3371","","survey-text","145","537027","0.0-144.0-0.0","ARQ7R97434PM2","","","","{""Q0"":""That looks amazing!""}","","","","","","","","","","","","","","","","","","","","","","",""
"3489","","image-slider-response","146","540523","0.0-145.0","ARQ7R97434PM2","","","","","33","","","","","","","","","","","","","","","","","","","","","",""
"null","","image-button-response","147","545529","0.0-146.0","ARQ7R97434PM2","img_art/8.jpg","null","","","","","","","","","","","","","","","","","","","","","","","","",""
"2816","","image-button-response","148","548347","0.0-147.0","ARQ7R97434PM2","img_art/8.jpg","4","","","","","","","","","","","","","","","","","","","","","","","","",""
"23053","","image-button-response","149","571405","0.0-148.0-0.0","ARQ7R97434PM2","img_art/8.jpg","4","","","","","","","","","","","","","","","","","","","","","","","","",""
"1085","","image-button-response","150","576452","0.0-148.1-0.1","ARQ7R97434PM2","img_art/8.jpg","5","","","","","","","","","","","","","","","","","","","","","","","","",""
"617","","image-button-response","151","577075","0.0-149.0-0.0","ARQ7R97434PM2","img_art/8.jpg","3","","","","","","","","","","","","","","","","","","","","","","","","",""
"null","","html-keyboard-response","152","577582","0.0-150.0","ARQ7R97434PM2","<p style=""font-size: 48px;"">+</p>","","","","","null","allTrialResponses","500","1","15","img_art/8.jpg","33","That looks amazing!","Benjamin,Dakota,Peter,Evan,Bryce,Victor","Very colorful. Looks like the hustle and bustle of a city.,11,260,20","chaotic and disassembled,-8,280,20","I see water and structures that resemble Ancient Rome,15,320,20","I can't tell if this is supposed to portray just city life or a town crumbling,-5,140,20","Its kinda like an optical illusion.,22,20,20","I like the colors,10,340,20","Bryce","Its kinda like an optical illusion.,22,20,20","Victor","I like the colors,10,340,20","Evan","I can't tell if this is supposed to portray just city life or a town crumbling,-5,140,20","2"
"4343","","survey-text","153","581995","0.0-151.0-0.0","ARQ7R97434PM2","","","","{""Q0"":""course""}","","","","","","","","","","","","","","","","","","","","","","",""
"33515","","survey-text","154","615515","0.0-152.0-0.0","ARQ7R97434PM2","","","","{""Q0"":""That looks amazing!""}","","","","","","","","","","","","","","","","","","","","","","",""
"2834","","image-slider-response","155","618355","0.0-153.0","ARQ7R97434PM2","","","","","46","","","","","","","","","","","","","","","","","","","","","",""
"null","","image-button-response","156","623360","0.0-154.0","ARQ7R97434PM2","img_art/6.jpg","null","","","","","","","","","","","","","","","","","","","","","","","","",""
"13735","","image-button-response","157","637101","0.0-155.0","ARQ7R97434PM2","img_art/6.jpg","4","","","","","","","","","","","","","","","","","","","","","","","","",""
"595","","image-button-response","158","637704","0.0-156.0-0.0","ARQ7R97434PM2","img_art/6.jpg","3","","","","","","","","","","","","","","","","","","","","","","","","",""
"964","","image-button-response","159","638676","0.0-157.0-0.0","ARQ7R97434PM2","img_art/6.jpg","5","","","","","","","","","","","","","","","","","","","","","","","","",""
"null","","html-keyboard-response","160","640183","0.0-158.0","ARQ7R97434PM2","<p style=""font-size: 48px;"">+</p>","","","","","null","allTrialResponses","1500","1","16","img_art/6.jpg","46","That looks amazing!","Mitchell,Blake,Mark,Evan,Bryce,Victor","Looking, searching at the same time being content.,30,180,20","one lonely thing trying to grow,-24,280,20","So forlorn, and beauty amid desolation.,25,80,20","I am intrigued but unsure whether I enjoy this or not,6,140,20","Not very exciting.,-34,20,20","The background on the upper half is nice. I also like the contrast of the top and bottom halves,5,340,20","Bryce","Not very exciting.,-34,20,20","Evan","I am intrigued but unsure whether I enjoy this or not,6,140,20","Victor","The background on the upper half is nice. I also like the contrast of the top and bottom halves,5,340,20","2"
"5453","","survey-text","161","645683","0.0-159.0-0.0","ARQ7R97434PM2","","","","{""Q0"":""That looks amazing!""}","","","","","","","","","","","","","","","","","","","","","","",""
"2451","","image-slider-response","162","648139","0.0-160.0","ARQ7R97434PM2","","","","","30","","","","","","","","","","","","","","","","","","","","","",""
"null","","image-button-response","163","653147","0.0-161.0","ARQ7R97434PM2","img_art/15.jpg","null","","","","","","","","","","","","","","","","","","","","","","","","",""
"10542","","image-button-response","164","663692","0.0-162.0","ARQ7R97434PM2","img_art/15.jpg","5","","","","","","","","","","","","","","","","","","","","","","","","",""
"452","","image-button-response","165","664147","0.0-163.0-0.0","ARQ7R97434PM2","img_art/15.jpg","4","","","","","","","","","","","","","","","","","","","","","","","","",""
"474","","image-button-response","166","664627","0.0-164.0-0.0","ARQ7R97434PM2","img_art/15.jpg","3","","","","","","","","","","","","","","","","","","","","","","","","",""
"null","","html-keyboard-response","167","666133","0.0-165.0","ARQ7R97434PM2","<p style=""font-size: 48px;"">+</p>","","","","","null","allTrialResponses","1500","1","17","img_art/15.jpg","30","That looks amazing!","Cameron,Thomas,Jeremy,Evan,Bryce,Victor","This one reminds me of a postage stamp, but branches and leaves. Kind of fun.,15,60,20","Interesting, and I don't dislike it.,9,220,20","I feel nothing when looking at this,1,60,20","I am reminded of spring flowers swaying in the dark night's breeze,9,140,20","The dots are cool with the blue accents.,24,20,20","I like the random blue dabs to break up the black, but it looks unfinished.,4,340,20","Victor","I like the random blue dabs to break up the black, but it looks unfinished.,4,340,20","Bryce","The dots are cool with the blue accents.,24,20,20","Evan","I am reminded of spring flowers swaying in the dark night's breeze,9,140,20","2"
"5674","","survey-text","168","671847","0.0-166.0-0.0","ARQ7R97434PM2","","","","{""Q0"":""That looks amazing!""}","","","","","","","","","","","","","","","","","","","","","","",""
"2647","","image-slider-response","169","674499","0.0-167.0","ARQ7R97434PM2","","","","","35","","","","","","","","","","","","","","","","","","","","","",""
"null","","image-button-response","170","679505","0.0-168.0","ARQ7R97434PM2","img_art/19.jpg","null","","","","","","","","","","","","","","","","","","","","","","","","",""
"15951","","image-button-response","171","695460","0.0-169.0","ARQ7R97434PM2","img_art/19.jpg","4","","","","","","","","","","","","","","","","","","","","","","","","",""
"391","","image-button-response","172","695860","0.0-170.0-0.0","ARQ7R97434PM2","img_art/19.jpg","3","","","","","","","","","","","","","","","","","","","","","","","","",""
"625","","image-button-response","173","696496","0.0-171.0-0.0","ARQ7R97434PM2","img_art/19.jpg","5","","","","","","","","","","","","","","","","","","","","","","","","",""
"null","","html-keyboard-response","174","698020","0.0-172.0","ARQ7R97434PM2","<p style=""font-size: 48px;"">+</p>","","","","","null","allTrialResponses","1500","1","18","img_art/19.jpg","35","That looks amazing!","Kyle,Michael,Hunter,Evan,Bryce,Victor","Just stirred a negative reaction. Don't really like it perhaps because of the structure?,-8,340,20","Loks like an amature did it, Not pleasing.,-45,140,20","feels free and loose,3,240,20","It makes me feel like it is of a street of bakeries,15,140,20","Very pretty and colorful.,23,20,20","too much going on, can't tell what it is,-14,340,20","Bryce","Very pretty and colorful.,23,20,20","Evan","It makes me feel like it is of a street of bakeries,15,140,20","Victor","too much going on, can't tell what it is,-14,340,20","2"
"12446","","survey-text","175","710554","0.0-173.0-0.0","ARQ7R97434PM2","","","","{""Q0"":""That looks amazing!""}","","","","","","","","","","","","","","","","","","","","","","",""
"2593","","image-slider-response","176","713155","0.0-174.0","ARQ7R97434PM2","","","","","43","","","","","","","","","","","","","","","","","","","","","",""
"892","","image-button-response","177","718162","0.0-175.0","ARQ7R97434PM2","img_art/30.jpg","4","","","","","","","","","","","","","","","","","","","","","","","","",""
"638","","image-button-response","178","718804","0.0-176.0","ARQ7R97434PM2","img_art/30.jpg","3","","","","","","","","","","","","","","","","","","","","","","","","",""
"395","","image-button-response","179","719203","0.0-177.0-0.0","ARQ7R97434PM2","img_art/30.jpg","4","","","","","","","","","","","","","","","","","","","","","","","","",""
"1347","","image-button-response","180","720555","0.0-178.0-0.0","ARQ7R97434PM2","img_art/30.jpg","1","","","","","","","","","","","","","","","","","","","","","","","","",""
"null","","html-keyboard-response","181","721562","0.0-179.0","ARQ7R97434PM2","<p style=""font-size: 48px;"">+</p>","","","","","null","allTrialResponses","1000","1","19","img_art/30.jpg","43","That looks amazing!","Brian,Tanner,Antonio,Evan,Bryce,Victor","this is probably part of a neat series, but the abstraction doesn't speak to me,-17,380,20","makes me think of a tunnel filled with graffiti,19,180,20","Fear. It looks like snakes in the picture,13,220,20","I really like the broad and colorful strokes,21,140,20","Very colorful! Wow!,22,20,20","I just don't see the point of this piece,-11,340,20","Evan","I really like the broad and colorful strokes,21,140,20","Bryce","Very colorful! Wow!,22,20,20","Tanner","makes me think of a tunnel filled with graffiti,19,180,20","2"
"11476","","survey-text","182","733083","0.0-180.0-0.0","ARQ7R97434PM2","","","","{""Q0"":""Not a fan.""}","","","","","","","","","","","","","","","","","","","","","","",""
"3490","","image-slider-response","183","736580","0.0-181.0","ARQ7R97434PM2","","","","","29","","","","","","","","","","","","","","","","","","","","","",""
"1172","","image-button-response","184","741587","0.0-182.0","ARQ7R97434PM2","img_art/26.jpg","4","","","","","","","","","","","","","","","","","","","","","","","","",""
"262","","image-button-response","185","741852","0.0-183.0","ARQ7R97434PM2","img_art/26.jpg","0","","","","","","","","","","","","","","","","","","","","","","","","",""
"403","","image-button-response","186","742259","0.0-184.0-0.0","ARQ7R97434PM2","img_art/26.jpg","1","","","","","","","","","","","","","","","","","","","","","","","","",""
"403","","image-button-response","187","742667","0.0-185.0-0.0","ARQ7R97434PM2","img_art/26.jpg","2","","","","","","","","","","","","","","","","","","","","","","","","",""
"null","","html-keyboard-response","188","743673","0.0-186.0","ARQ7R97434PM2","<p style=""font-size: 48px;"">+</p>","","","","","null","allTrialResponses","1000","1","20","img_art/26.jpg","29","Not a fan.","Brendan,Tanner,Devin,Evan,Bryce,Timothy","cool cozy town vibes,50,340,20","happy, park, childhood,9,180,20","I like the shapes but needs more detail i think,3,380,20","It feels simple and pretty,12,140,20","Love the colors in this one.,22,20,20","Very pleasent little scene,40,240,20","Brendan","cool cozy town vibes,50,340,20","Tanner","happy, park, childhood,9,180,20","Devin","I like the shapes but needs more detail i think,3,380,20","2"
"4640","","survey-text","189","748387","0.0-187.0-0.0","ARQ7R97434PM2","","","","{""Q0"":""we""}","","","","","","","","","","","","","","","","","","","","","","",""
"3229","","survey-text","190","751619","0.0-188.0-0.0","ARQ7R97434PM2","","","","{""Q0"":""That looks amazing!""}","","","","","","","","","","","","","","","","","","","","","","",""
"2882","","image-slider-response","191","754507","0.0-189.0","ARQ7R97434PM2","","","","","38","","","","","","","","","","","","","","","","","","","","","",""
"3931","","image-button-response","192","759518","0.0-190.0","ARQ7R97434PM2","img_art/24.jpg","3","","","","","","","","","","","","","","","","","","","","","","","","",""
"443","","image-button-response","193","759973","0.0-191.0","ARQ7R97434PM2","img_art/24.jpg","3","","","","","","","","","","","","","","","","","","","","","","","","",""
"377","","image-button-response","194","760355","0.0-192.0-0.0","ARQ7R97434PM2","img_art/24.jpg","4","","","","","","","","","","","","","","","","","","","","","","","","",""
"495","","image-button-response","195","760861","0.0-193.0-0.0","ARQ7R97434PM2","img_art/24.jpg","5","","","","","","","","","","","","","","","","","","","","","","","","",""
"null","","html-keyboard-response","196","761372","0.0-194.0","ARQ7R97434PM2","<p style=""font-size: 48px;"">+</p>","","","","","null","allTrialResponses","500","1","21","img_art/24.jpg","38","That looks amazing!","Brendan,Tanner,Devin,Luke,Ethan,Jesse","lovely forest vibes,36,340,20","calm, nature, safe, happy place,,50,180,20","colors are good but the style is iffy,12,380,20","very colorful and intricate and makes me feel at peace,50,20,20","This is sort of interesting. I think it's a bit busy. Less is more.,3,120,20","Love the colors and contrast. Feels peaceful.,33,80,20","Luke","very colorful and intricate and makes me feel at peace,50,20,20","Ethan","This is sort of interesting. I think it's a bit busy. Less is more.,3,120,20","Jesse","Love the colors and contrast. Feels peaceful.,33,80,20","2"
"4599","","survey-text","197","766028","0.0-195.0-0.0","ARQ7R97434PM2","","","","{""Q0"":""That looks amazing!""}","","","","","","","","","","","","","","","","","","","","","","",""
"2688","","image-slider-response","198","768722","0.0-196.0","ARQ7R97434PM2","","","","","36","","","","","","","","","","","","","","","","","","","","","",""
"4293","","image-button-response","199","773728","0.0-197.0","ARQ7R97434PM2","img_art/21.jpg","3","","","","","","","","","","","","","","","","","","","","","","","","",""
"471","","image-button-response","200","774205","0.0-198.0","ARQ7R97434PM2","img_art/21.jpg","3","","","","","","","","","","","","","","","","","","","","","","","","",""
"443","","image-button-response","201","774652","0.0-199.0-0.0","ARQ7R97434PM2","img_art/21.jpg","4","","","","","","","","","","","","","","","","","","","","","","","","",""
"531","","image-button-response","202","775187","0.0-200.0-0.0","ARQ7R97434PM2","img_art/21.jpg","5","","","","","","","","","","","","","","","","","","","","","","","","",""
"null","","html-keyboard-response","203","776194","0.0-201.0","ARQ7R97434PM2","<p style=""font-size: 48px;"">+</p>","","","","","null","allTrialResponses","1000","1","22","img_art/21.jpg","36","That looks amazing!","Joseph,Joshua,Charles,Luke,Ethan,Jesse","I like that it reminds me of an abstract version of a Bob Ross painting.,36,220,20","Boring colors and look. Too much 1980s.,-20,240,20","Another swathe of ocean,31,100,20","the vast colors make me happy,15,20,20","This is lovely. I like the mix of colors, the warn and cool slowly combining.,39,120,20","I dont like how nothing is defined and the colors dont work for me,-5,80,20","Luke","the vast colors make me happy,15,20,20","Ethan","This is lovely. I like the mix of colors, the warn and cool slowly combining.,39,120,20","Jesse","I dont like how nothing is defined and the colors dont work for me,-5,80,20","2"
"128280","","survey-text","204","904516","0.0-202.0-0.0","ARQ7R97434PM2","","","","{""Q0"":""That looks amazing!""}","","","","","","","","","","","","","","","","","","","","","","",""
"3157","","image-slider-response","205","907683","0.0-203.0","ARQ7R97434PM2","","","","","34","","","","","","","","","","","","","","","","","","","","","",""
"null","","image-button-response","206","912695","0.0-204.0","ARQ7R97434PM2","img_art/17.jpg","null","","","","","","","","","","","","","","","","","","","","","","","","",""
"20999","","image-button-response","207","933699","0.0-205.0","ARQ7R97434PM2","img_art/17.jpg","5","","","","","","","","","","","","","","","","","","","","","","","","",""
"1748","","image-button-response","208","935452","0.0-206.0-0.0","ARQ7R97434PM2","img_art/17.jpg","4","","","","","","","","","","","","","","","","","","","","","","","","",""
"385","","image-button-response","209","935843","0.0-207.0-0.0","ARQ7R97434PM2","img_art/17.jpg","3","","","","","","","","","","","","","","","","","","","","","","","","",""
"null","","html-keyboard-response","210","936850","0.0-208.0","ARQ7R97434PM2","<p style=""font-size: 48px;"">+</p>","","","","","null","allTrialResponses","1000","1","23","img_art/17.jpg","34","That looks amazing!","Carlos,Jose,Devon,Luke,Ethan,Jesse","It feels like nature overtaking civilization.,21,80,20","Looks like a weird blurry heaven again! I dig,32,200,20","i feel some sadness in this picture,25,400,20","it looks very intricate and colorful,50,20,20","The colors are nice and soft but not very complimentary.,7,120,20","Doesnt completely turn me off but wouldnt look twice,-3,80,20","Jesse","Doesnt completely turn me off but wouldnt look twice,-3,80,20","Ethan","The colors are nice and soft but not very complimentary.,7,120,20","Luke","it looks very intricate and colorful,50,20,20","2"
"5191","","survey-text","211","942108","0.0-209.0-0.0","ARQ7R97434PM2","","","","{""Q0"":""That looks amazing!""}","","","","","","","","","","","","","","","","","","","","","","",""
"40705","","image-slider-response","212","982819","0.0-210.0","ARQ7R97434PM2","","","","","35","","","","","","","","","","","","","","","","","","","","","",""
"null","","image-button-response","213","987825","0.0-211.0","ARQ7R97434PM2","img_art/2.jpg","null","","","","","","","","","","","","","","","","","","","","","","","","",""
"1007","","image-button-response","214","988835","0.0-212.0","ARQ7R97434PM2","img_art/2.jpg","3","","","","","","","","","","","","","","","","","","","","","","","","",""
"435","","image-button-response","215","989275","0.0-213.0-0.0","ARQ7R97434PM2","img_art/2.jpg","4","","","","","","","","","","","","","","","","","","","","","","","","",""
"378","","image-button-response","216","989659","0.0-214.0-0.0","ARQ7R97434PM2","img_art/2.jpg","5","","","","","","","","","","","","","","","","","","","","","","","","",""
"null","","html-keyboard-response","217","990666","0.0-215.0","ARQ7R97434PM2","<p style=""font-size: 48px;"">+</p>","","","","","null","allTrialResponses","1000","1","24","img_art/2.jpg","35","That looks amazing!","John,Jason,James,Luke,Ethan,Jesse","Its meh. Doesnt illicit any strong feelings in me,1,120,20","Too jumbled and disorienting,-13,20,20","The only parts I like is the light blue, red and black. The green color isn't very flattering.,11,380,20","too abstract and confusing,-19,20,20","This looks like a professional abstract drawing. I like the shapes.,7,120,20","Looks childish and i dont like the texture,-25,80,20","Luke","too abstract and confusing,-19,20,20","Ethan","This looks like a professional abstract drawing. I like the shapes.,7,120,20","Jesse","Looks childish and i dont like the texture,-25,80,20","2"
"4241","","survey-text","218","994931","0.0-216.0-0.0","ARQ7R97434PM2","","","","{""Q0"":""That looks amazing!""}","","","","","","","","","","","","","","","","","","","","","","",""
"2162","","image-slider-response","219","997100","0.0-217.0","ARQ7R97434PM2","","","","","31","","","","","","","","","","","","","","","","","","","","","",""
"1389","","image-button-response","220","1002104","0.0-218.0","ARQ7R97434PM2","img_art/9.jpg","5","","","","","","","","","","","","","","","","","","","","","","","","",""
"2584","","image-button-response","221","1004692","0.0-219.0","ARQ7R97434PM2","img_art/9.jpg","5","","","","","","","","","","","","","","","","","","","","","","","","",""
"412","","image-button-response","222","1005107","0.0-220.0-0.0","ARQ7R97434PM2","img_art/9.jpg","4","","","","","","","","","","","","","","","","","","","","","","","","",""
"499","","image-button-response","223","1005612","0.0-221.0-0.0","ARQ7R97434PM2","img_art/9.jpg","3","","","","","","","","","","","","","","","","","","","","","","","","",""
"null","","html-keyboard-response","224","1006118","0.0-222.0","ARQ7R97434PM2","<p style=""font-size: 48px;"">+</p>","","","","","null","allTrialResponses","500","1","25","img_art/9.jpg","31","That looks amazing!","Shane,Noah,Andrew,Luke,Ethan,Jesse","Angry beast mouth,-37,80,20","while I don't dispute the art, it feels childish,-20,260,20","The peacock theme gives me negative connotations of my ex-sister-in-law,-10,160,20","it makes me feel excited and draws my eye around,24,20,20","How neat is this piece?  I love the angry expressive lines. Emotion is captured in it.,26,120,20","The lack of concrete form kind of turns me off,-2,80,20","Jesse","The lack of concrete form kind of turns me off,-2,80,20","Ethan","How neat is this piece?  I love the angry expressive lines. Emotion is captured in it.,26,120,20","Luke","it makes me feel excited and draws my eye around,24,20,20","2"
"4335","","survey-text","225","1010523","0.0-223.0-0.0","ARQ7R97434PM2","","","","{""Q0"":""table""}","","","","","","","","","","","","","","","","","","","","","","",""
"6589","","survey-text","226","1017114","0.0-224.0-0.0","ARQ7R97434PM2","","","","{""Q0"":""Not a fan of this.""}","","","","","","","","","","","","","","","","","","","","","","",""
"2299","","image-slider-response","227","1019419","0.0-225.0","ARQ7R97434PM2","","","","","-37","","","","","","","","","","","","","","","","","","","","","",""
"2878","","image-button-response","228","1024424","0.0-226.0","ARQ7R97434PM2","img_art/20.jpg","4","","","","","","","","","","","","","","","","","","","","","","","","",""
"280","","image-button-response","229","1024707","0.0-227.0","ARQ7R97434PM2","img_art/20.jpg","3","","","","","","","","","","","","","","","","","","","","","","","","",""
"1031","","image-button-response","230","1025742","0.0-228.0-0.0","ARQ7R97434PM2","img_art/20.jpg","1","","","","","","","","","","","","","","","","","","","","","","","","",""
"642","","image-button-response","231","1026388","0.0-229.0-0.0","ARQ7R97434PM2","img_art/20.jpg","5","","","","","","","","","","","","","","","","","","","","","","","","",""
"null","","html-keyboard-response","232","1027895","0.0-230.0","ARQ7R97434PM2","<p style=""font-size: 48px;"">+</p>","","","","","null","allTrialResponses","1500","1","26","img_art/20.jpg","-37","Not a fan of this.","Jared,Jacob,Kevin,Luke,Ethan,Jesse","i like the rounded edges,18,400,20","It looks painted really nicely.,5,340,20","The beast is running after you.,33,320,20","it looks like a car crash which is depressing,-19,20,20","I can tell this artist has experience. I just don't care for the color combo.,7,120,20","I do at least like the dark colors blending,6,80,20","Luke","it looks like a car crash which is depressing,-19,20,20","Jacob","It looks painted really nicely.,5,340,20","Jesse","I do at least like the dark colors blending,6,80,20","2"
"2656","","survey-text","233","1030585","0.0-231.0-0.0","ARQ7R97434PM2","","","","{""Q0"":""That looks amazing!""}","","","","","","","","","","","","","","","","","","","","","","",""
"2717","","image-slider-response","234","1033308","0.0-232.0","ARQ7R97434PM2","","","","","28","","","","","","","","","","","","","","","","","","","","","",""
"4156","","image-button-response","235","1038315","0.0-233.0","ARQ7R97434PM2","img_art/22.jpg","5","","","","","","","","","","","","","","","","","","","","","","","","",""
"253","","image-button-response","236","1038572","0.0-234.0","ARQ7R97434PM2","img_art/22.jpg","5","","","","","","","","","","","","","","","","","","","","","","","","",""
"468","","image-button-response","237","1039044","0.0-235.0-0.0","ARQ7R97434PM2","img_art/22.jpg","4","","","","","","","","","","","","","","","","","","","","","","","","",""
"402","","image-button-response","238","1039451","0.0-236.0-0.0","ARQ7R97434PM2","img_art/22.jpg","3","","","","","","","","","","","","","","","","","","","","","","","","",""
"null","","html-keyboard-response","239","1039955","0.0-237.0","ARQ7R97434PM2","<p style=""font-size: 48px;"">+</p>","","","","","null","allTrialResponses","500","1","27","img_art/22.jpg","28","That looks amazing!","Gabriel,Jacob,Alejandro,Luke,Shawn,Jesse","its messy, like a child painted it,-14,160,20","I like the mixing of the primary colors.,8,340,20","Beautiful use of chalk or pastels. Love the abstract nature.,35,80,20","the colors and shapes makes me want to keep looking at it,22,20,20","Still like the colors but not the most interesting composition,17,100,20","I usually dont like blurry pieces but the colors are amazing in this,14,80,20","Jesse","I usually dont like blurry pieces but the colors are amazing in this,14,80,20","Shawn","Still like the colors but not the most interesting composition,17,100,20","Luke","the colors and shapes makes me want to keep looking at it,22,20,20","2"
"6120","","survey-text","240","1046107","0.0-238.0-0.0","ARQ7R97434PM2","","","","{""Q0"":""That looks amazing!""}","","","","","","","","","","","","","","","","","","","","","","",""
"35140","","image-slider-response","241","1081252","0.0-239.0","ARQ7R97434PM2","","","","","39","","","","","","","","","","","","","","","","","","","","","",""
"null","","image-button-response","242","1086329","0.0-240.0","ARQ7R97434PM2","img_art/4.jpg","null","","","","","","","","","","","","","","","","","","","","","","","","",""
"8769","","image-button-response","243","1095100","0.0-241.0","ARQ7R97434PM2","img_art/4.jpg","5","","","","","","","","","","","","","","","","","","","","","","","","",""
"540","","image-button-response","244","1095643","0.0-242.0-0.0","ARQ7R97434PM2","img_art/4.jpg","4","","","","","","","","","","","","","","","","","","","","","","","","",""
"371","","image-button-response","245","1096019","0.0-243.0-0.0","ARQ7R97434PM2","img_art/4.jpg","3","","","","","","","","","","","","","","","","","","","","","","","","",""
"null","","html-keyboard-response","246","1097024","0.0-244.0","ARQ7R97434PM2","<p style=""font-size: 48px;"">+</p>","","","","","null","allTrialResponses","1000","1","28","img_art/4.jpg","39","That looks amazing!","Cody,Colton,Jeffrey,Luke,Shawn,Jesse","Interesting but maybe a little creepy,0,180,20","I really don't like the colors,-26,220,20","Easy and relaxing,23,40,20","it looks like a simple finger painting, yet i liked the color choices,-12,20,20","Great movement but don't love the yellowy tones.,31,100,20","I like the warmth in the colors. Its reassuring.,9,80,20","Jesse","I like the warmth in the colors. Its reassuring.,9,80,20","Shawn","Great movement but don't love the yellowy tones.,31,100,20","Luke","it looks like a simple finger painting, yet i liked the color choices,-12,20,20","2"
"14551","","survey-text","247","1111595","0.0-245.0-0.0","ARQ7R97434PM2","","","","{""Q0"":""That looks amazing!""}","","","","","","","","","","","","","","","","","","","","","","",""
"2619","","image-slider-response","248","1114220","0.0-246.0","ARQ7R97434PM2","","","","","33","","","","","","","","","","","","","","","","","","","","","",""
"3884","","image-button-response","249","1119228","0.0-247.0","ARQ7R97434PM2","img_art/11.jpg","3","","","","","","","","","","","","","","","","","","","","","","","","",""
"509","","image-button-response","250","1119739","0.0-248.0","ARQ7R97434PM2","img_art/11.jpg","3","","","","","","","","","","","","","","","","","","","","","","","","",""
"397","","image-button-response","251","1120140","0.0-249.0-0.0","ARQ7R97434PM2","img_art/11.jpg","4","","","","","","","","","","","","","","","","","","","","","","","","",""
"395","","image-button-response","252","1120540","0.0-250.0-0.0","ARQ7R97434PM2","img_art/11.jpg","5","","","","","","","","","","","","","","","","","","","","","","","","",""
"null","","html-keyboard-response","253","1121047","0.0-251.0","ARQ7R97434PM2","<p style=""font-size: 48px;"">+</p>","","","","","null","allTrialResponses","500","1","29","img_art/11.jpg","33","That looks amazing!","Eric,Matthew,Isaac,Luke,Shawn,Jesse","I don't like the gloomy color, but it reminds me of a city which I like.,35,100,20","Dark but bright, city but ocean, musical scales.,50,120,20","I like the harsh black lines against a soft background.,27,280,20","it reminds me of music,43,20,20","Like the movement but not the background colors.,21,100,20","I like the dark lines and it interests me,13,80,20","Luke","it reminds me of music,43,20,20","Shawn","Like the movement but not the background colors.,21,100,20","Jesse","I like the dark lines and it interests me,13,80,20","2"
"10313","","survey-text","254","1131397","0.0-252.0-0.0","ARQ7R97434PM2","","","","{""Q0"":""Not a fan of this.""}","","","","","","","","","","","","","","","","","","","","","","",""
"27035","","image-slider-response","255","1158437","0.0-253.0","ARQ7R97434PM2","","","","","27","","","","","","","","","","","","","","","","","","","","","",""
"null","","image-button-response","256","1163449","0.0-254.0","ARQ7R97434PM2","img_art/7.jpg","null","","","","","","","","","","","","","","","","","","","","","","","","",""
"1425","","image-button-response","257","1164875","0.0-255.0","ARQ7R97434PM2","img_art/7.jpg","4","","","","","","","","","","","","","","","","","","","","","","","","",""
"365","","image-button-response","258","1165244","0.0-256.0-0.0","ARQ7R97434PM2","img_art/7.jpg","3","","","","","","","","","","","","","","","","","","","","","","","","",""
"467","","image-button-response","259","1165716","0.0-257.0-0.0","ARQ7R97434PM2","img_art/7.jpg","5","","","","","","","","","","","","","","","","","","","","","","","","",""
"null","","html-keyboard-response","260","1167221","0.0-258.0","ARQ7R97434PM2","<p style=""font-size: 48px;"">+</p>","","","","","null","allTrialResponses","1500","1","30","img_art/7.jpg","27","Not a fan of this.","Malik,Logan,Lucas,Luke,Shawn,Jesse","Detail oriented, like cracked paint wall,15,40,20","mars also crunchy leaves maybe a beehive,32,360,20","Don't understand the meaning of this picture.,-30,380,20","reminds me of the desert,-20,20,20","Like the tactile quality,30,100,20","Makes me think of the beach which makes me happy,14,80,20","Shawn","Like the tactile quality,30,100,20","Luke","reminds me of the desert,-20,20,20","Jesse","Makes me think of the beach which makes me happy,14,80,20","2"
"3836","","image-button-response_instructions","261","1171091","0.0-259.0","ARQ7R97434PM2","","0","instructions","","","","","","","","","","","","","","","","","","","","","","","",""
