"rt","url","trial_type","trial_index","time_elapsed","internal_node_id","participant_id","stimulus","button_pressed","Name","responses","response","key_press","variableName","fixationTime","condition","trial","photo","subjectRating","subjectResponse","agentsNames","agent_1_Response","agent_2_Response","agent_3_Response","agent_4_Response","agent_5_Response","agent_6_Response","kept_1_name","kept_1_response","kept_2_name","kept_2_response","kept_3_name","kept_3_response","errorCounter"
"3463","external_page_harvard.html","external-html","0","3569","0.0-0.0","AS2MFSWNC5CQI","","","","","","","","","","","","","","","","","","","","","","","","","","",""
"1102","","image-button-response","1","4673","0.0-1.0","AS2MFSWNC5CQI","","1","","","","","","","","","","","","","","","","","","","","","","","","",""
"1124","","image-button-response","2","5800","0.0-2.0-0.0","AS2MFSWNC5CQI","","1","phone","","","","","","","","","","","","","","","","","","","","","","","",""
"5343","","survey-text","3","11144","0.0-3.0-0.0","AS2MFSWNC5CQI","","","","{""Q0"":""AS2MFSWNC5CQI""}","","","","","","","","","","","","","","","","","","","","","","",""
"1046","","image-button-response_instructions","4","12193","0.0-4.0","AS2MFSWNC5CQI","","0","instructions","","","","","","","","","","","","","","","","","","","","","","","",""
"3845","","image-button-response_instructions","5","16041","0.0-5.0","AS2MFSWNC5CQI","img_art/ins/popularity/ins1.png","0","instructions","","","","","","","","","","","","","","","","","","","","","","","",""
"7176","","image-button-response_instructions","6","23218","0.0-6.0","AS2MFSWNC5CQI","img_art/ins/popularity/ins2.png","0","instructions","","","","","","","","","","","","","","","","","","","","","","","",""
"6422","","image-button-response_instructions","7","29641","0.0-7.0","AS2MFSWNC5CQI","img_art/ins/popularity/ins2Extreme.png","0","instructions","","","","","","","","","","","","","","","","","","","","","","","",""
"8615","","image-button-response_instructions","8","38257","0.0-8.0","AS2MFSWNC5CQI","img_art/ins/popularity/ins3KEEPpop.PNG","0","instructions","","","","","","","","","","","","","","","","","","","","","","","",""
"2575","","image-button-response_instructions","9","40832","0.0-9.0","AS2MFSWNC5CQI","img_art/ins/popularity/ins3ANamepop.PNG","0","instructions","","","","","","","","","","","","","","","","","","","","","","","",""
"2047","","image-button-response_instructions","10","42880","0.0-10.0","AS2MFSWNC5CQI","img_art/ins/popularity/ins3ARatingpop.png","0","instructions","","","","","","","","","","","","","","","","","","","","","","","",""
"6504","","image-button-response_instructions","11","49385","0.0-11.0","AS2MFSWNC5CQI","img_art/ins/popularity/ins3ATextpop.png","0","instructions","","","","","","","","","","","","","","","","","","","","","","","",""
"2487","","image-button-response_instructions","12","51872","0.0-12.0","AS2MFSWNC5CQI","img_art/ins/popularity/ins3ALikespop.png","0","instructions","","","","","","","","","","","","","","","","","","","","","","","",""
"11343","","image-button-response_instructions","13","63216","0.0-13.0","AS2MFSWNC5CQI","img_art/ins/popularity/ins3KEEPpop.PNG","0","instructions","","","","","","","","","","","","","","","","","","","","","","","",""
"3480","","image-button-response_instructions","14","66697","0.0-14.0","AS2MFSWNC5CQI","img_art/ins/popularity/ins3_5RED.png","0","instructions","","","","","","","","","","","","","","","","","","","","","","","",""
"5191","","image-button-response_instructions","15","71889","0.0-15.0","AS2MFSWNC5CQI","img_art/ins/popularity/ins3KEEPpop.PNG","0","instructions","","","","","","","","","","","","","","","","","","","","","","","",""
"5431","","image-button-response_instructions","16","77321","0.0-16.0","AS2MFSWNC5CQI","img_art/ins/popularity/ins4KEEPpop.PNG","0","instructions","","","","","","","","","","","","","","","","","","","","","","","",""
"3470","","image-button-response_instructions","17","80792","0.0-17.0","AS2MFSWNC5CQI","img_art/ins/popularity/ins5KEEPpop.PNG","0","instructions","","","","","","","","","","","","","","","","","","","","","","","",""
"1503","","image-button-response_instructions","18","82296","0.0-18.0","AS2MFSWNC5CQI","","0","instructions","","","","","","","","","","","","","","","","","","","","","","","",""
"8163","","survey-text","19","90480","0.0-19.0-0.0","AS2MFSWNC5CQI","","","","{""Q0"":""but""}","","","","","","","","","","","","","","","","","","","","","","",""
"10855","","survey-text","20","101336","0.0-20.0-0.0","AS2MFSWNC5CQI","","","","{""Q0"":""I think its ugly and boring""}","","","","","","","","","","","","","","","","","","","","","","",""
"2678","","image-slider-response","21","104017","0.0-21.0","AS2MFSWNC5CQI","","","","","-41","","","","","","","","","","","","","","","","","","","","","",""
"null","","image-button-response","22","109024","0.0-22.0","AS2MFSWNC5CQI","img_art/ins/1.jpg","null","","","","","","","","","","","","","","","","","","","","","","","","",""
"704","","image-button-response","23","109728","0.0-23.0","AS2MFSWNC5CQI","img_art/ins/1.jpg","2","","","","","","","","","","","","","","","","","","","","","","","","",""
"6455","","image-button-response","24","116184","0.0-24.0-0.0","AS2MFSWNC5CQI","img_art/ins/1.jpg","0","","","","","","","","","","","","","","","","","","","","","","","","",""
"2239","","image-button-response","25","118425","0.0-25.0-0.0","AS2MFSWNC5CQI","img_art/ins/1.jpg","0","","","","","","","","","","","","","","","","","","","","","","","","",""
"6955","","image-button-response","26","128808","0.0-25.1-0.1","AS2MFSWNC5CQI","img_art/ins/1.jpg","1","","","","","","","","","","","","","","","","","","","","","","","","",""
"null","","html-keyboard-response","27","129315","0.0-26.0","AS2MFSWNC5CQI","<p style=""font-size: 48px;"">+</p>","","","","","null","allTrialResponses","500","1","-2","img_art/ins/1.jpg","-41","I think its ugly and boring","Allison,Ashley,Beth,Dora,Erika,Jen","looks like a lot of things going on in the mist,20,20,20","I just don't get why these type of art would be popular,-32,40,20","This color reminds me of poo,-46,60,20","looks like what my niece in 3rd grade did this afternoon,-50,80,20","I like the sophisticated brushwork,40,100,20","It reminds me of a candy land dream I had,36,120,20","Beth","This color reminds me of poo,-46,60,20","Allison","looks like a lot of things going on in the mist,20,20,20","Ashley","I just don't get why these type of art would be popular,-32,40,20","2"
"14160","","survey-text","28","143488","0.0-27.0-0.0","AS2MFSWNC5CQI","","","","{""Q0"":""Beautiful and it shows horror""}","","","","","","","","","","","","","","","","","","","","","","",""
"2213","","image-slider-response","29","145704","0.0-28.0","AS2MFSWNC5CQI","","","","","30","","","","","","","","","","","","","","","","","","","","","",""
"null","","image-button-response","30","150709","0.0-29.0","AS2MFSWNC5CQI","img_art/ins/2.jpg","null","","","","","","","","","","","","","","","","","","","","","","","","",""
"3922","","image-button-response","31","154632","0.0-30.0","AS2MFSWNC5CQI","img_art/ins/2.jpg","4","","","","","","","","","","","","","","","","","","","","","","","","",""
"5103","","image-button-response","32","159736","0.0-31.0-0.0","AS2MFSWNC5CQI","img_art/ins/2.jpg","0","","","","","","","","","","","","","","","","","","","","","","","","",""
"2367","","image-button-response","33","162104","0.0-32.0-0.0","AS2MFSWNC5CQI","img_art/ins/2.jpg","5","","","","","","","","","","","","","","","","","","","","","","","","",""
"null","","html-keyboard-response","34","163107","0.0-33.0","AS2MFSWNC5CQI","<p style=""font-size: 48px;"">+</p>","","","","","null","allTrialResponses","1000","1","-1","img_art/ins/2.jpg","30","Beautiful and it shows horror","Allison,Ashley,Beth,Jenna,Kara,Katie","I don't have strong feelings about this,10,20,20","Idk, it is just annoying,-32,40,20","meaningless painting,-45,60,20","One of my pet peevs,-48,140,20","I like the blocks of color arrangements,30,160,20","too much color!,-28,180,20","Kara","I like the blocks of color arrangements,30,160,20","Allison","I don't have strong feelings about this,10,20,20","Katie","too much color!,-28,180,20","2"
"123094","","survey-text","35","286208","0.0-34.0-0.0","AS2MFSWNC5CQI","","","","{""Q0"":""Too much blue and dull""}","","","","","","","","","","","","","","","","","","","","","","",""
"2958","","image-slider-response","36","289167","0.0-35.0","AS2MFSWNC5CQI","","","","","-33","","","","","","","","","","","","","","","","","","","","","",""
"3727","","image-button-response","37","294185","0.0-36.0","AS2MFSWNC5CQI","img_art/ins/3.jpg","3","","","","","","","","","","","","","","","","","","","","","","","","",""
"789","","image-button-response","38","294977","0.0-37.0","AS2MFSWNC5CQI","img_art/ins/3.jpg","5","","","","","","","","","","","","","","","","","","","","","","","","",""
"1502","","image-button-response","39","296481","0.0-38.0-0.0","AS2MFSWNC5CQI","img_art/ins/3.jpg","3","","","","","","","","","","","","","","","","","","","","","","","","",""
"2598","","image-button-response","40","299081","0.0-39.0-0.0","AS2MFSWNC5CQI","img_art/ins/3.jpg","2","","","","","","","","","","","","","","","","","","","","","","","","",""
"null","","html-keyboard-response","41","300592","0.0-40.0","AS2MFSWNC5CQI","<p style=""font-size: 48px;"">+</p>","","","","","null","allTrialResponses","1500","1","0","img_art/ins/3.jpg","-33","Too much blue and dull","Allison,Mary,Rose,Leslie,Kara,Katie","enjoy the different shades of blue,22,20,20","I like the overlapping of brushes,41,220,20","My daily routine, it's depressing,-20,240,20","It's an alright work,15,200,20","calming blue is very nice,36,160,20","It looks depressing,-26,180,20","Katie","It looks depressing,-26,180,20","Leslie","It's an alright work,15,200,20","Rose","My daily routine, it's depressing,-20,240,20","2"
"5373","","image-button-response_instructions","42","305977","0.0-41.0","AS2MFSWNC5CQI","","0","instructions","","","","","","","","","","","","","","","","","","","","","","","",""
"13192","","survey-likert","43","319171","0.0-42.0-0.0","AS2MFSWNC5CQI","","","","{""Q0"":"""",""Q1"":0,""Q2"":1}","","","","","","","","","","","","","","","","","","","","","","",""
"5794","","survey-text","44","324968","0.0-43.0-0.0","AS2MFSWNC5CQI","","","","{""Q0"":""rock""}","","","","","","","","","","","","","","","","","","","","","","",""
"10079","","survey-text","45","335048","0.0-44.0-0.0","AS2MFSWNC5CQI","","","","{""Q0"":""looks like a child painted this""}","","","","","","","","","","","","","","","","","","","","","","",""
"1999","","image-slider-response","46","337048","0.0-45.0","AS2MFSWNC5CQI","","","","","-32","","","","","","","","","","","","","","","","","","","","","",""
"3863","","image-button-response","47","342066","0.0-46.0","AS2MFSWNC5CQI","img_art/26.jpg","1","","","","","","","","","","","","","","","","","","","","","","","","",""
"1148","","image-button-response","48","343216","0.0-47.0","AS2MFSWNC5CQI","img_art/26.jpg","1","","","","","","","","","","","","","","","","","","","","","","","","",""
"2591","","image-button-response","49","345808","0.0-48.0-0.0","AS2MFSWNC5CQI","img_art/26.jpg","4","","","","","","","","","","","","","","","","","","","","","","","","",""
"5119","","image-button-response","50","350928","0.0-49.0-0.0","AS2MFSWNC5CQI","img_art/26.jpg","2","","","","","","","","","","","","","","","","","","","","","","","","",""
"null","","html-keyboard-response","51","352442","0.0-50.0","AS2MFSWNC5CQI","<p style=""font-size: 48px;"">+</p>","","","","","null","allTrialResponses","1500","1","1","img_art/26.jpg","-32","looks like a child painted this","Angelica,Emily,Sarah,Leslie,Anna,Amanda","It's not ugly but not beautiful at all.,-3,280,20","Not much skil went into this one either.,-41,40,20","too hard to figure out if it's meant to be actual objects or impressions,-36,180,20","It's a cute city scene. I like the trees.,10,380,20","It looks like a watercolor I did when I was 6.,-30,300,20","Pleasant to look at,28,180,20","Emily","Not much skil went into this one either.,-41,40,20","Anna","It looks like a watercolor I did when I was 6.,-30,300,20","Sarah","too hard to figure out if it's meant to be actual objects or impressions,-36,180,20","2"
"11089","","survey-text","52","363536","0.0-51.0-0.0","AS2MFSWNC5CQI","","","","{""Q0"":""nice colors I enjoy""}","","","","","","","","","","","","","","","","","","","","","","",""
"15889","","image-slider-response","53","379426","0.0-52.0","AS2MFSWNC5CQI","","","","","23","","","","","","","","","","","","","","","","","","","","","",""
"null","","image-button-response","54","384437","0.0-53.0","AS2MFSWNC5CQI","img_art/22.jpg","null","","","","","","","","","","","","","","","","","","","","","","","","",""
"3018","","image-button-response","55","387456","0.0-54.0","AS2MFSWNC5CQI","img_art/22.jpg","0","","","","","","","","","","","","","","","","","","","","","","","","",""
"8183","","image-button-response","56","395640","0.0-55.0-0.0","AS2MFSWNC5CQI","img_art/22.jpg","1","","","","","","","","","","","","","","","","","","","","","","","","",""
"670","","image-button-response","57","396312","0.0-56.0-0.0","AS2MFSWNC5CQI","img_art/22.jpg","3","","","","","","","","","","","","","","","","","","","","","","","","",""
"null","","html-keyboard-response","58","397814","0.0-57.0","AS2MFSWNC5CQI","<p style=""font-size: 48px;"">+</p>","","","","","null","allTrialResponses","1500","1","2","img_art/22.jpg","23","nice colors I enjoy","Brianna,Emily,Sarah,Erin,Anna,Tiffany","Like the black key and the rainbow color theme.,31,20,20","There is some flow and organization.,10,40,20","boring, too many red and yellow tones for my taste,-15,180,20","Seems dated with geometic forms,-20,120,20","Boring, typical abstract art,-30,300,20","The painting makes me feel a little sad.,12,360,20","Brianna","Like the black key and the rainbow color theme.,31,20,20","Emily","There is some flow and organization.,10,40,20","Erin","Seems dated with geometic forms,-20,120,20","2"
"15759","","survey-text","59","413584","0.0-58.0-0.0","AS2MFSWNC5CQI","","","","{""Q0"":""really ugly and looks like scribbles""}","","","","","","","","","","","","","","","","","","","","","","",""
"2079","","image-slider-response","60","415664","0.0-59.0","AS2MFSWNC5CQI","","","","","-46","","","","","","","","","","","","","","","","","","","","","",""
"null","","image-button-response","61","420671","0.0-60.0","AS2MFSWNC5CQI","img_art/9.jpg","null","","","","","","","","","","","","","","","","","","","","","","","","",""
"1072","","image-button-response","62","421744","0.0-61.0","AS2MFSWNC5CQI","img_art/9.jpg","2","","","","","","","","","","","","","","","","","","","","","","","","",""
"622","","image-button-response","63","422368","0.0-62.0-0.0","AS2MFSWNC5CQI","img_art/9.jpg","1","","","","","","","","","","","","","","","","","","","","","","","","",""
"3967","","image-button-response","64","426336","0.0-63.0-0.0","AS2MFSWNC5CQI","img_art/9.jpg","3","","","","","","","","","","","","","","","","","","","","","","","","",""
"null","","html-keyboard-response","65","427844","0.0-64.0","AS2MFSWNC5CQI","<p style=""font-size: 48px;"">+</p>","","","","","null","allTrialResponses","1500","1","3","img_art/9.jpg","-46","really ugly and looks like scribbles","Brianna,Emily,Bailey,Erin,Olivia,Erica","This has some of my favorite colors, and I like it,21,20,20","Looks like a young child drew it.,-45,40,20","Not very enticing. No real substance other than a lady laying down,-35,360,20","Framing is overwhelming,-35,120,20","what a wild ride,11,40,20","Looks very relaxing; someone laying in a meadow,13,80,20","Bailey","Not very enticing. No real substance other than a lady laying down,-35,360,20","Emily","Looks like a young child drew it.,-45,40,20","Erin","Framing is overwhelming,-35,120,20","2"
"76054","","survey-text","66","503904","0.0-65.0-0.0","AS2MFSWNC5CQI","","","","{""Q0"":""Looks like someone finger painted in poo""}","","","","","","","","","","","","","","","","","","","","","","",""
"8742","","image-slider-response","67","512648","0.0-66.0","AS2MFSWNC5CQI","","","","","-44","","","","","","","","","","","","","","","","","","","","","",""
"3494","","image-button-response","68","517656","0.0-67.0","AS2MFSWNC5CQI","img_art/4.jpg","2","","","","","","","","","","","","","","","","","","","","","","","","",""
"823","","image-button-response","69","518481","0.0-68.0","AS2MFSWNC5CQI","img_art/4.jpg","0","","","","","","","","","","","","","","","","","","","","","","","","",""
"934","","image-button-response","70","519416","0.0-69.0-0.0","AS2MFSWNC5CQI","img_art/4.jpg","2","","","","","","","","","","","","","","","","","","","","","","","","",""
"752","","image-button-response","71","520168","0.0-70.0-0.0","AS2MFSWNC5CQI","img_art/4.jpg","5","","","","","","","","","","","","","","","","","","","","","","","","",""
"null","","html-keyboard-response","72","521178","0.0-71.0","AS2MFSWNC5CQI","<p style=""font-size: 48px;"">+</p>","","","","","null","allTrialResponses","1000","1","4","img_art/4.jpg","-44","Looks like someone finger painted in poo","Mikayla,Emily,Bailey,Erin,Melissa,Chelsea","Not very interesting to look at.,-34,300,20","Looks like a child did it.,-42,40,20","Boring and tasteless. Almost reminds me of when an art gallery called a banana 'art',-42,360,20","Seems simplistic,-8,120,20","appealing warm palette,6,240,20","The colors remind me of McDonalds.,-41,180,20","Mikayla","Not very interesting to look at.,-34,300,20","Bailey","Boring and tasteless. Almost reminds me of when an art gallery called a banana 'art',-42,360,20","Chelsea","The colors remind me of McDonalds.,-41,180,20","2"
"9893","","survey-text","73","531081","0.0-72.0-0.0","AS2MFSWNC5CQI","","","","{""Q0"":""dull and looks like decay""}","","","","","","","","","","","","","","","","","","","","","","",""
"2086","","image-slider-response","74","533168","0.0-73.0","AS2MFSWNC5CQI","","","","","-28","","","","","","","","","","","","","","","","","","","","","",""
"3807","","image-button-response","75","538176","0.0-74.0","AS2MFSWNC5CQI","img_art/7.jpg","4","","","","","","","","","","","","","","","","","","","","","","","","",""
"862","","image-button-response","76","539041","0.0-75.0","AS2MFSWNC5CQI","img_art/7.jpg","4","","","","","","","","","","","","","","","","","","","","","","","","",""
"1029","","image-button-response","77","540072","0.0-76.0-0.0","AS2MFSWNC5CQI","img_art/7.jpg","3","","","","","","","","","","","","","","","","","","","","","","","","",""
"1254","","image-button-response","78","541328","0.0-77.0-0.0","AS2MFSWNC5CQI","img_art/7.jpg","5","","","","","","","","","","","","","","","","","","","","","","","","",""
"null","","html-keyboard-response","79","542333","0.0-78.0","AS2MFSWNC5CQI","<p style=""font-size: 48px;"">+</p>","","","","","null","allTrialResponses","1000","1","5","img_art/7.jpg","-28","dull and looks like decay","Mikayla,Savannah,Bailey,Kelly,Diana,Chelsea","I love the texture.,20,300,20","More saturated color, even more interpretations to have.,44,200,20","It gives off an alien-like vastness of space vibe which I like,9,360,20","My firs thought was ""gross""...not sure what this is and I dont think i want to know.,-19,220,20","This piece reminds me of ants and it makes my skin crawl.,-37,380,20","It looks more like wallpaper rather than a painting.,-27,180,20","Diana","This piece reminds me of ants and it makes my skin crawl.,-37,380,20","Kelly","My firs thought was ""gross""...not sure what this is and I dont think i want to know.,-19,220,20","Chelsea","It looks more like wallpaper rather than a painting.,-27,180,20","2"
"3918","","survey-text","80","546272","0.0-79.0-0.0","AS2MFSWNC5CQI","","","","{""Q0"":""sky""}","","","","","","","","","","","","","","","","","","","","","","",""
"18846","","survey-text","81","565119","0.0-80.0-0.0","AS2MFSWNC5CQI","","","","{""Q0"":""looks like paint was just dropped on here ""}","","","","","","","","","","","","","","","","","","","","","","",""
"2255","","image-slider-response","82","567375","0.0-81.0","AS2MFSWNC5CQI","","","","","-30","","","","","","","","","","","","","","","","","","","","","",""
"3976","","image-button-response","83","572392","0.0-82.0","AS2MFSWNC5CQI","img_art/2.jpg","0","","","","","","","","","","","","","","","","","","","","","","","","",""
"631","","image-button-response","84","573023","0.0-83.0","AS2MFSWNC5CQI","img_art/2.jpg","0","","","","","","","","","","","","","","","","","","","","","","","","",""
"808","","image-button-response","85","573832","0.0-84.0-0.0","AS2MFSWNC5CQI","img_art/2.jpg","4","","","","","","","","","","","","","","","","","","","","","","","","",""
"3950","","image-button-response","86","577783","0.0-85.0-0.0","AS2MFSWNC5CQI","img_art/2.jpg","3","","","","","","","","","","","","","","","","","","","","","","","","",""
"null","","html-keyboard-response","87","578288","0.0-86.0","AS2MFSWNC5CQI","<p style=""font-size: 48px;"">+</p>","","","","","null","allTrialResponses","500","1","6","img_art/2.jpg","-30","looks like paint was just dropped on here ","Breanna,Molly,Paige,Kelly,Diana,Chelsea","It's just a splash of paint on a canvas,-31,380,20","Colorful, curious.,20,340,20","Unhappy. I do not like it,-5,60,20","I cant tell whats happening here and that shade of green is just not my thing.,-17,220,20","I think I see people sitting in lawn chairs in a circle watching an event. Not really sure so I rated it lower.,-35,380,20","Not sure what is happening. I'm not a big fan of the colors but they don't bother me either.,1,180,20","Breanna","It's just a splash of paint on a canvas,-31,380,20","Diana","I think I see people sitting in lawn chairs in a circle watching an event. Not really sure so I rated it lower.,-35,380,20","Kelly","I cant tell whats happening here and that shade of green is just not my thing.,-17,220,20","2"
"65812","","survey-text","88","644103","0.0-87.0-0.0","AS2MFSWNC5CQI","","","","{""Q0"":""looks boring like a bunch of ants""}","","","","","","","","","","","","","","","","","","","","","","",""
"2359","","image-slider-response","89","646464","0.0-88.0","AS2MFSWNC5CQI","","","","","-29","","","","","","","","","","","","","","","","","","","","","",""
"4424","","image-button-response","90","651472","0.0-89.0","AS2MFSWNC5CQI","img_art/15.jpg","4","","","","","","","","","","","","","","","","","","","","","","","","",""
"2293","","image-button-response","91","653768","0.0-90.0","AS2MFSWNC5CQI","img_art/15.jpg","4","","","","","","","","","","","","","","","","","","","","","","","","",""
"1456","","image-button-response","92","655225","0.0-91.0-0.0","AS2MFSWNC5CQI","img_art/15.jpg","0","","","","","","","","","","","","","","","","","","","","","","","","",""
"1438","","image-button-response","93","656664","0.0-92.0-0.0","AS2MFSWNC5CQI","img_art/15.jpg","0","","","","","","","","","","","","","","","","","","","","","","","","",""
"1124","","image-button-response","94","659672","0.0-92.1-0.1","AS2MFSWNC5CQI","img_art/15.jpg","5","","","","","","","","","","","","","","","","","","","","","","","","",""
"null","","html-keyboard-response","95","660176","0.0-93.0","AS2MFSWNC5CQI","<p style=""font-size: 48px;"">+</p>","","","","","null","allTrialResponses","500","1","7","img_art/15.jpg","-29","looks boring like a bunch of ants","Breanna,Maria,Ashley,Kelly,Diana,Kaitlin","Makes me feel weird,-16,380,20","i enjoy its apaprent simplicity (of colour and shape),32,120,20","I think of birds, nature, levels of space.,18,320,20","I can't really make out what this is supposed to be.,-8,220,20","There should be more space between the black marks. The black comes off harsh and the blue between the trees can barely be seen.,-21,380,20","This one seems a bit frightening,-19,60,20","Diana","There should be more space between the black marks. The black comes off harsh and the blue between the trees can barely be seen.,-21,380,20","Breanna","Makes me feel weird,-16,380,20","Kaitlin","This one seems a bit frightening,-19,60,20","4"
"15381","","survey-text","96","675568","0.0-94.0-0.0","AS2MFSWNC5CQI","","","","{""Q0"":""doesn't look like it would take much for a child to do""}","","","","","","","","","","","","","","","","","","","","","","",""
"2622","","image-slider-response","97","678192","0.0-95.0","AS2MFSWNC5CQI","","","","","-19","","","","","","","","","","","","","","","","","","","","","",""
"3518","","image-button-response","98","683200","0.0-96.0","AS2MFSWNC5CQI","img_art/30.jpg","0","","","","","","","","","","","","","","","","","","","","","","","","",""
"669","","image-button-response","99","683872","0.0-97.0","AS2MFSWNC5CQI","img_art/30.jpg","1","","","","","","","","","","","","","","","","","","","","","","","","",""
"3456","","image-button-response","100","687328","0.0-98.0-0.0","AS2MFSWNC5CQI","img_art/30.jpg","4","","","","","","","","","","","","","","","","","","","","","","","","",""
"1488","","image-button-response","101","688816","0.0-99.0-0.0","AS2MFSWNC5CQI","img_art/30.jpg","0","","","","","","","","","","","","","","","","","","","","","","","","",""
"null","","html-keyboard-response","102","690328","0.0-100.0","AS2MFSWNC5CQI","<p style=""font-size: 48px;"">+</p>","","","","","null","allTrialResponses","1500","1","8","img_art/30.jpg","-19","doesn't look like it would take much for a child to do","Breanna,Andrea,Alexandria,Dominique,Diana,Kaitlin","Paint scribbled on canvas,-25,380,20","It feels like graffiti and the dark colors do nothing for the mood.,-5,240,20","the lines and colors look purposeful,18,80,20","Personal , calming conservative signature business ideal.,32,400,20","I love the color contrast of the red against the blue.,9,380,20","the different roads to take in life,10,60,20","Andrea","It feels like graffiti and the dark colors do nothing for the mood.,-5,240,20","Diana","I love the color contrast of the red against the blue.,9,380,20","Breanna","Paint scribbled on canvas,-25,380,20","4"
"18065","","survey-text","103","708399","0.0-101.0-0.0","AS2MFSWNC5CQI","","","","{""Q0"":""like this one reminds me of water""}","","","","","","","","","","","","","","","","","","","","","","",""
"2767","","image-slider-response","104","711168","0.0-102.0","AS2MFSWNC5CQI","","","","","22","","","","","","","","","","","","","","","","","","","","","",""
"3710","","image-button-response","105","716171","0.0-103.0","AS2MFSWNC5CQI","img_art/24.jpg","1","","","","","","","","","","","","","","","","","","","","","","","","",""
"1434","","image-button-response","106","717607","0.0-104.0","AS2MFSWNC5CQI","img_art/24.jpg","1","","","","","","","","","","","","","","","","","","","","","","","","",""
"927","","image-button-response","107","718535","0.0-105.0-0.0","AS2MFSWNC5CQI","img_art/24.jpg","4","","","","","","","","","","","","","","","","","","","","","","","","",""
"1343","","image-button-response","108","719880","0.0-106.0-0.0","AS2MFSWNC5CQI","img_art/24.jpg","3","","","","","","","","","","","","","","","","","","","","","","","","",""
"null","","html-keyboard-response","109","720385","0.0-107.0","AS2MFSWNC5CQI","<p style=""font-size: 48px;"">+</p>","","","","","null","allTrialResponses","500","1","9","img_art/24.jpg","22","like this one reminds me of water","Breanna,Andrea,Lauren,Jamie,Diana,Kaylee","Like it, nice attention to details,31,380,20","Waterfall, and I love the coloring.,48,240,20","Invokes a strong sense of nature, since the piece can interpreted as a stream or an abstracted bird.,40,340,20","Beautiful waterfall with nice colors,40,320,20","This is stunning. I love how the brown, red and oranges are blended in together.,40,380,20","lovely forest vibes,36,200,20","Andrea","Waterfall, and I love the coloring.,48,240,20","Diana","This is stunning. I love how the brown, red and oranges are blended in together.,40,380,20","Jamie","Beautiful waterfall with nice colors,40,320,20","4"
"14483","","survey-text","110","734871","0.0-108.0-0.0","AS2MFSWNC5CQI","","","","{""Q0"":""This one looks like stone age""}","","","","","","","","","","","","","","","","","","","","","","",""
"3455","","image-slider-response","111","738327","0.0-109.0","AS2MFSWNC5CQI","","","","","23","","","","","","","","","","","","","","","","","","","","","",""
"3367","","image-button-response","112","743333","0.0-110.0","AS2MFSWNC5CQI","img_art/20.jpg","3","","","","","","","","","","","","","","","","","","","","","","","","",""
"739","","image-button-response","113","744072","0.0-111.0","AS2MFSWNC5CQI","img_art/20.jpg","1","","","","","","","","","","","","","","","","","","","","","","","","",""
"527","","image-button-response","114","744599","0.0-112.0-0.0","AS2MFSWNC5CQI","img_art/20.jpg","4","","","","","","","","","","","","","","","","","","","","","","","","",""
"632","","image-button-response","115","745233","0.0-113.0-0.0","AS2MFSWNC5CQI","img_art/20.jpg","3","","","","","","","","","","","","","","","","","","","","","","","","",""
"null","","html-keyboard-response","116","746236","0.0-114.0","AS2MFSWNC5CQI","<p style=""font-size: 48px;"">+</p>","","","","","null","allTrialResponses","1000","1","10","img_art/20.jpg","23","This one looks like stone age","Briana,Andrea,Alexandra,Jamie,Diana,Shelby","Someone trying to be dali,-15,400,20","Reminds me of persistance of time (a favorite of mine).,30,240,20","The white blob looks like a face and it's creepy,-30,60,20","Looks like some type of future dystopian civilization,35,320,20","I'm not sure why this reminds me of surrealism. It might be the colors used.,16,380,20","Makes me think if a car crash or some sort of disaster,-20,240,20","Andrea","Reminds me of persistance of time (a favorite of mine).,30,240,20","Diana","I'm not sure why this reminds me of surrealism. It might be the colors used.,16,380,20","Jamie","Looks like some type of future dystopian civilization,35,320,20","4"
"6591","","survey-text","117","752831","0.0-115.0-0.0","AS2MFSWNC5CQI","","","","{""Q0"":""our""}","","","","","","","","","","","","","","","","","","","","","","",""
"67527","","survey-text","118","820359","0.0-116.0-0.0","AS2MFSWNC5CQI","","","","{""Q0"":""I think it looks faded and old""}","","","","","","","","","","","","","","","","","","","","","","",""
"2190","","image-slider-response","119","822551","0.0-117.0","AS2MFSWNC5CQI","","","","","-27","","","","","","","","","","","","","","","","","","","","","",""
"null","","image-button-response","120","827554","0.0-118.0","AS2MFSWNC5CQI","img_art/14.jpg","null","","","","","","","","","","","","","","","","","","","","","","","","",""
"501","","image-button-response","121","828056","0.0-119.0","AS2MFSWNC5CQI","img_art/14.jpg","2","","","","","","","","","","","","","","","","","","","","","","","","",""
"671","","image-button-response","122","828728","0.0-120.0-0.0","AS2MFSWNC5CQI","img_art/14.jpg","3","","","","","","","","","","","","","","","","","","","","","","","","",""
"2135","","image-button-response","123","830864","0.0-121.0-0.0","AS2MFSWNC5CQI","img_art/14.jpg","5","","","","","","","","","","","","","","","","","","","","","","","","",""
"null","","html-keyboard-response","124","831866","0.0-122.0","AS2MFSWNC5CQI","<p style=""font-size: 48px;"">+</p>","","","","","null","allTrialResponses","1000","1","11","img_art/14.jpg","-27","I think it looks faded and old","Lindsey,Andrea,Haley,Jamie,Diana,Taylor","Warm, positive, growth.,8,400,20","Cute little plant.,15,240,20","I like the colors in the background, but not the bottom/center. It almost looks sloppy.,-20,220,20","Not as cool as other tree looking paintings,-5,320,20","This piece feels inviting. It's like opening up the pages of your favorite book for the first time.,26,380,20","Makes me think of my plants growing,11,340,20","Haley","I like the colors in the background, but not the bottom/center. It almost looks sloppy.,-20,220,20","Jamie","Not as cool as other tree looking paintings,-5,320,20","Taylor","Makes me think of my plants growing,11,340,20","4"
"24899","","survey-text","125","856767","0.0-123.0-0.0","AS2MFSWNC5CQI","","","","{""Q0"":""I think this artist was terrorized when they were a child""}","","","","","","","","","","","","","","","","","","","","","","",""
"4230","","image-slider-response","126","860999","0.0-124.0","AS2MFSWNC5CQI","","","","","-45","","","","","","","","","","","","","","","","","","","","","",""
"null","","image-button-response","127","866006","0.0-125.0","AS2MFSWNC5CQI","img_art/16.jpg","null","","","","","","","","","","","","","","","","","","","","","","","","",""
"48583","","image-button-response","128","914591","0.0-126.0","AS2MFSWNC5CQI","img_art/16.jpg","0","","","","","","","","","","","","","","","","","","","","","","","","",""
"1527","","image-button-response","129","916120","0.0-127.0-0.0","AS2MFSWNC5CQI","img_art/16.jpg","5","","","","","","","","","","","","","","","","","","","","","","","","",""
"647","","image-button-response","130","916767","0.0-128.0-0.0","AS2MFSWNC5CQI","img_art/16.jpg","1","","","","","","","","","","","","","","","","","","","","","","","","",""
"null","","html-keyboard-response","131","917771","0.0-129.0","AS2MFSWNC5CQI","<p style=""font-size: 48px;"">+</p>","","","","","null","allTrialResponses","1000","1","12","img_art/16.jpg","-45","I think this artist was terrorized when they were a child","Megan,Allison,Haley,Jamie,Julia,Taylor","Ugly, broken up and mismatched,-50,200,20","Hard contrast, but no emotions towards any of the objects.,-6,140,20","Makes me want to know more,5,220,20","Weird and funny,40,320,20","I love the teddy bear,50,40,20","It just makes me feel uncomfortable,-25,340,20","Megan","Ugly, broken up and mismatched,-50,200,20","Taylor","It just makes me feel uncomfortable,-25,340,20","Allison","Hard contrast, but no emotions towards any of the objects.,-6,140,20","4"
"18852","","survey-text","132","936631","0.0-130.0-0.0","AS2MFSWNC5CQI","","","","{""Q0"":""due and boring it looks like they were looking for a seperation""}","","","","","","","","","","","","","","","","","","","","","","",""
"2151","","image-slider-response","133","938783","0.0-131.0","AS2MFSWNC5CQI","","","","","-10","","","","","","","","","","","","","","","","","","","","","",""
"null","","image-button-response","134","943792","0.0-132.0","AS2MFSWNC5CQI","img_art/23.jpg","null","","","","","","","","","","","","","","","","","","","","","","","","",""
"28294","","image-button-response","135","972088","0.0-133.0","AS2MFSWNC5CQI","img_art/23.jpg","0","","","","","","","","","","","","","","","","","","","","","","","","",""
"1288","","image-button-response","136","973376","0.0-134.0-0.0","AS2MFSWNC5CQI","img_art/23.jpg","2","","","","","","","","","","","","","","","","","","","","","","","","",""
"1950","","image-button-response","137","975327","0.0-135.0-0.0","AS2MFSWNC5CQI","img_art/23.jpg","3","","","","","","","","","","","","","","","","","","","","","","","","",""
"null","","html-keyboard-response","138","975832","0.0-136.0","AS2MFSWNC5CQI","<p style=""font-size: 48px;"">+</p>","","","","","null","allTrialResponses","500","1","13","img_art/23.jpg","-10","due and boring it looks like they were looking for a seperation","Megan,Allison,Katie,Kaitlyn,Rachel,Taylor","Too busy with color with warrior lineup,0,200,20","I like the color contrast, though I'm unable to tell what the white shapes are.,25,140,20","I don't get it! the white in the middle of the speckled rainbow is confusing.,-10,160,20","Interesting contrast,9,80,20","Vivid colors and the white in the middle looks like people dancing.,31,80,20","The color contrast makes me happy,40,340,20","Megan","Too busy with color with warrior lineup,0,200,20","Katie","I don't get it! the white in the middle of the speckled rainbow is confusing.,-10,160,20","Kaitlyn","Interesting contrast,9,80,20","4"
"13731","","survey-text","139","989576","0.0-137.0-0.0","AS2MFSWNC5CQI","","","","{""Q0"":""nice contrast of shapes and colors""}","","","","","","","","","","","","","","","","","","","","","","",""
"3615","","image-slider-response","140","993192","0.0-138.0","AS2MFSWNC5CQI","","","","","26","","","","","","","","","","","","","","","","","","","","","",""
"null","","image-button-response","141","998197","0.0-139.0","AS2MFSWNC5CQI","img_art/18.jpg","null","","","","","","","","","","","","","","","","","","","","","","","","",""
"31977","","image-button-response","142","1030176","0.0-140.0","AS2MFSWNC5CQI","img_art/18.jpg","0","","","","","","","","","","","","","","","","","","","","","","","","",""
"1007","","image-button-response","143","1031183","0.0-141.0-0.0","AS2MFSWNC5CQI","img_art/18.jpg","3","","","","","","","","","","","","","","","","","","","","","","","","",""
"1607","","image-button-response","144","1032791","0.0-142.0-0.0","AS2MFSWNC5CQI","img_art/18.jpg","4","","","","","","","","","","","","","","","","","","","","","","","","",""
"null","","html-keyboard-response","145","1033300","0.0-143.0","AS2MFSWNC5CQI","<p style=""font-size: 48px;"">+</p>","","","","","null","allTrialResponses","500","1","14","img_art/18.jpg","26","nice contrast of shapes and colors","Megan,Kathryn,Katie,Kaitlyn,Natalie,Vanessa","Nice palette with complexity becoming nice at the center,34,200,20","Like riding into battle. A sense of confidence, but also trepidation for what's coming. Could be a personification of death.,-10,140,20","Looks messy. Reminds me of a battle or war. I have an unpleasant feeling the more I look.,-20,160,20","Umclear what is present in the picture,0,80,20","my response to the picture is a little bit of anxiety but I like the detail,16,400,20","Again, this is too abtract.,-25,380,20","Megan","Nice palette with complexity becoming nice at the center,34,200,20","Kaitlyn","Umclear what is present in the picture,0,80,20","Natalie","my response to the picture is a little bit of anxiety but I like the detail,16,400,20","4"
"10793","","survey-text","146","1044103","0.0-144.0-0.0","AS2MFSWNC5CQI","","","","{""Q0"":""nice use of simple colors""}","","","","","","","","","","","","","","","","","","","","","","",""
"1983","","image-slider-response","147","1046088","0.0-145.0","AS2MFSWNC5CQI","","","","","22","","","","","","","","","","","","","","","","","","","","","",""
"null","","image-button-response","148","1051099","0.0-146.0","AS2MFSWNC5CQI","img_art/11.jpg","null","","","","","","","","","","","","","","","","","","","","","","","","",""
"26763","","image-button-response","149","1077863","0.0-147.0","AS2MFSWNC5CQI","img_art/11.jpg","1","","","","","","","","","","","","","","","","","","","","","","","","",""
"1064","","image-button-response","150","1078927","0.0-148.0-0.0","AS2MFSWNC5CQI","img_art/11.jpg","4","","","","","","","","","","","","","","","","","","","","","","","","",""
"728","","image-button-response","151","1079657","0.0-149.0-0.0","AS2MFSWNC5CQI","img_art/11.jpg","2","","","","","","","","","","","","","","","","","","","","","","","","",""
"null","","html-keyboard-response","152","1080668","0.0-150.0","AS2MFSWNC5CQI","<p style=""font-size: 48px;"">+</p>","","","","","null","allTrialResponses","1000","1","15","img_art/11.jpg","22","nice use of simple colors","Megan,Amy,Crystal,Kaitlyn,Natalie,Kristen","Some interesting color but scratchy train mess.,-14,200,20","Simple and complex. Hopeful yet dark. I love this,35,220,20","Enjoyed the lines representing different paths that encompass different entities,20,300,20","Interesting use of color,9,80,20","pic looks alright,8,400,20","small town, friendly. calm,35,280,20","Amy","Simple and complex. Hopeful yet dark. I love this,35,220,20","Natalie","pic looks alright,8,400,20","Crystal","Enjoyed the lines representing different paths that encompass different entities,20,300,20","4"
"5546","","survey-text","153","1086223","0.0-151.0-0.0","AS2MFSWNC5CQI","","","","{""Q0"":""course""}","","","","","","","","","","","","","","","","","","","","","","",""
"20751","","survey-text","154","1106975","0.0-152.0-0.0","AS2MFSWNC5CQI","","","","{""Q0"":""calming but I still find it boring""}","","","","","","","","","","","","","","","","","","","","","","",""
"2495","","image-slider-response","155","1109471","0.0-153.0","AS2MFSWNC5CQI","","","","","-13","","","","","","","","","","","","","","","","","","","","","",""
"null","","image-button-response","156","1114474","0.0-154.0","AS2MFSWNC5CQI","img_art/13.jpg","null","","","","","","","","","","","","","","","","","","","","","","","","",""
"1157","","image-button-response","157","1115631","0.0-155.0","AS2MFSWNC5CQI","img_art/13.jpg","3","","","","","","","","","","","","","","","","","","","","","","","","",""
"1559","","image-button-response","158","1117191","0.0-156.0-0.0","AS2MFSWNC5CQI","img_art/13.jpg","1","","","","","","","","","","","","","","","","","","","","","","","","",""
"2215","","image-button-response","159","1119407","0.0-157.0-0.0","AS2MFSWNC5CQI","img_art/13.jpg","5","","","","","","","","","","","","","","","","","","","","","","","","",""
"null","","html-keyboard-response","160","1120909","0.0-158.0","AS2MFSWNC5CQI","<p style=""font-size: 48px;"">+</p>","","","","","null","allTrialResponses","1500","1","16","img_art/13.jpg","-13","calming but I still find it boring","Alexis,Amy,Crystal,Jordan,Natalie,Gabriela","Simple, but pleasing. The blue gradient is a favorite of mine,32,100,20","I recognize the beauty of this but FOR ME its large degree of abstraction diminishes my emotional interaction.,-10,220,20","Reminiscent of Jackson Pollock and gives me a feeling of chaotic satisfaction,50,300,20","It's just paint splatter, no real meaning to me,-50,20,20","I like the colors,7,400,20","It looks too common, is a bit boring,-41,140,20","Jordan","It's just paint splatter, no real meaning to me,-50,20,20","Amy","I recognize the beauty of this but FOR ME its large degree of abstraction diminishes my emotional interaction.,-10,220,20","Gabriela","It looks too common, is a bit boring,-41,140,20","4"
"12836","","survey-text","161","1133751","0.0-159.0-0.0","AS2MFSWNC5CQI","","","","{""Q0"":""ugly and it looks like red scribbles""}","","","","","","","","","","","","","","","","","","","","","","",""
"3583","","image-slider-response","162","1137335","0.0-160.0","AS2MFSWNC5CQI","","","","","-41","","","","","","","","","","","","","","","","","","","","","",""
"4215","","image-button-response","163","1142337","0.0-161.0","AS2MFSWNC5CQI","img_art/3.jpg","3","","","","","","","","","","","","","","","","","","","","","","","","",""
"803","","image-button-response","164","1143144","0.0-162.0","AS2MFSWNC5CQI","img_art/3.jpg","3","","","","","","","","","","","","","","","","","","","","","","","","",""
"958","","image-button-response","165","1144104","0.0-163.0-0.0","AS2MFSWNC5CQI","img_art/3.jpg","2","","","","","","","","","","","","","","","","","","","","","","","","",""
"639","","image-button-response","166","1144743","0.0-164.0-0.0","AS2MFSWNC5CQI","img_art/3.jpg","5","","","","","","","","","","","","","","","","","","","","","","","","",""
"null","","html-keyboard-response","167","1146250","0.0-165.0","AS2MFSWNC5CQI","<p style=""font-size: 48px;"">+</p>","","","","","null","allTrialResponses","1500","1","17","img_art/3.jpg","-41","ugly and it looks like red scribbles","Danielle,Amy,Chloe,Jordan,Sabrina,Gabriela","Looks like it was painted with blood, which I'm aware is an art style, but it just looks messy.,-20,340,20","i like the colors particulairly the contrast of foreground to background. Exciting and thoughtful.,10,220,20","Powerful lines but seems incomplete,-10,220,20","i don't like this, just looks like scribbles,-50,20,20","I dont really feel anything from this, i cant see or understand any of it,-20,120,20","It looks like a child drawing,-29,140,20","Jordan","i don't like this, just looks like scribbles,-50,20,20","Chloe","Powerful lines but seems incomplete,-10,220,20","Gabriela","It looks like a child drawing,-29,140,20","4"
"164982","","survey-text","168","1311238","0.0-166.0-0.0","AS2MFSWNC5CQI","","","","{""Q0"":""pretty beautiful use of soft colors""}","","","","","","","","","","","","","","","","","","","","","","",""
"3319","","image-slider-response","169","1314559","0.0-167.0","AS2MFSWNC5CQI","","","","","28","","","","","","","","","","","","","","","","","","","","","",""
"null","","image-button-response","170","1319567","0.0-168.0","AS2MFSWNC5CQI","img_art/17.jpg","null","","","","","","","","","","","","","","","","","","","","","","","","",""
"183","","image-button-response","171","1319751","0.0-169.0","AS2MFSWNC5CQI","img_art/17.jpg","3","","","","","","","","","","","","","","","","","","","","","","","","",""
"1192","","image-button-response","172","1320944","0.0-170.0-0.0","AS2MFSWNC5CQI","img_art/17.jpg","1","","","","","","","","","","","","","","","","","","","","","","","","",""
"1997","","image-button-response","173","1322943","0.0-171.0-0.0","AS2MFSWNC5CQI","img_art/17.jpg","5","","","","","","","","","","","","","","","","","","","","","","","","",""
"null","","html-keyboard-response","174","1323946","0.0-172.0","AS2MFSWNC5CQI","<p style=""font-size: 48px;"">+</p>","","","","","null","allTrialResponses","1000","1","18","img_art/17.jpg","28","pretty beautiful use of soft colors","Katelyn,Abigail,Chloe,Jordan,Jasmine,Gabriela","Doesnt completely turn me off but wouldnt look twice,-3,100,20","Really love the branches. The bottom made it not perfect,42,20,20","Pretty but a little cheesy,-10,220,20","absolutely gorgeous, I feel solitude again, but the beauty is there also,50,20,20","I like the use of color in this and how you can actually see shapes form. Seems thoughtful,22,340,20","This makes me feel inspired and happy. I love everything about this portrait,45,140,20","Jordan","absolutely gorgeous, I feel solitude again, but the beauty is there also,50,20,20","Abigail","Really love the branches. The bottom made it not perfect,42,20,20","Gabriela","This makes me feel inspired and happy. I love everything about this portrait,45,140,20","4"
"11032","","survey-text","175","1334991","0.0-173.0-0.0","AS2MFSWNC5CQI","","","","{""Q0"":""dull and doesn't keep my attention""}","","","","","","","","","","","","","","","","","","","","","","",""
"2143","","image-slider-response","176","1337135","0.0-174.0","AS2MFSWNC5CQI","","","","","-23","","","","","","","","","","","","","","","","","","","","","",""
"null","","image-button-response","177","1342147","0.0-175.0","AS2MFSWNC5CQI","img_art/21.jpg","null","","","","","","","","","","","","","","","","","","","","","","","","",""
"46010","","image-button-response","178","1388159","0.0-176.0","AS2MFSWNC5CQI","img_art/21.jpg","3","","","","","","","","","","","","","","","","","","","","","","","","",""
"848","","image-button-response","179","1389008","0.0-177.0-0.0","AS2MFSWNC5CQI","img_art/21.jpg","3","","","","","","","","","","","","","","","","","","","","","","","","",""
"4218","","image-button-response","180","1395079","0.0-177.1-0.1","AS2MFSWNC5CQI","img_art/21.jpg","2","","","","","","","","","","","","","","","","","","","","","","","","",""
"911","","image-button-response","181","1395991","0.0-178.0-0.0","AS2MFSWNC5CQI","img_art/21.jpg","5","","","","","","","","","","","","","","","","","","","","","","","","",""
"null","","html-keyboard-response","182","1397000","0.0-179.0","AS2MFSWNC5CQI","<p style=""font-size: 48px;"">+</p>","","","","","null","allTrialResponses","1000","1","19","img_art/21.jpg","-23","dull and doesn't keep my attention","Meghan,Abigail,Leah,Jordan,Christina,Gabriela","looks like a sunrise, great colors,40,220,20","Beautiful colors, remind me of my yoga studio,50,20,20","Love the colors, uplifting and stormy at the same time,32,360,20","Okay, I love the color schemes, I can't quite figure it out though,14,20,20","it has a lot of happy colors and it's very classic looking,35,240,20","It makes me feel mellow or ""chill"". It makes me have a positive and calm mood,42,140,20","Jordan","Okay, I love the color schemes, I can't quite figure it out though,14,20,20","Leah","Love the colors, uplifting and stormy at the same time,32,360,20","Gabriela","It makes me feel mellow or ""chill"". It makes me have a positive and calm mood,42,140,20","6"
"12017","","survey-text","183","1409031","0.0-180.0-0.0","AS2MFSWNC5CQI","","","","{""Q0"":""really like it remind me of death""}","","","","","","","","","","","","","","","","","","","","","","",""
"2487","","image-slider-response","184","1411519","0.0-181.0","AS2MFSWNC5CQI","","","","","31","","","","","","","","","","","","","","","","","","","","","",""
"3831","","image-button-response","185","1416524","0.0-182.0","AS2MFSWNC5CQI","img_art/25.jpg","4","","","","","","","","","","","","","","","","","","","","","","","","",""
"627","","image-button-response","186","1417151","0.0-183.0","AS2MFSWNC5CQI","img_art/25.jpg","4","","","","","","","","","","","","","","","","","","","","","","","","",""
"784","","image-button-response","187","1417936","0.0-184.0-0.0","AS2MFSWNC5CQI","img_art/25.jpg","2","","","","","","","","","","","","","","","","","","","","","","","","",""
"1037","","image-button-response","188","1418975","0.0-185.0-0.0","AS2MFSWNC5CQI","img_art/25.jpg","3","","","","","","","","","","","","","","","","","","","","","","","","",""
"null","","html-keyboard-response","189","1419984","0.0-186.0","AS2MFSWNC5CQI","<p style=""font-size: 48px;"">+</p>","","","","","null","allTrialResponses","1000","1","20","img_art/25.jpg","31","really like it remind me of death","Isabella,Hailey,Leah,Jordan,Katherine,Gabriela","I love the green and the figure is black but the green makes it pop,29,280,20","ugly color and very sad old lady,-45,200,20","I really like it, very simple, very tribal,38,360,20","It's fine, belongs in a church, or somewhere else mystical,15,20,20","That's pretty awesome. I love the green and black combo, reminds me of one of those cartoon creepy movies,47,120,20","It looks like a person at a graveyard,18,140,20","Katherine","That's pretty awesome. I love the green and black combo, reminds me of one of those cartoon creepy movies,47,120,20","Leah","I really like it, very simple, very tribal,38,360,20","Jordan","It's fine, belongs in a church, or somewhere else mystical,15,20,20","6"
"3134","","survey-text","190","1423127","0.0-187.0-0.0","AS2MFSWNC5CQI","","","","{""Q0"":""we""}","","","","","","","","","","","","","","","","","","","","","","",""
"19375","","survey-text","191","1442503","0.0-188.0-0.0","AS2MFSWNC5CQI","","","","{""Q0"":""ugly use of color sorta reminds me of fall""}","","","","","","","","","","","","","","","","","","","","","","",""
"4071","","image-slider-response","192","1446574","0.0-189.0","AS2MFSWNC5CQI","","","","","-12","","","","","","","","","","","","","","","","","","","","","",""
"null","","image-button-response","193","1451583","0.0-190.0","AS2MFSWNC5CQI","img_art/27.jpg","null","","","","","","","","","","","","","","","","","","","","","","","","",""
"89766","","image-button-response","194","1541351","0.0-191.0","AS2MFSWNC5CQI","img_art/27.jpg","1","","","","","","","","","","","","","","","","","","","","","","","","",""
"671","","image-button-response","195","1542023","0.0-192.0-0.0","AS2MFSWNC5CQI","img_art/27.jpg","0","","","","","","","","","","","","","","","","","","","","","","","","",""
"2831","","image-button-response","196","1544855","0.0-193.0-0.0","AS2MFSWNC5CQI","img_art/27.jpg","5","","","","","","","","","","","","","","","","","","","","","","","","",""
"null","","html-keyboard-response","197","1546364","0.0-194.0","AS2MFSWNC5CQI","<p style=""font-size: 48px;"">+</p>","","","","","null","allTrialResponses","1500","1","21","img_art/27.jpg","-12","ugly use of color sorta reminds me of fall","Brittany,Sophia,Leah,Jordan,Katherine,Courtney","The colors are put together in an interesting way.,-9,40,20","Yikes. I think I made this in kindergarten.,-20,280,20","An attractive assortment of squiggles and colors,22,360,20","two warring cities, separated by a small desert,50,20,20","it's like a weird version of heaven,16,120,20","A fall mess going on here,2,280,20","Sophia","Yikes. I think I made this in kindergarten.,-20,280,20","Brittany","The colors are put together in an interesting way.,-9,40,20","Courtney","A fall mess going on here,2,280,20","6"
"13644","","survey-text","198","1560022","0.0-195.0-0.0","AS2MFSWNC5CQI","","","","{""Q0"":""strange use of some of the shapes""}","","","","","","","","","","","","","","","","","","","","","","",""
"2167","","image-slider-response","199","1562191","0.0-196.0","AS2MFSWNC5CQI","","","","","5","","","","","","","","","","","","","","","","","","","","","",""
"null","","image-button-response","200","1567195","0.0-197.0","AS2MFSWNC5CQI","img_art/29.jpg","null","","","","","","","","","","","","","","","","","","","","","","","","",""
"49218","","image-button-response","201","1616414","0.0-198.0","AS2MFSWNC5CQI","img_art/29.jpg","4","","","","","","","","","","","","","","","","","","","","","","","","",""
"1279","","image-button-response","202","1617695","0.0-199.0-0.0","AS2MFSWNC5CQI","img_art/29.jpg","5","","","","","","","","","","","","","","","","","","","","","","","","",""
"1401","","image-button-response","203","1619096","0.0-200.0-0.0","AS2MFSWNC5CQI","img_art/29.jpg","2","","","","","","","","","","","","","","","","","","","","","","","","",""
"null","","html-keyboard-response","204","1619611","0.0-201.0","AS2MFSWNC5CQI","<p style=""font-size: 48px;"">+</p>","","","","","null","allTrialResponses","500","1","22","img_art/29.jpg","5","strange use of some of the shapes","Brittany,Sophia,Cynthia,Shannon,Mariah,Courtney","It looks likes there's a lot going on, but they don't fit together.,2,40,20","It's creative. It's just not my thing.,-32,280,20","makes me feel busy and unorganized,4,320,20","I think this image looks ugly and needs more colors so it looks nicer.,-30,220,20","It feels like looking through layers of frustration.,19,140,20","Thats a pretty wierd picture.,6,280,20","Mariah","It feels like looking through layers of frustration.,19,140,20","Courtney","Thats a pretty wierd picture.,6,280,20","Cynthia","makes me feel busy and unorganized,4,320,20","6"
"18643","","survey-text","205","1638263","0.0-202.0-0.0","AS2MFSWNC5CQI","","","","{""Q0"":""the color scheme doesn't look good to me""}","","","","","","","","","","","","","","","","","","","","","","",""
"2255","","image-slider-response","206","1640518","0.0-203.0","AS2MFSWNC5CQI","","","","","-35","","","","","","","","","","","","","","","","","","","","","",""
"null","","image-button-response","207","1645522","0.0-204.0","AS2MFSWNC5CQI","img_art/19.jpg","null","","","","","","","","","","","","","","","","","","","","","","","","",""
"3068","","image-button-response","208","1648591","0.0-205.0","AS2MFSWNC5CQI","img_art/19.jpg","2","","","","","","","","","","","","","","","","","","","","","","","","",""
"1047","","image-button-response","209","1649638","0.0-206.0-0.0","AS2MFSWNC5CQI","img_art/19.jpg","5","","","","","","","","","","","","","","","","","","","","","","","","",""
"1927","","image-button-response","210","1651567","0.0-207.0-0.0","AS2MFSWNC5CQI","img_art/19.jpg","4","","","","","","","","","","","","","","","","","","","","","","","","",""
"null","","html-keyboard-response","211","1653076","0.0-208.0","AS2MFSWNC5CQI","<p style=""font-size: 48px;"">+</p>","","","","","null","allTrialResponses","1500","1","23","img_art/19.jpg","-35","the color scheme doesn't look good to me","Destiny,Makayla,Cynthia,Kimberly,Mariah,Courtney","this flow I just really like how everything blends but also doesn't,45,360,20","Looks like hustle and bustle ,,3,80,20","confused and emotional,-4,320,20","The blue makes it look like it has depth,11,260,20","I like the watercolor and colors, do not like the deconstructed city scene feel.,0,140,20","Thats a lazy town,-8,280,20","Cynthia","confused and emotional,-4,320,20","Courtney","Thats a lazy town,-8,280,20","Mariah","I like the watercolor and colors, do not like the deconstructed city scene feel.,0,140,20","6"
"18269","","survey-text","212","1671351","0.0-209.0-0.0","AS2MFSWNC5CQI","","","","{""Q0"":""looks like it only took 15 minutes to make this painting""}","","","","","","","","","","","","","","","","","","","","","","",""
"3567","","image-slider-response","213","1674918","0.0-210.0","AS2MFSWNC5CQI","","","","","-30","","","","","","","","","","","","","","","","","","","","","",""
"null","","image-button-response","214","1679923","0.0-211.0","AS2MFSWNC5CQI","img_art/28.jpg","null","","","","","","","","","","","","","","","","","","","","","","","","",""
"1707","","image-button-response","215","1681630","0.0-212.0","AS2MFSWNC5CQI","img_art/28.jpg","0","","","","","","","","","","","","","","","","","","","","","","","","",""
"696","","image-button-response","216","1682327","0.0-213.0-0.0","AS2MFSWNC5CQI","img_art/28.jpg","3","","","","","","","","","","","","","","","","","","","","","","","","",""
"4671","","image-button-response","217","1686999","0.0-214.0-0.0","AS2MFSWNC5CQI","img_art/28.jpg","2","","","","","","","","","","","","","","","","","","","","","","","","",""
"null","","html-keyboard-response","218","1688008","0.0-215.0","AS2MFSWNC5CQI","<p style=""font-size: 48px;"">+</p>","","","","","null","allTrialResponses","1000","1","24","img_art/28.jpg","-30","looks like it only took 15 minutes to make this painting","Brooke,Kylie,Cynthia,Mackenzie,Mariah,Courtney","dislike the colors. it looks like a bike, but misshapen wheels like it was wrecked.,-10,60,20","Overpopulated city,35,300,20","nostalgic from a memory,11,320,20","The muted tones aren't my favorite.,-10,20,20","Colors are pleasing, shapes are vaguely unpleasant. Kidneys at a smoky bar.,5,140,20","Looks like some guys in s band playing at a busy park.,18,280,20","Brooke","dislike the colors. it looks like a bike, but misshapen wheels like it was wrecked.,-10,60,20","Mackenzie","The muted tones aren't my favorite.,-10,20,20","Cynthia","nostalgic from a memory,11,320,20","6"
"15033","","survey-text","219","1703047","0.0-216.0-0.0","AS2MFSWNC5CQI","","","","{""Q0"":""love this one and the abstract use of shapes""}","","","","","","","","","","","","","","","","","","","","","","",""
"2007","","image-slider-response","220","1705055","0.0-217.0","AS2MFSWNC5CQI","","","","","42","","","","","","","","","","","","","","","","","","","","","",""
"null","","image-button-response","221","1710064","0.0-218.0","AS2MFSWNC5CQI","img_art/8.jpg","null","","","","","","","","","","","","","","","","","","","","","","","","",""
"58166","","image-button-response","222","1768231","0.0-219.0","AS2MFSWNC5CQI","img_art/8.jpg","5","","","","","","","","","","","","","","","","","","","","","","","","",""
"1199","","image-button-response","223","1769431","0.0-220.0-0.0","AS2MFSWNC5CQI","img_art/8.jpg","2","","","","","","","","","","","","","","","","","","","","","","","","",""
"1278","","image-button-response","224","1770711","0.0-221.0-0.0","AS2MFSWNC5CQI","img_art/8.jpg","3","","","","","","","","","","","","","","","","","","","","","","","","",""
"null","","html-keyboard-response","225","1771215","0.0-222.0","AS2MFSWNC5CQI","<p style=""font-size: 48px;"">+</p>","","","","","null","allTrialResponses","500","1","25","img_art/8.jpg","42","love this one and the abstract use of shapes","Brooke,Cassidy,Cynthia,Mackenzie,Laura,Claire","what's going on here. looks like scary town.,-25,60,20","I like the colors,10,140,20","New power in the community,22,320,20","The different shapes are fun to look for.,30,20,20","chaotic and disassembled,-8,320,20","looks like an aerial view, very pretty,32,260,20","Claire","looks like an aerial view, very pretty,32,260,20","Cynthia","New power in the community,22,320,20","Mackenzie","The different shapes are fun to look for.,30,20,20","6"
"10504","","survey-text","226","1781726","0.0-223.0-0.0","AS2MFSWNC5CQI","","","","{""Q0"":""table""}","","","","","","","","","","","","","","","","","","","","","","",""
"10791","","survey-text","227","1792518","0.0-224.0-0.0","AS2MFSWNC5CQI","","","","{""Q0"":""lovely fall colors""}","","","","","","","","","","","","","","","","","","","","","","",""
"2142","","image-slider-response","228","1794662","0.0-225.0","AS2MFSWNC5CQI","","","","","20","","","","","","","","","","","","","","","","","","","","","",""
"null","","image-button-response","229","1799665","0.0-226.0","AS2MFSWNC5CQI","img_art/1.jpg","null","","","","","","","","","","","","","","","","","","","","","","","","",""
"308","","image-button-response","230","1799974","0.0-227.0","AS2MFSWNC5CQI","img_art/1.jpg","2","","","","","","","","","","","","","","","","","","","","","","","","",""
"1439","","image-button-response","231","1801414","0.0-228.0-0.0","AS2MFSWNC5CQI","img_art/1.jpg","0","","","","","","","","","","","","","","","","","","","","","","","","",""
"1224","","image-button-response","232","1802640","0.0-229.0-0.0","AS2MFSWNC5CQI","img_art/1.jpg","5","","","","","","","","","","","","","","","","","","","","","","","","",""
"null","","html-keyboard-response","233","1804146","0.0-230.0","AS2MFSWNC5CQI","<p style=""font-size: 48px;"">+</p>","","","","","null","allTrialResponses","1500","1","26","img_art/1.jpg","20","lovely fall colors","Nicole,Monica,Cynthia,Mackenzie,Sierra,Claire","I love the colors but it's too intense sometimes,22,20,20","I like the yellow and purple but the large red spot reminds me of blood and isn't great,6,360,20","fishing on the lake surrounded by trees,42,320,20","I like the simple aspect to the design,21,20,20","there isnt anything clear to look at,-2,260,20","the colors are nice,8,260,20","Cynthia","fishing on the lake surrounded by trees,42,320,20","Nicole","I love the colors but it's too intense sometimes,22,20,20","Claire","the colors are nice,8,260,20","6"
"14077","","survey-text","234","1818239","0.0-231.0-0.0","AS2MFSWNC5CQI","","","","{""Q0"":""looks like a 6 year old made this""}","","","","","","","","","","","","","","","","","","","","","","",""
"4255","","image-slider-response","235","1822496","0.0-232.0","AS2MFSWNC5CQI","","","","","-37","","","","","","","","","","","","","","","","","","","","","",""
"null","","image-button-response","236","1827509","0.0-233.0","AS2MFSWNC5CQI","img_art/5.jpg","null","","","","","","","","","","","","","","","","","","","","","","","","",""
"4600","","image-button-response","237","1832110","0.0-234.0","AS2MFSWNC5CQI","img_art/5.jpg","1","","","","","","","","","","","","","","","","","","","","","","","","",""
"703","","image-button-response","238","1832814","0.0-235.0-0.0","AS2MFSWNC5CQI","img_art/5.jpg","2","","","","","","","","","","","","","","","","","","","","","","","","",""
"870","","image-button-response","239","1833686","0.0-236.0-0.0","AS2MFSWNC5CQI","img_art/5.jpg","0","","","","","","","","","","","","","","","","","","","","","","","","",""
"null","","html-keyboard-response","240","1834201","0.0-237.0","AS2MFSWNC5CQI","<p style=""font-size: 48px;"">+</p>","","","","","null","allTrialResponses","500","1","27","img_art/5.jpg","-37","looks like a 6 year old made this","Nicole,Caroline,Cynthia,Jessica,Rebecca,Claire","I hate the shapes,-30,20,20","Too much angular things happening, makes me think of stabbing something which makes me uncomfortable,-50,100,20","boring and unsure,-25,320,20","Don't really know the point of this one.,-11,400,20","sorry not my style,-37,100,20","I like the strokes and colors used,20,260,20","Caroline","Too much angular things happening, makes me think of stabbing something which makes me uncomfortable,-50,100,20","Cynthia","boring and unsure,-25,320,20","Nicole","I hate the shapes,-30,20,20","6"
"12406","","survey-text","241","1846614","0.0-238.0-0.0","AS2MFSWNC5CQI","","","","{""Q0"":""looks like a dirty race track""}","","","","","","","","","","","","","","","","","","","","","","",""
"2254","","image-slider-response","242","1848870","0.0-239.0","AS2MFSWNC5CQI","","","","","-40","","","","","","","","","","","","","","","","","","","","","",""
"null","","image-button-response","243","1853883","0.0-240.0","AS2MFSWNC5CQI","img_art/10.jpg","null","","","","","","","","","","","","","","","","","","","","","","","","",""
"6563","","image-button-response","244","1860446","0.0-241.0","AS2MFSWNC5CQI","img_art/10.jpg","4","","","","","","","","","","","","","","","","","","","","","","","","",""
"1160","","image-button-response","245","1861607","0.0-242.0-0.0","AS2MFSWNC5CQI","img_art/10.jpg","0","","","","","","","","","","","","","","","","","","","","","","","","",""
"2022","","image-button-response","246","1863630","0.0-243.0-0.0","AS2MFSWNC5CQI","img_art/10.jpg","1","","","","","","","","","","","","","","","","","","","","","","","","",""
"null","","html-keyboard-response","247","1864137","0.0-244.0","AS2MFSWNC5CQI","<p style=""font-size: 48px;"">+</p>","","","","","null","allTrialResponses","500","1","28","img_art/10.jpg","-40","looks like a dirty race track","Nicole,Caroline,Cynthia,Michaela,Michelle,Catherine","Too much negative space makes it feel unfinished,-25,20,20","This painting made me think of a guitar which made me think of music which envoked happy feelings.,28,100,20","cultural with a symphony,40,320,20","It looks like it's sinking but it could also be a view from above,40,260,20","This could be a guitar, or it could be a completely random shape.,-3,280,20","Circle of life, with highs and lows, good and bad. You always weather the storm and come out on top.,40,160,20","Michelle","This could be a guitar, or it could be a completely random shape.,-3,280,20","Nicole","Too much negative space makes it feel unfinished,-25,20,20","Caroline","This painting made me think of a guitar which made me think of music which envoked happy feelings.,28,100,20","6"
"12718","","survey-text","248","1876862","0.0-245.0-0.0","AS2MFSWNC5CQI","","","","{""Q0"":""strange uses of blocks with colors""}","","","","","","","","","","","","","","","","","","","","","","",""
"10049","","image-slider-response","249","1886911","0.0-246.0","AS2MFSWNC5CQI","","","","","0","","","","","","","","","","","","","","","","","","","","","",""
"null","","image-button-response","250","1891926","0.0-247.0","AS2MFSWNC5CQI","img_art/12.jpg","null","","","","","","","","","","","","","","","","","","","","","","","","",""
"3607","","image-button-response","251","1895534","0.0-248.0","AS2MFSWNC5CQI","img_art/12.jpg","4","","","","","","","","","","","","","","","","","","","","","","","","",""
"655","","image-button-response","252","1896190","0.0-249.0-0.0","AS2MFSWNC5CQI","img_art/12.jpg","1","","","","","","","","","","","","","","","","","","","","","","","","",""
"879","","image-button-response","253","1897070","0.0-250.0-0.0","AS2MFSWNC5CQI","img_art/12.jpg","5","","","","","","","","","","","","","","","","","","","","","","","","",""
"null","","html-keyboard-response","254","1898086","0.0-251.0","AS2MFSWNC5CQI","<p style=""font-size: 48px;"">+</p>","","","","","null","allTrialResponses","1000","1","29","img_art/12.jpg","0","strange uses of blocks with colors","Nicole,Caroline,Madeline,Samantha,Michelle,Marissa","I like all the squares and the colors but it feels too cluttered to me,20,20,20","I like the colors in both sections, brights compared to neutrals. Each block has a different view. I think of the future,11,100,20","Love the shapes here,12,40,20","It is interesting but seems like some cheap painting from like walmart,24,140,20","eww hate everything about this, looks like it belongs in a dentist's office,-14,280,20","It reminds me of the documentary Paris is Burning, though I'm not sure why,11,160,20","Michelle","eww hate everything about this, looks like it belongs in a dentist's office,-14,280,20","Caroline","I like the colors in both sections, brights compared to neutrals. Each block has a different view. I think of the future,11,100,20","Marissa","It reminds me of the documentary Paris is Burning, though I'm not sure why,11,160,20","6"
"14360","","survey-text","255","1912454","0.0-252.0-0.0","AS2MFSWNC5CQI","","","","{""Q0"":""is this a bird, this is confusing""}","","","","","","","","","","","","","","","","","","","","","","",""
"2327","","image-slider-response","256","1914783","0.0-253.0","AS2MFSWNC5CQI","","","","","-17","","","","","","","","","","","","","","","","","","","","","",""
"1614","","image-button-response","257","1919797","0.0-254.0","AS2MFSWNC5CQI","img_art/6.jpg","1","","","","","","","","","","","","","","","","","","","","","","","","",""
"681","","image-button-response","258","1920478","0.0-255.0","AS2MFSWNC5CQI","img_art/6.jpg","1","","","","","","","","","","","","","","","","","","","","","","","","",""
"711","","image-button-response","259","1921190","0.0-256.0-0.0","AS2MFSWNC5CQI","img_art/6.jpg","3","","","","","","","","","","","","","","","","","","","","","","","","",""
"743","","image-button-response","260","1921934","0.0-257.0-0.0","AS2MFSWNC5CQI","img_art/6.jpg","4","","","","","","","","","","","","","","","","","","","","","","","","",""
"null","","html-keyboard-response","261","1923447","0.0-258.0","AS2MFSWNC5CQI","<p style=""font-size: 48px;"">+</p>","","","","","null","allTrialResponses","1500","1","30","img_art/6.jpg","-17","is this a bird, this is confusing","Kayla,Caroline,Elizabeth,Stephanie,Michelle,Marissa","Little birdie in a desert. Seeking better frontiers.,13,180,20","Lonely and kinda sad,-25,100,20","Love the simplicity of it,41,20,20","Nevermore!  A black raven sitting on a pumpkin. Halloween,-35,300,20","Definitely belongs at a doctor's office, I think it's a crow or a tree?,-3,280,20","I am intrigued but unsure whether I enjoy this or not,6,160,20","Caroline","Lonely and kinda sad,-25,100,20","Stephanie","Nevermore!  A black raven sitting on a pumpkin. Halloween,-35,300,20","Michelle","Definitely belongs at a doctor's office, I think it's a crow or a tree?,-3,280,20","6"
"3832","","image-button-response_instructions","262","1927287","0.0-259.0","AS2MFSWNC5CQI","","0","instructions","","","","","","","","","","","","","","","","","","","","","","","",""
