"rt","url","trial_type","trial_index","time_elapsed","internal_node_id","participant_id","stimulus","button_pressed","Name","responses","response","key_press","variableName","fixationTime","condition","trial","photo","subjectRating","subjectResponse","agentsNames","agent_1_Response","agent_2_Response","agent_3_Response","agent_4_Response","agent_5_Response","agent_6_Response","kept_1_name","kept_1_response","kept_2_name","kept_2_response","kept_3_name","kept_3_response","errorCounter"
"13806","external_page_harvard.html","external-html","0","13945","0.0-0.0","AS6V4N9C0YUEN","","","","","","","","","","","","","","","","","","","","","","","","","","",""
"1795","","image-button-response","1","15743","0.0-1.0","AS6V4N9C0YUEN","","1","","","","","","","","","","","","","","","","","","","","","","","","",""
"3673","","image-button-response","2","19423","0.0-2.0-0.0","AS6V4N9C0YUEN","","1","phone","","","","","","","","","","","","","","","","","","","","","","","",""
"7318","","survey-text","3","26744","0.0-3.0-0.0","AS6V4N9C0YUEN","","","","{""Q0"":""AS6V4N9C0YUEN""}","","","","","","","","","","","","","","","","","","","","","","",""
"11980","","image-button-response_instructions","4","38727","0.0-4.0","AS6V4N9C0YUEN","","0","instructions","","","","","","","","","","","","","","","","","","","","","","","",""
"15087","","image-button-response_instructions","5","53815","0.0-5.0","AS6V4N9C0YUEN","img_art/ins/popularity/ins1.png","0","instructions","","","","","","","","","","","","","","","","","","","","","","","",""
"5662","","image-button-response_instructions","6","59479","0.0-6.0","AS6V4N9C0YUEN","img_art/ins/popularity/ins2.png","0","instructions","","","","","","","","","","","","","","","","","","","","","","","",""
"5631","","image-button-response_instructions","7","65111","0.0-7.0","AS6V4N9C0YUEN","img_art/ins/popularity/ins2Extreme.png","0","instructions","","","","","","","","","","","","","","","","","","","","","","","",""
"18326","","image-button-response_instructions","8","83439","0.0-8.0","AS6V4N9C0YUEN","img_art/ins/popularity/ins3KEEPpop.PNG","0","instructions","","","","","","","","","","","","","","","","","","","","","","","",""
"4526","","image-button-response_instructions","9","87967","0.0-9.0","AS6V4N9C0YUEN","img_art/ins/popularity/ins3ANamepop.PNG","0","instructions","","","","","","","","","","","","","","","","","","","","","","","",""
"4710","","image-button-response_instructions","10","92679","0.0-10.0","AS6V4N9C0YUEN","img_art/ins/popularity/ins3ARatingpop.png","0","instructions","","","","","","","","","","","","","","","","","","","","","","","",""
"3767","","image-button-response_instructions","11","96447","0.0-11.0","AS6V4N9C0YUEN","img_art/ins/popularity/ins3ATextpop.png","0","instructions","","","","","","","","","","","","","","","","","","","","","","","",""
"8639","","image-button-response_instructions","12","105087","0.0-12.0","AS6V4N9C0YUEN","img_art/ins/popularity/ins3ALikespop.png","0","instructions","","","","","","","","","","","","","","","","","","","","","","","",""
"12982","","image-button-response_instructions","13","118070","0.0-13.0","AS6V4N9C0YUEN","img_art/ins/popularity/ins3KEEPpop.PNG","0","instructions","","","","","","","","","","","","","","","","","","","","","","","",""
"17463","","image-button-response_instructions","14","135535","0.0-14.0","AS6V4N9C0YUEN","img_art/ins/popularity/ins3_5RED.png","0","instructions","","","","","","","","","","","","","","","","","","","","","","","",""
"5375","","image-button-response_instructions","15","140911","0.0-15.0","AS6V4N9C0YUEN","img_art/ins/popularity/ins3KEEPpop.PNG","0","instructions","","","","","","","","","","","","","","","","","","","","","","","",""
"13327","","image-button-response_instructions","16","154238","0.0-16.0","AS6V4N9C0YUEN","img_art/ins/popularity/ins4KEEPpop.PNG","0","instructions","","","","","","","","","","","","","","","","","","","","","","","",""
"5847","","image-button-response_instructions","17","160086","0.0-17.0","AS6V4N9C0YUEN","img_art/ins/popularity/ins5KEEPpop.PNG","0","instructions","","","","","","","","","","","","","","","","","","","","","","","",""
"2535","","image-button-response_instructions","18","162623","0.0-18.0","AS6V4N9C0YUEN","","0","instructions","","","","","","","","","","","","","","","","","","","","","","","",""
"6505","","survey-text","19","169158","0.0-19.0-0.0","AS6V4N9C0YUEN","","","","{""Q0"":""but""}","","","","","","","","","","","","","","","","","","","","","","",""
"15855","","survey-text","20","185015","0.0-20.0-0.0","AS6V4N9C0YUEN","","","","{""Q0"":""it reminds me of a sunrise/sunset""}","","","","","","","","","","","","","","","","","","","","","","",""
"3140.8000000002794","","image-slider-response","21","188159","0.0-21.0","AS6V4N9C0YUEN","","","","","28","","","","","","","","","","","","","","","","","","","","","",""
"null","","image-button-response","22","193163","0.0-22.0","AS6V4N9C0YUEN","img_art/ins/1.jpg","null","","","","","","","","","","","","","","","","","","","","","","","","",""
"4857","","image-button-response","23","198024","0.0-23.0","AS6V4N9C0YUEN","img_art/ins/1.jpg","4","","","","","","","","","","","","","","","","","","","","","","","","",""
"1429","","image-button-response","24","199456","0.0-24.0-0.0","AS6V4N9C0YUEN","img_art/ins/1.jpg","5","","","","","","","","","","","","","","","","","","","","","","","","",""
"4172","","image-button-response","25","203631","0.0-25.0-0.0","AS6V4N9C0YUEN","img_art/ins/1.jpg","0","","","","","","","","","","","","","","","","","","","","","","","","",""
"null","","html-keyboard-response","26","204134","0.0-26.0","AS6V4N9C0YUEN","<p style=""font-size: 48px;"">+</p>","","","","","null","allTrialResponses","500","1","-2","img_art/ins/1.jpg","28","it reminds me of a sunrise/sunset","Allison,Ashley,Beth,Dora,Erika,Jen","looks like a lot of things going on in the mist,20,20,20","I just don't get why these type of art would be popular,-32,40,20","This color reminds me of poo,-46,60,20","looks like what my niece in 3rd grade did this afternoon,-50,80,20","I like the sophisticated brushwork,40,100,20","It reminds me of a candy land dream I had,36,120,20","Erika","I like the sophisticated brushwork,40,100,20","Jen","It reminds me of a candy land dream I had,36,120,20","Allison","looks like a lot of things going on in the mist,20,20,20","0"
"25978","","survey-text","27","230120","0.0-27.0-0.0","AS6V4N9C0YUEN","","","","{""Q0"":""I love the contrasting colors and the warm feeling of this painting""}","","","","","","","","","","","","","","","","","","","","","","",""
"3541.600000000093","","image-slider-response","28","233664","0.0-28.0","AS6V4N9C0YUEN","","","","","24","","","","","","","","","","","","","","","","","","","","","",""
"4294","","image-button-response","29","238667","0.0-29.0","AS6V4N9C0YUEN","img_art/ins/2.jpg","1","","","","","","","","","","","","","","","","","","","","","","","","",""
"562","","image-button-response","30","239232","0.0-30.0","AS6V4N9C0YUEN","img_art/ins/2.jpg","1","","","","","","","","","","","","","","","","","","","","","","","","",""
"5109","","image-button-response","31","244343","0.0-31.0-0.0","AS6V4N9C0YUEN","img_art/ins/2.jpg","5","","","","","","","","","","","","","","","","","","","","","","","","",""
"4542","","image-button-response","32","248888","0.0-32.0-0.0","AS6V4N9C0YUEN","img_art/ins/2.jpg","4","","","","","","","","","","","","","","","","","","","","","","","","",""
"null","","html-keyboard-response","33","249390","0.0-33.0","AS6V4N9C0YUEN","<p style=""font-size: 48px;"">+</p>","","","","","null","allTrialResponses","500","1","-1","img_art/ins/2.jpg","24","I love the contrasting colors and the warm feeling of this painting","Allison,Kara,Katie,Jenna,Erika,Jen","I don't have strong feelings about this,10,20,20","I like the blocks of color arrangements,30,160,20","too much color!,-28,180,20","One of my pet peevs,-48,140,20","I would never be able to compose a sophisticated pallete like this,48,100,20","It reminds me of a fireplace,36,120,20","Kara","I like the blocks of color arrangements,30,160,20","Jen","It reminds me of a fireplace,36,120,20","Erika","I would never be able to compose a sophisticated pallete like this,48,100,20","0"
"21290","","survey-text","34","270688","0.0-34.0-0.0","AS6V4N9C0YUEN","","","","{""Q0"":""This reminds me of birds flying in a big group""}","","","","","","","","","","","","","","","","","","","","","","",""
"3388.899999999907","","image-slider-response","35","274079","0.0-35.0","AS6V4N9C0YUEN","","","","","26","","","","","","","","","","","","","","","","","","","","","",""
"null","","image-button-response","36","279082","0.0-36.0","AS6V4N9C0YUEN","img_art/ins/3.jpg","null","","","","","","","","","","","","","","","","","","","","","","","","",""
"6339","","image-button-response","37","285424","0.0-37.0","AS6V4N9C0YUEN","img_art/ins/3.jpg","4","","","","","","","","","","","","","","","","","","","","","","","","",""
"574","","image-button-response","38","286000","0.0-38.0-0.0","AS6V4N9C0YUEN","img_art/ins/3.jpg","5","","","","","","","","","","","","","","","","","","","","","","","","",""
"1469","","image-button-response","39","287472","0.0-39.0-0.0","AS6V4N9C0YUEN","img_art/ins/3.jpg","1","","","","","","","","","","","","","","","","","","","","","","","","",""
"null","","html-keyboard-response","40","288974","0.0-40.0","AS6V4N9C0YUEN","<p style=""font-size: 48px;"">+</p>","","","","","null","allTrialResponses","1500","1","0","img_art/ins/3.jpg","26","This reminds me of birds flying in a big group","Mary,Kara,Rose,Leslie,Erika,Jen","I like the overlapping of brushes,41,220,20","calming blue is very nice,36,160,20","My daily routine, it's depressing,-20,240,20","It's an alright work,15,200,20","I feel connected to the artist,40,100,20","I can feel a rainy day from this painting,18,120,20","Erika","I feel connected to the artist,40,100,20","Jen","I can feel a rainy day from this painting,18,120,20","Kara","calming blue is very nice,36,160,20","0"
"5922","","image-button-response_instructions","41","294903","0.0-41.0","AS6V4N9C0YUEN","","0","instructions","","","","","","","","","","","","","","","","","","","","","","","",""
"10070","","survey-likert","42","304975","0.0-42.0-0.0","AS6V4N9C0YUEN","","","","{""Q0"":"""",""Q1"":0,""Q2"":1}","","","","","","","","","","","","","","","","","","","","","","",""
"7377","","survey-text","43","312366","0.0-43.0-0.0","AS6V4N9C0YUEN","","","","{""Q0"":""rock""}","","","","","","","","","","","","","","","","","","","","","","",""
"51431","","survey-text","44","363799","0.0-44.0-0.0","AS6V4N9C0YUEN","","","","{""Q0"":""I love how busy and full of life this painting looks without having any strongly rendered detail or distinction. It really calls on the viewers imagination.""}","","","","","","","","","","","","","","","","","","","","","","",""
"4574.0999999996275","","image-slider-response","45","368376","0.0-45.0","AS6V4N9C0YUEN","","","","","50","","","","","","","","","","","","","","","","","","","","","",""
"null","","image-button-response","46","373409","0.0-46.0","AS6V4N9C0YUEN","img_art/19.jpg","null","","","","","","","","","","","","","","","","","","","","","","","","",""
"1436","","image-button-response","47","374848","0.0-47.0","AS6V4N9C0YUEN","img_art/19.jpg","2","","","","","","","","","","","","","","","","","","","","","","","","",""
"3725","","image-button-response","48","378576","0.0-48.0-0.0","AS6V4N9C0YUEN","img_art/19.jpg","4","","","","","","","","","","","","","","","","","","","","","","","","",""
"2821","","image-button-response","49","381400","0.0-49.0-0.0","AS6V4N9C0YUEN","img_art/19.jpg","0","","","","","","","","","","","","","","","","","","","","","","","","",""
"null","","html-keyboard-response","50","382403","0.0-50.0","AS6V4N9C0YUEN","<p style=""font-size: 48px;"">+</p>","","","","","null","allTrialResponses","1000","1","1","img_art/19.jpg","50","I love how busy and full of life this painting looks without having any strongly rendered detail or distinction. It really calls on the viewers imagination.","Elizabeth,Kelly,Taylor,Kelsey,Rachel,Ashley","Like the painting strokes,39,20,20","TOo much brown.,-24,220,20","It reminds me of sitting at a cafe on the side of a river.,45,340,20","not sure if i like it or not,1,240,20","Reminds me of a busy town. Chaotic in nature.,-11,80,20","someone at the beach maybe?,27,320,20","Taylor","It reminds me of sitting at a cafe on the side of a river.,45,340,20","Rachel","Reminds me of a busy town. Chaotic in nature.,-11,80,20","Elizabeth","Like the painting strokes,39,20,20","0"
"29550","","survey-text","51","411959","0.0-51.0-0.0","AS6V4N9C0YUEN","","","","{""Q0"":""Not my style but still visually interesting""}","","","","","","","","","","","","","","","","","","","","","","",""
"3486.2999999998137","","image-slider-response","52","415447","0.0-52.0","AS6V4N9C0YUEN","","","","","-33","","","","","","","","","","","","","","","","","","","","","",""
"null","","image-button-response","53","420450","0.0-53.0","AS6V4N9C0YUEN","img_art/16.jpg","null","","","","","","","","","","","","","","","","","","","","","","","","",""
"4619","","image-button-response","54","425071","0.0-54.0","AS6V4N9C0YUEN","img_art/16.jpg","3","","","","","","","","","","","","","","","","","","","","","","","","",""
"5917","","image-button-response","55","430991","0.0-55.0-0.0","AS6V4N9C0YUEN","img_art/16.jpg","0","","","","","","","","","","","","","","","","","","","","","","","","",""
"469","","image-button-response","56","431463","0.0-56.0-0.0","AS6V4N9C0YUEN","img_art/16.jpg","1","","","","","","","","","","","","","","","","","","","","","","","","",""
"null","","html-keyboard-response","57","432467","0.0-57.0","AS6V4N9C0YUEN","<p style=""font-size: 48px;"">+</p>","","","","","null","allTrialResponses","1000","1","2","img_art/16.jpg","-33","Not my style but still visually interesting","Elizabeth,Autumn,Taylor,Amanda,Rachel,Alexandria","Picture seems unique,12,20,20","Very cool abstraction.,19,340,20","It just makes me feel uncomfortable,-25,340,20","Very modern, reminds me of bansky,43,180,20","Not pleasing to the eyes. I do like that the gun is broken though.,-28,80,20","while simple, it seems to have a deeper meaning on childhood,33,80,20","Amanda","Very modern, reminds me of bansky,43,180,20","Elizabeth","Picture seems unique,12,20,20","Autumn","Very cool abstraction.,19,340,20","0"
"18862","","survey-text","58","451335","0.0-58.0-0.0","AS6V4N9C0YUEN","","","","{""Q0"":""Initially makes me think of a big ol crow""}","","","","","","","","","","","","","","","","","","","","","","",""
"6453.5","","image-slider-response","59","457791","0.0-59.0","AS6V4N9C0YUEN","","","","","1","","","","","","","","","","","","","","","","","","","","","",""
"null","","image-button-response","60","462794","0.0-60.0","AS6V4N9C0YUEN","img_art/6.jpg","null","","","","","","","","","","","","","","","","","","","","","","","","",""
"3986","","image-button-response","61","466783","0.0-61.0","AS6V4N9C0YUEN","img_art/6.jpg","1","","","","","","","","","","","","","","","","","","","","","","","","",""
"8470","","image-button-response","62","475255","0.0-62.0-0.0","AS6V4N9C0YUEN","img_art/6.jpg","0","","","","","","","","","","","","","","","","","","","","","","","","",""
"1773","","image-button-response","63","477031","0.0-63.0-0.0","AS6V4N9C0YUEN","img_art/6.jpg","0","","","","","","","","","","","","","","","","","","","","","","","","",""
"2854","","image-button-response","64","485159","0.0-63.1-0.1","AS6V4N9C0YUEN","img_art/6.jpg","2","","","","","","","","","","","","","","","","","","","","","","","","",""
"null","","html-keyboard-response","65","486661","0.0-64.0","AS6V4N9C0YUEN","<p style=""font-size: 48px;"">+</p>","","","","","null","allTrialResponses","1500","1","3","img_art/6.jpg","1","Initially makes me think of a big ol crow","Elizabeth,Autumn,Cassidy,Amanda,Shannon,Shelby","Love the simplicity of it,41,20,20","Bird? It's a bird.,23,340,20","The background on the upper half is nice. I also like the contrast of the top and bottom halves,5,140,20","Makes me feel lonely,-22,180,20","I can't tell what this image is, but it's boring because of lack of color variety and nothing in it,-41,220,20","I dont feel much of a responce or connection to this one,0,240,20","Autumn","Bird? It's a bird.,23,340,20","Elizabeth","Love the simplicity of it,41,20,20","Cassidy","The background on the upper half is nice. I also like the contrast of the top and bottom halves,5,140,20","2"
"14387","","survey-text","66","501055","0.0-65.0-0.0","AS6V4N9C0YUEN","","","","{""Q0"":""Very busy to the eye""}","","","","","","","","","","","","","","","","","","","","","","",""
"4046.1999999997206","","image-slider-response","67","505103","0.0-66.0","AS6V4N9C0YUEN","","","","","-22","","","","","","","","","","","","","","","","","","","","","",""
"null","","image-button-response","68","510107","0.0-67.0","AS6V4N9C0YUEN","img_art/13.jpg","null","","","","","","","","","","","","","","","","","","","","","","","","",""
"3311","","image-button-response","69","513423","0.0-68.0","AS6V4N9C0YUEN","img_art/13.jpg","3","","","","","","","","","","","","","","","","","","","","","","","","",""
"5957","","image-button-response","70","519383","0.0-69.0-0.0","AS6V4N9C0YUEN","img_art/13.jpg","0","","","","","","","","","","","","","","","","","","","","","","","","",""
"13022","","image-button-response","71","532408","0.0-70.0-0.0","AS6V4N9C0YUEN","img_art/13.jpg","1","","","","","","","","","","","","","","","","","","","","","","","","",""
"null","","html-keyboard-response","72","532910","0.0-71.0","AS6V4N9C0YUEN","<p style=""font-size: 48px;"">+</p>","","","","","null","allTrialResponses","500","1","4","img_art/13.jpg","-22","Very busy to the eye","Elizabeth,Autumn,Cassidy,Rebecca,Kristen,Erica","Love the splash of colors,50,20,20","Nice color abstractions.,21,340,20","Great color balance. I like the splatter, and how the vertical lines go from sharper to more blended.,31,140,20","love the style but not very novel,9,100,20","happy, serenity,30,280,20","Messy but organised, helps me to relax and observe,8,80,20","Rebecca","love the style but not very novel,9,100,20","Elizabeth","Love the splash of colors,50,20,20","Autumn","Nice color abstractions.,21,340,20","2"
"26601","","survey-text","73","559519","0.0-72.0-0.0","AS6V4N9C0YUEN","","","","{""Q0"":""Very interesting and so colorful, almost looks like a conga line""}","","","","","","","","","","","","","","","","","","","","","","",""
"2758.6999999997206","","image-slider-response","74","562280","0.0-73.0","AS6V4N9C0YUEN","","","","","32","","","","","","","","","","","","","","","","","","","","","",""
"null","","image-button-response","75","567283","0.0-74.0","AS6V4N9C0YUEN","img_art/23.jpg","null","","","","","","","","","","","","","","","","","","","","","","","","",""
"2347","","image-button-response","76","569632","0.0-75.0","AS6V4N9C0YUEN","img_art/23.jpg","1","","","","","","","","","","","","","","","","","","","","","","","","",""
"5902","","image-button-response","77","575536","0.0-76.0-0.0","AS6V4N9C0YUEN","img_art/23.jpg","3","","","","","","","","","","","","","","","","","","","","","","","","",""
"3189","","image-button-response","78","578728","0.0-77.0-0.0","AS6V4N9C0YUEN","img_art/23.jpg","5","","","","","","","","","","","","","","","","","","","","","","","","",""
"null","","html-keyboard-response","79","579730","0.0-78.0","AS6V4N9C0YUEN","<p style=""font-size: 48px;"">+</p>","","","","","null","allTrialResponses","1000","1","5","img_art/23.jpg","32","Very interesting and so colorful, almost looks like a conga line","Elizabeth,Autumn,Sarah,Rebecca,Makayla,Meghan","Fantastic blend of color and forms,43,20,20","Awesome abstraction love it.,30,340,20","it's not uninteresting, but i'm not responding to it,-7,180,20","love the contrast (was this painted by a left-handed artist?),7,100,20","Reminds me of disco/70's, not my favorite design,-12,80,20","reminds me of an album cover,36,220,20","Autumn","Awesome abstraction love it.,30,340,20","Rebecca","love the contrast (was this painted by a left-handed artist?),7,100,20","Meghan","reminds me of an album cover,36,220,20","2"
"4490","","survey-text","80","584240","0.0-79.0-0.0","AS6V4N9C0YUEN","","","","{""Q0"":""sky""}","","","","","","","","","","","","","","","","","","","","","","",""
"16982","","survey-text","81","601223","0.0-80.0-0.0","AS6V4N9C0YUEN","","","","{""Q0"":""makes me think of a city in turmoil""}","","","","","","","","","","","","","","","","","","","","","","",""
"4566.399999999907","","image-slider-response","82","605792","0.0-81.0","AS6V4N9C0YUEN","","","","","-21","","","","","","","","","","","","","","","","","","","","","",""
"null","","image-button-response","83","610795","0.0-82.0","AS6V4N9C0YUEN","img_art/20.jpg","null","","","","","","","","","","","","","","","","","","","","","","","","",""
"9098","","image-button-response","84","619896","0.0-83.0","AS6V4N9C0YUEN","img_art/20.jpg","2","","","","","","","","","","","","","","","","","","","","","","","","",""
"1054","","image-button-response","85","620952","0.0-84.0-0.0","AS6V4N9C0YUEN","img_art/20.jpg","1","","","","","","","","","","","","","","","","","","","","","","","","",""
"1517","","image-button-response","86","622472","0.0-85.0-0.0","AS6V4N9C0YUEN","img_art/20.jpg","0","","","","","","","","","","","","","","","","","","","","","","","","",""
"null","","html-keyboard-response","87","622974","0.0-86.0","AS6V4N9C0YUEN","<p style=""font-size: 48px;"">+</p>","","","","","null","allTrialResponses","500","1","6","img_art/20.jpg","-21","makes me think of a city in turmoil","Lauren,Autumn,Haley,Rebecca,Andrea,Meghan","I like how the image is depicting a scene.,10,340,20","It's ok. Very abstract.,18,340,20","I really enjoy the contrast of colors (blue/red/orange),30,220,20","reminds me of georgia o'keeffe's skull,22,100,20","Reminds me of persistance of time (a favorite of mine).,30,240,20","feels distorted and uncomfortable,-41,220,20","Haley","I really enjoy the contrast of colors (blue/red/orange),30,220,20","Autumn","It's ok. Very abstract.,18,340,20","Lauren","I like how the image is depicting a scene.,10,340,20","2"
"17450","","survey-text","88","640431","0.0-87.0-0.0","AS6V4N9C0YUEN","","","","{""Q0"":""love the muted colors and indistinct scene""}","","","","","","","","","","","","","","","","","","","","","","",""
"2789.6999999997206","","image-slider-response","89","643223","0.0-88.0","AS6V4N9C0YUEN","","","","","19","","","","","","","","","","","","","","","","","","","","","",""
"null","","image-button-response","90","648226","0.0-89.0","AS6V4N9C0YUEN","img_art/26.jpg","null","","","","","","","","","","","","","","","","","","","","","","","","",""
"7763","","image-button-response","91","655992","0.0-90.0","AS6V4N9C0YUEN","img_art/26.jpg","5","","","","","","","","","","","","","","","","","","","","","","","","",""
"2654","","image-button-response","92","658648","0.0-91.0-0.0","AS6V4N9C0YUEN","img_art/26.jpg","2","","","","","","","","","","","","","","","","","","","","","","","","",""
"14078","","image-button-response","93","672728","0.0-92.0-0.0","AS6V4N9C0YUEN","img_art/26.jpg","4","","","","","","","","","","","","","","","","","","","","","","","","",""
"null","","html-keyboard-response","94","674230","0.0-93.0","AS6V4N9C0YUEN","<p style=""font-size: 48px;"">+</p>","","","","","null","allTrialResponses","1500","1","7","img_art/26.jpg","19","love the muted colors and indistinct scene","Lauren,Autumn,Haley,Monica,Kaitlyn,Abigail","The piece doesn't really invoke anything for me.,0,340,20","Murky, messy, kid like.,-45,340,20","It feels almost unfinished, but I like the color palette,9,220,20","It looks empty and unfinished,-28,360,20","The colors look faded and blurry,2,80,20","Reminds me of walks in my dads city when I was little,22,20,20","Abigail","Reminds me of walks in my dads city when I was little,22,20,20","Haley","It feels almost unfinished, but I like the color palette,9,220,20","Kaitlyn","The colors look faded and blurry,2,80,20","2"
"27612","","survey-text","95","701847","0.0-94.0-0.0","AS6V4N9C0YUEN","","","","{""Q0"":""love the colors and look of this one like seeing a tree through the years""}","","","","","","","","","","","","","","","","","","","","","","",""
"4549.5999999996275","","image-slider-response","96","706399","0.0-95.0","AS6V4N9C0YUEN","","","","","22","","","","","","","","","","","","","","","","","","","","","",""
"null","","image-button-response","97","711402","0.0-96.0","AS6V4N9C0YUEN","img_art/17.jpg","null","","","","","","","","","","","","","","","","","","","","","","","","",""
"3540","","image-button-response","98","714943","0.0-97.0","AS6V4N9C0YUEN","img_art/17.jpg","2","","","","","","","","","","","","","","","","","","","","","","","","",""
"3981","","image-button-response","99","718927","0.0-98.0-0.0","AS6V4N9C0YUEN","img_art/17.jpg","4","","","","","","","","","","","","","","","","","","","","","","","","",""
"7462","","image-button-response","100","726392","0.0-99.0-0.0","AS6V4N9C0YUEN","img_art/17.jpg","1","","","","","","","","","","","","","","","","","","","","","","","","",""
"null","","html-keyboard-response","101","727894","0.0-100.0","AS6V4N9C0YUEN","<p style=""font-size: 48px;"">+</p>","","","","","null","allTrialResponses","1500","1","8","img_art/17.jpg","22","love the colors and look of this one like seeing a tree through the years","Briana,Kimberly,Haley,Katherine,Kaitlyn,Abigail","It looks unfinished,-7,400,20","I like the trees, but the doors less so,19,260,20","Colors and composition are beautiful. I would hang this in my home.,50,220,20","Looks like a weird blurry heaven again! I dig,32,120,20","Very beautiful,19,80,20","Really love the branches. The bottom made it not perfect,42,20,20","Haley","Colors and composition are beautiful. I would hang this in my home.,50,220,20","Kaitlyn","Very beautiful,19,80,20","Kimberly","I like the trees, but the doors less so,19,260,20","2"
"26930","","survey-text","102","754831","0.0-101.0-0.0","AS6V4N9C0YUEN","","","","{""Q0"":""very interesting abstract work""}","","","","","","","","","","","","","","","","","","","","","","",""
"3390","","image-slider-response","103","758223","0.0-102.0","AS6V4N9C0YUEN","","","","","-19","","","","","","","","","","","","","","","","","","","","","",""
"null","","image-button-response","104","763228","0.0-103.0","AS6V4N9C0YUEN","img_art/28.jpg","null","","","","","","","","","","","","","","","","","","","","","","","","",""
"16666","","image-button-response","105","779896","0.0-104.0","AS6V4N9C0YUEN","img_art/28.jpg","0","","","","","","","","","","","","","","","","","","","","","","","","",""
"1734","","image-button-response","106","781632","0.0-105.0-0.0","AS6V4N9C0YUEN","img_art/28.jpg","2","","","","","","","","","","","","","","","","","","","","","","","","",""
"2998","","image-button-response","107","784632","0.0-106.0-0.0","AS6V4N9C0YUEN","img_art/28.jpg","3","","","","","","","","","","","","","","","","","","","","","","","","",""
"null","","html-keyboard-response","108","786133","0.0-107.0","AS6V4N9C0YUEN","<p style=""font-size: 48px;"">+</p>","","","","","null","allTrialResponses","1500","1","9","img_art/28.jpg","-19","very interesting abstract work","Jamie,Kimberly,Haley,Laura,Kaitlyn,Tiffany","Gloomy colors and picture,5,320,20","The thing on the right is kind of weird/fetus-y,-12,260,20","I can't explain why, but I really love this one,50,220,20","musical, animated and happy with somber undertones,7,320,20","Not sure what way this picture is suppose to be oriented,-5,80,20","It makes me feel happy, and a little anxious.,50,360,20","Jamie","Gloomy colors and picture,5,320,20","Haley","I can't explain why, but I really love this one,50,220,20","Laura","musical, animated and happy with somber undertones,7,320,20","2"
"26698","","survey-text","109","812839","0.0-108.0-0.0","AS6V4N9C0YUEN","","","","{""Q0"":""very pretty, reminds me of a cityscape""}","","","","","","","","","","","","","","","","","","","","","","",""
"3478.3000000002794","","image-slider-response","110","816319","0.0-109.0","AS6V4N9C0YUEN","","","","","4","","","","","","","","","","","","","","","","","","","","","",""
"null","","image-button-response","111","821322","0.0-110.0","AS6V4N9C0YUEN","img_art/11.jpg","null","","","","","","","","","","","","","","","","","","","","","","","","",""
"684","","image-button-response","112","822007","0.0-111.0","AS6V4N9C0YUEN","img_art/11.jpg","0","","","","","","","","","","","","","","","","","","","","","","","","",""
"1839","","image-button-response","113","823847","0.0-112.0-0.0","AS6V4N9C0YUEN","img_art/11.jpg","0","","","","","","","","","","","","","","","","","","","","","","","","",""
"1039","","image-button-response","114","828008","0.0-112.1-0.1","AS6V4N9C0YUEN","img_art/11.jpg","2","","","","","","","","","","","","","","","","","","","","","","","","",""
"4678","","image-button-response","115","832688","0.0-113.0-0.0","AS6V4N9C0YUEN","img_art/11.jpg","4","","","","","","","","","","","","","","","","","","","","","","","","",""
"null","","html-keyboard-response","116","833191","0.0-114.0","AS6V4N9C0YUEN","<p style=""font-size: 48px;"">+</p>","","","","","null","allTrialResponses","500","1","10","img_art/11.jpg","4","very pretty, reminds me of a cityscape","Jamie,Erin,Haley,Laura,Claire,Angela","Looks like a cityscape,25,320,20","Frank Lloyd Wright, music,24,120,20","Lovely. I could look at this for a really long time. I love the details and the composition.,40,220,20","i think of beatnik music and dark piano lounges,25,320,20","the wavy lines are nice and pleasing,13,260,20","I like this one very much, especially the shades of gray.,30,260,20","Jamie","Looks like a cityscape,25,320,20","Haley","Lovely. I could look at this for a really long time. I love the details and the composition.,40,220,20","Claire","the wavy lines are nice and pleasing,13,260,20","4"
"3867","","survey-text","117","837079","0.0-115.0-0.0","AS6V4N9C0YUEN","","","","{""Q0"":""our""}","","","","","","","","","","","","","","","","","","","","","","",""
"11815","","survey-text","118","848896","0.0-116.0-0.0","AS6V4N9C0YUEN","","","","{""Q0"":""love the texture""}","","","","","","","","","","","","","","","","","","","","","","",""
"5558.100000000093","","image-slider-response","119","854456","0.0-117.0","AS6V4N9C0YUEN","","","","","6","","","","","","","","","","","","","","","","","","","","","",""
"null","","image-button-response","120","859459","0.0-118.0","AS6V4N9C0YUEN","img_art/7.jpg","null","","","","","","","","","","","","","","","","","","","","","","","","",""
"3307","","image-button-response","121","862768","0.0-119.0","AS6V4N9C0YUEN","img_art/7.jpg","3","","","","","","","","","","","","","","","","","","","","","","","","",""
"1558","","image-button-response","122","864328","0.0-120.0-0.0","AS6V4N9C0YUEN","img_art/7.jpg","4","","","","","","","","","","","","","","","","","","","","","","","","",""
"7222","","image-button-response","123","871552","0.0-121.0-0.0","AS6V4N9C0YUEN","img_art/7.jpg","1","","","","","","","","","","","","","","","","","","","","","","","","",""
"null","","html-keyboard-response","124","872554","0.0-122.0","AS6V4N9C0YUEN","<p style=""font-size: 48px;"">+</p>","","","","","null","allTrialResponses","1000","1","11","img_art/7.jpg","6","love the texture","Jamie,Hannah,Haley,Jessica,Claire,Maria","Looks like a battle raging on,20,320,20","Looks almost like a photograph of nature.,11,240,20","Confusion, mild aversion,-36,220,20","Looks like a natural texture, reminds me of rocks.,0,400,20","reminds me of a cave wall,-21,260,20","elicits no real response,0,120,20","Jessica","Looks like a natural texture, reminds me of rocks.,0,400,20","Claire","reminds me of a cave wall,-21,260,20","Hannah","Looks almost like a photograph of nature.,11,240,20","4"
"37397","","survey-text","125","909959","0.0-123.0-0.0","AS6V4N9C0YUEN","","","","{""Q0"":""reminds me of crows playing in the snow but a more visual, interpretive view""}","","","","","","","","","","","","","","","","","","","","","","",""
"2166","","image-slider-response","126","912127","0.0-124.0","AS6V4N9C0YUEN","","","","","23","","","","","","","","","","","","","","","","","","","","","",""
"null","","image-button-response","127","917130","0.0-125.0","AS6V4N9C0YUEN","img_art/18.jpg","null","","","","","","","","","","","","","","","","","","","","","","","","",""
"6867","","image-button-response","128","924000","0.0-126.0","AS6V4N9C0YUEN","img_art/18.jpg","0","","","","","","","","","","","","","","","","","","","","","","","","",""
"4630","","image-button-response","129","928632","0.0-127.0-0.0","AS6V4N9C0YUEN","img_art/18.jpg","4","","","","","","","","","","","","","","","","","","","","","","","","",""
"6173","","image-button-response","130","934808","0.0-128.0-0.0","AS6V4N9C0YUEN","img_art/18.jpg","5","","","","","","","","","","","","","","","","","","","","","","","","",""
"null","","html-keyboard-response","131","935810","0.0-129.0","AS6V4N9C0YUEN","<p style=""font-size: 48px;"">+</p>","","","","","null","allTrialResponses","1000","1","12","img_art/18.jpg","23","reminds me of crows playing in the snow but a more visual, interpretive view","Anna,Hannah,Michelle,Jessica,Claire,Caroline","I could spend a long time looking at it and see different things in the shapes.,21,300,20","Looks like ghost figures on a boat. It's okay.,7,240,20","The small lines elicit a very nauseating response for some reason, too Dali like for me,-19,280,20","I think this looks pretty cool, I can see what's kind of going on here.,22,400,20","reminds me of greek mythology,22,260,20","I think of the ocean and a boat tossed about on the waves. In the upper left is a figure. It is pleasant,30,100,20","Anna","I could spend a long time looking at it and see different things in the shapes.,21,300,20","Claire","reminds me of greek mythology,22,260,20","Caroline","I think of the ocean and a boat tossed about on the waves. In the upper left is a figure. It is pleasant,30,100,20","4"
"22542","","survey-text","132","958360","0.0-130.0-0.0","AS6V4N9C0YUEN","","","","{""Q0"":""reminds me of cave paintings, love the colors and abstract nature""}","","","","","","","","","","","","","","","","","","","","","","",""
"2382.6999999997206","","image-slider-response","133","960744","0.0-131.0","AS6V4N9C0YUEN","","","","","32","","","","","","","","","","","","","","","","","","","","","",""
"null","","image-button-response","134","965747","0.0-132.0","AS6V4N9C0YUEN","img_art/27.jpg","null","","","","","","","","","","","","","","","","","","","","","","","","",""
"13834","","image-button-response","135","979584","0.0-133.0","AS6V4N9C0YUEN","img_art/27.jpg","3","","","","","","","","","","","","","","","","","","","","","","","","",""
"2454","","image-button-response","136","982040","0.0-134.0-0.0","AS6V4N9C0YUEN","img_art/27.jpg","1","","","","","","","","","","","","","","","","","","","","","","","","",""
"8950","","image-button-response","137","990992","0.0-135.0-0.0","AS6V4N9C0YUEN","img_art/27.jpg","5","","","","","","","","","","","","","","","","","","","","","","","","",""
"null","","html-keyboard-response","138","991495","0.0-136.0","AS6V4N9C0YUEN","<p style=""font-size: 48px;"">+</p>","","","","","null","allTrialResponses","500","1","13","img_art/27.jpg","32","reminds me of cave paintings, love the colors and abstract nature","Anna,Kaitlin,Vanessa,Catherine,Claire,Caroline","It looks like when my little sister took magic markers to the wall.,-11,300,20","this reminds me of simpler time,31,60,20","Colors make me think of fall, but I don't like how the picture was done or the weird lines across the background,6,380,20","Angelic, childlike. happiness but also with sadness.,40,160,20","looks like a little kid did it,-30,260,20","Didnt actually make me feel anything, sort of bland,3,100,20","Catherine","Angelic, childlike. happiness but also with sadness.,40,160,20","Kaitlin","this reminds me of simpler time,31,60,20","Caroline","Didnt actually make me feel anything, sort of bland,3,100,20","4"
"10134","","survey-text","139","1001639","0.0-137.0-0.0","AS6V4N9C0YUEN","","","","{""Q0"":""very bright and cheerful""}","","","","","","","","","","","","","","","","","","","","","","",""
"2621.5","","image-slider-response","140","1004263","0.0-138.0","AS6V4N9C0YUEN","","","","","24","","","","","","","","","","","","","","","","","","","","","",""
"null","","image-button-response","141","1009266","0.0-139.0","AS6V4N9C0YUEN","img_art/2.jpg","null","","","","","","","","","","","","","","","","","","","","","","","","",""
"5954","","image-button-response","142","1015224","0.0-140.0","AS6V4N9C0YUEN","img_art/2.jpg","4","","","","","","","","","","","","","","","","","","","","","","","","",""
"4390","","image-button-response","143","1019616","0.0-141.0-0.0","AS6V4N9C0YUEN","img_art/2.jpg","3","","","","","","","","","","","","","","","","","","","","","","","","",""
"5406","","image-button-response","144","1025024","0.0-142.0-0.0","AS6V4N9C0YUEN","img_art/2.jpg","2","","","","","","","","","","","","","","","","","","","","","","","","",""
"null","","html-keyboard-response","145","1025527","0.0-143.0","AS6V4N9C0YUEN","<p style=""font-size: 48px;"">+</p>","","","","","null","allTrialResponses","500","1","14","img_art/2.jpg","24","very bright and cheerful","Natalie,Kaitlin,Paige,Catherine,Grace,Caroline","looks like a bunch of gibberish,-39,400,20","another confusing piece of art,-12,60,20","Unhappy. I do not like it,-5,60,20","Dependence. Things relying on each other. Caring,-4,160,20","Like the colors but reminds me of a kids show done in cubism.,0,180,20","Colors are drab and cause a sense of blandness,-28,100,20","Grace","Like the colors but reminds me of a kids show done in cubism.,0,180,20","Catherine","Dependence. Things relying on each other. Caring,-4,160,20","Paige","Unhappy. I do not like it,-5,60,20","4"
"10979","","survey-text","146","1036519","0.0-144.0-0.0","AS6V4N9C0YUEN","","","","{""Q0"":""very messy""}","","","","","","","","","","","","","","","","","","","","","","",""
"3318.1999999997206","","image-slider-response","147","1039839","0.0-145.0","AS6V4N9C0YUEN","","","","","-40","","","","","","","","","","","","","","","","","","","","","",""
"null","","image-button-response","148","1044843","0.0-146.0","AS6V4N9C0YUEN","img_art/3.jpg","null","","","","","","","","","","","","","","","","","","","","","","","","",""
"7025","","image-button-response","149","1051872","0.0-147.0","AS6V4N9C0YUEN","img_art/3.jpg","4","","","","","","","","","","","","","","","","","","","","","","","","",""
"1182","","image-button-response","150","1053056","0.0-148.0-0.0","AS6V4N9C0YUEN","img_art/3.jpg","5","","","","","","","","","","","","","","","","","","","","","","","","",""
"2493","","image-button-response","151","1055552","0.0-149.0-0.0","AS6V4N9C0YUEN","img_art/3.jpg","1","","","","","","","","","","","","","","","","","","","","","","","","",""
"null","","html-keyboard-response","152","1056553","0.0-150.0","AS6V4N9C0YUEN","<p style=""font-size: 48px;"">+</p>","","","","","null","allTrialResponses","1000","1","15","img_art/3.jpg","-40","very messy","Alicia,Cassandra,Paige,Catherine,Grace,Alexa","scribbles in red. 2 minute piece.,-30,120,20","I hate this...just a scribble of red.,-50,120,20","seems too angry,-50,60,20","Anger, like something a serial killer may paint.,-30,160,20","Just no. I love red but this looks like blood splatter on a wall from a horrific killing.,-45,180,20","Looks messy and too much for my eyes,-35,40,20","Grace","Just no. I love red but this looks like blood splatter on a wall from a horrific killing.,-45,180,20","Alexa","Looks messy and too much for my eyes,-35,40,20","Cassandra","I hate this...just a scribble of red.,-50,120,20","4"
"7434","","survey-text","153","1064007","0.0-151.0-0.0","AS6V4N9C0YUEN","","","","{""Q0"":""course""}","","","","","","","","","","","","","","","","","","","","","","",""
"22503","","survey-text","154","1086512","0.0-152.0-0.0","AS6V4N9C0YUEN","","","","{""Q0"":""very cute, reminds me of a lemon or pear""}","","","","","","","","","","","","","","","","","","","","","","",""
"3062.0999999996275","","image-slider-response","155","1089576","0.0-153.0","AS6V4N9C0YUEN","","","","","8","","","","","","","","","","","","","","","","","","","","","",""
"null","","image-button-response","156","1094579","0.0-154.0","AS6V4N9C0YUEN","img_art/5.jpg","null","","","","","","","","","","","","","","","","","","","","","","","","",""
"5082","","image-button-response","157","1099664","0.0-155.0","AS6V4N9C0YUEN","img_art/5.jpg","3","","","","","","","","","","","","","","","","","","","","","","","","",""
"2925","","image-button-response","158","1102593","0.0-156.0-0.0","AS6V4N9C0YUEN","img_art/5.jpg","5","","","","","","","","","","","","","","","","","","","","","","","","",""
"10941","","image-button-response","159","1113536","0.0-157.0-0.0","AS6V4N9C0YUEN","img_art/5.jpg","0","","","","","","","","","","","","","","","","","","","","","","","","",""
"null","","html-keyboard-response","160","1114538","0.0-158.0","AS6V4N9C0YUEN","<p style=""font-size: 48px;"">+</p>","","","","","null","allTrialResponses","1000","1","16","img_art/5.jpg","8","very cute, reminds me of a lemon or pear","Courtney,Cassandra,Crystal,Madison,Grace,Alexa","A rabbits head.,4,280,20","This was awful and it looked like someone took minimul effort with it... no time at all.,-49,120,20","Confused as to what the artist is attempting to do.,-50,300,20","Bright and luminous,31,60,20","Looks like a yellow plastic trash bag.,-42,180,20","It's okay. Don't hate it but don't love it either,0,40,20","Madison","Bright and luminous,31,60,20","Alexa","It's okay. Don't hate it but don't love it either,0,40,20","Courtney","A rabbits head.,4,280,20","4"
"12941","","survey-text","161","1127488","0.0-159.0-0.0","AS6V4N9C0YUEN","","","","{""Q0"":""very interesting to look at""}","","","","","","","","","","","","","","","","","","","","","","",""
"2374.0999999996275","","image-slider-response","162","1129864","0.0-160.0","AS6V4N9C0YUEN","","","","","15","","","","","","","","","","","","","","","","","","","","","",""
"null","","image-button-response","163","1134868","0.0-161.0","AS6V4N9C0YUEN","img_art/12.jpg","null","","","","","","","","","","","","","","","","","","","","","","","","",""
"5322","","image-button-response","164","1140192","0.0-162.0","AS6V4N9C0YUEN","img_art/12.jpg","3","","","","","","","","","","","","","","","","","","","","","","","","",""
"1941","","image-button-response","165","1142136","0.0-163.0-0.0","AS6V4N9C0YUEN","img_art/12.jpg","5","","","","","","","","","","","","","","","","","","","","","","","","",""
"3269","","image-button-response","166","1145408","0.0-164.0-0.0","AS6V4N9C0YUEN","img_art/12.jpg","0","","","","","","","","","","","","","","","","","","","","","","","","",""
"null","","html-keyboard-response","167","1145911","0.0-165.0","AS6V4N9C0YUEN","<p style=""font-size: 48px;"">+</p>","","","","","null","allTrialResponses","500","1","17","img_art/12.jpg","15","very interesting to look at","Courtney,Sara,Melissa,Madison,Jacqueline,Alexa","That is a warn quilt grama made.,11,280,20","I don't like the blocking,-20,160,20","reminds me of a dixie cup,3,240,20","Different enough to be memorable. The gradient of hues is appealing and appeasing.,32,60,20","It's not particularly interesting or ugly.,-7,300,20","I love the pattern and this looks like it took a good deal of effort,35,40,20","Madison","Different enough to be memorable. The gradient of hues is appealing and appeasing.,32,60,20","Alexa","I love the pattern and this looks like it took a good deal of effort,35,40,20","Courtney","That is a warn quilt grama made.,11,280,20","4"
"34281","","survey-text","168","1180200","0.0-166.0-0.0","AS6V4N9C0YUEN","","","","{""Q0"":""interesting scene depiction but hard to decipher""}","","","","","","","","","","","","","","","","","","","","","","",""
"3917.7999999998137","","image-slider-response","169","1184120","0.0-167.0","AS6V4N9C0YUEN","","","","","2","","","","","","","","","","","","","","","","","","","","","",""
"null","","image-button-response","170","1189122","0.0-168.0","AS6V4N9C0YUEN","img_art/29.jpg","null","","","","","","","","","","","","","","","","","","","","","","","","",""
"843","","image-button-response","171","1189968","0.0-169.0","AS6V4N9C0YUEN","img_art/29.jpg","1","","","","","","","","","","","","","","","","","","","","","","","","",""
"6079","","image-button-response","172","1196049","0.0-170.0-0.0","AS6V4N9C0YUEN","img_art/29.jpg","5","","","","","","","","","","","","","","","","","","","","","","","","",""
"6077","","image-button-response","173","1202128","0.0-171.0-0.0","AS6V4N9C0YUEN","img_art/29.jpg","0","","","","","","","","","","","","","","","","","","","","","","","","",""
"null","","html-keyboard-response","174","1203130","0.0-172.0","AS6V4N9C0YUEN","<p style=""font-size: 48px;"">+</p>","","","","","null","allTrialResponses","1000","1","18","img_art/29.jpg","2","interesting scene depiction but hard to decipher","Courtney,Samantha,Amber,Madison,Emma,Alexa","Thats a pretty wierd picture.,6,280,20","I love this things almost hidden in it like paint brush and other details,50,140,20","Don't like the red X across the painting.,-15,200,20","Well if the artist themself is crossing it out, why should I pay any mind?,-30,60,20","Feels messy, stressful,-22,60,20","Very wild and I like it,20,40,20","Samantha","I love this things almost hidden in it like paint brush and other details,50,140,20","Alexa","Very wild and I like it,20,40,20","Courtney","Thats a pretty wierd picture.,6,280,20","4"
"44461","","survey-text","175","1247600","0.0-173.0-0.0","AS6V4N9C0YUEN","","","","{""Q0"":""like a waterfall where faeries play""}","","","","","","","","","","","","","","","","","","","","","","",""
"3005.7999999998137","","image-slider-response","176","1250608","0.0-174.0","AS6V4N9C0YUEN","","","","","44","","","","","","","","","","","","","","","","","","","","","",""
"null","","image-button-response","177","1255612","0.0-175.0","AS6V4N9C0YUEN","img_art/24.jpg","null","","","","","","","","","","","","","","","","","","","","","","","","",""
"1217","","image-button-response","178","1256832","0.0-176.0","AS6V4N9C0YUEN","img_art/24.jpg","3","","","","","","","","","","","","","","","","","","","","","","","","",""
"2053","","image-button-response","179","1258889","0.0-177.0-0.0","AS6V4N9C0YUEN","img_art/24.jpg","4","","","","","","","","","","","","","","","","","","","","","","","","",""
"1837","","image-button-response","180","1260728","0.0-178.0-0.0","AS6V4N9C0YUEN","img_art/24.jpg","5","","","","","","","","","","","","","","","","","","","","","","","","",""
"null","","html-keyboard-response","181","1261731","0.0-179.0","AS6V4N9C0YUEN","<p style=""font-size: 48px;"">+</p>","","","","","null","allTrialResponses","1000","1","19","img_art/24.jpg","44","like a waterfall where faeries play","Courtney,Samantha,Morgan,Alyssa,Danielle,Alexa","What a nice refreshing waterfall.,39,280,20","Happy and relaxing bubbling brook,37,140,20","Water through the fruit.,15,380,20","Beautiful.Nice use of colors and invokes feelings of serene and peace,40,160,20","Looks like a mystical type of forest/waterfall. Love it,40,340,20","I absolutely adore this painting. The colors, designs, everything. It's phenomenal,50,40,20","Alyssa","Beautiful.Nice use of colors and invokes feelings of serene and peace,40,160,20","Danielle","Looks like a mystical type of forest/waterfall. Love it,40,340,20","Alexa","I absolutely adore this painting. The colors, designs, everything. It's phenomenal,50,40,20","4"
"36245","","survey-text","182","1297984","0.0-180.0-0.0","AS6V4N9C0YUEN","","","","{""Q0"":""lovey depiction of what appears to be a musical instrument but invokes a sadness""}","","","","","","","","","","","","","","","","","","","","","","",""
"3109.899999999907","","image-slider-response","183","1301096","0.0-181.0","AS6V4N9C0YUEN","","","","","9","","","","","","","","","","","","","","","","","","","","","",""
"null","","image-button-response","184","1306098","0.0-182.0","AS6V4N9C0YUEN","img_art/10.jpg","null","","","","","","","","","","","","","","","","","","","","","","","","",""
"5644","","image-button-response","185","1311745","0.0-183.0","AS6V4N9C0YUEN","img_art/10.jpg","5","","","","","","","","","","","","","","","","","","","","","","","","",""
"1309","","image-button-response","186","1313056","0.0-184.0-0.0","AS6V4N9C0YUEN","img_art/10.jpg","2","","","","","","","","","","","","","","","","","","","","","","","","",""
"1838","","image-button-response","187","1314897","0.0-185.0-0.0","AS6V4N9C0YUEN","img_art/10.jpg","4","","","","","","","","","","","","","","","","","","","","","","","","",""
"null","","html-keyboard-response","188","1315399","0.0-186.0","AS6V4N9C0YUEN","<p style=""font-size: 48px;"">+</p>","","","","","null","allTrialResponses","500","1","20","img_art/10.jpg","9","lovey depiction of what appears to be a musical instrument but invokes a sadness","Jennifer,Brooke,Leslie,Alyssa,Danielle,Alexa","I am neutral towards the artwork,1,380,20","artistic cello piece?,30,60,20","I love the chaotic feel of the brush strokes.,35,380,20","Bleak and uninteresting,-10,160,20","Seems very lovecraftian, which I love that style,25,340,20","Cute and has a vintage feel to it,45,40,20","Alexa","Cute and has a vintage feel to it,45,40,20","Leslie","I love the chaotic feel of the brush strokes.,35,380,20","Danielle","Seems very lovecraftian, which I love that style,25,340,20","4"
"3740","","survey-text","189","1319160","0.0-187.0-0.0","AS6V4N9C0YUEN","","","","{""Q0"":""we""}","","","","","","","","","","","","","","","","","","","","","","",""
"36302","","survey-text","190","1355464","0.0-188.0-0.0","AS6V4N9C0YUEN","","","","{""Q0"":""makes me think of bluebirds in a tree, very simple but memorable""}","","","","","","","","","","","","","","","","","","","","","","",""
"3733.5","","image-slider-response","191","1359199","0.0-189.0","AS6V4N9C0YUEN","","","","","23","","","","","","","","","","","","","","","","","","","","","",""
"null","","image-button-response","192","1364203","0.0-190.0","AS6V4N9C0YUEN","img_art/15.jpg","null","","","","","","","","","","","","","","","","","","","","","","","","",""
"3738","","image-button-response","193","1367944","0.0-191.0","AS6V4N9C0YUEN","img_art/15.jpg","3","","","","","","","","","","","","","","","","","","","","","","","","",""
"3646","","image-button-response","194","1371592","0.0-192.0-0.0","AS6V4N9C0YUEN","img_art/15.jpg","4","","","","","","","","","","","","","","","","","","","","","","","","",""
"5997","","image-button-response","195","1377591","0.0-193.0-0.0","AS6V4N9C0YUEN","img_art/15.jpg","1","","","","","","","","","","","","","","","","","","","","","","","","",""
"null","","html-keyboard-response","196","1378593","0.0-194.0","AS6V4N9C0YUEN","<p style=""font-size: 48px;"">+</p>","","","","","null","allTrialResponses","1000","1","21","img_art/15.jpg","23","makes me think of bluebirds in a tree, very simple but memorable","Kaylee,Jenna,Leslie,Leah,Danielle,Alexa","some trees in the forest,15,200,20","interesting technique. the blue is very pretty,18,360,20","This elicits no reaction in me.,0,380,20","Pretty, like in a field of poppies,19,360,20","This is pretty nice, reminds me of dark peacock feathers, or perhaps a bush with berries in it?,15,340,20","Although it looks a bit bland in terms of color, I really like the print/pattern,25,40,20","Leah","Pretty, like in a field of poppies,19,360,20","Danielle","This is pretty nice, reminds me of dark peacock feathers, or perhaps a bush with berries in it?,15,340,20","Jenna","interesting technique. the blue is very pretty,18,360,20","4"
"22324","","survey-text","197","1400928","0.0-195.0-0.0","AS6V4N9C0YUEN","","","","{""Q0"":""interesting use of space, love the use of warm colors""}","","","","","","","","","","","","","","","","","","","","","","",""
"3246.6999999997206","","image-slider-response","198","1404176","0.0-196.0","AS6V4N9C0YUEN","","","","","5","","","","","","","","","","","","","","","","","","","","","",""
"null","","image-button-response","199","1409180","0.0-197.0","AS6V4N9C0YUEN","img_art/4.jpg","null","","","","","","","","","","","","","","","","","","","","","","","","",""
"11394","","image-button-response","200","1420577","0.0-198.0","AS6V4N9C0YUEN","img_art/4.jpg","0","","","","","","","","","","","","","","","","","","","","","","","","",""
"3686","","image-button-response","201","1424265","0.0-199.0-0.0","AS6V4N9C0YUEN","img_art/4.jpg","2","","","","","","","","","","","","","","","","","","","","","","","","",""
"8117","","image-button-response","202","1432385","0.0-200.0-0.0","AS6V4N9C0YUEN","img_art/4.jpg","5","","","","","","","","","","","","","","","","","","","","","","","","",""
"null","","html-keyboard-response","203","1433387","0.0-201.0","AS6V4N9C0YUEN","<p style=""font-size: 48px;"">+</p>","","","","","null","allTrialResponses","1000","1","22","img_art/4.jpg","5","interesting use of space, love the use of warm colors","Stephanie,Jenna,Heather,Leah,Danielle,Margaret","It looks like a hand someone scribbled over,-30,300,20","creepy, looks like a deformed hand, but the background is pretty,5,360,20","looks like an award from an award show.,22,260,20","To me just looking at paint scrawls,-41,360,20","Not my preference when it comes to art styles or subjects,-10,340,20","doesn't do anything for me,-4,100,20","Stephanie","It looks like a hand someone scribbled over,-30,300,20","Heather","looks like an award from an award show.,22,260,20","Margaret","doesn't do anything for me,-4,100,20","4"
"12520","","survey-text","204","1445920","0.0-202.0-0.0","AS6V4N9C0YUEN","","","","{""Q0"":""love the colors and composition""}","","","","","","","","","","","","","","","","","","","","","","",""
"4222.600000000093","","image-slider-response","205","1450145","0.0-203.0","AS6V4N9C0YUEN","","","","","23","","","","","","","","","","","","","","","","","","","","","",""
"null","","image-button-response","206","1455148","0.0-204.0","AS6V4N9C0YUEN","img_art/22.jpg","null","","","","","","","","","","","","","","","","","","","","","","","","",""
"6418","","image-button-response","207","1461569","0.0-205.0","AS6V4N9C0YUEN","img_art/22.jpg","3","","","","","","","","","","","","","","","","","","","","","","","","",""
"9230","","image-button-response","208","1470801","0.0-206.0-0.0","AS6V4N9C0YUEN","img_art/22.jpg","1","","","","","","","","","","","","","","","","","","","","","","","","",""
"1990","","image-button-response","209","1472793","0.0-207.0-0.0","AS6V4N9C0YUEN","img_art/22.jpg","2","","","","","","","","","","","","","","","","","","","","","","","","",""
"null","","html-keyboard-response","210","1473795","0.0-208.0","AS6V4N9C0YUEN","<p style=""font-size: 48px;"">+</p>","","","","","null","allTrialResponses","1000","1","23","img_art/22.jpg","23","love the colors and composition","Stephanie,Dominique,Heather,Cynthia,Chelsea,Margaret","I don't get much of a reaction.,11,300,20","Can fit with anyone. And in any home a great piece of art,35,400,20","i think its pretty but im not sure what i see,1,260,20","A key to the unknown,15,320,20","The colors clash, and I don't know what is happening.,-23,180,20","i feel like this is a a basic art piece that a school would have on the wall,-24,100,20","Cynthia","A key to the unknown,15,320,20","Dominique","Can fit with anyone. And in any home a great piece of art,35,400,20","Heather","i think its pretty but im not sure what i see,1,260,20","4"
"11724","","survey-text","211","1485528","0.0-209.0-0.0","AS6V4N9C0YUEN","","","","{""Q0"":""interesting and abstract work""}","","","","","","","","","","","","","","","","","","","","","","",""
"3438.100000000559","","image-slider-response","212","1488969","0.0-210.0","AS6V4N9C0YUEN","","","","","3","","","","","","","","","","","","","","","","","","","","","",""
"null","","image-button-response","213","1493972","0.0-211.0","AS6V4N9C0YUEN","img_art/30.jpg","null","","","","","","","","","","","","","","","","","","","","","","","","",""
"634","","image-button-response","214","1494609","0.0-212.0","AS6V4N9C0YUEN","img_art/30.jpg","1","","","","","","","","","","","","","","","","","","","","","","","","",""
"694","","image-button-response","215","1495305","0.0-213.0-0.0","AS6V4N9C0YUEN","img_art/30.jpg","2","","","","","","","","","","","","","","","","","","","","","","","","",""
"6390","","image-button-response","216","1501697","0.0-214.0-0.0","AS6V4N9C0YUEN","img_art/30.jpg","3","","","","","","","","","","","","","","","","","","","","","","","","",""
"null","","html-keyboard-response","217","1502208","0.0-215.0","AS6V4N9C0YUEN","<p style=""font-size: 48px;"">+</p>","","","","","null","allTrialResponses","500","1","24","img_art/30.jpg","3","interesting and abstract work","Allison,Dominique,Heather,Cynthia,Mariah,Julia","Dislike the contrast here.,-5,140,20","Personal , calming conservative signature business ideal.,32,400,20","beautiful paint brush strokes,1,260,20","fun and imaginative,12,320,20","It just feels hasty and not well composed. Has an angsty teen feel,-31,140,20","this is probably part of a neat series, but the abstraction doesn't speak to me,-17,40,20","Dominique","Personal , calming conservative signature business ideal.,32,400,20","Heather","beautiful paint brush strokes,1,260,20","Cynthia","fun and imaginative,12,320,20","4"
"12783","","survey-text","218","1515000","0.0-216.0-0.0","AS6V4N9C0YUEN","","","","{""Q0"":""love the color combination""}","","","","","","","","","","","","","","","","","","","","","","",""
"3838","","image-slider-response","219","1518840","0.0-217.0","AS6V4N9C0YUEN","","","","","25","","","","","","","","","","","","","","","","","","","","","",""
"null","","image-button-response","220","1523842","0.0-218.0","AS6V4N9C0YUEN","img_art/1.jpg","null","","","","","","","","","","","","","","","","","","","","","","","","",""
"1516","","image-button-response","221","1525361","0.0-219.0","AS6V4N9C0YUEN","img_art/1.jpg","1","","","","","","","","","","","","","","","","","","","","","","","","",""
"798","","image-button-response","222","1526161","0.0-220.0-0.0","AS6V4N9C0YUEN","img_art/1.jpg","2","","","","","","","","","","","","","","","","","","","","","","","","",""
"9798","","image-button-response","223","1535961","0.0-221.0-0.0","AS6V4N9C0YUEN","img_art/1.jpg","5","","","","","","","","","","","","","","","","","","","","","","","","",""
"null","","html-keyboard-response","224","1536463","0.0-222.0","AS6V4N9C0YUEN","<p style=""font-size: 48px;"">+</p>","","","","","null","allTrialResponses","500","1","25","img_art/1.jpg","25","love the color combination","Jordan,Dominique,Heather,Cynthia,Diana,Victoria","It's fine, but its like something you'd see in the restroom of a cheap restaurant,10,20,20","I love the detail and colors like a beautiful autumn day,35,400,20","the colors are vibrant and beautiful,1,260,20","fishing on the lake surrounded by trees,42,320,20","Might be a person rowing their boat across the lake. Not sure if the background is trees or not.,12,380,20","love how the colors blend,42,400,20","Dominique","I love the detail and colors like a beautiful autumn day,35,400,20","Heather","the colors are vibrant and beautiful,1,260,20","Victoria","love how the colors blend,42,400,20","4"
"7242","","survey-text","225","1543728","0.0-223.0-0.0","AS6V4N9C0YUEN","","","","{""Q0"":""table""}","","","","","","","","","","","","","","","","","","","","","","",""
"16007","","survey-text","226","1559736","0.0-224.0-0.0","AS6V4N9C0YUEN","","","","{""Q0"":""very unique and draws the eye""}","","","","","","","","","","","","","","","","","","","","","","",""
"2300.9000000003725","","image-slider-response","227","1562040","0.0-225.0","AS6V4N9C0YUEN","","","","","18","","","","","","","","","","","","","","","","","","","","","",""
"null","","image-button-response","228","1567043","0.0-226.0","AS6V4N9C0YUEN","img_art/8.jpg","null","","","","","","","","","","","","","","","","","","","","","","","","",""
"6579","","image-button-response","229","1573624","0.0-227.0","AS6V4N9C0YUEN","img_art/8.jpg","3","","","","","","","","","","","","","","","","","","","","","","","","",""
"7742","","image-button-response","230","1581368","0.0-228.0-0.0","AS6V4N9C0YUEN","img_art/8.jpg","0","","","","","","","","","","","","","","","","","","","","","","","","",""
"1869","","image-button-response","231","1583240","0.0-229.0-0.0","AS6V4N9C0YUEN","img_art/8.jpg","1","","","","","","","","","","","","","","","","","","","","","","","","",""
"null","","html-keyboard-response","232","1584242","0.0-230.0","AS6V4N9C0YUEN","<p style=""font-size: 48px;"">+</p>","","","","","null","allTrialResponses","1000","1","26","img_art/8.jpg","18","very unique and draws the eye","Mikayla,Dominique,Heather,Molly,Cheyenne,Victoria","Its kinda like an optical illusion.,22,300,20","This speaks volumes to me and is another favorite I'm sure by many,40,400,20","woman looking over a the community,1,260,20","Different styles make this picture outstanding.,20,340,20","Has nice depth to it.,12,200,20","makes me think of a busy city,-18,400,20","Molly","Different styles make this picture outstanding.,20,340,20","Mikayla","Its kinda like an optical illusion.,22,300,20","Dominique","This speaks volumes to me and is another favorite I'm sure by many,40,400,20","4"
"34124","","survey-text","233","1618376","0.0-231.0-0.0","AS6V4N9C0YUEN","","","","{""Q0"":""very appealing, love the colors""}","","","","","","","","","","","","","","","","","","","","","","",""
"2333.5","","image-slider-response","234","1620712","0.0-232.0","AS6V4N9C0YUEN","","","","","16","","","","","","","","","","","","","","","","","","","","","",""
"null","","image-button-response","235","1625714","0.0-233.0","AS6V4N9C0YUEN","img_art/14.jpg","null","","","","","","","","","","","","","","","","","","","","","","","","",""
"4931","","image-button-response","236","1630648","0.0-234.0","AS6V4N9C0YUEN","img_art/14.jpg","3","","","","","","","","","","","","","","","","","","","","","","","","",""
"3926","","image-button-response","237","1634576","0.0-235.0-0.0","AS6V4N9C0YUEN","img_art/14.jpg","1","","","","","","","","","","","","","","","","","","","","","","","","",""
"2909","","image-button-response","238","1637488","0.0-236.0-0.0","AS6V4N9C0YUEN","img_art/14.jpg","2","","","","","","","","","","","","","","","","","","","","","","","","",""
"null","","html-keyboard-response","239","1638491","0.0-237.0","AS6V4N9C0YUEN","<p style=""font-size: 48px;"">+</p>","","","","","null","allTrialResponses","1000","1","27","img_art/14.jpg","16","very appealing, love the colors","Mikayla,Dominique,Savannah,Molly,Sierra,Angelica","The red looks like blood and im not a huge fan,15,300,20","Reminds me of the old days with my family and my grandma,41,400,20","Again. This is pretty neutral, leaning dislike.,-18,200,20","In my opinion it's spectacular.,35,340,20","it put me on edge.,-11,260,20","This is poorly done and not aesthetically appealing.,-2,280,20","Molly","In my opinion it's spectacular.,35,340,20","Dominique","Reminds me of the old days with my family and my grandma,41,400,20","Savannah","Again. This is pretty neutral, leaning dislike.,-18,200,20","4"
"34473","","survey-text","240","1672976","0.0-238.0-0.0","AS6V4N9C0YUEN","","","","{""Q0"":""VERY interesting, kinda spooky, I love it""}","","","","","","","","","","","","","","","","","","","","","","",""
"2926.2000000001863","","image-slider-response","241","1675904","0.0-239.0","AS6V4N9C0YUEN","","","","","27","","","","","","","","","","","","","","","","","","","","","",""
"null","","image-button-response","242","1680906","0.0-240.0","AS6V4N9C0YUEN","img_art/25.jpg","null","","","","","","","","","","","","","","","","","","","","","","","","",""
"1091","","image-button-response","243","1682000","0.0-241.0","AS6V4N9C0YUEN","img_art/25.jpg","0","","","","","","","","","","","","","","","","","","","","","","","","",""
"4334","","image-button-response","244","1686336","0.0-242.0-0.0","AS6V4N9C0YUEN","img_art/25.jpg","2","","","","","","","","","","","","","","","","","","","","","","","","",""
"6101","","image-button-response","245","1692440","0.0-243.0-0.0","AS6V4N9C0YUEN","img_art/25.jpg","3","","","","","","","","","","","","","","","","","","","","","","","","",""
"null","","html-keyboard-response","246","1693943","0.0-244.0","AS6V4N9C0YUEN","<p style=""font-size: 48px;"">+</p>","","","","","null","allTrialResponses","1500","1","28","img_art/25.jpg","27","VERY interesting, kinda spooky, I love it","Megan,Dominique,Savannah,Molly,Destiny,Miranda","Beautiful color with an interesting otherworldly figure,29,200,20","Iike this picture; it speaks to me on a personal level. But seems to scare the ones around me.,7,400,20","Very cool color, very clear message!,50,200,20","Well-designed, interesting.,30,340,20","creeeeeppyyyyyyy but mad cool,-26,360,20","This looks cool but I don't really care for it. Some sort or religious figure?,16,320,20","Megan","Beautiful color with an interesting otherworldly figure,29,200,20","Savannah","Very cool color, very clear message!,50,200,20","Molly","Well-designed, interesting.,30,340,20","4"
"45297","","survey-text","247","1739264","0.0-245.0-0.0","AS6V4N9C0YUEN","","","","{""Q0"":""very interesting, love the perspective its almost like looking down a hall or through a window""}","","","","","","","","","","","","","","","","","","","","","","",""
"2806.7000000001863","","image-slider-response","248","1742072","0.0-246.0","AS6V4N9C0YUEN","","","","","30","","","","","","","","","","","","","","","","","","","","","",""
"null","","image-button-response","249","1747076","0.0-247.0","AS6V4N9C0YUEN","img_art/9.jpg","null","","","","","","","","","","","","","","","","","","","","","","","","",""
"6850","","image-button-response","250","1753929","0.0-248.0","AS6V4N9C0YUEN","img_art/9.jpg","3","","","","","","","","","","","","","","","","","","","","","","","","",""
"13974","","image-button-response","251","1767905","0.0-249.0-0.0","AS6V4N9C0YUEN","img_art/9.jpg","4","","","","","","","","","","","","","","","","","","","","","","","","",""
"7813","","image-button-response","252","1775721","0.0-250.0-0.0","AS6V4N9C0YUEN","img_art/9.jpg","0","","","","","","","","","","","","","","","","","","","","","","","","",""
"null","","html-keyboard-response","253","1776223","0.0-251.0","AS6V4N9C0YUEN","<p style=""font-size: 48px;"">+</p>","","","","","null","allTrialResponses","500","1","29","img_art/9.jpg","30","very interesting, love the perspective its almost like looking down a hall or through a window","Megan,Breanna,Savannah,Molly,Sophia,Chloe","A troubled painter was influenced by anger and mad at the woman in the middle, color not bad,-32,200,20","It's a mix of paint splash and scribbling,-33,380,20","Unfinished, weird composition.,-34,200,20","I like the way the artist has painted his painting.,20,340,20","Yikes. I'm not sure what to make of this one.,-14,280,20","Cheesy. Looks unprofessional,-20,220,20","Molly","I like the way the artist has painted his painting.,20,340,20","Sophia","Yikes. I'm not sure what to make of this one.,-14,280,20","Megan","A troubled painter was influenced by anger and mad at the woman in the middle, color not bad,-32,200,20","4"
"27039","","survey-text","254","1803273","0.0-252.0-0.0","AS6V4N9C0YUEN","","","","{""Q0"":""beautiful, like a sunset over the ocean amidst an oncoming storm""}","","","","","","","","","","","","","","","","","","","","","","",""
"2709.7000000001863","","image-slider-response","255","1805984","0.0-253.0","AS6V4N9C0YUEN","","","","","47","","","","","","","","","","","","","","","","","","","","","",""
"null","","image-button-response","256","1810987","0.0-254.0","AS6V4N9C0YUEN","img_art/21.jpg","null","","","","","","","","","","","","","","","","","","","","","","","","",""
"5339","","image-button-response","257","1816329","0.0-255.0","AS6V4N9C0YUEN","img_art/21.jpg","1","","","","","","","","","","","","","","","","","","","","","","","","",""
"7069","","image-button-response","258","1823401","0.0-256.0-0.0","AS6V4N9C0YUEN","img_art/21.jpg","3","","","","","","","","","","","","","","","","","","","","","","","","",""
"4413","","image-button-response","259","1827817","0.0-257.0-0.0","AS6V4N9C0YUEN","img_art/21.jpg","5","","","","","","","","","","","","","","","","","","","","","","","","",""
"null","","html-keyboard-response","260","1829320","0.0-258.0","AS6V4N9C0YUEN","<p style=""font-size: 48px;"">+</p>","","","","","null","allTrialResponses","1500","1","30","img_art/21.jpg","47","beautiful, like a sunset over the ocean amidst an oncoming storm","Megan,Gabriela,Kathryn,Molly,Sophia,Alexandra","Nice asymmetry with maritime colors city meets the sea,34,200,20","It makes me feel mellow or ""chill"". It makes me have a positive and calm mood,42,140,20","This feels chaotic, like a battle or a storm.,-20,140,20","Looks like a war. Many things happening on the painting, really enjoy it.,30,340,20","Indifferent toward this one.,6,280,20","This one is nice, it reminds me of the sky,42,60,20","Gabriela","It makes me feel mellow or ""chill"". It makes me have a positive and calm mood,42,140,20","Molly","Looks like a war. Many things happening on the painting, really enjoy it.,30,340,20","Alexandra","This one is nice, it reminds me of the sky,42,60,20","4"
"4270","","image-button-response_instructions","261","1833601","0.0-259.0","AS6V4N9C0YUEN","","0","instructions","","","","","","","","","","","","","","","","","","","","","","","",""
"1769","","image-button-response","262","1835377","0.0-260.0","AS6V4N9C0YUEN","","0","","","","","","","","","","","","","","","","","","","","","","","","",""
