"rt","url","trial_type","trial_index","time_elapsed","internal_node_id","participant_id","stimulus","button_pressed","Name","responses","response","key_press","variableName","fixationTime","condition","trial","photo","subjectRating","subjectResponse","agentsNames","agent_1_Response","agent_2_Response","agent_3_Response","agent_4_Response","agent_5_Response","agent_6_Response","kept_1_name","kept_1_response","kept_2_name","kept_2_response","kept_3_name","kept_3_response","errorCounter"
"79447","external_page_harvard.html","external-html","0","79859","0.0-0.0","AS8JG1LSWTMGY","","","","","","","","","","","","","","","","","","","","","","","","","","",""
"6211","","image-button-response","1","86077","0.0-1.0","AS8JG1LSWTMGY","","0","","","","","","","","","","","","","","","","","","","","","","","","",""
"2543","","image-button-response","2","88636","0.0-2.0-0.0","AS8JG1LSWTMGY","","1","phone","","","","","","","","","","","","","","","","","","","","","","","",""
"28868","","survey-text","3","117509","0.0-3.0-0.0","AS8JG1LSWTMGY","","","","{""Q0"":""AS8JG1LSWTMGY""}","","","","","","","","","","","","","","","","","","","","","","",""
"25658","","image-button-response_instructions","4","143172","0.0-4.0","AS8JG1LSWTMGY","","0","instructions","","","","","","","","","","","","","","","","","","","","","","","",""
"49021","","image-button-response_instructions","5","192197","0.0-5.0","AS8JG1LSWTMGY","img_art/ins/popularity/ins1.png","0","instructions","","","","","","","","","","","","","","","","","","","","","","","",""
"31508","","image-button-response_instructions","6","223708","0.0-6.0","AS8JG1LSWTMGY","img_art/ins/popularity/ins2.png","0","instructions","","","","","","","","","","","","","","","","","","","","","","","",""
"29133","","image-button-response_instructions","7","252844","0.0-7.0","AS8JG1LSWTMGY","img_art/ins/popularity/ins2Extreme.png","0","instructions","","","","","","","","","","","","","","","","","","","","","","","",""
"42029","","image-button-response_instructions","8","294877","0.0-8.0","AS8JG1LSWTMGY","img_art/ins/popularity/ins3KEEPpop.PNG","0","instructions","","","","","","","","","","","","","","","","","","","","","","","",""
"12933","","image-button-response_instructions","9","307812","0.0-9.0","AS8JG1LSWTMGY","img_art/ins/popularity/ins3ANamepop.PNG","0","instructions","","","","","","","","","","","","","","","","","","","","","","","",""
"7395","","image-button-response_instructions","10","315212","0.0-10.0","AS8JG1LSWTMGY","img_art/ins/popularity/ins3ARatingpop.png","0","instructions","","","","","","","","","","","","","","","","","","","","","","","",""
"4781","","image-button-response_instructions","11","319997","0.0-11.0","AS8JG1LSWTMGY","img_art/ins/popularity/ins3ATextpop.png","0","instructions","","","","","","","","","","","","","","","","","","","","","","","",""
"34853","","image-button-response_instructions","12","354852","0.0-12.0","AS8JG1LSWTMGY","img_art/ins/popularity/ins3ALikespop.png","0","instructions","","","","","","","","","","","","","","","","","","","","","","","",""
"36398","","image-button-response_instructions","13","391252","0.0-13.0","AS8JG1LSWTMGY","img_art/ins/popularity/ins3KEEPpop.PNG","0","instructions","","","","","","","","","","","","","","","","","","","","","","","",""
"62612","","image-button-response_instructions","14","453868","0.0-14.0","AS8JG1LSWTMGY","img_art/ins/popularity/ins3_5RED.png","0","instructions","","","","","","","","","","","","","","","","","","","","","","","",""
"131958","","image-button-response_instructions","15","585829","0.0-15.0","AS8JG1LSWTMGY","img_art/ins/popularity/ins3KEEPpop.PNG","0","instructions","","","","","","","","","","","","","","","","","","","","","","","",""
"28821","","image-button-response_instructions","16","614653","0.0-16.0","AS8JG1LSWTMGY","img_art/ins/popularity/ins4KEEPpop.PNG","0","instructions","","","","","","","","","","","","","","","","","","","","","","","",""
"15526","","image-button-response_instructions","17","630181","0.0-17.0","AS8JG1LSWTMGY","img_art/ins/popularity/ins5KEEPpop.PNG","0","instructions","","","","","","","","","","","","","","","","","","","","","","","",""
"2718","","image-button-response_instructions","18","632901","0.0-18.0","AS8JG1LSWTMGY","","0","instructions","","","","","","","","","","","","","","","","","","","","","","","",""
"17386","","survey-text","19","650349","0.0-19.0-0.0","AS8JG1LSWTMGY","","","","{""Q0"":""but""}","","","","","","","","","","","","","","","","","","","","","","",""
"35698","","survey-text","20","686052","0.0-20.0-0.0","AS8JG1LSWTMGY","","","","{""Q0"":""Not impressed at all!""}","","","","","","","","","","","","","","","","","","","","","","",""
"13648","","image-slider-response","21","699709","0.0-21.0","AS8JG1LSWTMGY","","","","","-30","","","","","","","","","","","","","","","","","","","","","",""
"null","","image-button-response","22","704732","0.0-22.0","AS8JG1LSWTMGY","img_art/ins/1.jpg","null","","","","","","","","","","","","","","","","","","","","","","","","",""
"2605","","image-button-response","23","707341","0.0-23.0","AS8JG1LSWTMGY","img_art/ins/1.jpg","0","","","","","","","","","","","","","","","","","","","","","","","","",""
"5963","","image-button-response","24","713309","0.0-24.0-0.0","AS8JG1LSWTMGY","img_art/ins/1.jpg","2","","","","","","","","","","","","","","","","","","","","","","","","",""
"6703","","image-button-response","25","720022","0.0-25.0-0.0","AS8JG1LSWTMGY","img_art/ins/1.jpg","4","","","","","","","","","","","","","","","","","","","","","","","","",""
"null","","html-keyboard-response","26","721537","0.0-26.0","AS8JG1LSWTMGY","<p style=""font-size: 48px;"">+</p>","","","","","null","allTrialResponses","1500","1","-2","img_art/ins/1.jpg","-30","Not impressed at all!","Adam,Alex,Ben,Carl,Daniel,Jack","Seems like doodles,-20,20,20","very creative work.,36,40,20","This color reminds me of poo,-46,60,20","very calming artwork,42,80,20","It looks like a murder scene.,-48,100,20","I like the sophisticated brushwork,40,120,20","Adam","Seems like doodles,-20,20,20","Ben","This color reminds me of poo,-46,60,20","Daniel","It looks like a murder scene.,-48,100,20","0"
"48372","","survey-text","27","769924","0.0-27.0-0.0","AS8JG1LSWTMGY","","","","{""Q0"":""Kind of a mixed bag, takes more study to appreciate it""}","","","","","","","","","","","","","","","","","","","","","","",""
"15609","","image-slider-response","28","785540","0.0-28.0","AS8JG1LSWTMGY","","","","","21","","","","","","","","","","","","","","","","","","","","","",""
"null","","image-button-response","29","790558","0.0-29.0","AS8JG1LSWTMGY","img_art/ins/2.jpg","null","","","","","","","","","","","","","","","","","","","","","","","","",""
"251","","image-button-response","30","790815","0.0-30.0","AS8JG1LSWTMGY","img_art/ins/2.jpg","1","","","","","","","","","","","","","","","","","","","","","","","","",""
"13266","","image-button-response","31","804087","0.0-31.0-0.0","AS8JG1LSWTMGY","img_art/ins/2.jpg","4","","","","","","","","","","","","","","","","","","","","","","","","",""
"9865","","image-button-response","32","813958","0.0-32.0-0.0","AS8JG1LSWTMGY","img_art/ins/2.jpg","0","","","","","","","","","","","","","","","","","","","","","","","","",""
"null","","html-keyboard-response","33","814971","0.0-33.0","AS8JG1LSWTMGY","<p style=""font-size: 48px;"">+</p>","","","","","null","allTrialResponses","1000","1","-1","img_art/ins/2.jpg","21","Kind of a mixed bag, takes more study to appreciate it","Adam,John,Ben,James,Daniel,Kyle","too much color,-18,20,20","love the texture of paint,48,160,20","meaningless painting,-45,60,20","looks too angry,-50,140,20","One of my pet peevs,-48,100,20","Idk, it is just annoying,-32,180,20","John","love the texture of paint,48,160,20","Daniel","One of my pet peevs,-48,100,20","Adam","too much color,-18,20,20","0"
"43943","","survey-text","34","858926","0.0-34.0-0.0","AS8JG1LSWTMGY","","","","{""Q0"":""Love it the use of color, thumbs up""}","","","","","","","","","","","","","","","","","","","","","","",""
"13633","","image-slider-response","35","872565","0.0-35.0","AS8JG1LSWTMGY","","","","","35","","","","","","","","","","","","","","","","","","","","","",""
"null","","image-button-response","36","877570","0.0-36.0","AS8JG1LSWTMGY","img_art/ins/3.jpg","null","","","","","","","","","","","","","","","","","","","","","","","","",""
"296","","image-button-response","37","877870","0.0-37.0","AS8JG1LSWTMGY","img_art/ins/3.jpg","3","","","","","","","","","","","","","","","","","","","","","","","","",""
"10115","","image-button-response","38","887990","0.0-38.0-0.0","AS8JG1LSWTMGY","img_art/ins/3.jpg","1","","","","","","","","","","","","","","","","","","","","","","","","",""
"4232","","image-button-response","39","892230","0.0-39.0-0.0","AS8JG1LSWTMGY","img_art/ins/3.jpg","5","","","","","","","","","","","","","","","","","","","","","","","","",""
"null","","html-keyboard-response","40","893748","0.0-40.0","AS8JG1LSWTMGY","<p style=""font-size: 48px;"">+</p>","","","","","null","allTrialResponses","1500","1","0","img_art/ins/3.jpg","35","Love it the use of color, thumbs up","Adam,John,Ron,Mike,Daniel,Sam","My daily routine, it's depressing,-20,20,20","I like the overlapping of brushes,41,160,20","It looks depressing,-26,220,20","enjoy the different shades of blue,22,200,20","looks like a murder room,-35,100,20","I can feel a rainy day from this painting,18,240,20","Mike","enjoy the different shades of blue,22,200,20","John","I like the overlapping of brushes,41,160,20","Sam","I can feel a rainy day from this painting,18,240,20","0"
"14688","","image-button-response_instructions","41","908447","0.0-41.0","AS8JG1LSWTMGY","","0","instructions","","","","","","","","","","","","","","","","","","","","","","","",""
"38410","","survey-likert","42","946862","0.0-42.0-0.0","AS8JG1LSWTMGY","","","","{""Q0"":"""",""Q1"":0,""Q2"":1}","","","","","","","","","","","","","","","","","","","","","","",""
"10098","","survey-text","43","956980","0.0-43.0-0.0","AS8JG1LSWTMGY","","","","{""Q0"":""rock""}","","","","","","","","","","","","","","","","","","","","","","",""
"56573","","survey-text","44","1013557","0.0-44.0-0.0","AS8JG1LSWTMGY","","","","{""Q0"":""I don't like birds with one leg, depressing.""}","","","","","","","","","","","","","","","","","","","","","","",""
"14475","","image-slider-response","45","1028037","0.0-45.0","AS8JG1LSWTMGY","","","","","-36","","","","","","","","","","","","","","","","","","","","","",""
"null","","image-button-response","46","1033106","0.0-46.0","AS8JG1LSWTMGY","img_art/6.jpg","null","","","","","","","","","","","","","","","","","","","","","","","","",""
"2694","","image-button-response","47","1035804","0.0-47.0","AS8JG1LSWTMGY","img_art/6.jpg","1","","","","","","","","","","","","","","","","","","","","","","","","",""
"9164","","image-button-response","48","1044976","0.0-48.0-0.0","AS8JG1LSWTMGY","img_art/6.jpg","5","","","","","","","","","","","","","","","","","","","","","","","","",""
"12608","","image-button-response","49","1057589","0.0-49.0-0.0","AS8JG1LSWTMGY","img_art/6.jpg","4","","","","","","","","","","","","","","","","","","","","","","","","",""
"null","","html-keyboard-response","50","1058092","0.0-50.0","AS8JG1LSWTMGY","<p style=""font-size: 48px;"">+</p>","","","","","null","allTrialResponses","500","1","1","img_art/6.jpg","-36","I don't like birds with one leg, depressing.","Shawn,Evan,Carlos,Alex,Jordan,Chase","Cute and evocative,11,100,20","I am intrigued but unsure whether I enjoy this or not,6,140,20","Clean and simple, a pleasant resting place for the eyes.,21,80,20","Definitely belongs at a doctor's office, I think it's a crow or a tree?,-3,100,20","This picture is weird,-6,160,20","It's a bit bland, but looks like a bird standing.,11,120,20","Evan","I am intrigued but unsure whether I enjoy this or not,6,140,20","Chase","It's a bit bland, but looks like a bird standing.,11,120,20","Jordan","This picture is weird,-6,160,20","0"
"72300","","survey-text","51","1130404","0.0-51.0-0.0","AS8JG1LSWTMGY","","","","{""Q0"":""Nah, no talent needed! ""}","","","","","","","","","","","","","","","","","","","","","","",""
"9707","","image-slider-response","52","1140116","0.0-52.0","AS8JG1LSWTMGY","","","","","-40","","","","","","","","","","","","","","","","","","","","","",""
"null","","image-button-response","53","1145131","0.0-53.0","AS8JG1LSWTMGY","img_art/3.jpg","null","","","","","","","","","","","","","","","","","","","","","","","","",""
"5838","","image-button-response","54","1150973","0.0-54.0","AS8JG1LSWTMGY","img_art/3.jpg","4","","","","","","","","","","","","","","","","","","","","","","","","",""
"4244","","image-button-response","55","1155222","0.0-55.0-0.0","AS8JG1LSWTMGY","img_art/3.jpg","2","","","","","","","","","","","","","","","","","","","","","","","","",""
"3971","","image-button-response","56","1159199","0.0-56.0-0.0","AS8JG1LSWTMGY","img_art/3.jpg","1","","","","","","","","","","","","","","","","","","","","","","","","",""
"null","","html-keyboard-response","57","1160208","0.0-57.0","AS8JG1LSWTMGY","<p style=""font-size: 48px;"">+</p>","","","","","null","allTrialResponses","1000","1","2","img_art/3.jpg","-40","Nah, no talent needed! ","Sean,Evan,Steven,Jesus,Jordan,Chase","my response to the picture is a lot of red, danger,,-21,40,20","It feels like a half assed and failed imitation of Japanese signatures on old paintings,-22,140,20","i don't like this, just looks like scribbles,-50,160,20","I like the simplicity of it.,20,100,20","Reminded me of blood or something bad,-21,160,20","Looks like a bloody head with teeth.,-16,120,20","Jordan","Reminded me of blood or something bad,-21,160,20","Steven","i don't like this, just looks like scribbles,-50,160,20","Evan","It feels like a half assed and failed imitation of Japanese signatures on old paintings,-22,140,20","0"
"30526","","survey-text","58","1190749","0.0-58.0-0.0","AS8JG1LSWTMGY","","","","{""Q0"":""Not sure why I like this, but I do.""}","","","","","","","","","","","","","","","","","","","","","","",""
"14636","","image-slider-response","59","1205389","0.0-59.0","AS8JG1LSWTMGY","","","","","29","","","","","","","","","","","","","","","","","","","","","",""
"null","","image-button-response","60","1210405","0.0-60.0","AS8JG1LSWTMGY","img_art/27.jpg","null","","","","","","","","","","","","","","","","","","","","","","","","",""
"4549","","image-button-response","61","1214958","0.0-61.0","AS8JG1LSWTMGY","img_art/27.jpg","2","","","","","","","","","","","","","","","","","","","","","","","","",""
"6793","","image-button-response","62","1221758","0.0-62.0-0.0","AS8JG1LSWTMGY","img_art/27.jpg","5","","","","","","","","","","","","","","","","","","","","","","","","",""
"11047","","image-button-response","63","1232812","0.0-63.0-0.0","AS8JG1LSWTMGY","img_art/27.jpg","4","","","","","","","","","","","","","","","","","","","","","","","","",""
"null","","html-keyboard-response","64","1233329","0.0-64.0","AS8JG1LSWTMGY","<p style=""font-size: 48px;"">+</p>","","","","","null","allTrialResponses","500","1","3","img_art/27.jpg","29","Not sure why I like this, but I do.","Nathan,Evan,Steven,Jorge,Jordan,Brendan","Looks a bit like a child's project with unsatisfying colors,-31,200,20","I am bothered by the green doodles,-20,140,20","two warring cities, separated by a small desert,50,160,20","dirty and misunderstood,-47,180,20","Looks like a little kids drawing,20,160,20","nice firestorm on desert,23,340,20","Steven","two warring cities, separated by a small desert,50,160,20","Brendan","nice firestorm on desert,23,340,20","Jordan","Looks like a little kids drawing,20,160,20","0"
"39426","","survey-text","65","1272764","0.0-65.0-0.0","AS8JG1LSWTMGY","","","","{""Q0"":""It kind of appealing""}","","","","","","","","","","","","","","","","","","","","","","",""
"12820","","image-slider-response","66","1285588","0.0-66.0","AS8JG1LSWTMGY","","","","","20","","","","","","","","","","","","","","","","","","","","","",""
"null","","image-button-response","67","1290607","0.0-67.0","AS8JG1LSWTMGY","img_art/24.jpg","null","","","","","","","","","","","","","","","","","","","","","","","","",""
"5914","","image-button-response","68","1296525","0.0-68.0","AS8JG1LSWTMGY","img_art/24.jpg","1","","","","","","","","","","","","","","","","","","","","","","","","",""
"2833","","image-button-response","69","1299365","0.0-69.0-0.0","AS8JG1LSWTMGY","img_art/24.jpg","3","","","","","","","","","","","","","","","","","","","","","","","","",""
"8484","","image-button-response","70","1307854","0.0-70.0-0.0","AS8JG1LSWTMGY","img_art/24.jpg","4","","","","","","","","","","","","","","","","","","","","","","","","",""
"null","","html-keyboard-response","71","1309373","0.0-71.0","AS8JG1LSWTMGY","<p style=""font-size: 48px;"">+</p>","","","","","null","allTrialResponses","1500","1","4","img_art/24.jpg","20","It kind of appealing","Jack,Cameron,Steven,Spencer,Jordan,Brendan","colors are a bit cramped together. really unique take on a waterfall though.,32,320,20","Mountain stream pineapple texture?,30,60,20","It's beautiful! I love it! I see a waterfall, and they are my favorite things in the world,50,160,20","Happy, the forest as I would love to see it,50,120,20","Beautiful waterfall I like waterfalls,39,160,20","lovely forest vibes,36,340,20","Cameron","Mountain stream pineapple texture?,30,60,20","Spencer","Happy, the forest as I would love to see it,50,120,20","Jordan","Beautiful waterfall I like waterfalls,39,160,20","0"
"43916","","survey-text","72","1353300","0.0-72.0-0.0","AS8JG1LSWTMGY","","","","{""Q0"":""Cool, but why is it sideways?""}","","","","","","","","","","","","","","","","","","","","","","",""
"13611","","image-slider-response","73","1366915","0.0-73.0","AS8JG1LSWTMGY","","","","","22","","","","","","","","","","","","","","","","","","","","","",""
"null","","image-button-response","74","1371936","0.0-74.0","AS8JG1LSWTMGY","img_art/13.jpg","null","","","","","","","","","","","","","","","","","","","","","","","","",""
"4767","","image-button-response","75","1376708","0.0-75.0","AS8JG1LSWTMGY","img_art/13.jpg","0","","","","","","","","","","","","","","","","","","","","","","","","",""
"6428","","image-button-response","76","1383141","0.0-76.0-0.0","AS8JG1LSWTMGY","img_art/13.jpg","2","","","","","","","","","","","","","","","","","","","","","","","","",""
"4115","","image-button-response","77","1387260","0.0-77.0-0.0","AS8JG1LSWTMGY","img_art/13.jpg","0","","","","","","","","","","","","","","","","","","","","","","","","",""
"3715","","image-button-response","78","1405740","0.0-77.1-0.1","AS8JG1LSWTMGY","img_art/13.jpg","3","","","","","","","","","","","","","","","","","","","","","","","","",""
"null","","html-keyboard-response","79","1406744","0.0-78.0","AS8JG1LSWTMGY","<p style=""font-size: 48px;"">+</p>","","","","","null","allTrialResponses","1000","1","5","img_art/13.jpg","22","Cool, but why is it sideways?","Travis,Cameron,Ryan,Spencer,Jordan,Brian","I love the colors and the texture,37,260,20","Like the use of color, not a fan of the splatter,29,60,20","Feels calm and could be placed in anyones house,43,380,20","Like it a lot, reminds me of rainy day on glass,43,120,20","This is easy to look at,46,160,20","I don't really care for splatter paintings; the spectral colors underneath are nice.,-18,380,20","Travis","I love the colors and the texture,37,260,20","Ryan","Feels calm and could be placed in anyones house,43,380,20","Spencer","Like it a lot, reminds me of rainy day on glass,43,120,20","2"
"8462","","survey-text","80","1415243","0.0-79.0-0.0","AS8JG1LSWTMGY","","","","{""Q0"":""sky""}","","","","","","","","","","","","","","","","","","","","","","",""
"50597","","survey-text","81","1465844","0.0-80.0-0.0","AS8JG1LSWTMGY","","","","{""Q0"":""Okay I love it can see into the motion as a band or dancers""}","","","","","","","","","","","","","","","","","","","","","","",""
"6140","","image-slider-response","82","1471988","0.0-81.0","AS8JG1LSWTMGY","","","","","44","","","","","","","","","","","","","","","","","","","","","",""
"4717","","image-button-response","83","1476992","0.0-82.0","AS8JG1LSWTMGY","img_art/23.jpg","3","","","","","","","","","","","","","","","","","","","","","","","","",""
"1000","","image-button-response","84","1477997","0.0-83.0","AS8JG1LSWTMGY","img_art/23.jpg","4","","","","","","","","","","","","","","","","","","","","","","","","",""
"4379","","image-button-response","85","1482382","0.0-84.0-0.0","AS8JG1LSWTMGY","img_art/23.jpg","5","","","","","","","","","","","","","","","","","","","","","","","","",""
"3200","","image-button-response","86","1485589","0.0-85.0-0.0","AS8JG1LSWTMGY","img_art/23.jpg","2","","","","","","","","","","","","","","","","","","","","","","","","",""
"null","","html-keyboard-response","87","1487095","0.0-86.0","AS8JG1LSWTMGY","<p style=""font-size: 48px;"">+</p>","","","","","null","allTrialResponses","1500","1","6","img_art/23.jpg","44","Okay I love it can see into the motion as a band or dancers","Travis,Corey,Ryan,Spencer,Aaron,Tristan","I had a very neutral feeling to this,no feelings at all.,1,260,20","white reminds me of screamo music band tshirts when they have their name in the unreadable lettering,-9,260,20","One of my favorites, love the colors and how the white looks like humans,50,380,20","Interesting, want to look at it more to identify,25,120,20","I love the colors and the contrast.,50,20,20","So exciting and full of the night.,20,300,20","Aaron","I love the colors and the contrast.,50,20,20","Tristan","So exciting and full of the night.,20,300,20","Ryan","One of my favorites, love the colors and how the white looks like humans,50,380,20","2"
"30778","","survey-text","88","1517884","0.0-87.0-0.0","AS8JG1LSWTMGY","","","","{""Q0"":""A bit interesting""}","","","","","","","","","","","","","","","","","","","","","","",""
"7539","","image-slider-response","89","1525428","0.0-88.0","AS8JG1LSWTMGY","","","","","4","","","","","","","","","","","","","","","","","","","","","",""
"null","","image-button-response","90","1530436","0.0-89.0","AS8JG1LSWTMGY","img_art/5.jpg","null","","","","","","","","","","","","","","","","","","","","","","","","",""
"3948","","image-button-response","91","1534389","0.0-90.0","AS8JG1LSWTMGY","img_art/5.jpg","2","","","","","","","","","","","","","","","","","","","","","","","","",""
"11826","","image-button-response","92","1546222","0.0-91.0-0.0","AS8JG1LSWTMGY","img_art/5.jpg","4","","","","","","","","","","","","","","","","","","","","","","","","",""
"2921","","image-button-response","93","1549150","0.0-92.0-0.0","AS8JG1LSWTMGY","img_art/5.jpg","5","","","","","","","","","","","","","","","","","","","","","","","","",""
"null","","html-keyboard-response","94","1549652","0.0-93.0","AS8JG1LSWTMGY","<p style=""font-size: 48px;"">+</p>","","","","","null","allTrialResponses","500","1","7","img_art/5.jpg","4","A bit interesting","Trevor,Devin,Ryan,William,Aaron,Tristan","looks like a little kids painting,-50,280,20","A bit too messy in my eyes,-4,380,20","Very good color coordination,41,380,20","very boring and plain,-35,380,20","It's kind of boring.,-20,20,20","Nearly white background gives a lack of context. Questionable skills,-45,300,20","Ryan","Very good color coordination,41,380,20","Aaron","It's kind of boring.,-20,20,20","Tristan","Nearly white background gives a lack of context. Questionable skills,-45,300,20","2"
"21331","","survey-text","95","1570996","0.0-94.0-0.0","AS8JG1LSWTMGY","","","","{""Q0"":""Now this is art!""}","","","","","","","","","","","","","","","","","","","","","","",""
"8915","","image-slider-response","96","1579916","0.0-95.0","AS8JG1LSWTMGY","","","","","45","","","","","","","","","","","","","","","","","","","","","",""
"null","","image-button-response","97","1584932","0.0-96.0","AS8JG1LSWTMGY","img_art/18.jpg","null","","","","","","","","","","","","","","","","","","","","","","","","",""
"2062","","image-button-response","98","1586999","0.0-97.0","AS8JG1LSWTMGY","img_art/18.jpg","5","","","","","","","","","","","","","","","","","","","","","","","","",""
"1460","","image-button-response","99","1588464","0.0-98.0-0.0","AS8JG1LSWTMGY","img_art/18.jpg","4","","","","","","","","","","","","","","","","","","","","","","","","",""
"7374","","image-button-response","100","1595846","0.0-99.0-0.0","AS8JG1LSWTMGY","img_art/18.jpg","3","","","","","","","","","","","","","","","","","","","","","","","","",""
"null","","html-keyboard-response","101","1596852","0.0-100.0","AS8JG1LSWTMGY","<p style=""font-size: 48px;"">+</p>","","","","","null","allTrialResponses","1000","1","8","img_art/18.jpg","45","Now this is art!","Adam,Nathaniel,Ryan,Mark,Aaron,Tristan","Colors are okay. Reminds me of cavalry.,10,40,20","Looks like a jumbled mess. I prefer a clearer picture,-18,220,20","Too political, not my cup of tea,-50,380,20","I see an artistic representation of the riding of last of the four horseman. Its stunning.,45,80,20","I could spend a long time looking at it and see different things in the shapes.,21,20,20","So much going on. Frightening and tumultous, brave and inspiring. I'd like to spend the rest of my life interpreting it.,30,300,20","Tristan","So much going on. Frightening and tumultous, brave and inspiring. I'd like to spend the rest of my life interpreting it.,30,300,20","Aaron","I could spend a long time looking at it and see different things in the shapes.,21,20,20","Mark","I see an artistic representation of the riding of last of the four horseman. Its stunning.,45,80,20","2"
"58958","","survey-text","102","1655820","0.0-101.0-0.0","AS8JG1LSWTMGY","","","","{""Q0"":""Interesting colors and shapes""}","","","","","","","","","","","","","","","","","","","","","","",""
"5907","","image-slider-response","103","1661733","0.0-102.0","AS8JG1LSWTMGY","","","","","10","","","","","","","","","","","","","","","","","","","","","",""
"null","","image-button-response","104","1666740","0.0-103.0","AS8JG1LSWTMGY","img_art/29.jpg","null","","","","","","","","","","","","","","","","","","","","","","","","",""
"2252","","image-button-response","105","1668997","0.0-104.0","AS8JG1LSWTMGY","img_art/29.jpg","3","","","","","","","","","","","","","","","","","","","","","","","","",""
"1955","","image-button-response","106","1670957","0.0-105.0-0.0","AS8JG1LSWTMGY","img_art/29.jpg","4","","","","","","","","","","","","","","","","","","","","","","","","",""
"2929","","image-button-response","107","1673893","0.0-106.0-0.0","AS8JG1LSWTMGY","img_art/29.jpg","5","","","","","","","","","","","","","","","","","","","","","","","","",""
"null","","html-keyboard-response","108","1674397","0.0-107.0","AS8JG1LSWTMGY","<p style=""font-size: 48px;"">+</p>","","","","","null","allTrialResponses","500","1","9","img_art/29.jpg","10","Interesting colors and shapes","Mitchell,David,Miguel,Mark,Aaron,Tristan","death, darkness, negative picture,-31,180,20","Don't really like the red x. It gives the impression that this a discarded piece.,-10,340,20","It's too messy.,-25,160,20","Bottomless pit and prison. Feels like its saying time is precious.,11,80,20","I like the texture and colors and how it makes me feel. I like how it's different from other abstract art.,45,20,20","The textures bring this painting alive. A window to another existence with infinite possibility.,25,300,20","Mark","Bottomless pit and prison. Feels like its saying time is precious.,11,80,20","Aaron","I like the texture and colors and how it makes me feel. I like how it's different from other abstract art.,45,20,20","Tristan","The textures bring this painting alive. A window to another existence with infinite possibility.,25,300,20","2"
"73208","","survey-text","109","1747620","0.0-108.0-0.0","AS8JG1LSWTMGY","","","","{""Q0"":""Nah, child like rendering""}","","","","","","","","","","","","","","","","","","","","","","",""
"12444","","image-slider-response","110","1760068","0.0-109.0","AS8JG1LSWTMGY","","","","","-34","","","","","","","","","","","","","","","","","","","","","",""
"null","","image-button-response","111","1765075","0.0-110.0","AS8JG1LSWTMGY","img_art/25.jpg","null","","","","","","","","","","","","","","","","","","","","","","","","",""
"4574","","image-button-response","112","1769653","0.0-111.0","AS8JG1LSWTMGY","img_art/25.jpg","1","","","","","","","","","","","","","","","","","","","","","","","","",""
"8530","","image-button-response","113","1778189","0.0-112.0-0.0","AS8JG1LSWTMGY","img_art/25.jpg","3","","","","","","","","","","","","","","","","","","","","","","","","",""
"11969","","image-button-response","114","1790164","0.0-113.0-0.0","AS8JG1LSWTMGY","img_art/25.jpg","0","","","","","","","","","","","","","","","","","","","","","","","","",""
"null","","html-keyboard-response","115","1791171","0.0-114.0","AS8JG1LSWTMGY","<p style=""font-size: 48px;"">+</p>","","","","","null","allTrialResponses","1000","1","10","img_art/25.jpg","-34","Nah, child like rendering","Benjamin,Paul,Jake,Mark,Aaron,Tristan","Regal. Reminds me of Egyptian art.,11,260,20","The skeletal figure is a bit scary,-12,300,20","This is strange and poorly done.,-2,360,20","Looks like Burning Man, dont care for the colors.,-5,80,20","I love the green and the texture,50,20,20","The limited palette make this figure mysterious and interpret-able.,20,300,20","Paul","The skeletal figure is a bit scary,-12,300,20","Mark","Looks like Burning Man, dont care for the colors.,-5,80,20","Benjamin","Regal. Reminds me of Egyptian art.,11,260,20","2"
"5909","","survey-text","116","1797108","0.0-115.0-0.0","AS8JG1LSWTMGY","","","","{""Q0"":""our""}","","","","","","","","","","","","","","","","","","","","","","",""
"51365","","survey-text","117","1848476","0.0-116.0-0.0","AS8JG1LSWTMGY","","","","{""Q0"":""Don't like the use of colors or it!""}","","","","","","","","","","","","","","","","","","","","","","",""
"6619","","image-slider-response","118","1855099","0.0-117.0","AS8JG1LSWTMGY","","","","","-39","","","","","","","","","","","","","","","","","","","","","",""
"null","","image-button-response","119","1860110","0.0-118.0","AS8JG1LSWTMGY","img_art/9.jpg","null","","","","","","","","","","","","","","","","","","","","","","","","",""
"524","","image-button-response","120","1860639","0.0-119.0","AS8JG1LSWTMGY","img_art/9.jpg","4","","","","","","","","","","","","","","","","","","","","","","","","",""
"4521","","image-button-response","121","1865165","0.0-120.0-0.0","AS8JG1LSWTMGY","img_art/9.jpg","5","","","","","","","","","","","","","","","","","","","","","","","","",""
"4609","","image-button-response","122","1869780","0.0-121.0-0.0","AS8JG1LSWTMGY","img_art/9.jpg","0","","","","","","","","","","","","","","","","","","","","","","","","",""
"null","","html-keyboard-response","123","1871284","0.0-122.0","AS8JG1LSWTMGY","<p style=""font-size: 48px;"">+</p>","","","","","null","allTrialResponses","1500","1","11","img_art/9.jpg","-39","Don't like the use of colors or it!","Benjamin,Paul,Jose,Mark,Timothy,Taylor","looks like sleeping beauty in a garden,10,260,20","I like the greens and blues around the sides and the person reclining in the center makes me feel relaxed,24,300,20","Idk what is in the middle but the blurry image makes it seem like the subject is of the painters interest,22,200,20","Sleeping woman in a cave. Makes me feel safe.,20,80,20","A little too weird for me,-30,240,20","Caveman. Not for my walls.,-5,200,20","Timothy","A little too weird for me,-30,240,20","Taylor","Caveman. Not for my walls.,-5,200,20","Benjamin","looks like sleeping beauty in a garden,10,260,20","2"
"44078","","survey-text","124","1915372","0.0-123.0-0.0","AS8JG1LSWTMGY","","","","{""Q0"":""Love it can't explain it though""}","","","","","","","","","","","","","","","","","","","","","","",""
"7173","","image-slider-response","125","1922549","0.0-124.0","AS8JG1LSWTMGY","","","","","46","","","","","","","","","","","","","","","","","","","","","",""
"4023","","image-button-response","126","1927558","0.0-125.0","AS8JG1LSWTMGY","img_art/21.jpg","0","","","","","","","","","","","","","","","","","","","","","","","","",""
"1834","","image-button-response","127","1929398","0.0-126.0","AS8JG1LSWTMGY","img_art/21.jpg","2","","","","","","","","","","","","","","","","","","","","","","","","",""
"6060","","image-button-response","128","1935463","0.0-127.0-0.0","AS8JG1LSWTMGY","img_art/21.jpg","4","","","","","","","","","","","","","","","","","","","","","","","","",""
"12934","","image-button-response","129","1948405","0.0-128.0-0.0","AS8JG1LSWTMGY","img_art/21.jpg","3","","","","","","","","","","","","","","","","","","","","","","","","",""
"null","","html-keyboard-response","130","1949918","0.0-129.0","AS8JG1LSWTMGY","<p style=""font-size: 48px;"">+</p>","","","","","null","allTrialResponses","1500","1","12","img_art/21.jpg","46","Love it can't explain it though","Benjamin,Michael,Juan,Zachary,Timothy,Taylor","sunset after the rain,49,260,20","What's the point?,-30,140,20","The colors and softness work together to make something that's lovely.,42,260,20","Looks like a body of water during a sunset. I like this piece.,21,400,20","Very calming and soft, makes me feel good,31,240,20","Remove the rocks(?) on the lower right.,5,200,20","Juan","The colors and softness work together to make something that's lovely.,42,260,20","Timothy","Very calming and soft, makes me feel good,31,240,20","Zachary","Looks like a body of water during a sunset. I like this piece.,21,400,20","2"
"44022","","survey-text","131","1993956","0.0-130.0-0.0","AS8JG1LSWTMGY","","","","{""Q0"":"" looks like and old stucco wall""}","","","","","","","","","","","","","","","","","","","","","","",""
"6828","","image-slider-response","132","2000788","0.0-131.0","AS8JG1LSWTMGY","","","","","-26","","","","","","","","","","","","","","","","","","","","","",""
"null","","image-button-response","133","2005805","0.0-132.0","AS8JG1LSWTMGY","img_art/7.jpg","null","","","","","","","","","","","","","","","","","","","","","","","","",""
"396","","image-button-response","134","2006204","0.0-133.0","AS8JG1LSWTMGY","img_art/7.jpg","1","","","","","","","","","","","","","","","","","","","","","","","","",""
"2708","","image-button-response","135","2008916","0.0-134.0-0.0","AS8JG1LSWTMGY","img_art/7.jpg","2","","","","","","","","","","","","","","","","","","","","","","","","",""
"10331","","image-button-response","136","2019254","0.0-135.0-0.0","AS8JG1LSWTMGY","img_art/7.jpg","5","","","","","","","","","","","","","","","","","","","","","","","","",""
"null","","html-keyboard-response","137","2019757","0.0-136.0","AS8JG1LSWTMGY","<p style=""font-size: 48px;"">+</p>","","","","","null","allTrialResponses","500","1","13","img_art/7.jpg","-26"," looks like and old stucco wall","Andrew,Seth,Juan,Zachary,Timothy,Stephen","It makes me think of new archaeology discoveries,15,160,20","This piece reminds me of ants and it makes my skin crawl.,-37,60,20","This is borning and lifeless.,-50,260,20","Looks like a desert or another planet. While the color choices are narrow, it's still interesting because it is very natural.,12,400,20","This feels very earthy and grounded,20,240,20","Nice realistic feel but nothing stands out.,4,140,20","Seth","This piece reminds me of ants and it makes my skin crawl.,-37,60,20","Juan","This is borning and lifeless.,-50,260,20","Stephen","Nice realistic feel but nothing stands out.,4,140,20","2"
"47948","","survey-text","138","2067717","0.0-137.0-0.0","AS8JG1LSWTMGY","","","","{""Q0"":""There is a certain depth to it and I like the colors.""}","","","","","","","","","","","","","","","","","","","","","","",""
"8856","","image-slider-response","139","2076581","0.0-138.0","AS8JG1LSWTMGY","","","","","33","","","","","","","","","","","","","","","","","","","","","",""
"null","","image-button-response","140","2081594","0.0-139.0","AS8JG1LSWTMGY","img_art/22.jpg","null","","","","","","","","","","","","","","","","","","","","","","","","",""
"448","","image-button-response","141","2082046","0.0-140.0","AS8JG1LSWTMGY","img_art/22.jpg","4","","","","","","","","","","","","","","","","","","","","","","","","",""
"5443","","image-button-response","142","2087494","0.0-141.0-0.0","AS8JG1LSWTMGY","img_art/22.jpg","1","","","","","","","","","","","","","","","","","","","","","","","","",""
"14202","","image-button-response","143","2101703","0.0-142.0-0.0","AS8JG1LSWTMGY","img_art/22.jpg","3","","","","","","","","","","","","","","","","","","","","","","","","",""
"null","","html-keyboard-response","144","2103208","0.0-143.0","AS8JG1LSWTMGY","<p style=""font-size: 48px;"">+</p>","","","","","null","allTrialResponses","1500","1","14","img_art/22.jpg","33","There is a certain depth to it and I like the colors.","Robert,Seth,Juan,Jason,Luke,Stephen","I don't get much of a reaction.,11,360,20","I think the colors are beautiful they remind me of a sunset.,13,60,20","I don't like the colors or the way they've been arranged.,-20,260,20","Would be better if random black object was not present,11,20,20","the colors and shapes makes me want to keep looking at it,22,20,20","Didn't illicit any reaction,1,140,20","Luke","the colors and shapes makes me want to keep looking at it,22,20,20","Seth","I think the colors are beautiful they remind me of a sunset.,13,60,20","Jason","Would be better if random black object was not present,11,20,20","2"
"47218","","survey-text","145","2150437","0.0-144.0-0.0","AS8JG1LSWTMGY","","","","{""Q0"":""Kind of an old masters charm""}","","","","","","","","","","","","","","","","","","","","","","",""
"6556","","image-slider-response","146","2156997","0.0-145.0","AS8JG1LSWTMGY","","","","","13","","","","","","","","","","","","","","","","","","","","","",""
"null","","image-button-response","147","2162005","0.0-146.0","AS8JG1LSWTMGY","img_art/26.jpg","null","","","","","","","","","","","","","","","","","","","","","","","","",""
"3195","","image-button-response","148","2165205","0.0-147.0","AS8JG1LSWTMGY","img_art/26.jpg","0","","","","","","","","","","","","","","","","","","","","","","","","",""
"5716","","image-button-response","149","2170927","0.0-148.0-0.0","AS8JG1LSWTMGY","img_art/26.jpg","4","","","","","","","","","","","","","","","","","","","","","","","","",""
"9105","","image-button-response","150","2180039","0.0-149.0-0.0","AS8JG1LSWTMGY","img_art/26.jpg","5","","","","","","","","","","","","","","","","","","","","","","","","",""
"null","","html-keyboard-response","151","2180542","0.0-150.0","AS8JG1LSWTMGY","<p style=""font-size: 48px;"">+</p>","","","","","null","allTrialResponses","500","1","15","img_art/26.jpg","13","Kind of an old masters charm","Jonathan,Seth,Luis,Jason,Luke,Edward","It's relaxing to look at but I wish it was just a little more defined,20,140,20","I'm not sure if this is the image of a furniture store or not.,-20,60,20","I dont see any expression,-29,400,20","The colors look faded and blurry,2,20,20","makes me happy and reminds me of a paris courtyard,29,20,20","Elevator art but the watercolors are good,29,60,20","Jonathan","It's relaxing to look at but I wish it was just a little more defined,20,140,20","Luke","makes me happy and reminds me of a paris courtyard,29,20,20","Edward","Elevator art but the watercolors are good,29,60,20","2"
"11166","","survey-text","152","2191733","0.0-151.0-0.0","AS8JG1LSWTMGY","","","","{""Q0"":""course""}","","","","","","","","","","","","","","","","","","","","","","",""
"34325","","survey-text","153","2226061","0.0-152.0-0.0","AS8JG1LSWTMGY","","","","{""Q0"":""Nice piece of work, colors and lines""}","","","","","","","","","","","","","","","","","","","","","","",""
"7300","","image-slider-response","154","2233364","0.0-153.0","AS8JG1LSWTMGY","","","","","25","","","","","","","","","","","","","","","","","","","","","",""
"3402","","image-button-response","155","2238370","0.0-154.0","AS8JG1LSWTMGY","img_art/17.jpg","0","","","","","","","","","","","","","","","","","","","","","","","","",""
"7702","","image-button-response","156","2246076","0.0-155.0","AS8JG1LSWTMGY","img_art/17.jpg","1","","","","","","","","","","","","","","","","","","","","","","","","",""
"2963","","image-button-response","157","2249045","0.0-156.0-0.0","AS8JG1LSWTMGY","img_art/17.jpg","4","","","","","","","","","","","","","","","","","","","","","","","","",""
"10658","","image-button-response","158","2259710","0.0-157.0-0.0","AS8JG1LSWTMGY","img_art/17.jpg","5","","","","","","","","","","","","","","","","","","","","","","","","",""
"null","","html-keyboard-response","159","2260714","0.0-158.0","AS8JG1LSWTMGY","<p style=""font-size: 48px;"">+</p>","","","","","null","allTrialResponses","1000","1","16","img_art/17.jpg","25","Nice piece of work, colors and lines","Jonathan,Bryan,Joshua,Devon,Luke,Edward","Feels nostalgic somehow,31,140,20","Reminds me of winters in Minnesota.,48,400,20","Looks like an abandoned building that is being overtaken by nature.,-10,240,20","i feel some sadness in this picture,25,400,20","it looks very intricate and colorful,50,20,20","I love how soft it is,35,60,20","Bryan","Reminds me of winters in Minnesota.,48,400,20","Luke","it looks very intricate and colorful,50,20,20","Edward","I love how soft it is,35,60,20","2"
"75462","","survey-text","160","2336189","0.0-159.0-0.0","AS8JG1LSWTMGY","","","","{""Q0"":""Unique, collage style I enjoy it  ""}","","","","","","","","","","","","","","","","","","","","","","",""
"5730","","image-slider-response","161","2341924","0.0-160.0","AS8JG1LSWTMGY","","","","","29","","","","","","","","","","","","","","","","","","","","","",""
"null","","image-button-response","162","2346939","0.0-161.0","AS8JG1LSWTMGY","img_art/12.jpg","null","","","","","","","","","","","","","","","","","","","","","","","","",""
"6343","","image-button-response","163","2353286","0.0-162.0","AS8JG1LSWTMGY","img_art/12.jpg","1","","","","","","","","","","","","","","","","","","","","","","","","",""
"12713","","image-button-response","164","2366007","0.0-163.0-0.0","AS8JG1LSWTMGY","img_art/12.jpg","5","","","","","","","","","","","","","","","","","","","","","","","","",""
"21209","","image-button-response","165","2387222","0.0-164.0-0.0","AS8JG1LSWTMGY","img_art/12.jpg","4","","","","","","","","","","","","","","","","","","","","","","","","",""
"null","","html-keyboard-response","166","2388735","0.0-165.0","AS8JG1LSWTMGY","<p style=""font-size: 48px;"">+</p>","","","","","null","allTrialResponses","1500","1","17","img_art/12.jpg","29","Unique, collage style I enjoy it  ","Anthony,Bryan,Tanner,Elijah,Luke,Edward","This piece doesn't provoke any kind of reaction,0,200,20","Love the colors & the abstractness.,31,400,20","stressful, upsetting,-10,180,20","It makes me feel confused,-15,80,20","don't feel a lot but it seems very simple,-6,20,20","It looks like old lady upholstery,12,60,20","Bryan","Love the colors & the abstractness.,31,400,20","Edward","It looks like old lady upholstery,12,60,20","Luke","don't feel a lot but it seems very simple,-6,20,20","2"
"45259","","survey-text","167","2434005","0.0-166.0-0.0","AS8JG1LSWTMGY","","","","{""Q0"":""A painting you  could hang in any direction""}","","","","","","","","","","","","","","","","","","","","","","",""
"5530","","image-slider-response","168","2439540","0.0-167.0","AS8JG1LSWTMGY","","","","","14","","","","","","","","","","","","","","","","","","","","","",""
"null","","image-button-response","169","2444544","0.0-168.0","AS8JG1LSWTMGY","img_art/28.jpg","null","","","","","","","","","","","","","","","","","","","","","","","","",""
"4873","","image-button-response","170","2449420","0.0-169.0","AS8JG1LSWTMGY","img_art/28.jpg","0","","","","","","","","","","","","","","","","","","","","","","","","",""
"4820","","image-button-response","171","2454245","0.0-170.0-0.0","AS8JG1LSWTMGY","img_art/28.jpg","3","","","","","","","","","","","","","","","","","","","","","","","","",""
"6522","","image-button-response","172","2460773","0.0-171.0-0.0","AS8JG1LSWTMGY","img_art/28.jpg","5","","","","","","","","","","","","","","","","","","","","","","","","",""
"null","","html-keyboard-response","173","2461278","0.0-172.0","AS8JG1LSWTMGY","<p style=""font-size: 48px;"">+</p>","","","","","null","allTrialResponses","500","1","18","img_art/28.jpg","14","A painting you  could hang in any direction","Dylan,Bryan,Dakota,Jacob,Luke,Edward","Boring, looks like it belongs in a coffee shop,-20,40,20","A meeting in Old Jerusalem.,11,400,20","musical, animated and happy with somber undertones,7,280,20","I can't tell what's going on but it looks a little bit more lively at least,7,340,20","no clear colors or meaning to evoke emotions,-15,20,20","Salvador Dali called and he thinks this looks pretty good,27,60,20","Dylan","Boring, looks like it belongs in a coffee shop,-20,40,20","Jacob","I can't tell what's going on but it looks a little bit more lively at least,7,340,20","Edward","Salvador Dali called and he thinks this looks pretty good,27,60,20","2"
"54656","","survey-text","174","2515949","0.0-173.0-0.0","AS8JG1LSWTMGY","","","","{""Q0"":""Now were going to true fine art.""}","","","","","","","","","","","","","","","","","","","","","","",""
"5547","","image-slider-response","175","2521500","0.0-174.0","AS8JG1LSWTMGY","","","","","47","","","","","","","","","","","","","","","","","","","","","",""
"3019","","image-button-response","176","2526519","0.0-175.0","AS8JG1LSWTMGY","img_art/8.jpg","1","","","","","","","","","","","","","","","","","","","","","","","","",""
"609","","image-button-response","177","2527133","0.0-176.0","AS8JG1LSWTMGY","img_art/8.jpg","4","","","","","","","","","","","","","","","","","","","","","","","","",""
"5916","","image-button-response","178","2533053","0.0-177.0-0.0","AS8JG1LSWTMGY","img_art/8.jpg","2","","","","","","","","","","","","","","","","","","","","","","","","",""
"8993","","image-button-response","179","2542053","0.0-178.0-0.0","AS8JG1LSWTMGY","img_art/8.jpg","1","","","","","","","","","","","","","","","","","","","","","","","","",""
"null","","html-keyboard-response","180","2542572","0.0-179.0","AS8JG1LSWTMGY","<p style=""font-size: 48px;"">+</p>","","","","","null","allTrialResponses","500","1","19","img_art/8.jpg","47","Now were going to true fine art.","Dylan,Derek,Eric,Jacob,Mason,Edward","The colors are nice but the big face in the sky is creepy,-11,40,20","It's simply gorgeous. This artist is very talented,50,360,20","I love the colors in this piece.,25,100,20","Very cool! I like this piece,9,340,20","wow. blocky, angled, neat colors. The faces are what makes it. love it.,45,100,20","It's too boxy for my taste,-10,60,20","Mason","wow. blocky, angled, neat colors. The faces are what makes it. love it.,45,100,20","Eric","I love the colors in this piece.,25,100,20","Derek","It's simply gorgeous. This artist is very talented,50,360,20","2"
"26539","","survey-text","181","2569124","0.0-180.0-0.0","AS8JG1LSWTMGY","","","","{""Q0"":""Does nothing for me at all!""}","","","","","","","","","","","","","","","","","","","","","","",""
"6139","","image-slider-response","182","2575267","0.0-181.0","AS8JG1LSWTMGY","","","","","-32","","","","","","","","","","","","","","","","","","","","","",""
"4476","","image-button-response","183","2580275","0.0-182.0","AS8JG1LSWTMGY","img_art/2.jpg","0","","","","","","","","","","","","","","","","","","","","","","","","",""
"10269","","image-button-response","184","2590549","0.0-183.0","AS8JG1LSWTMGY","img_art/2.jpg","2","","","","","","","","","","","","","","","","","","","","","","","","",""
"5634","","image-button-response","185","2596190","0.0-184.0-0.0","AS8JG1LSWTMGY","img_art/2.jpg","3","","","","","","","","","","","","","","","","","","","","","","","","",""
"8583","","image-button-response","186","2604780","0.0-185.0-0.0","AS8JG1LSWTMGY","img_art/2.jpg","0","","","","","","","","","","","","","","","","","","","","","","","","",""
"null","","html-keyboard-response","187","2606283","0.0-186.0","AS8JG1LSWTMGY","<p style=""font-size: 48px;"">+</p>","","","","","null","allTrialResponses","1500","1","20","img_art/2.jpg","-32","Does nothing for me at all!","Jesse,Derek,Eric,Kevin,Mason,Jeffrey","Looks childish and i dont like the texture,-25,80,20","Not my favorite but I can see this being hung in a art museum,25,360,20","I like the color, but I feel like I see a creepy face which I dislike.,-5,100,20","That looks look a cartoon character of some kind.,11,320,20","retro, amateurish, not a fan of the colors together.,-10,100,20","positive, seems like someone really happy and colourful is looking at me,22,40,20","Eric","I like the color, but I feel like I see a creepy face which I dislike.,-5,100,20","Kevin","That looks look a cartoon character of some kind.,11,320,20","Jesse","Looks childish and i dont like the texture,-25,80,20","2"
"5859","","survey-text","188","2612173","0.0-187.0-0.0","AS8JG1LSWTMGY","","","","{""Q0"":""we""}","","","","","","","","","","","","","","","","","","","","","","",""
"78581","","survey-text","189","2690757","0.0-188.0-0.0","AS8JG1LSWTMGY","","","","{""Q0"":""looks kind of in between different styles""}","","","","","","","","","","","","","","","","","","","","","","",""
"4652","","image-slider-response","190","2695413","0.0-189.0","AS8JG1LSWTMGY","","","","","-34","","","","","","","","","","","","","","","","","","","","","",""
"3964","","image-button-response","191","2700420","0.0-190.0","AS8JG1LSWTMGY","img_art/15.jpg","0","","","","","","","","","","","","","","","","","","","","","","","","",""
"6917","","image-button-response","192","2707342","0.0-191.0","AS8JG1LSWTMGY","img_art/15.jpg","4","","","","","","","","","","","","","","","","","","","","","","","","",""
"10626","","image-button-response","193","2717973","0.0-192.0-0.0","AS8JG1LSWTMGY","img_art/15.jpg","1","","","","","","","","","","","","","","","","","","","","","","","","",""
"3626","","image-button-response","194","2721605","0.0-193.0-0.0","AS8JG1LSWTMGY","img_art/15.jpg","2","","","","","","","","","","","","","","","","","","","","","","","","",""
"null","","html-keyboard-response","195","2723120","0.0-194.0","AS8JG1LSWTMGY","<p style=""font-size: 48px;"">+</p>","","","","","null","allTrialResponses","1500","1","21","img_art/15.jpg","-34","looks kind of in between different styles","Jesse,Brett,Eric,Kevin,Alexis,Alejandro","Doesnt trigger much of a reaction overall,-2,80,20","I don't know how I feel about this,31,360,20","This picture is too confusing for me. I wouldn't want to stare at it to figure it out.,-10,100,20","Weird fuzzball bush.,22,320,20","it is dark and gloomy,-9,140,20","The blotted black spots create a nice contrast between the brush strokes within the center and sides. I like it.,41,80,20","Alexis","it is dark and gloomy,-9,140,20","Brett","I don't know how I feel about this,31,360,20","Eric","This picture is too confusing for me. I wouldn't want to stare at it to figure it out.,-10,100,20","2"
"76927","","survey-text","196","2800060","0.0-195.0-0.0","AS8JG1LSWTMGY","","","","{""Q0"":""Someone needs to clip their fingernails""}","","","","","","","","","","","","","","","","","","","","","","",""
"7763","","image-slider-response","197","2807828","0.0-196.0","AS8JG1LSWTMGY","","","","","-15","","","","","","","","","","","","","","","","","","","","","",""
"null","","image-button-response","198","2812841","0.0-197.0","AS8JG1LSWTMGY","img_art/4.jpg","null","","","","","","","","","","","","","","","","","","","","","","","","",""
"10497","","image-button-response","199","2823342","0.0-198.0","AS8JG1LSWTMGY","img_art/4.jpg","0","","","","","","","","","","","","","","","","","","","","","","","","",""
"5900","","image-button-response","200","2829252","0.0-199.0-0.0","AS8JG1LSWTMGY","img_art/4.jpg","2","","","","","","","","","","","","","","","","","","","","","","","","",""
"5266","","image-button-response","201","2834525","0.0-200.0-0.0","AS8JG1LSWTMGY","img_art/4.jpg","5","","","","","","","","","","","","","","","","","","","","","","","","",""
"null","","html-keyboard-response","202","2835036","0.0-201.0","AS8JG1LSWTMGY","<p style=""font-size: 48px;"">+</p>","","","","","null","allTrialResponses","500","1","22","img_art/4.jpg","-15","Someone needs to clip their fingernails","Caleb,Brett,Eric,John,Alexis,Antonio","Colors are horrendous, look like bodily fluids have been smeared.,-50,40,20","I just have no clue,26,360,20","This piece catches my eye, but it's strange to me.,10,100,20","Extremely simple and like not alot of time was put into it,-20,120,20","The bold colors are exciting. It looks like a statue on someone's mantle.,18,140,20","Blah feeling, nothing,-8,220,20","Caleb","Colors are horrendous, look like bodily fluids have been smeared.,-50,40,20","Eric","This piece catches my eye, but it's strange to me.,10,100,20","Antonio","Blah feeling, nothing,-8,220,20","2"
"46866","","survey-text","203","2881916","0.0-202.0-0.0","AS8JG1LSWTMGY","","","","{""Q0"":""Makes me wonder what's behind it""}","","","","","","","","","","","","","","","","","","","","","","",""
"10188","","image-slider-response","204","2892109","0.0-203.0","AS8JG1LSWTMGY","","","","","11","","","","","","","","","","","","","","","","","","","","","",""
"null","","image-button-response","205","2897118","0.0-204.0","AS8JG1LSWTMGY","img_art/1.jpg","null","","","","","","","","","","","","","","","","","","","","","","","","",""
"8740","","image-button-response","206","2905862","0.0-205.0","AS8JG1LSWTMGY","img_art/1.jpg","2","","","","","","","","","","","","","","","","","","","","","","","","",""
"11203","","image-button-response","207","2917070","0.0-206.0-0.0","AS8JG1LSWTMGY","img_art/1.jpg","1","","","","","","","","","","","","","","","","","","","","","","","","",""
"8154","","image-button-response","208","2925230","0.0-207.0-0.0","AS8JG1LSWTMGY","img_art/1.jpg","0","","","","","","","","","","","","","","","","","","","","","","","","",""
"null","","html-keyboard-response","209","2925740","0.0-208.0","AS8JG1LSWTMGY","<p style=""font-size: 48px;"">+</p>","","","","","null","allTrialResponses","500","1","23","img_art/1.jpg","11","Makes me wonder what's behind it","Caleb,Garrett,Eric,Jared,Gregory,Antonio","Its simply okay.,3,40,20","I think that this picture has nice colors and its pleasing to the eyes.,20,180,20","I like the way that the colors blend.,35,100,20","there isnt anything clear to look at,-2,400,20","Looks like just a bunch of colors with no real point,-5,220,20","Felt nothing in response to this painting,3,220,20","Eric","I like the way that the colors blend.,35,100,20","Garrett","I think that this picture has nice colors and its pleasing to the eyes.,20,180,20","Caleb","Its simply okay.,3,40,20","2"
"325563","","survey-text","210","3251318","0.0-209.0-0.0","AS8JG1LSWTMGY","","","","{""Q0"":""Would take too long to explain what I like""}","","","","","","","","","","","","","","","","","","","","","","",""
"5409","","image-slider-response","211","3256733","0.0-210.0","AS8JG1LSWTMGY","","","","","39","","","","","","","","","","","","","","","","","","","","","",""
"null","","image-button-response","212","3261740","0.0-211.0","AS8JG1LSWTMGY","img_art/10.jpg","null","","","","","","","","","","","","","","","","","","","","","","","","",""
"3662","","image-button-response","213","3265406","0.0-212.0","AS8JG1LSWTMGY","img_art/10.jpg","4","","","","","","","","","","","","","","","","","","","","","","","","",""
"2898","","image-button-response","214","3268310","0.0-213.0-0.0","AS8JG1LSWTMGY","img_art/10.jpg","3","","","","","","","","","","","","","","","","","","","","","","","","",""
"4089","","image-button-response","215","3272406","0.0-214.0-0.0","AS8JG1LSWTMGY","img_art/10.jpg","5","","","","","","","","","","","","","","","","","","","","","","","","",""
"null","","html-keyboard-response","216","3273421","0.0-215.0","AS8JG1LSWTMGY","<p style=""font-size: 48px;"">+</p>","","","","","null","allTrialResponses","1000","1","24","img_art/10.jpg","39","Would take too long to explain what I like","Caleb,Garrett,Eric,Adrian,Daniel,Blake","This is a scribble of a mad man. Appears low effort.,-33,40,20","I can't tell what this picture is supposed to mean and I think the colors are lacking variety.,-42,180,20","This piece is unusual in a way that makes me uncomfortable.,-5,100,20","Looks like a violin. Not a fan of the smudges and smears, but my initial reaction was positive.,11,60,20","Music visualized with subtle color,17,320,20","a fast racetrack. go, go, go,5,280,20","Daniel","Music visualized with subtle color,17,320,20","Adrian","Looks like a violin. Not a fan of the smudges and smears, but my initial reaction was positive.,11,60,20","Blake","a fast racetrack. go, go, go,5,280,20","2"
"27525","","survey-text","217","3300962","0.0-216.0-0.0","AS8JG1LSWTMGY","","","","{""Q0"":""Has a nice sway or feel to it""}","","","","","","","","","","","","","","","","","","","","","","",""
"8762","","image-slider-response","218","3309733","0.0-217.0","AS8JG1LSWTMGY","","","","","17","","","","","","","","","","","","","","","","","","","","","",""
"4178","","image-button-response","219","3314748","0.0-218.0","AS8JG1LSWTMGY","img_art/11.jpg","0","","","","","","","","","","","","","","","","","","","","","","","","",""
"236","","image-button-response","220","3314989","0.0-219.0","AS8JG1LSWTMGY","img_art/11.jpg","1","","","","","","","","","","","","","","","","","","","","","","","","",""
"9026","","image-button-response","221","3324021","0.0-220.0-0.0","AS8JG1LSWTMGY","img_art/11.jpg","2","","","","","","","","","","","","","","","","","","","","","","","","",""
"5192","","image-button-response","222","3329220","0.0-221.0-0.0","AS8JG1LSWTMGY","img_art/11.jpg","0","","","","","","","","","","","","","","","","","","","","","","","","",""
"null","","html-keyboard-response","223","3329724","0.0-222.0","AS8JG1LSWTMGY","<p style=""font-size: 48px;"">+</p>","","","","","null","allTrialResponses","500","1","25","img_art/11.jpg","17","Has a nice sway or feel to it","Bradley,Thomas,James,Adrian,Daniel,Blake","WOW!  I love how the ships and the seas become one in this piece.,50,300,20","Lovely. I could look at this for a really long time. I love the details and the composition.,40,220,20","I like dark colors.,31,380,20","Not a fan of the colors but it looks interesting.,-31,60,20","Some interesting color but scratchy train mess.,-14,320,20","a train going around the country,14,280,20","Thomas","Lovely. I could look at this for a really long time. I love the details and the composition.,40,220,20","James","I like dark colors.,31,380,20","Bradley","WOW!  I love how the ships and the seas become one in this piece.,50,300,20","2"
"24324","","survey-text","224","3354076","0.0-223.0-0.0","AS8JG1LSWTMGY","","","","{""Q0"":""table""}","","","","","","","","","","","","","","","","","","","","","","",""
"63403","","survey-text","225","3417483","0.0-224.0-0.0","AS8JG1LSWTMGY","","","","{""Q0"":""I like the brush strokes and soft colors""}","","","","","","","","","","","","","","","","","","","","","","",""
"11597","","image-slider-response","226","3429085","0.0-225.0","AS8JG1LSWTMGY","","","","","30","","","","","","","","","","","","","","","","","","","","","",""
"null","","image-button-response","227","3434090","0.0-226.0","AS8JG1LSWTMGY","img_art/30.jpg","null","","","","","","","","","","","","","","","","","","","","","","","","",""
"5695","","image-button-response","228","3439789","0.0-227.0","AS8JG1LSWTMGY","img_art/30.jpg","1","","","","","","","","","","","","","","","","","","","","","","","","",""
"3290","","image-button-response","229","3443085","0.0-228.0-0.0","AS8JG1LSWTMGY","img_art/30.jpg","3","","","","","","","","","","","","","","","","","","","","","","","","",""
"8081","","image-button-response","230","3451174","0.0-229.0-0.0","AS8JG1LSWTMGY","img_art/30.jpg","5","","","","","","","","","","","","","","","","","","","","","","","","",""
"null","","html-keyboard-response","231","3452183","0.0-230.0","AS8JG1LSWTMGY","<p style=""font-size: 48px;"">+</p>","","","","","null","allTrialResponses","1000","1","26","img_art/30.jpg","30","I like the brush strokes and soft colors","Bradley,Thomas,James,Bryce,Nicholas,Cody","Hmmm. I think the artist is trying to direct me to a spreadsheet?  (s/s),-10,300,20","I like the colors,18,220,20","I like the fact that it's a painting.,21,380,20","Very colorful! Wow!,22,20,20","Too much like childrens finger paint. I dont like the smear of blended colors,-50,240,20","Like the design, not a big fan of the colors,20,180,20","Thomas","I like the colors,18,220,20","Bryce","Very colorful! Wow!,22,20,20","Cody","Like the design, not a big fan of the colors,20,180,20","2"
"109082","","survey-text","232","3561284","0.0-231.0-0.0","AS8JG1LSWTMGY","","","","{""Q0"":"" nice futuristic feel, but more like a1984 vibe""}","","","","","","","","","","","","","","","","","","","","","","",""
"6884","","image-slider-response","233","3568172","0.0-232.0","AS8JG1LSWTMGY","","","","","16","","","","","","","","","","","","","","","","","","","","","",""
"null","","image-button-response","234","3573178","0.0-233.0","AS8JG1LSWTMGY","img_art/20.jpg","null","","","","","","","","","","","","","","","","","","","","","","","","",""
"11273","","image-button-response","235","3584456","0.0-234.0","AS8JG1LSWTMGY","img_art/20.jpg","4","","","","","","","","","","","","","","","","","","","","","","","","",""
"2318","","image-button-response","236","3586783","0.0-235.0-0.0","AS8JG1LSWTMGY","img_art/20.jpg","5","","","","","","","","","","","","","","","","","","","","","","","","",""
"4870","","image-button-response","237","3591660","0.0-236.0-0.0","AS8JG1LSWTMGY","img_art/20.jpg","1","","","","","","","","","","","","","","","","","","","","","","","","",""
"null","","html-keyboard-response","238","3592164","0.0-237.0","AS8JG1LSWTMGY","<p style=""font-size: 48px;"">+</p>","","","","","null","allTrialResponses","500","1","27","img_art/20.jpg","16"," nice futuristic feel, but more like a1984 vibe","Jeremy,Thomas,Cole,Bryce,Ian,Cody","scared. makes me feel alone or abandoned,-11,60,20","I really enjoy the contrast of colors (blue/red/orange),30,220,20","Someone trying to be dali,-15,200,20","Kinda freaks me out.,-40,20,20","A painting within a painting, the inner painting looks like a car crash with a semi truck.,21,260,20","I like the distortion of the objects, good colors,20,180,20","Ian","A painting within a painting, the inner painting looks like a car crash with a semi truck.,21,260,20","Cody","I like the distortion of the objects, good colors,20,180,20","Thomas","I really enjoy the contrast of colors (blue/red/orange),30,220,20","2"
"49631","","survey-text","239","3641812","0.0-238.0-0.0","AS8JG1LSWTMGY","","","","{""Q0"":""no waste of time, burn your brushes!""}","","","","","","","","","","","","","","","","","","","","","","",""
"10828","","image-slider-response","240","3652648","0.0-239.0","AS8JG1LSWTMGY","","","","","-48","","","","","","","","","","","","","","","","","","","","","",""
"null","","image-button-response","241","3657652","0.0-240.0","AS8JG1LSWTMGY","img_art/16.jpg","null","","","","","","","","","","","","","","","","","","","","","","","","",""
"2557","","image-button-response","242","3660214","0.0-241.0","AS8JG1LSWTMGY","img_art/16.jpg","4","","","","","","","","","","","","","","","","","","","","","","","","",""
"3195","","image-button-response","243","3663416","0.0-242.0-0.0","AS8JG1LSWTMGY","img_art/16.jpg","5","","","","","","","","","","","","","","","","","","","","","","","","",""
"8408","","image-button-response","244","3671831","0.0-243.0-0.0","AS8JG1LSWTMGY","img_art/16.jpg","2","","","","","","","","","","","","","","","","","","","","","","","","",""
"null","","html-keyboard-response","245","3673344","0.0-244.0","AS8JG1LSWTMGY","<p style=""font-size: 48px;"">+</p>","","","","","null","allTrialResponses","1500","1","28","img_art/16.jpg","-48","no waste of time, burn your brushes!","Colton,Thomas,Peter,Lucas,Ian,Cody","the materials used are interesting,30,220,20","Makes me want to know more,5,220,20","It's a little unsettling,2,320,20","It's frightening.,30,380,20","This looks like it was made by an art student filled with angst,-30,260,20","Kind of creepyyyyyy,-41,180,20","Ian","This looks like it was made by an art student filled with angst,-30,260,20","Cody","Kind of creepyyyyyy,-41,180,20","Peter","It's a little unsettling,2,320,20","2"
"34860","","survey-text","246","3708228","0.0-245.0-0.0","AS8JG1LSWTMGY","","","","{""Q0"":""Nice colors tree and beach...""}","","","","","","","","","","","","","","","","","","","","","","",""
"5748","","image-slider-response","247","3713980","0.0-246.0","AS8JG1LSWTMGY","","","","","17","","","","","","","","","","","","","","","","","","","","","",""
"null","","image-button-response","248","3718996","0.0-247.0","AS8JG1LSWTMGY","img_art/14.jpg","null","","","","","","","","","","","","","","","","","","","","","","","","",""
"6237","","image-button-response","249","3725237","0.0-248.0","AS8JG1LSWTMGY","img_art/14.jpg","3","","","","","","","","","","","","","","","","","","","","","","","","",""
"3668","","image-button-response","250","3728910","0.0-249.0-0.0","AS8JG1LSWTMGY","img_art/14.jpg","0","","","","","","","","","","","","","","","","","","","","","","","","",""
"5788","","image-button-response","251","3734702","0.0-250.0-0.0","AS8JG1LSWTMGY","img_art/14.jpg","2","","","","","","","","","","","","","","","","","","","","","","","","",""
"null","","html-keyboard-response","252","3735708","0.0-251.0","AS8JG1LSWTMGY","<p style=""font-size: 48px;"">+</p>","","","","","null","allTrialResponses","1000","1","29","img_art/14.jpg","17","Nice colors tree and beach...","Victor,Logan,Peter,Joseph,Ian,Cody","Meh. Pleasant to look at. Colors are nice,6,340,20","I dont really vibe with the grayish color palette,-7,360,20","I like that it's like a snippet of a field in the desert,21,320,20","I like that it looks like plants on a table, which reminds me of life.,4,220,20","This just looks like a kids watercolor painting.,-30,260,20","Don't love it.,-10,180,20","Joseph","I like that it looks like plants on a table, which reminds me of life.,4,220,20","Victor","Meh. Pleasant to look at. Colors are nice,6,340,20","Peter","I like that it's like a snippet of a field in the desert,21,320,20","2"
"52230","","survey-text","253","3787957","0.0-252.0-0.0","AS8JG1LSWTMGY","","","","{""Q0"":""interesting, a bit cool and depressing""}","","","","","","","","","","","","","","","","","","","","","","",""
"5195","","image-slider-response","254","3793157","0.0-253.0","AS8JG1LSWTMGY","","","","","9","","","","","","","","","","","","","","","","","","","","","",""
"null","","image-button-response","255","3798168","0.0-254.0","AS8JG1LSWTMGY","img_art/19.jpg","null","","","","","","","","","","","","","","","","","","","","","","","","",""
"7066","","image-button-response","256","3805238","0.0-255.0","AS8JG1LSWTMGY","img_art/19.jpg","2","","","","","","","","","","","","","","","","","","","","","","","","",""
"2058","","image-button-response","257","3807301","0.0-256.0-0.0","AS8JG1LSWTMGY","img_art/19.jpg","5","","","","","","","","","","","","","","","","","","","","","","","","",""
"12754","","image-button-response","258","3820061","0.0-257.0-0.0","AS8JG1LSWTMGY","img_art/19.jpg","0","","","","","","","","","","","","","","","","","","","","","","","","",""
"null","","html-keyboard-response","259","3820565","0.0-258.0","AS8JG1LSWTMGY","<p style=""font-size: 48px;"">+</p>","","","","","null","allTrialResponses","500","1","30","img_art/19.jpg","9","interesting, a bit cool and depressing","Victor,Brandon,Peter,Joseph,Kenneth,Scott","too much going on, can't tell what it is,-14,340,20","Not a fan of the blobbiness,-22,320,20","Looks like hustle and bustle ,,3,320,20","Too messy and busy. Too much going on there for me.,-12,220,20","TOo much brown.,-24,300,20","looks like a shopping center,20,20,20","Peter","Looks like hustle and bustle ,,3,320,20","Scott","looks like a shopping center,20,20,20","Victor","too much going on, can't tell what it is,-14,340,20","2"
"8659","","image-button-response_instructions","260","3829261","0.0-259.0","AS8JG1LSWTMGY","","0","instructions","","","","","","","","","","","","","","","","","","","","","","","",""
"1808","","image-button-response","261","3831083","0.0-260.0","AS8JG1LSWTMGY","","0","","","","","","","","","","","","","","","","","","","","","","","","",""
