"rt","url","trial_type","trial_index","time_elapsed","internal_node_id","participant_id","stimulus","button_pressed","Name","responses","response","key_press","variableName","fixationTime","condition","trial","photo","subjectRating","subjectResponse","agentsNames","agent_1_Response","agent_2_Response","agent_3_Response","agent_4_Response","agent_5_Response","agent_6_Response","kept_1_name","kept_1_response","kept_2_name","kept_2_response","kept_3_name","kept_3_response","errorCounter"
"90363","external_page_harvard.html","external-html","0","90654","0.0-0.0","ATU582WJWMEL2","","","","","","","","","","","","","","","","","","","","","","","","","","",""
"1182","","image-button-response","1","91837","0.0-1.0","ATU582WJWMEL2","","0","","","","","","","","","","","","","","","","","","","","","","","","",""
"1083","","image-button-response","2","92925","0.0-2.0-0.0","ATU582WJWMEL2","","1","phone","","","","","","","","","","","","","","","","","","","","","","","",""
"4838","","survey-text","3","97765","0.0-3.0-0.0","ATU582WJWMEL2","","","","{""Q0"":""ATU582WJWMEL2""}","","","","","","","","","","","","","","","","","","","","","","",""
"15190","","image-button-response_instructions","4","112957","0.0-4.0","ATU582WJWMEL2","","0","instructions","","","","","","","","","","","","","","","","","","","","","","","",""
"3622","","image-button-response_instructions","5","116581","0.0-5.0","ATU582WJWMEL2","img_art/ins/popularity/ins1.png","0","instructions","","","","","","","","","","","","","","","","","","","","","","","",""
"1647","","image-button-response_instructions","6","118229","0.0-6.0","ATU582WJWMEL2","img_art/ins/popularity/ins2.png","0","instructions","","","","","","","","","","","","","","","","","","","","","","","",""
"2398","","image-button-response_instructions","7","120629","0.0-7.0","ATU582WJWMEL2","img_art/ins/popularity/ins2Extreme.png","0","instructions","","","","","","","","","","","","","","","","","","","","","","","",""
"4831","","image-button-response_instructions","8","125461","0.0-8.0","ATU582WJWMEL2","img_art/ins/popularity/ins3KEEPpop.PNG","0","instructions","","","","","","","","","","","","","","","","","","","","","","","",""
"1592","","image-button-response_instructions","9","127053","0.0-9.0","ATU582WJWMEL2","img_art/ins/popularity/ins3ANamepop.PNG","0","instructions","","","","","","","","","","","","","","","","","","","","","","","",""
"2630","","image-button-response_instructions","10","129685","0.0-10.0","ATU582WJWMEL2","img_art/ins/popularity/ins3ARatingpop.png","0","instructions","","","","","","","","","","","","","","","","","","","","","","","",""
"2551","","image-button-response_instructions","11","132237","0.0-11.0","ATU582WJWMEL2","img_art/ins/popularity/ins3ATextpop.png","0","instructions","","","","","","","","","","","","","","","","","","","","","","","",""
"3254","","image-button-response_instructions","12","135493","0.0-12.0","ATU582WJWMEL2","img_art/ins/popularity/ins3ALikespop.png","0","instructions","","","","","","","","","","","","","","","","","","","","","","","",""
"4278","","image-button-response_instructions","13","139773","0.0-13.0","ATU582WJWMEL2","img_art/ins/popularity/ins3KEEPpop.PNG","0","instructions","","","","","","","","","","","","","","","","","","","","","","","",""
"2239","","image-button-response_instructions","14","142013","0.0-14.0","ATU582WJWMEL2","img_art/ins/popularity/ins3_5RED.png","0","instructions","","","","","","","","","","","","","","","","","","","","","","","",""
"3031","","image-button-response_instructions","15","145045","0.0-15.0","ATU582WJWMEL2","img_art/ins/popularity/ins3KEEPpop.PNG","0","instructions","","","","","","","","","","","","","","","","","","","","","","","",""
"3247","","image-button-response_instructions","16","148293","0.0-16.0","ATU582WJWMEL2","img_art/ins/popularity/ins4KEEPpop.PNG","0","instructions","","","","","","","","","","","","","","","","","","","","","","","",""
"1974","","image-button-response_instructions","17","150269","0.0-17.0","ATU582WJWMEL2","img_art/ins/popularity/ins5KEEPpop.PNG","0","instructions","","","","","","","","","","","","","","","","","","","","","","","",""
"1166","","image-button-response_instructions","18","151437","0.0-18.0","ATU582WJWMEL2","","0","instructions","","","","","","","","","","","","","","","","","","","","","","","",""
"3899","","survey-text","19","155357","0.0-19.0-0.0","ATU582WJWMEL2","","","","{""Q0"":""but""}","","","","","","","","","","","","","","","","","","","","","","",""
"10654","","survey-text","20","166013","0.0-20.0-0.0","ATU582WJWMEL2","","","","{""Q0"":""It washes over me but isn't particularly cool""}","","","","","","","","","","","","","","","","","","","","","","",""
"2910.400000035763","","image-slider-response","21","168925","0.0-21.0","ATU582WJWMEL2","","","","","10","","","","","","","","","","","","","","","","","","","","","",""
"2622","","image-button-response","22","173927","0.0-22.0","ATU582WJWMEL2","img_art/ins/1.jpg","2","","","","","","","","","","","","","","","","","","","","","","","","",""
"2348","","image-button-response","23","176277","0.0-23.0","ATU582WJWMEL2","img_art/ins/1.jpg","5","","","","","","","","","","","","","","","","","","","","","","","","",""
"1638","","image-button-response","24","177917","0.0-24.0-0.0","ATU582WJWMEL2","img_art/ins/1.jpg","2","","","","","","","","","","","","","","","","","","","","","","","","",""
"2230","","image-button-response","25","180149","0.0-25.0-0.0","ATU582WJWMEL2","img_art/ins/1.jpg","1","","","","","","","","","","","","","","","","","","","","","","","","",""
"null","","html-keyboard-response","26","181151","0.0-26.0","ATU582WJWMEL2","<p style=""font-size: 48px;"">+</p>","","","","","null","allTrialResponses","1000","1","-2","img_art/ins/1.jpg","10","It washes over me but isn't particularly cool","Adam,Alex,Ben,Carl,Daniel,Jack","Seems like doodles,-20,20,20","very creative work.,36,40,20","This color reminds me of poo,-46,60,20","very calming artwork,42,80,20","It looks like a murder scene.,-48,100,20","I like the sophisticated brushwork,40,120,20","Jack","I like the sophisticated brushwork,40,120,20","Ben","This color reminds me of poo,-46,60,20","Alex","very creative work.,36,40,20","0"
"10866","","survey-text","27","192021","0.0-27.0-0.0","ATU582WJWMEL2","","","","{""Q0"":""Violent and geometric, pretty good""}","","","","","","","","","","","","","","","","","","","","","","",""
"1694.699999988079","","image-slider-response","28","193717","0.0-28.0","ATU582WJWMEL2","","","","","18","","","","","","","","","","","","","","","","","","","","","",""
"1686","","image-button-response","29","198719","0.0-29.0","ATU582WJWMEL2","img_art/ins/2.jpg","1","","","","","","","","","","","","","","","","","","","","","","","","",""
"1380","","image-button-response","30","200101","0.0-30.0","ATU582WJWMEL2","img_art/ins/2.jpg","5","","","","","","","","","","","","","","","","","","","","","","","","",""
"1702","","image-button-response","31","201805","0.0-31.0-0.0","ATU582WJWMEL2","img_art/ins/2.jpg","4","","","","","","","","","","","","","","","","","","","","","","","","",""
"1095","","image-button-response","32","202901","0.0-32.0-0.0","ATU582WJWMEL2","img_art/ins/2.jpg","1","","","","","","","","","","","","","","","","","","","","","","","","",""
"null","","html-keyboard-response","33","203903","0.0-33.0","ATU582WJWMEL2","<p style=""font-size: 48px;"">+</p>","","","","","null","allTrialResponses","1000","1","-1","img_art/ins/2.jpg","18","Violent and geometric, pretty good","Kyle,Alex,Ben,James,John,Jack","Idk, it is just annoying,-32,180,20","I like the blocks of color arrangements,30,40,20","meaningless painting,-45,60,20","looks too angry,-50,140,20","love the texture of paint,48,160,20","I would never be able to compose a sophisticated pallete like this,48,120,20","Jack","I would never be able to compose a sophisticated pallete like this,48,120,20","John","love the texture of paint,48,160,20","Alex","I like the blocks of color arrangements,30,40,20","0"
"10058","","survey-text","34","213965","0.0-34.0-0.0","ATU582WJWMEL2","","","","{""Q0"":""Chilling and abstract. Cool and modernist""}","","","","","","","","","","","","","","","","","","","","","","",""
"1727","","image-slider-response","35","215693","0.0-35.0","ATU582WJWMEL2","","","","","27","","","","","","","","","","","","","","","","","","","","","",""
"1559","","image-button-response","36","220695","0.0-36.0","ATU582WJWMEL2","img_art/ins/3.jpg","1","","","","","","","","","","","","","","","","","","","","","","","","",""
"1132","","image-button-response","37","221829","0.0-37.0","ATU582WJWMEL2","img_art/ins/3.jpg","5","","","","","","","","","","","","","","","","","","","","","","","","",""
"806","","image-button-response","38","222637","0.0-38.0-0.0","ATU582WJWMEL2","img_art/ins/3.jpg","1","","","","","","","","","","","","","","","","","","","","","","","","",""
"4126","","image-button-response","39","226766","0.0-39.0-0.0","ATU582WJWMEL2","img_art/ins/3.jpg","0","","","","","","","","","","","","","","","","","","","","","","","","",""
"null","","html-keyboard-response","40","228267","0.0-40.0","ATU582WJWMEL2","<p style=""font-size: 48px;"">+</p>","","","","","null","allTrialResponses","1500","1","0","img_art/ins/3.jpg","27","Chilling and abstract. Cool and modernist","Sam,Alex,Ron,Mike,John,Jack","I can feel a rainy day from this painting,18,240,20","calming blue is very nice,36,40,20","It looks depressing,-26,220,20","enjoy the different shades of blue,22,200,20","I like the overlapping of brushes,41,160,20","I feel connected to the artist,40,120,20","Jack","I feel connected to the artist,40,120,20","Alex","calming blue is very nice,36,40,20","Sam","I can feel a rainy day from this painting,18,240,20","0"
"11126","","image-button-response_instructions","41","239397","0.0-41.0","ATU582WJWMEL2","","0","instructions","","","","","","","","","","","","","","","","","","","","","","","",""
"6878","","survey-likert","42","246277","0.0-42.0-0.0","ATU582WJWMEL2","","","","{""Q0"":"""",""Q1"":0,""Q2"":1}","","","","","","","","","","","","","","","","","","","","","","",""
"3028","","survey-text","43","249308","0.0-43.0-0.0","ATU582WJWMEL2","","","","{""Q0"":""rock""}","","","","","","","","","","","","","","","","","","","","","","",""
"10719","","survey-text","44","260029","0.0-44.0-0.0","ATU582WJWMEL2","","","","{""Q0"":""Nice and wiggly. Bad background though""}","","","","","","","","","","","","","","","","","","","","","","",""
"1590.6000000238419","","image-slider-response","45","261621","0.0-45.0","ATU582WJWMEL2","","","","","10","","","","","","","","","","","","","","","","","","","","","",""
"3000","","image-button-response","46","266638","0.0-46.0","ATU582WJWMEL2","img_art/30.jpg","1","","","","","","","","","","","","","","","","","","","","","","","","",""
"525","","image-button-response","47","267165","0.0-47.0","ATU582WJWMEL2","img_art/30.jpg","1","","","","","","","","","","","","","","","","","","","","","","","","",""
"1758","","image-button-response","48","268925","0.0-48.0-0.0","ATU582WJWMEL2","img_art/30.jpg","5","","","","","","","","","","","","","","","","","","","","","","","","",""
"1662","","image-button-response","49","270589","0.0-49.0-0.0","ATU582WJWMEL2","img_art/30.jpg","3","","","","","","","","","","","","","","","","","","","","","","","","",""
"null","","html-keyboard-response","50","271592","0.0-50.0","ATU582WJWMEL2","<p style=""font-size: 48px;"">+</p>","","","","","null","allTrialResponses","1000","1","1","img_art/30.jpg","10","Nice and wiggly. Bad background though","Elijah,Chase,Jacob,Charles,Dakota,Samuel","Paint scribbled on canvas,-25,80,20","Too dark and ugly with all the black smears,-20,120,20","Looks cool , but no meaning,1,340,20","looks like eels,-20,100,20","sloppy, unintentional,-20,280,20","perceiving greatness,20,400,20","Chase","Too dark and ugly with all the black smears,-20,120,20","Samuel","perceiving greatness,20,400,20","Charles","looks like eels,-20,100,20","0"
"8290","","survey-text","51","279885","0.0-51.0-0.0","ATU582WJWMEL2","","","","{""Q0"":""Aggressive and organ like""}","","","","","","","","","","","","","","","","","","","","","","",""
"2830.300000011921","","image-slider-response","52","282717","0.0-52.0","ATU582WJWMEL2","","","","","8","","","","","","","","","","","","","","","","","","","","","",""
"4278","","image-button-response","53","287719","0.0-53.0","ATU582WJWMEL2","img_art/28.jpg","0","","","","","","","","","","","","","","","","","","","","","","","","",""
"1564","","image-button-response","54","289285","0.0-54.0","ATU582WJWMEL2","img_art/28.jpg","0","","","","","","","","","","","","","","","","","","","","","","","","",""
"1326","","image-button-response","55","290613","0.0-55.0-0.0","ATU582WJWMEL2","img_art/28.jpg","4","","","","","","","","","","","","","","","","","","","","","","","","",""
"638","","image-button-response","56","291253","0.0-56.0-0.0","ATU582WJWMEL2","img_art/28.jpg","5","","","","","","","","","","","","","","","","","","","","","","","","",""
"null","","html-keyboard-response","57","292254","0.0-57.0","ATU582WJWMEL2","<p style=""font-size: 48px;"">+</p>","","","","","null","allTrialResponses","1000","1","2","img_art/28.jpg","8","Aggressive and organ like","Jonathan,Chase,David,Charles,Seth,Samuel","The lack of color variance leaves it looking ugly even if I like the brush strokes,-10,140,20","I don't like the washed out colors.,-15,120,20","I feel that the image is invoking a sense of negativity.,-15,340,20","The thing on the right is kind of weird/fetus-y,-12,100,20","I think this piece is interesting. I love the faces drawn into it.,29,60,20","conversating means hope,15,400,20","Jonathan","The lack of color variance leaves it looking ugly even if I like the brush strokes,-10,140,20","Seth","I think this piece is interesting. I love the faces drawn into it.,29,60,20","Samuel","conversating means hope,15,400,20","0"
"8059","","survey-text","58","300317","0.0-58.0-0.0","ATU582WJWMEL2","","","","{""Q0"":""Nice square pixel effect""}","","","","","","","","","","","","","","","","","","","","","","",""
"3166.800000011921","","image-slider-response","59","303485","0.0-59.0","ATU582WJWMEL2","","","","","11","","","","","","","","","","","","","","","","","","","","","",""
"3966","","image-button-response","60","308487","0.0-60.0","ATU582WJWMEL2","img_art/12.jpg","0","","","","","","","","","","","","","","","","","","","","","","","","",""
"668","","image-button-response","61","309157","0.0-61.0","ATU582WJWMEL2","img_art/12.jpg","0","","","","","","","","","","","","","","","","","","","","","","","","",""
"590","","image-button-response","62","309749","0.0-62.0-0.0","ATU582WJWMEL2","img_art/12.jpg","4","","","","","","","","","","","","","","","","","","","","","","","","",""
"334","","image-button-response","63","310085","0.0-63.0-0.0","ATU582WJWMEL2","img_art/12.jpg","5","","","","","","","","","","","","","","","","","","","","","","","","",""
"null","","html-keyboard-response","64","310588","0.0-64.0","ATU582WJWMEL2","<p style=""font-size: 48px;"">+</p>","","","","","null","allTrialResponses","500","1","3","img_art/12.jpg","11","Nice square pixel effect","Jonathan,Ian,Brendan,Tyler,Seth,Samuel","I like all the squares and the colors but it feels too cluttered to me,20,140,20","This is like going to a really old mcdoanlds in a tiny town and it's never been renovated so it's breaking down,-31,260,20","wtf is that i dont get it,-50,340,20","Different enough to be memorable. The gradient of hues is appealing and appeasing.,32,320,20","This is beautiful. It looks like 1,000 different sunrises and sunsets.,44,60,20","feels cluttered,-11,400,20","Jonathan","I like all the squares and the colors but it feels too cluttered to me,20,140,20","Seth","This is beautiful. It looks like 1,000 different sunrises and sunsets.,44,60,20","Samuel","feels cluttered,-11,400,20","0"
"10230","","survey-text","65","320821","0.0-65.0-0.0","ATU582WJWMEL2","","","","{""Q0"":""A bit boring, too classical""}","","","","","","","","","","","","","","","","","","","","","","",""
"1742.2000000476837","","image-slider-response","66","322564","0.0-66.0","ATU582WJWMEL2","","","","","-10","","","","","","","","","","","","","","","","","","","","","",""
"3671","","image-button-response","67","327566","0.0-67.0","ATU582WJWMEL2","img_art/17.jpg","5","","","","","","","","","","","","","","","","","","","","","","","","",""
"444","","image-button-response","68","328012","0.0-68.0","ATU582WJWMEL2","img_art/17.jpg","1","","","","","","","","","","","","","","","","","","","","","","","","",""
"687","","image-button-response","69","328701","0.0-69.0-0.0","ATU582WJWMEL2","img_art/17.jpg","4","","","","","","","","","","","","","","","","","","","","","","","","",""
"622","","image-button-response","70","329325","0.0-70.0-0.0","ATU582WJWMEL2","img_art/17.jpg","5","","","","","","","","","","","","","","","","","","","","","","","","",""
"null","","html-keyboard-response","71","330826","0.0-71.0","ATU582WJWMEL2","<p style=""font-size: 48px;"">+</p>","","","","","null","allTrialResponses","1500","1","4","img_art/17.jpg","-10","A bit boring, too classical","Jonathan,Austin,Alexander,Derek,Seth,Samuel","Feels nostalgic somehow,31,140,20","Has a unique vibe to it,50,240,20","Tree of knowledge in a quiet school.,17,120,20","The colors are beautiful and the painting itself is magnificent,50,360,20","I really enjoyed this piece, it's a play on bringing the outside indoors.,32,60,20","muted tones brings me down,-13,400,20","Austin","Has a unique vibe to it,50,240,20","Seth","I really enjoyed this piece, it's a play on bringing the outside indoors.,32,60,20","Samuel","muted tones brings me down,-13,400,20","0"
"11903","","survey-text","72","342733","0.0-72.0-0.0","ATU582WJWMEL2","","","","{""Q0"":""Aggressive but too childish""}","","","","","","","","","","","","","","","","","","","","","","",""
"1982.199999988079","","image-slider-response","73","344717","0.0-73.0","ATU582WJWMEL2","","","","","-15","","","","","","","","","","","","","","","","","","","","","",""
"3254","","image-button-response","74","349719","0.0-74.0","ATU582WJWMEL2","img_art/3.jpg","1","","","","","","","","","","","","","","","","","","","","","","","","",""
"476","","image-button-response","75","350197","0.0-75.0","ATU582WJWMEL2","img_art/3.jpg","3","","","","","","","","","","","","","","","","","","","","","","","","",""
"550","","image-button-response","76","350749","0.0-76.0-0.0","ATU582WJWMEL2","img_art/3.jpg","5","","","","","","","","","","","","","","","","","","","","","","","","",""
"926","","image-button-response","77","351677","0.0-77.0-0.0","ATU582WJWMEL2","img_art/3.jpg","1","","","","","","","","","","","","","","","","","","","","","","","","",""
"null","","html-keyboard-response","78","352178","0.0-78.0","ATU582WJWMEL2","<p style=""font-size: 48px;"">+</p>","","","","","null","allTrialResponses","500","1","5","img_art/3.jpg","-15","Aggressive but too childish","Angel,Austin,Aaron,Malik,Seth,Samuel","This gives me a negative feeling, like someone trying to scratch out their flaws. I see low self-esteem.,-20,180,20","It doesn't invoke any excitement,-21,240,20","Definition of mediocre abstract art,-12,20,20","Unaure what the artist  was doing, needs context,11,40,20","I didn't feel the color choice when I first looked. I did however like the placement of the gray.,-28,60,20","confusing taking over,-15,400,20","Malik","Unaure what the artist  was doing, needs context,11,40,20","Samuel","confusing taking over,-15,400,20","Austin","It doesn't invoke any excitement,-21,240,20","0"
"2694","","survey-text","79","354876","0.0-79.0-0.0","ATU582WJWMEL2","","","","{""Q0"":""sky""}","","","","","","","","","","","","","","","","","","","","","","",""
"8055","","survey-text","80","362932","0.0-80.0-0.0","ATU582WJWMEL2","","","","{""Q0"":""Nice form but too basic painting""}","","","","","","","","","","","","","","","","","","","","","","",""
"2278.600000023842","","image-slider-response","81","365212","0.0-81.0","ATU582WJWMEL2","","","","","-5","","","","","","","","","","","","","","","","","","","","","",""
"null","","image-button-response","82","370214","0.0-82.0","ATU582WJWMEL2","img_art/4.jpg","null","","","","","","","","","","","","","","","","","","","","","","","","",""
"1645","","image-button-response","83","371861","0.0-83.0","ATU582WJWMEL2","img_art/4.jpg","1","","","","","","","","","","","","","","","","","","","","","","","","",""
"791","","image-button-response","84","372654","0.0-84.0-0.0","ATU582WJWMEL2","img_art/4.jpg","5","","","","","","","","","","","","","","","","","","","","","","","","",""
"557","","image-button-response","85","373213","0.0-85.0-0.0","ATU582WJWMEL2","img_art/4.jpg","3","","","","","","","","","","","","","","","","","","","","","","","","",""
"null","","html-keyboard-response","86","373714","0.0-86.0","ATU582WJWMEL2","<p style=""font-size: 48px;"">+</p>","","","","","null","allTrialResponses","500","1","6","img_art/4.jpg","-5","Nice form but too basic painting","Christian,Austin,Nathaniel,Malik,Isaac,Samuel","no sorry i can't really understand,-18,140,20","Like the color vibrancy,29,240,20","Boring and tasteless. Almost reminds me of when an art gallery called a banana 'art',-42,220,20","Reminds me of late night frustrated paintings of my own made of coffee,12,40,20","The colors remind me of McDonalds.,-41,280,20","The muted tones,-11,400,20","Austin","Like the color vibrancy,29,240,20","Samuel","The muted tones,-11,400,20","Malik","Reminds me of late night frustrated paintings of my own made of coffee,12,40,20","0"
"9719","","survey-text","87","383437","0.0-87.0-0.0","ATU582WJWMEL2","","","","{""Q0"":""Really cool, love the background shapes.""}","","","","","","","","","","","","","","","","","","","","","","",""
"2134.5","","image-slider-response","88","385573","0.0-88.0","ATU582WJWMEL2","","","","","27","","","","","","","","","","","","","","","","","","","","","",""
"3686","","image-button-response","89","390575","0.0-89.0","ATU582WJWMEL2","img_art/13.jpg","4","","","","","","","","","","","","","","","","","","","","","","","","",""
"1556","","image-button-response","90","392133","0.0-90.0","ATU582WJWMEL2","img_art/13.jpg","5","","","","","","","","","","","","","","","","","","","","","","","","",""
"2014","","image-button-response","91","394149","0.0-91.0-0.0","ATU582WJWMEL2","img_art/13.jpg","2","","","","","","","","","","","","","","","","","","","","","","","","",""
"1270","","image-button-response","92","395421","0.0-92.0-0.0","ATU582WJWMEL2","img_art/13.jpg","4","","","","","","","","","","","","","","","","","","","","","","","","",""
"null","","html-keyboard-response","93","396922","0.0-93.0","ATU582WJWMEL2","<p style=""font-size: 48px;"">+</p>","","","","","null","allTrialResponses","1500","1","7","img_art/13.jpg","27","Really cool, love the background shapes.","Jack,Austin,Michael,Malik,Jose,Samuel","exciting & chaotic. love the colors.,50,320,20","Love the splash of colors,50,240,20","I don't car for it but it does seem organized and like it took considereably more skill that others.,9,140,20","Gorgeous contrast and color choice, very pleasing,50,40,20","Best color combo. i love this.,50,200,20","eighties here we come,7,400,20","Samuel","eighties here we come,7,400,20","Michael","I don't car for it but it does seem organized and like it took considereably more skill that others.,9,140,20","Jose","Best color combo. i love this.,50,200,20","0"
"12143","","survey-text","94","409069","0.0-94.0-0.0","ATU582WJWMEL2","","","","{""Q0"":""A little distressing, reminds me of childhood trauma""}","","","","","","","","","","","","","","","","","","","","","","",""
"1470.4000000357628","","image-slider-response","95","410541","0.0-95.0","ATU582WJWMEL2","","","","","8","","","","","","","","","","","","","","","","","","","","","",""
"null","","image-button-response","96","415544","0.0-96.0","ATU582WJWMEL2","img_art/16.jpg","null","","","","","","","","","","","","","","","","","","","","","","","","",""
"364","","image-button-response","97","415909","0.0-97.0","ATU582WJWMEL2","img_art/16.jpg","2","","","","","","","","","","","","","","","","","","","","","","","","",""
"686","","image-button-response","98","416597","0.0-98.0-0.0","ATU582WJWMEL2","img_art/16.jpg","5","","","","","","","","","","","","","","","","","","","","","","","","",""
"390","","image-button-response","99","416989","0.0-99.0-0.0","ATU582WJWMEL2","img_art/16.jpg","4","","","","","","","","","","","","","","","","","","","","","","","","",""
"null","","html-keyboard-response","100","418491","0.0-100.0","ATU582WJWMEL2","<p style=""font-size: 48px;"">+</p>","","","","","null","allTrialResponses","1500","1","8","img_art/16.jpg","8","A little distressing, reminds me of childhood trauma","Lucas,Isaiah,Michael,Cameron,Jose,Samuel","It's frightening.,30,380,20","I feel irked, like somehow the items in this painting just happened to fall on the page together.,-44,300,20","Looks like a kid did itt and ti looks disturbing.,-45,140,20","Don't like teddy bears in art. I could draw that house.,-20,60,20","Super weird. Id like to know more about it,24,200,20","childhood horror,3,400,20","Michael","Looks like a kid did itt and ti looks disturbing.,-45,140,20","Samuel","childhood horror,3,400,20","Jose","Super weird. Id like to know more about it,24,200,20","0"
"10447","","survey-text","101","428941","0.0-101.0-0.0","ATU582WJWMEL2","","","","{""Q0"":""A bit hard to see but love the modernist feel""}","","","","","","","","","","","","","","","","","","","","","","",""
"1758.5999999642372","","image-slider-response","102","430701","0.0-102.0","ATU582WJWMEL2","","","","","18","","","","","","","","","","","","","","","","","","","","","",""
"4390","","image-button-response","103","435703","0.0-103.0","ATU582WJWMEL2","img_art/18.jpg","3","","","","","","","","","","","","","","","","","","","","","","","","",""
"572","","image-button-response","104","436277","0.0-104.0","ATU582WJWMEL2","img_art/18.jpg","1","","","","","","","","","","","","","","","","","","","","","","","","",""
"439","","image-button-response","105","436717","0.0-105.0-0.0","ATU582WJWMEL2","img_art/18.jpg","2","","","","","","","","","","","","","","","","","","","","","","","","",""
"822","","image-button-response","106","437541","0.0-106.0-0.0","ATU582WJWMEL2","img_art/18.jpg","3","","","","","","","","","","","","","","","","","","","","","","","","",""
"null","","html-keyboard-response","107","438043","0.0-107.0","ATU582WJWMEL2","<p style=""font-size: 48px;"">+</p>","","","","","null","allTrialResponses","500","1","9","img_art/18.jpg","18","A bit hard to see but love the modernist feel","Tristan,Sean,Michael,Devon,Jose,Samuel","So much going on. Frightening and tumultous, brave and inspiring. I'd like to spend the rest of my life interpreting it.,30,300,20","my response to the picture is a little bit of anxiety but I like the detail,16,40,20","Not my style but I can see some serious skill went int it.,21,140,20","I really like this one - there seems to be a story behind it,32,400,20","Ok this is really badass. Like a warrior come to the last battle,50,200,20","death rides in life,-25,400,20","Sean","my response to the picture is a little bit of anxiety but I like the detail,16,40,20","Michael","Not my style but I can see some serious skill went int it.,21,140,20","Devon","I really like this one - there seems to be a story behind it,32,400,20","0"
"8520","","survey-text","108","446565","0.0-108.0-0.0","ATU582WJWMEL2","","","","{""Q0"":""Too simple and watercolory""}","","","","","","","","","","","","","","","","","","","","","","",""
"4334.299999952316","","image-slider-response","109","450901","0.0-109.0","ATU582WJWMEL2","","","","","-17","","","","","","","","","","","","","","","","","","","","","",""
"3990","","image-button-response","110","455903","0.0-110.0","ATU582WJWMEL2","img_art/26.jpg","1","","","","","","","","","","","","","","","","","","","","","","","","",""
"653","","image-button-response","111","456557","0.0-111.0","ATU582WJWMEL2","img_art/26.jpg","1","","","","","","","","","","","","","","","","","","","","","","","","",""
"342","","image-button-response","112","456901","0.0-112.0-0.0","ATU582WJWMEL2","img_art/26.jpg","2","","","","","","","","","","","","","","","","","","","","","","","","",""
"550","","image-button-response","113","457453","0.0-113.0-0.0","ATU582WJWMEL2","img_art/26.jpg","4","","","","","","","","","","","","","","","","","","","","","","","","",""
"null","","html-keyboard-response","114","458955","0.0-114.0","ATU582WJWMEL2","<p style=""font-size: 48px;"">+</p>","","","","","null","allTrialResponses","1500","1","10","img_art/26.jpg","-17","Too simple and watercolory","Joseph,Sean,Michael,Devon,Dustin,Tanner","Looks like the suburbs. I live in those.,13,220,20","picture looks alright,1,40,20","Not much skil went into this one either.,-41,140,20","i can feel the warmth,12,400,20","Reminds me of watercolor. Muted tones and blurry soft brush strokes. Calm to me.,1,20,20","happy, park, childhood,9,180,20","Sean","picture looks alright,1,40,20","Michael","Not much skil went into this one either.,-41,140,20","Dustin","Reminds me of watercolor. Muted tones and blurry soft brush strokes. Calm to me.,1,20,20","0"
"2732","","survey-text","115","461693","0.0-115.0-0.0","ATU582WJWMEL2","","","","{""Q0"":""our""}","","","","","","","","","","","","","","","","","","","","","","",""
"11439","","survey-text","116","473133","0.0-116.0-0.0","ATU582WJWMEL2","","","","{""Q0"":""Cool blurring effect, just not gripping enough""}","","","","","","","","","","","","","","","","","","","","","","",""
"2558.400000035763","","image-slider-response","117","475693","0.0-117.0","ATU582WJWMEL2","","","","","5","","","","","","","","","","","","","","","","","","","","","",""
"null","","image-button-response","118","480695","0.0-118.0","ATU582WJWMEL2","img_art/20.jpg","null","","","","","","","","","","","","","","","","","","","","","","","","",""
"797","","image-button-response","119","481493","0.0-119.0","ATU582WJWMEL2","img_art/20.jpg","2","","","","","","","","","","","","","","","","","","","","","","","","",""
"1326","","image-button-response","120","482821","0.0-120.0-0.0","ATU582WJWMEL2","img_art/20.jpg","1","","","","","","","","","","","","","","","","","","","","","","","","",""
"446","","image-button-response","121","483269","0.0-121.0-0.0","ATU582WJWMEL2","img_art/20.jpg","0","","","","","","","","","","","","","","","","","","","","","","","","",""
"null","","html-keyboard-response","122","484770","0.0-122.0","ATU582WJWMEL2","<p style=""font-size: 48px;"">+</p>","","","","","null","allTrialResponses","1500","1","11","img_art/20.jpg","5","Cool blurring effect, just not gripping enough","Kenneth,Sean,Michael,Taylor,Dustin,Kevin","I want to like this more, but i wish it was more detailed. It's hard for me to see what it is.,5,300,20","I like the detail on it, although I get a sad vibe to it,19,40,20","Brings about an emotion response of dspair. Loose lines but yet has a cohesion.,8,140,20","Not bad for all the southwestern people.,15,200,20","I don't like it. Dark sky and black figures. White objects remind me of bones.,-30,20,20","The beast is running after you.,33,320,20","Michael","Brings about an emotion response of dspair. Loose lines but yet has a cohesion.,8,140,20","Sean","I like the detail on it, although I get a sad vibe to it,19,40,20","Kenneth","I want to like this more, but i wish it was more detailed. It's hard for me to see what it is.,5,300,20","0"
"12503","","survey-text","123","497277","0.0-123.0-0.0","ATU582WJWMEL2","","","","{""Q0"":""Cool colors but doesn't grip me like I want it""}","","","","","","","","","","","","","","","","","","","","","","",""
"1774.5","","image-slider-response","124","499053","0.0-124.0","ATU582WJWMEL2","","","","","-6","","","","","","","","","","","","","","","","","","","","","",""
"3262","","image-button-response","125","504054","0.0-125.0","ATU582WJWMEL2","img_art/19.jpg","0","","","","","","","","","","","","","","","","","","","","","","","","",""
"373","","image-button-response","126","504429","0.0-126.0","ATU582WJWMEL2","img_art/19.jpg","0","","","","","","","","","","","","","","","","","","","","","","","","",""
"742","","image-button-response","127","505173","0.0-127.0-0.0","ATU582WJWMEL2","img_art/19.jpg","4","","","","","","","","","","","","","","","","","","","","","","","","",""
"734","","image-button-response","128","505909","0.0-128.0-0.0","ATU582WJWMEL2","img_art/19.jpg","5","","","","","","","","","","","","","","","","","","","","","","","","",""
"null","","html-keyboard-response","129","506410","0.0-129.0","ATU582WJWMEL2","<p style=""font-size: 48px;"">+</p>","","","","","null","allTrialResponses","500","1","12","img_art/19.jpg","-6","Cool colors but doesn't grip me like I want it","Kenneth,Sean,Michael,Matthew,Travis,Antonio","TOo much brown.,-24,300,20","the picture gave me anxiety,-38,40,20","Loks like an amature did it, Not pleasing.,-45,140,20","someone at the beach maybe?,27,120,20","Nuetral...can't think of anything to say,4,260,20","Chaotic. Too much going on in the picture,14,220,20","Kenneth","TOo much brown.,-24,300,20","Travis","Nuetral...can't think of anything to say,4,260,20","Antonio","Chaotic. Too much going on in the picture,14,220,20","0"
"10703","","survey-text","130","517117","0.0-130.0-0.0","ATU582WJWMEL2","","","","{""Q0"":""Cool ritual esq drawing, like the green""}","","","","","","","","","","","","","","","","","","","","","","",""
"2878.599999964237","","image-slider-response","131","519997","0.0-131.0","ATU582WJWMEL2","","","","","14","","","","","","","","","","","","","","","","","","","","","",""
"4758","","image-button-response","132","524999","0.0-132.0","ATU582WJWMEL2","img_art/25.jpg","3","","","","","","","","","","","","","","","","","","","","","","","","",""
"1940","","image-button-response","133","526941","0.0-133.0","ATU582WJWMEL2","img_art/25.jpg","1","","","","","","","","","","","","","","","","","","","","","","","","",""
"350","","image-button-response","134","527293","0.0-134.0-0.0","ATU582WJWMEL2","img_art/25.jpg","2","","","","","","","","","","","","","","","","","","","","","","","","",""
"782","","image-button-response","135","528077","0.0-135.0-0.0","ATU582WJWMEL2","img_art/25.jpg","3","","","","","","","","","","","","","","","","","","","","","","","","",""
"null","","html-keyboard-response","136","529579","0.0-136.0","ATU582WJWMEL2","<p style=""font-size: 48px;"">+</p>","","","","","null","allTrialResponses","1500","1","13","img_art/25.jpg","14","Cool ritual esq drawing, like the green","Kenneth,Andrew,Richard,Garrett,Travis,Antonio","I love the color. I don't know what exactly is going on but I like it.,24,300,20","It makes me feel a little uneasy, but I like the painting,11,160,20","interesting pattern and color choice, kind of unusual,2,340,20","I like the way the persons clothes look, there could be more color though.,10,180,20","I hate the colors and the scene,-46,260,20","Makes me think of Baphomet, As above so below and is scary,-50,220,20","Andrew","It makes me feel a little uneasy, but I like the painting,11,160,20","Richard","interesting pattern and color choice, kind of unusual,2,340,20","Garrett","I like the way the persons clothes look, there could be more color though.,10,180,20","0"
"12437","","survey-text","137","542020","0.0-137.0-0.0","ATU582WJWMEL2","","","","{""Q0"":""Looks like genitals or a seashell, but also a beautiful woman. ""}","","","","","","","","","","","","","","","","","","","","","","",""
"3118.899999976158","","image-slider-response","138","545141","0.0-138.0","ATU582WJWMEL2","","","","","24","","","","","","","","","","","","","","","","","","","","","",""
"null","","image-button-response","139","550143","0.0-139.0","ATU582WJWMEL2","img_art/9.jpg","null","","","","","","","","","","","","","","","","","","","","","","","","",""
"1508","","image-button-response","140","551653","0.0-140.0","ATU582WJWMEL2","img_art/9.jpg","3","","","","","","","","","","","","","","","","","","","","","","","","",""
"1190","","image-button-response","141","552845","0.0-141.0-0.0","ATU582WJWMEL2","img_art/9.jpg","2","","","","","","","","","","","","","","","","","","","","","","","","",""
"1622","","image-button-response","142","554469","0.0-142.0-0.0","ATU582WJWMEL2","img_art/9.jpg","1","","","","","","","","","","","","","","","","","","","","","","","","",""
"null","","html-keyboard-response","143","555470","0.0-143.0","ATU582WJWMEL2","<p style=""font-size: 48px;"">+</p>","","","","","null","allTrialResponses","1000","1","14","img_art/9.jpg","24","Looks like genitals or a seashell, but also a beautiful woman. ","Bryce,Andrew,Richard,Garrett,Shawn,Juan","Looks like a crayon drawing.,21,20,20","The peacock theme gives me negative connotations of my ex-sister-in-law,-10,160,20","looks like an imitation of a real piece of art, reclining lady,-1,340,20","This looks like someone sleeping in a bed, and I think the colors make it look interesting.,20,180,20","Cheesy. Looks unprofessional,-20,100,20","It's too abstract for my taste. I wish there were more definition.,-9,260,20","Garrett","This looks like someone sleeping in a bed, and I think the colors make it look interesting.,20,180,20","Richard","looks like an imitation of a real piece of art, reclining lady,-1,340,20","Andrew","The peacock theme gives me negative connotations of my ex-sister-in-law,-10,160,20","0"
"10419","","survey-text","144","565893","0.0-144.0-0.0","ATU582WJWMEL2","","","","{""Q0"":""Great colors but too yellowish brown and blurry""}","","","","","","","","","","","","","","","","","","","","","","",""
"2982.2999999523163","","image-slider-response","145","568877","0.0-145.0","ATU582WJWMEL2","","","","","5","","","","","","","","","","","","","","","","","","","","","",""
"null","","image-button-response","146","573879","0.0-146.0","ATU582WJWMEL2","img_art/14.jpg","null","","","","","","","","","","","","","","","","","","","","","","","","",""
"596","","image-button-response","147","574477","0.0-147.0","ATU582WJWMEL2","img_art/14.jpg","2","","","","","","","","","","","","","","","","","","","","","","","","",""
"350","","image-button-response","148","574828","0.0-148.0-0.0","ATU582WJWMEL2","img_art/14.jpg","1","","","","","","","","","","","","","","","","","","","","","","","","",""
"495","","image-button-response","149","575325","0.0-149.0-0.0","ATU582WJWMEL2","img_art/14.jpg","3","","","","","","","","","","","","","","","","","","","","","","","","",""
"null","","html-keyboard-response","150","575827","0.0-150.0","ATU582WJWMEL2","<p style=""font-size: 48px;"">+</p>","","","","","null","allTrialResponses","500","1","15","img_art/14.jpg","5","Great colors but too yellowish brown and blurry","Mark,Andrew,Richard,Garrett,Jeffrey,Connor","Cute little plant.,15,80,20","Makes me think of my plants growing,11,160,20","the colors are peaceful and nature colors, soft,37,340,20","I like this picture because it looks like a tree and the colors used look cool.,20,180,20","positive colours, makes me to look at it and investigate what is going on,27,40,20","Looks childish and basic,-42,240,20","Richard","the colors are peaceful and nature colors, soft,37,340,20","Andrew","Makes me think of my plants growing,11,160,20","Garrett","I like this picture because it looks like a tree and the colors used look cool.,20,180,20","0"
"3404","","survey-text","151","579237","0.0-151.0-0.0","ATU582WJWMEL2","","","","{""Q0"":""course""}","","","","","","","","","","","","","","","","","","","","","","",""
"12758","","survey-text","152","591996","0.0-152.0-0.0","ATU582WJWMEL2","","","","{""Q0"":""Love it. It's like a room of abstraction. ""}","","","","","","","","","","","","","","","","","","","","","","",""
"1735.2999999523163","","image-slider-response","153","593733","0.0-153.0","ATU582WJWMEL2","","","","","40","","","","","","","","","","","","","","","","","","","","","",""
"2310","","image-button-response","154","598735","0.0-154.0","ATU582WJWMEL2","img_art/29.jpg","5","","","","","","","","","","","","","","","","","","","","","","","","",""
"660","","image-button-response","155","599397","0.0-155.0","ATU582WJWMEL2","img_art/29.jpg","5","","","","","","","","","","","","","","","","","","","","","","","","",""
"1062","","image-button-response","156","600461","0.0-156.0-0.0","ATU582WJWMEL2","img_art/29.jpg","1","","","","","","","","","","","","","","","","","","","","","","","","",""
"446","","image-button-response","157","600909","0.0-157.0-0.0","ATU582WJWMEL2","img_art/29.jpg","0","","","","","","","","","","","","","","","","","","","","","","","","",""
"null","","html-keyboard-response","158","601911","0.0-158.0","ATU582WJWMEL2","<p style=""font-size: 48px;"">+</p>","","","","","null","allTrialResponses","1000","1","16","img_art/29.jpg","40","Love it. It's like a room of abstraction. ","Blake,Andrew,Richard,Garrett,Noah,Anthony","a hot fireplace with things to burn. warm,12,280,20","It seems like there's anger in the painting.,-20,160,20","it's OK, no clue to what's going on but good use of light and dark,4,340,20","I think this image looks ugly and needs more colors so it looks nicer.,-30,180,20","the mixed medium / collage annoys me,-19,260,20","Very interesting composition,41,200,20","Anthony","Very interesting composition,41,200,20","Andrew","It seems like there's anger in the painting.,-20,160,20","Blake","a hot fireplace with things to burn. warm,12,280,20","0"
"12490","","survey-text","159","614405","0.0-159.0-0.0","ATU582WJWMEL2","","","","{""Q0"":""War. Too DIY for me though""}","","","","","","","","","","","","","","","","","","","","","","",""
"2398.5","","image-slider-response","160","616804","0.0-160.0","ATU582WJWMEL2","","","","","8","","","","","","","","","","","","","","","","","","","","","",""
"3182","","image-button-response","161","621806","0.0-161.0","ATU582WJWMEL2","img_art/1.jpg","1","","","","","","","","","","","","","","","","","","","","","","","","",""
"469","","image-button-response","162","622277","0.0-162.0","ATU582WJWMEL2","img_art/1.jpg","0","","","","","","","","","","","","","","","","","","","","","","","","",""
"455","","image-button-response","163","622733","0.0-163.0-0.0","ATU582WJWMEL2","img_art/1.jpg","1","","","","","","","","","","","","","","","","","","","","","","","","",""
"3334","","image-button-response","164","626069","0.0-164.0-0.0","ATU582WJWMEL2","img_art/1.jpg","2","","","","","","","","","","","","","","","","","","","","","","","","",""
"null","","html-keyboard-response","165","627070","0.0-165.0","ATU582WJWMEL2","<p style=""font-size: 48px;"">+</p>","","","","","null","allTrialResponses","1000","1","17","img_art/1.jpg","8","War. Too DIY for me though","Blake,Andrew,Jake,Devin,Jordan,Anthony","colors that are fairly warm. its ok,8,280,20","Makes me think of a bad thunderstorm,11,160,20","This is ugly with bad colors.,-6,360,20","Quite messy looking,-22,380,20","I like the warmth of the picture,21,160,20","Bright and colorful without being overpowering,32,200,20","Blake","colors that are fairly warm. its ok,8,280,20","Andrew","Makes me think of a bad thunderstorm,11,160,20","Jake","This is ugly with bad colors.,-6,360,20","0"
"13970","","survey-text","166","641045","0.0-166.0-0.0","ATU582WJWMEL2","","","","{""Q0"":""Peacock soldiers. I just wish it were more clear and real looking""}","","","","","","","","","","","","","","","","","","","","","","",""
"2518.599999964237","","image-slider-response","167","643565","0.0-167.0","ATU582WJWMEL2","","","","","8","","","","","","","","","","","","","","","","","","","","","",""
"4831","","image-button-response","168","648567","0.0-168.0","ATU582WJWMEL2","img_art/15.jpg","3","","","","","","","","","","","","","","","","","","","","","","","","",""
"580","","image-button-response","169","649149","0.0-169.0","ATU582WJWMEL2","img_art/15.jpg","3","","","","","","","","","","","","","","","","","","","","","","","","",""
"1030","","image-button-response","170","650181","0.0-170.0-0.0","ATU582WJWMEL2","img_art/15.jpg","2","","","","","","","","","","","","","","","","","","","","","","","","",""
"1286","","image-button-response","171","651469","0.0-171.0-0.0","ATU582WJWMEL2","img_art/15.jpg","5","","","","","","","","","","","","","","","","","","","","","","","","",""
"null","","html-keyboard-response","172","651971","0.0-172.0","ATU582WJWMEL2","<p style=""font-size: 48px;"">+</p>","","","","","null","allTrialResponses","500","1","18","img_art/15.jpg","8","Peacock soldiers. I just wish it were more clear and real looking","Blake,Andrew,Jake,Brett,Christopher,Grant","ugly picture and don't like it,-22,280,20","The blues are soothing,21,160,20","This looks odd and was not well executed.,-3,360,20","I don't know how I feel about this,31,360,20","this is really pretty! i like the pops of blue in all the black,26,160,20","This elicits no reaction in me.,0,200,20","Brett","I don't know how I feel about this,31,360,20","Jake","This looks odd and was not well executed.,-3,360,20","Grant","This elicits no reaction in me.,0,200,20","0"
"12854","","survey-text","173","664829","0.0-173.0-0.0","ATU582WJWMEL2","","","","{""Q0"":""Really nice use of space. Lone figure. Just too basic for me""}","","","","","","","","","","","","","","","","","","","","","","",""
"1846.5999999642372","","image-slider-response","174","666677","0.0-174.0","ATU582WJWMEL2","","","","","14","","","","","","","","","","","","","","","","","","","","","",""
"4398","","image-button-response","175","671679","0.0-175.0","ATU582WJWMEL2","img_art/6.jpg","3","","","","","","","","","","","","","","","","","","","","","","","","",""
"1645","","image-button-response","176","673325","0.0-176.0","ATU582WJWMEL2","img_art/6.jpg","3","","","","","","","","","","","","","","","","","","","","","","","","",""
"902","","image-button-response","177","674229","0.0-177.0-0.0","ATU582WJWMEL2","img_art/6.jpg","2","","","","","","","","","","","","","","","","","","","","","","","","",""
"2503","","image-button-response","178","676733","0.0-178.0-0.0","ATU582WJWMEL2","img_art/6.jpg","0","","","","","","","","","","","","","","","","","","","","","","","","",""
"null","","html-keyboard-response","179","677235","0.0-179.0","ATU582WJWMEL2","<p style=""font-size: 48px;"">+</p>","","","","","null","allTrialResponses","500","1","19","img_art/6.jpg","14","Really nice use of space. Lone figure. Just too basic for me","John,Thomas,Jake,Brett,Robert,Grant","It makes me stop and think about what the artist is trying to say.It creates a feeling of solitude and tranqulity,30,120,20","I like the color and the gradient,10,220,20","It feels sad but it's nice to look at.,4,360,20","Reminds me of feeling incomplete,1,360,20","Nevermore!  A black raven sitting on a pumpkin. Halloween,-35,360,20","The limited colors make me feel lonely.,36,200,20","Brett","Reminds me of feeling incomplete,1,360,20","Jake","It feels sad but it's nice to look at.,4,360,20","John","It makes me stop and think about what the artist is trying to say.It creates a feeling of solitude and tranqulity,30,120,20","0"
"1079","","survey-text","180","678317","0.0-180.0-0.0","ATU582WJWMEL2","","","","{""Q0"":""""}","","","","","","","","","","","","","","","","","","","","","","",""
"9215","","survey-text","181","688701","0.0-180.1-0.1","ATU582WJWMEL2","","","","{""Q0"":""A bit boring. Gross colors. ""}","","","","","","","","","","","","","","","","","","","","","","",""
"2374.699999988079","","image-slider-response","182","691077","0.0-181.0","ATU582WJWMEL2","","","","","-7","","","","","","","","","","","","","","","","","","","","","",""
"null","","image-button-response","183","696079","0.0-182.0","ATU582WJWMEL2","img_art/22.jpg","null","","","","","","","","","","","","","","","","","","","","","","","","",""
"4364","","image-button-response","184","700445","0.0-183.0","ATU582WJWMEL2","img_art/22.jpg","5","","","","","","","","","","","","","","","","","","","","","","","","",""
"3158","","image-button-response","185","703605","0.0-184.0-0.0","ATU582WJWMEL2","img_art/22.jpg","2","","","","","","","","","","","","","","","","","","","","","","","","",""
"1382","","image-button-response","186","704989","0.0-185.0-0.0","ATU582WJWMEL2","img_art/22.jpg","0","","","","","","","","","","","","","","","","","","","","","","","","",""
"null","","html-keyboard-response","187","706491","0.0-186.0","ATU582WJWMEL2","<p style=""font-size: 48px;"">+</p>","","","","","null","allTrialResponses","1500","1","20","img_art/22.jpg","-7","A bit boring. Gross colors. ","John,Edward,Jake,Brett,Alex,Adam","Its okay,it doesnt make me feel any sort of strong emotion,1,120,20","I like the use of primary colors in an interesting way,29,60,20","It's bland and ugly.,-21,360,20","Climate change in a big city,35,360,20","Not a huge fan of the blocks, also very abstract, I have no idea what it is,8,100,20","Very generic mix of primary colors and shapes. Not a huge fan.,-10,40,20","Adam","Very generic mix of primary colors and shapes. Not a huge fan.,-10,40,20","Jake","It's bland and ugly.,-21,360,20","John","Its okay,it doesnt make me feel any sort of strong emotion,1,120,20","0"
"2049","","survey-text","188","708549","0.0-187.0-0.0","ATU582WJWMEL2","","","","{""Q0"":""we""}","","","","","","","","","","","","","","","","","","","","","","",""
"10934","","survey-text","189","719485","0.0-188.0-0.0","ATU582WJWMEL2","","","","{""Q0"":""Surface of the moon in autumn?""}","","","","","","","","","","","","","","","","","","","","","","",""
"1974.7000000476837","","image-slider-response","190","721461","0.0-189.0","ATU582WJWMEL2","","","","","10","","","","","","","","","","","","","","","","","","","","","",""
"null","","image-button-response","191","726464","0.0-190.0","ATU582WJWMEL2","img_art/7.jpg","null","","","","","","","","","","","","","","","","","","","","","","","","",""
"852","","image-button-response","192","727318","0.0-191.0","ATU582WJWMEL2","img_art/7.jpg","4","","","","","","","","","","","","","","","","","","","","","","","","",""
"501","","image-button-response","193","727821","0.0-192.0-0.0","ATU582WJWMEL2","img_art/7.jpg","3","","","","","","","","","","","","","","","","","","","","","","","","",""
"750","","image-button-response","194","728573","0.0-193.0-0.0","ATU582WJWMEL2","img_art/7.jpg","5","","","","","","","","","","","","","","","","","","","","","","","","",""
"null","","html-keyboard-response","195","729575","0.0-194.0","ATU582WJWMEL2","<p style=""font-size: 48px;"">+</p>","","","","","null","allTrialResponses","1000","1","21","img_art/7.jpg","10","Surface of the moon in autumn?","John,Trevor,Jake,Mitchell,Shane,Adam","It looks like someone took a picture of a muddy ground and called it art.,-41,120,20","looks like the surface of the moon,-28,280,20","This is vague and ugly.,-3,360,20","Looking through a microscope at the ground at a beach.,20,180,20","Dessert like almost like dry land,4,80,20","I like the earth tones here,5,40,20","Shane","Dessert like almost like dry land,4,80,20","Mitchell","Looking through a microscope at the ground at a beach.,20,180,20","Adam","I like the earth tones here,5,40,20","0"
"11593","","survey-text","196","741173","0.0-195.0-0.0","ATU582WJWMEL2","","","","{""Q0"":""Cool start but feels incomplete""}","","","","","","","","","","","","","","","","","","","","","","",""
"2222.5","","image-slider-response","197","743397","0.0-196.0","ATU582WJWMEL2","","","","","11","","","","","","","","","","","","","","","","","","","","","",""
"4102","","image-button-response","198","748399","0.0-197.0","ATU582WJWMEL2","img_art/5.jpg","4","","","","","","","","","","","","","","","","","","","","","","","","",""
"1515","","image-button-response","199","749917","0.0-198.0","ATU582WJWMEL2","img_art/5.jpg","4","","","","","","","","","","","","","","","","","","","","","","","","",""
"1030","","image-button-response","200","750949","0.0-199.0-0.0","ATU582WJWMEL2","img_art/5.jpg","2","","","","","","","","","","","","","","","","","","","","","","","","",""
"886","","image-button-response","201","751837","0.0-200.0-0.0","ATU582WJWMEL2","img_art/5.jpg","5","","","","","","","","","","","","","","","","","","","","","","","","",""
"null","","html-keyboard-response","202","752339","0.0-201.0","ATU582WJWMEL2","<p style=""font-size: 48px;"">+</p>","","","","","null","allTrialResponses","500","1","22","img_art/5.jpg","11","Cool start but feels incomplete","Bryan,Brandon,Logan,Mitchell,Shane,Adam","Looks like a yellow plastic trash bag.,-42,400,20","Kindergarten art. I really don't like this style.,-50,320,20","Just doesn't do a whole lot for me. I see Cinderellas broom,-11,360,20","Building remnants in the sand.,1,180,20","Seems clean and neat,11,80,20","Too loud. Dislike the bright yellow.,-5,40,20","Shane","Seems clean and neat,11,80,20","Logan","Just doesn't do a whole lot for me. I see Cinderellas broom,-11,360,20","Adam","Too loud. Dislike the bright yellow.,-5,40,20","0"
"20390","","survey-text","203","772732","0.0-202.0-0.0","ATU582WJWMEL2","","","","{""Q0"":""Nice primal ancient history style. It's a little too early picasso for me ""}","","","","","","","","","","","","","","","","","","","","","","",""
"3430.900000035763","","image-slider-response","204","776165","0.0-203.0","ATU582WJWMEL2","","","","","20","","","","","","","","","","","","","","","","","","","","","",""
"null","","image-button-response","205","781166","0.0-204.0","ATU582WJWMEL2","img_art/8.jpg","null","","","","","","","","","","","","","","","","","","","","","","","","",""
"2741","","image-button-response","206","783909","0.0-205.0","ATU582WJWMEL2","img_art/8.jpg","0","","","","","","","","","","","","","","","","","","","","","","","","",""
"2238","","image-button-response","207","786149","0.0-206.0-0.0","ATU582WJWMEL2","img_art/8.jpg","2","","","","","","","","","","","","","","","","","","","","","","","","",""
"1638","","image-button-response","208","787789","0.0-207.0-0.0","ATU582WJWMEL2","img_art/8.jpg","5","","","","","","","","","","","","","","","","","","","","","","","","",""
"null","","html-keyboard-response","209","788291","0.0-208.0","ATU582WJWMEL2","<p style=""font-size: 48px;"">+</p>","","","","","null","allTrialResponses","500","1","23","img_art/8.jpg","20","Nice primal ancient history style. It's a little too early picasso for me ","Jesse,Jesus,Logan,Jeremy,Shane,Adam","I like the definition and the strong lines. It makes me think of someone watching over the world,24,80,20","The different shapes are fun to look for.,30,100,20","a cute little cute with some protectors,25,360,20","Nervous like being up high,10,60,20","Ancient city looked after by diety,38,80,20","Eclectic city with good mix of colors.,10,40,20","Jesse","I like the definition and the strong lines. It makes me think of someone watching over the world,24,80,20","Logan","a cute little cute with some protectors,25,360,20","Adam","Eclectic city with good mix of colors.,10,40,20","0"
"11911","","survey-text","210","800205","0.0-209.0-0.0","ATU582WJWMEL2","","","","{""Q0"":""Just a boring depiction of nature""}","","","","","","","","","","","","","","","","","","","","","","",""
"2878.199999988079","","image-slider-response","211","803085","0.0-210.0","ATU582WJWMEL2","","","","","-24","","","","","","","","","","","","","","","","","","","","","",""
"null","","image-button-response","212","808086","0.0-211.0","ATU582WJWMEL2","img_art/24.jpg","null","","","","","","","","","","","","","","","","","","","","","","","","",""
"341","","image-button-response","213","808429","0.0-212.0","ATU582WJWMEL2","img_art/24.jpg","4","","","","","","","","","","","","","","","","","","","","","","","","",""
"1422","","image-button-response","214","809853","0.0-213.0-0.0","ATU582WJWMEL2","img_art/24.jpg","5","","","","","","","","","","","","","","","","","","","","","","","","",""
"3590","","image-button-response","215","813445","0.0-214.0-0.0","ATU582WJWMEL2","img_art/24.jpg","0","","","","","","","","","","","","","","","","","","","","","","","","",""
"null","","html-keyboard-response","216","813947","0.0-215.0","ATU582WJWMEL2","<p style=""font-size: 48px;"">+</p>","","","","","null","allTrialResponses","500","1","24","img_art/24.jpg","-24","Just a boring depiction of nature","Jesse,Dalton,Logan,Ryan,Gabriel,Adam","Love the colors and contrast. Feels peaceful.,33,80,20","i feel peace and wanting. i love waterfalls,50,300,20","brick wall waterfall girl you think you got it all,50,360,20","Beautiful,  peaceful,50,380,20","this one is just a bit too harsh,-13,160,20","I appreciate the earth tones. Soothing.,5,40,20","Gabriel","this one is just a bit too harsh,-13,160,20","Adam","I appreciate the earth tones. Soothing.,5,40,20","Jesse","Love the colors and contrast. Feels peaceful.,33,80,20","0"
"14933","","survey-text","217","828885","0.0-216.0-0.0","ATU582WJWMEL2","","","","{""Q0"":""I appreciate the idea but it isn't very impactful""}","","","","","","","","","","","","","","","","","","","","","","",""
"3822.600000023842","","image-slider-response","218","832709","0.0-217.0","ATU582WJWMEL2","","","","","15","","","","","","","","","","","","","","","","","","","","","",""
"null","","image-button-response","219","837711","0.0-218.0","ATU582WJWMEL2","img_art/23.jpg","null","","","","","","","","","","","","","","","","","","","","","","","","",""
"1516","","image-button-response","220","839229","0.0-219.0","ATU582WJWMEL2","img_art/23.jpg","5","","","","","","","","","","","","","","","","","","","","","","","","",""
"966","","image-button-response","221","840197","0.0-220.0-0.0","ATU582WJWMEL2","img_art/23.jpg","1","","","","","","","","","","","","","","","","","","","","","","","","",""
"238","","image-button-response","222","840437","0.0-221.0-0.0","ATU582WJWMEL2","img_art/23.jpg","2","","","","","","","","","","","","","","","","","","","","","","","","",""
"null","","html-keyboard-response","223","840938","0.0-222.0","ATU582WJWMEL2","<p style=""font-size: 48px;"">+</p>","","","","","null","allTrialResponses","500","1","25","img_art/23.jpg","15","I appreciate the idea but it isn't very impactful","Jesse,Scott,Alexis,Victor,Gabriel,Adam","Makes me want to stare at it for hours. Like there is something deeper to find.,37,80,20","reminds me of an album cover,36,20,20","It looks like a parade of musicians full of excitement. Makes me feel upbeat,33,140,20","I like the colors, the tiny dots, and the contrast between the white and background,28,340,20","i think this ones okay,10,160,20","I like the color contrast, though I'm unable to tell what the white shapes are.,25,40,20","Adam","I like the color contrast, though I'm unable to tell what the white shapes are.,25,40,20","Scott","reminds me of an album cover,36,20,20","Alexis","It looks like a parade of musicians full of excitement. Makes me feel upbeat,33,140,20","0"
"3140","","survey-text","224","844085","0.0-223.0-0.0","ATU582WJWMEL2","","","","{""Q0"":""table""}","","","","","","","","","","","","","","","","","","","","","","",""
"11535","","survey-text","225","855621","0.0-224.0-0.0","ATU582WJWMEL2","","","","{""Q0"":""I almost see a face. Very complex ""}","","","","","","","","","","","","","","","","","","","","","","",""
"3374.600000023842","","image-slider-response","226","858997","0.0-225.0","ATU582WJWMEL2","","","","","11","","","","","","","","","","","","","","","","","","","","","",""
"4686","","image-button-response","227","863999","0.0-226.0","ATU582WJWMEL2","img_art/2.jpg","3","","","","","","","","","","","","","","","","","","","","","","","","",""
"460","","image-button-response","228","864461","0.0-227.0","ATU582WJWMEL2","img_art/2.jpg","3","","","","","","","","","","","","","","","","","","","","","","","","",""
"494","","image-button-response","229","864957","0.0-228.0-0.0","ATU582WJWMEL2","img_art/2.jpg","4","","","","","","","","","","","","","","","","","","","","","","","","",""
"1470","","image-button-response","230","866429","0.0-229.0-0.0","ATU582WJWMEL2","img_art/2.jpg","0","","","","","","","","","","","","","","","","","","","","","","","","",""
"null","","html-keyboard-response","231","867430","0.0-230.0","ATU582WJWMEL2","<p style=""font-size: 48px;"">+</p>","","","","","null","allTrialResponses","1000","1","26","img_art/2.jpg","11","I almost see a face. Very complex ","Paul,Scott,Alexis,Cole,Ethan,Adam","I like the blue color in the center but that's it, the green is a gross color,-3,300,20","looks like a child's artwork,-40,20,20","The people look blurred together,-21,140,20","Childish smiley face,-19,200,20","This looks like a professional abstract drawing. I like the shapes.,7,120,20","Hate the vomit green.,-31,40,20","Cole","Childish smiley face,-19,200,20","Ethan","This looks like a professional abstract drawing. I like the shapes.,7,120,20","Paul","I like the blue color in the center but that's it, the green is a gross color,-3,300,20","0"
"10355","","survey-text","232","877788","0.0-231.0-0.0","ATU582WJWMEL2","","","","{""Q0"":""Cool contrast with an edgy childlike aspect""}","","","","","","","","","","","","","","","","","","","","","","",""
"1607","","image-slider-response","233","879397","0.0-232.0","ATU582WJWMEL2","","","","","14","","","","","","","","","","","","","","","","","","","","","",""
"null","","image-button-response","234","884399","0.0-233.0","ATU582WJWMEL2","img_art/27.jpg","null","","","","","","","","","","","","","","","","","","","","","","","","",""
"796","","image-button-response","235","885197","0.0-234.0","ATU582WJWMEL2","img_art/27.jpg","0","","","","","","","","","","","","","","","","","","","","","","","","",""
"1614","","image-button-response","236","886813","0.0-235.0-0.0","ATU582WJWMEL2","img_art/27.jpg","5","","","","","","","","","","","","","","","","","","","","","","","","",""
"342","","image-button-response","237","887157","0.0-236.0-0.0","ATU582WJWMEL2","img_art/27.jpg","4","","","","","","","","","","","","","","","","","","","","","","","","",""
"null","","html-keyboard-response","238","888659","0.0-237.0","ATU582WJWMEL2","<p style=""font-size: 48px;"">+</p>","","","","","null","allTrialResponses","1500","1","27","img_art/27.jpg","14","Cool contrast with an edgy childlike aspect","Paul,Evan,Patrick,Cole,Ethan,Spencer","It tries to remind me of the autumn season but it's grey and looks dirty,-5,300,20","I am bothered by the green doodles,-20,140,20","Not cohesive design,-31,280,20","Unfinished something?,-30,200,20","I like the layer upon layer of different mediums used here.,21,120,20","An attractive assortment of squiggles and colors,22,120,20","Paul","It tries to remind me of the autumn season but it's grey and looks dirty,-5,300,20","Spencer","An attractive assortment of squiggles and colors,22,120,20","Ethan","I like the layer upon layer of different mediums used here.,21,120,20","0"
"12053","","survey-text","239","900717","0.0-238.0-0.0","ATU582WJWMEL2","","","","{""Q0"":""It's a leviathan but also a violin? Awesome""}","","","","","","","","","","","","","","","","","","","","","","",""
"3870.2999999523163","","image-slider-response","240","904589","0.0-239.0","ATU582WJWMEL2","","","","","31","","","","","","","","","","","","","","","","","","","","","",""
"4591","","image-button-response","241","909590","0.0-240.0","ATU582WJWMEL2","img_art/10.jpg","0","","","","","","","","","","","","","","","","","","","","","","","","",""
"5021","","image-button-response","242","914613","0.0-241.0","ATU582WJWMEL2","img_art/10.jpg","5","","","","","","","","","","","","","","","","","","","","","","","","",""
"638","","image-button-response","243","915253","0.0-242.0-0.0","ATU582WJWMEL2","img_art/10.jpg","2","","","","","","","","","","","","","","","","","","","","","","","","",""
"750","","image-button-response","244","916005","0.0-243.0-0.0","ATU582WJWMEL2","img_art/10.jpg","1","","","","","","","","","","","","","","","","","","","","","","","","",""
"null","","html-keyboard-response","245","916506","0.0-244.0","ATU582WJWMEL2","<p style=""font-size: 48px;"">+</p>","","","","","null","allTrialResponses","500","1","28","img_art/10.jpg","31","It's a leviathan but also a violin? Awesome","Paul,Nicholas,Stephen,Corey,Ethan,Spencer","It doesn't look pleasing to the eye, it kind of looks like an animal but a dirty one,-38,300,20","I like it but do not love it. It is sort of depressing,13,240,20","Very nice painting, would like it more with different color choice.,6,140,20","I think this was going to be a guitar but then the artist got mad and gave up,-4,260,20","The flow of lines is off. There are curvy and straight angry lines. It's not flattering at all.,-27,120,20","Dark with no object, looks like experimentation, slightly like a storm on the ocean,-21,120,20","Spencer","Dark with no object, looks like experimentation, slightly like a storm on the ocean,-21,120,20","Stephen","Very nice painting, would like it more with different color choice.,6,140,20","Nicholas","I like it but do not love it. It is sort of depressing,13,240,20","0"
"14557","","survey-text","246","931069","0.0-245.0-0.0","ATU582WJWMEL2","","","","{""Q0"":""The sky cracking and bursting into abstraction""}","","","","","","","","","","","","","","","","","","","","","","",""
"2502.399999976158","","image-slider-response","247","933573","0.0-246.0","ATU582WJWMEL2","","","","","24","","","","","","","","","","","","","","","","","","","","","",""
"4590","","image-button-response","248","938575","0.0-247.0","ATU582WJWMEL2","img_art/11.jpg","4","","","","","","","","","","","","","","","","","","","","","","","","",""
"844","","image-button-response","249","939421","0.0-248.0","ATU582WJWMEL2","img_art/11.jpg","4","","","","","","","","","","","","","","","","","","","","","","","","",""
"1094","","image-button-response","250","940517","0.0-249.0-0.0","ATU582WJWMEL2","img_art/11.jpg","3","","","","","","","","","","","","","","","","","","","","","","","","",""
"2414","","image-button-response","251","942933","0.0-250.0-0.0","ATU582WJWMEL2","img_art/11.jpg","5","","","","","","","","","","","","","","","","","","","","","","","","",""
"null","","html-keyboard-response","252","944434","0.0-251.0","ATU582WJWMEL2","<p style=""font-size: 48px;"">+</p>","","","","","null","allTrialResponses","1500","1","29","img_art/11.jpg","24","The sky cracking and bursting into abstraction","Cody,Nicholas,Stephen,Benjamin,Zachary,Spencer","Pretty, interesting, feels like a city, feels like home,50,180,20","Love the colors and flow,50,240,20","Very good use of colors,44,140,20","Look like it's in constant movement.,10,260,20","Makes me think of a futuristic scene of vehicles flying in the sky in a city.,36,400,20","Even with the colors, it is dreary to me,-32,120,20","Zachary","Makes me think of a futuristic scene of vehicles flying in the sky in a city.,36,400,20","Benjamin","Look like it's in constant movement.,10,260,20","Spencer","Even with the colors, it is dreary to me,-32,120,20","0"
"9430","","survey-text","253","953869","0.0-252.0-0.0","ATU582WJWMEL2","","","","{""Q0"":""Love how the colors are muted and blurred""}","","","","","","","","","","","","","","","","","","","","","","",""
"1686.699999988079","","image-slider-response","254","955557","0.0-253.0","ATU582WJWMEL2","","","","","10","","","","","","","","","","","","","","","","","","","","","",""
"3806","","image-button-response","255","960559","0.0-254.0","ATU582WJWMEL2","img_art/21.jpg","4","","","","","","","","","","","","","","","","","","","","","","","","",""
"284","","image-button-response","256","960845","0.0-255.0","ATU582WJWMEL2","img_art/21.jpg","4","","","","","","","","","","","","","","","","","","","","","","","","",""
"342","","image-button-response","257","961189","0.0-256.0-0.0","ATU582WJWMEL2","img_art/21.jpg","5","","","","","","","","","","","","","","","","","","","","","","","","",""
"566","","image-button-response","258","961757","0.0-257.0-0.0","ATU582WJWMEL2","img_art/21.jpg","0","","","","","","","","","","","","","","","","","","","","","","","","",""
"null","","html-keyboard-response","259","963258","0.0-258.0","ATU582WJWMEL2","<p style=""font-size: 48px;"">+</p>","","","","","null","allTrialResponses","1500","1","30","img_art/21.jpg","10","Love how the colors are muted and blurred","Daniel,Colton,Steven,Benjamin,Zachary,Spencer","Nice asymmetry with maritime colors city meets the sea,34,320,20","i enjoy the clash of colors, reminds me of a storm at sea,32,220,20","Okay, I love the color schemes, I can't quite figure it out though,14,160,20","sunset after the rain,49,260,20","Looks like a body of water during a sunset. I like this piece.,21,400,20","Love the colors, uplifting and stormy at the same time,32,120,20","Zachary","Looks like a body of water during a sunset. I like this piece.,21,400,20","Spencer","Love the colors, uplifting and stormy at the same time,32,120,20","Daniel","Nice asymmetry with maritime colors city meets the sea,34,320,20","0"
"15014","","image-button-response_instructions","260","978277","0.0-259.0","ATU582WJWMEL2","","0","instructions","","","","","","","","","","","","","","","","","","","","","","","",""
"1044","","image-button-response","261","979325","0.0-260.0","ATU582WJWMEL2","","0","","","","","","","","","","","","","","","","","","","","","","","","",""
